timestamp_ns,t_s,sensor_id,ax,ay,az,gx,gy,gz
5241460999821,0.059808802,1,0.23822306518554687,1.687912170410156,-11.170147845458983,-1.16793893129771,0.7862595419847328,-1.9694656488549618
5241465892790,0.064701771,1,0.23104046020507812,1.7130512878417967,-11.21084927368164,-0.8015267175572519,0.5725190839694656,-1.282442748091603
5241470894301,0.069703282,1,0.23702596435546874,1.763329522705078,-11.154585534667968,-0.7175572519083969,0.5267175572519084,-1.3053435114503817
5241475897738,0.074706719,1,0.2609679809570312,1.7274164978027342,-11.208455072021483,-0.7633587786259542,0.5801526717557252,-1.366412213740458
5241480891748,0.079700729,1,0.23702596435546874,1.7681179260253905,-11.201272467041015,-0.7709923664122137,0.5190839694656488,-1.2900763358778626
5241485890082,0.084699063,1,0.24660277099609373,1.6891092712402342,-11.146205828857422,-0.8473282442748091,0.6793893129770993,-1.282442748091603
5241490890030,0.089699011,1,0.21068974609375,1.7214309936523438,-11.231199987792968,-0.8702290076335878,0.6717557251908397,-1.3511450381679388
5241495887894,0.094696875,1,0.17956512451171874,1.7453730102539062,-11.208455072021483,-0.7404580152671756,0.5725190839694656,-1.3587786259541985
5241500890238,0.099699219,1,0.18076222534179687,1.7417817077636717,-11.179724652099608,-0.8015267175572519,0.4732824427480916,-1.3206106870229009
5241505890290,0.104699271,1,0.22864625854492185,1.7369933044433592,-11.235988391113281,-0.8244274809160306,0.6335877862595419,-1.3206106870229009
5241510888676,0.109697657,1,0.21906945190429686,1.7549498168945312,-11.212046374511718,-0.7862595419847328,0.5725190839694656,-1.366412213740458
5241515887946,0.114696927,1,0.22505495605468748,1.7573440185546874,-11.240776794433593,-0.7938931297709924,0.5419847328244275,-1.3587786259541985
5241520889092,0.119698073,1,0.24899697265624998,1.7094599853515624,-11.156979736328124,-0.7557251908396947,0.5038167938931297,-1.282442748091603
5241525889196,0.124698177,1,0.23822306518554687,1.714248388671875,-11.206060870361327,-0.8549618320610687,0.6106870229007634,-1.251908396946565
5241530889405,0.129698386,1,0.20829554443359374,1.7669208251953124,-11.190498559570312,-0.8320610687022901,0.549618320610687,-1.3511450381679388
5241535887634,0.134696615,1,0.21428104858398436,1.7669208251953124,-11.209652172851563,-0.8931297709923665,0.5954198473282443,-1.4122137404580153
5241540888884,0.139697865,1,0.17118541870117188,1.7609353210449217,-11.146205828857422,-0.7251908396946565,0.5190839694656488,-1.3358778625954197
5241545888467,0.144697448,1,0.22505495605468748,1.744175909423828,-11.15338843383789,-0.8473282442748091,0.4580152671755725,-1.3358778625954197
5241550889561,0.149698542,1,0.21068974609375,1.7597382202148437,-11.177330450439452,-0.8702290076335878,0.6183206106870229,-1.3282442748091603
5241555886905,0.154695886,1,0.2693476867675781,1.7417817077636717,-11.21084927368164,-0.8015267175572519,0.5190839694656488,-1.3282442748091603
5241560889040,0.159698021,1,0.21308394775390624,1.744175909423828,-11.162965240478515,-0.8244274809160306,0.4122137404580153,-1.366412213740458
5241565889405,0.164698386,1,0.2442085693359375,1.7357962036132812,-11.121066711425781,-0.8702290076335878,0.5648854961832062,-1.297709923664122
5241570889301,0.169698282,1,0.2693476867675781,1.7202338928222656,-11.23000288696289,-0.8015267175572519,0.5419847328244275,-1.3206106870229009
5241575887738,0.174696719,1,0.2346317626953125,1.7322049011230467,-11.166556542968749,-0.816793893129771,0.5038167938931297,-1.2748091603053435
5241580890394,0.179699375,1,0.21428104858398436,1.7717092285156248,-11.19169566040039,-0.7557251908396947,0.549618320610687,-1.3893129770992367
5241585889769,0.18469875,1,0.20949264526367187,1.7693150268554687,-11.150994232177734,-0.8396946564885496,0.6870229007633588,-1.282442748091603
5241590889040,0.189698021,1,0.20470424194335937,1.7178396911621092,-11.221623181152344,-0.8091603053435115,0.5801526717557252,-1.2595419847328244
5241595887061,0.194696042,1,0.239420166015625,1.7693150268554687,-11.186907257080078,-0.7480916030534351,0.6106870229007634,-1.3740458015267176
5241600889561,0.199698542,1,0.239420166015625,1.7190367919921874,-11.218031878662108,-0.7862595419847328,0.5419847328244275,-1.3893129770992367
5241605889248,0.204698229,1,0.23822306518554687,1.7573440185546874,-11.135431921386719,-0.7709923664122137,0.4732824427480916,-1.3893129770992367
5241610888832,0.209697813,1,0.22385785522460935,1.7238251953125,-11.167753643798827,-0.8473282442748091,0.6030534351145038,-1.282442748091603
5241615888051,0.214697032,1,0.22385785522460935,1.7274164978027342,-11.209652172851563,-0.816793893129771,0.6106870229007634,-1.282442748091603
5241620889248,0.219698229,1,0.25139117431640623,1.7561469177246092,-11.207257971191405,-0.8396946564885496,0.6412213740458015,-1.3282442748091603
5241625889301,0.224698282,1,0.24181436767578124,1.7405846069335937,-11.21084927368164,-0.7862595419847328,0.5572519083969466,-1.3435114503816794
5241630889353,0.229698334,1,0.181959326171875,1.7705121276855467,-11.232397088623046,-0.8702290076335878,0.6106870229007634,-1.2671755725190839
5241635888155,0.234697136,1,0.21308394775390624,1.7106570861816406,-11.159373937988281,-0.8549618320610687,0.5877862595419847,-1.251908396946565
5241640889509,0.23969849,1,0.23582886352539062,1.7130512878417967,-11.165359442138671,-0.7938931297709924,0.5343511450381679,-1.2671755725190839
5241645889457,0.244698438,1,0.2693476867675781,1.715445489501953,-11.105504400634764,-0.7404580152671756,0.6030534351145038,-1.2366412213740459
5241650888884,0.249697865,1,0.239420166015625,1.7082628845214842,-11.165359442138671,-0.8549618320610687,0.5954198473282443,-1.2748091603053435
5241655887373,0.254696354,1,0.2537853759765625,1.763329522705078,-11.180921752929686,-0.8091603053435115,0.6183206106870229,-1.450381679389313
5241660887790,0.259696771,1,0.258573779296875,1.7298106994628906,-11.104307299804686,-0.7786259541984732,0.6412213740458015,-1.3053435114503817
5241665889769,0.26469875,1,0.19033903198242186,1.734599102783203,-11.158176837158203,-0.7709923664122137,0.5725190839694656,-1.2900763358778626
5241670888571,0.269697552,1,0.2154781494140625,1.7429788085937499,-11.21084927368164,-0.9236641221374046,0.5267175572519084,-1.3435114503816794
5241675887582,0.274696563,1,0.2346317626953125,1.7130512878417967,-11.166556542968749,-0.9083969465648855,0.6106870229007634,-1.3511450381679388
5241680890082,0.279699063,1,0.19153613281249998,1.7190367919921874,-11.206060870361327,-0.7786259541984732,0.6259541984732825,-1.3435114503816794
5241685889978,0.284698959,1,0.1927332336425781,1.7034744812011717,-11.125855114746093,-0.8396946564885496,0.549618320610687,-1.2671755725190839
5241690888832,0.289697813,1,0.19632453613281248,1.687912170410156,-11.124658013916015,-0.9083969465648855,0.5877862595419847,-1.2442748091603053
5241695887790,0.294696771,1,0.21068974609375,1.7334020019531249,-11.121066711425781,-0.8702290076335878,0.5267175572519084,-1.282442748091603
5241700888936,0.299697917,1,0.24779987182617186,1.7202338928222656,-11.13423482055664,-0.7786259541984732,0.5877862595419847,-1.3282442748091603
5241705888988,0.304697969,1,0.1867477294921875,1.7393875061035156,-11.203666668701171,-0.816793893129771,0.42748091603053434,-1.3129770992366412
5241710889353,0.309698334,1,0.24181436767578124,1.7262193969726563,-11.17852755126953,-0.816793893129771,0.5877862595419847,-1.282442748091603
5241715887321,0.314696302,1,0.22505495605468748,1.7166425903320313,-11.165359442138671,-0.8396946564885496,0.6183206106870229,-1.3206106870229009
5241720888884,0.319697865,1,0.24660277099609373,1.7226280944824217,-11.16057103881836,-0.8015267175572519,0.5954198473282443,-1.3358778625954197
5241725888623,0.324697604,1,0.17956512451171874,1.7010802795410156,-11.183315954589844,-0.7175572519083969,0.5038167938931297,-1.3053435114503817
5241730889040,0.329698021,1,0.239420166015625,1.7106570861816406,-11.221623181152344,-0.8549618320610687,0.5572519083969466,-1.2671755725190839
5241735886696,0.334695677,1,0.22744915771484372,1.7118541870117185,-11.164162341308593,-0.9847328244274809,0.5725190839694656,-1.3358778625954197
5241740896123,0.339705104,1,0.23104046020507812,1.7322049011230467,-11.111489904785156,-0.7786259541984732,0.5343511450381679,-1.3587786259541985
5241745891332,0.344700313,1,0.23104046020507812,1.715445489501953,-11.152191333007812,-0.7175572519083969,0.5190839694656488,-1.2900763358778626
5241750889248,0.349698229,1,0.2454056701660156,1.6998831787109374,-11.155782635498046,-0.8702290076335878,0.5114503816793893,-1.3129770992366412
5241755887269,0.35469625,1,0.28371289672851563,1.7202338928222656,-11.196484063720703,-0.8625954198473282,0.648854961832061,-1.297709923664122
5241760889248,0.359698229,1,0.22864625854492185,1.7417817077636717,-11.113884106445312,-0.9007633587786259,0.6335877862595419,-1.2366412213740459
5241765888728,0.364697709,1,0.20709844360351562,1.7202338928222656,-11.142614526367186,-0.816793893129771,0.5343511450381679,-1.3053435114503817
5241770889248,0.369698229,1,0.22505495605468748,1.7118541870117185,-11.202469567871093,-0.8320610687022901,0.5419847328244275,-1.2748091603053435
5241775887998,0.374696979,1,0.24660277099609373,1.7369933044433592,-11.221623181152344,-0.8396946564885496,0.549618320610687,-1.297709923664122
5241780888884,0.379697865,1,0.23582886352539062,1.6938976745605467,-11.204863769531249,-0.8625954198473282,0.5954198473282443,-1.3740458015267176
5241785889300,0.384698281,1,0.20709844360351562,1.7262193969726563,-11.189301458740234,-0.7938931297709924,0.5267175572519084,-1.4122137404580153
5241790889978,0.389698959,1,0.24301146850585936,1.68551796875,-11.155782635498046,-0.8320610687022901,0.5954198473282443,-1.3587786259541985
5241795887217,0.394696198,1,0.258573779296875,1.7310078002929687,-11.131840618896483,-0.8320610687022901,0.6106870229007634,-1.3206106870229009
5241800889457,0.399698438,1,0.2166752502441406,1.7310078002929687,-11.159373937988281,-0.816793893129771,0.5572519083969466,-1.2900763358778626
5241805889144,0.404698125,1,0.23104046020507812,1.7597382202148437,-11.159373937988281,-0.8931297709923665,0.5038167938931297,-1.3435114503816794
5241810888988,0.409697969,1,0.26216508178710934,1.7405846069335937,-11.176133349609374,-0.7251908396946565,0.5419847328244275,-1.2442748091603053
5241815886592,0.414695573,1,0.2059013427734375,1.6998831787109374,-11.107898602294922,-0.8091603053435115,0.6412213740458015,-1.2900763358778626
5241820888988,0.419697969,1,0.24181436767578124,1.7274164978027342,-11.174936248779296,-0.8625954198473282,0.48091603053435117,-1.3587786259541985
5241825888936,0.424697917,1,0.22266075439453123,1.7597382202148437,-11.152191333007812,-0.7862595419847328,0.5419847328244275,-1.3358778625954197
5241830887478,0.429696459,1,0.21188684692382811,1.7082628845214842,-11.170147845458983,-0.7862595419847328,0.5267175572519084,-1.3435114503816794
5241835886696,0.434695677,1,0.24301146850585936,1.7166425903320313,-11.209652172851563,-0.8244274809160306,0.5114503816793893,-1.2748091603053435
5241840888519,0.4396975,1,0.26336218261718747,1.7453730102539062,-11.14022032470703,-0.7175572519083969,0.5877862595419847,-1.3587786259541985
5241845888415,0.444697396,1,0.23343466186523437,1.7214309936523438,-11.16057103881836,-0.7175572519083969,0.5419847328244275,-1.2290076335877862
5241850888259,0.44969724,1,0.21787235107421873,1.7334020019531249,-11.184513055419922,-0.8931297709923665,0.4732824427480916,-1.3358778625954197
5241855886644,0.454695625,1,0.28490999755859375,1.7034744812011717,-11.174936248779296,-0.8473282442748091,0.5725190839694656,-1.3206106870229009
5241860889144,0.459698125,1,0.22505495605468748,1.7082628845214842,-11.164162341308593,-0.8473282442748091,0.5267175572519084,-1.3511450381679388
5241865888727,0.464697708,1,0.22266075439453123,1.734599102783203,-11.240776794433593,-0.7786259541984732,0.5190839694656488,-1.2595419847328244
5241870889457,0.469698438,1,0.2166752502441406,1.7238251953125,-11.161768139648437,-0.8854961832061069,0.5267175572519084,-1.3206106870229009
5241875887477,0.474696458,1,0.1592144104003906,1.7274164978027342,-11.234791290283203,-0.9770992366412213,0.6335877862595419,-1.3206106870229009
5241880889405,0.479698386,1,0.2537853759765625,1.7238251953125,-11.227608685302734,-0.7938931297709924,0.5877862595419847,-1.2748091603053435
5241885889717,0.484698698,1,0.22744915771484372,1.7621324218749999,-11.200075366210937,-0.7786259541984732,0.6106870229007634,-1.2900763358778626
5241890888623,0.489697604,1,0.21906945190429686,1.7429788085937499,-11.225214483642578,-0.7862595419847328,0.5267175572519084,-1.3206106870229009
5241895887269,0.49469625,1,0.20709844360351562,1.7525556152343749,-11.219228979492186,-0.8396946564885496,0.5343511450381679,-1.3435114503816794
5241900888832,0.499697813,1,0.2262520568847656,1.7513585144042967,-11.188104357910156,-0.8244274809160306,0.5648854961832062,-1.3358778625954197
5241905889457,0.504698438,1,0.22505495605468748,1.705868682861328,-11.162965240478515,-0.7557251908396947,0.5114503816793893,-1.3969465648854962
5241910889457,0.509698438,1,0.23822306518554687,1.7202338928222656,-11.136629022216797,-0.9312977099236641,0.5572519083969466,-1.3435114503816794
5241915884613,0.514693594,1,0.258573779296875,1.7178396911621092,-11.136629022216797,-0.816793893129771,0.5801526717557252,-1.3435114503816794
5241920889665,0.519698646,1,0.18555062866210936,1.7118541870117185,-11.189301458740234,-0.8015267175572519,0.5877862595419847,-1.3511450381679388
5241925889144,0.524698125,1,0.2262520568847656,1.7166425903320313,-11.201272467041015,-0.7938931297709924,0.4732824427480916,-1.3893129770992367
5241930888988,0.529697969,1,0.258573779296875,1.7022773803710936,-11.158176837158203,-0.816793893129771,0.6030534351145038,-1.3282442748091603
5241935887165,0.534696146,1,0.2765302917480469,1.7621324218749999,-11.174936248779296,-0.9236641221374046,0.5267175572519084,-1.2671755725190839
5241940888623,0.539697604,1,0.239420166015625,1.7118541870117185,-11.165359442138671,-0.8473282442748091,0.5114503816793893,-1.3129770992366412
5241945889300,0.544698281,1,0.17477672119140625,1.7525556152343749,-11.146205828857422,-0.8473282442748091,0.5343511450381679,-1.282442748091603
5241950888988,0.549697969,1,0.20470424194335937,1.7178396911621092,-11.250353601074218,-0.7022900763358778,0.5648854961832062,-1.3740458015267176
5241955886644,0.554695625,1,0.25258827514648435,1.7286135986328124,-11.215637677001952,-0.8702290076335878,0.5114503816793893,-1.3587786259541985
5241960888207,0.559697188,1,0.2549824768066406,1.7094599853515624,-11.2240173828125,-0.8625954198473282,0.5572519083969466,-1.3435114503816794
5241965889352,0.564698333,1,0.24301146850585936,1.7022773803710936,-11.235988391113281,-0.8549618320610687,0.549618320610687,-1.3206106870229009
5241970888884,0.569697865,1,0.1975216369628906,1.7860744384765623,-11.189301458740234,-0.8549618320610687,0.5648854961832062,-1.3129770992366412
5241975887373,0.574696354,1,0.2214636535644531,1.7597382202148437,-11.117475408935546,-0.9083969465648855,0.5801526717557252,-1.3740458015267176
5241980889144,0.579698125,1,0.22744915771484372,1.7310078002929687,-11.200075366210937,-0.8549618320610687,0.5954198473282443,-1.3282442748091603
5241985888988,0.584697969,1,0.2537853759765625,1.70467158203125,-11.219228979492186,-0.7709923664122137,0.5801526717557252,-1.2061068702290076
5241990889040,0.589698021,1,0.24779987182617186,1.734599102783203,-11.161768139648437,-0.6717557251908397,0.6106870229007634,-1.2748091603053435
5241995886957,0.594695938,1,0.21428104858398436,1.7130512878417967,-11.176133349609374,-0.732824427480916,0.5648854961832062,-1.282442748091603
5242000888259,0.59969724,1,0.24660277099609373,1.715445489501953,-11.159373937988281,-0.8702290076335878,0.6106870229007634,-1.366412213740458
5242005910602,0.604719583,1,0.21308394775390624,1.7310078002929687,-11.136629022216797,-0.8015267175572519,0.6641221374045801,-1.297709923664122
5242010894509,0.60970349,1,0.23343466186523437,1.7405846069335937,-11.21084927368164,-0.7709923664122137,0.6717557251908397,-1.2671755725190839
5242015888259,0.61469724,1,0.1867477294921875,1.7166425903320313,-11.196484063720703,-0.7480916030534351,0.5877862595419847,-1.3587786259541985
5242020891540,0.619700521,1,0.24061726684570311,1.7705121276855467,-11.213243475341796,-0.7633587786259542,0.5572519083969466,-1.381679389312977
5242025889248,0.624698229,1,0.2442085693359375,1.7214309936523438,-11.2240173828125,-0.816793893129771,0.6335877862595419,-1.3511450381679388
5242030887842,0.629696823,1,0.24779987182617186,1.734599102783203,-11.154585534667968,-0.7709923664122137,0.6030534351145038,-1.282442748091603
5242035887842,0.634696823,1,0.22026655273437498,1.7118541870117185,-11.194089862060546,-0.8778625954198473,0.5725190839694656,-1.3053435114503817
5242040889873,0.639698854,1,0.26336218261718747,1.7609353210449217,-11.139023223876952,-0.7633587786259542,0.648854961832061,-1.297709923664122
5242045888571,0.644697552,1,0.24301146850585936,1.7465701110839842,-11.146205828857422,-0.8015267175572519,0.6106870229007634,-1.4427480916030535
5242050889196,0.649698177,1,0.15682020874023436,1.7393875061035156,-11.131840618896483,-0.7709923664122137,0.5877862595419847,-1.2671755725190839
5242055885550,0.654694531,1,0.16639701538085935,1.7429788085937499,-11.145008728027342,-0.8015267175572519,0.4961832061068702,-1.366412213740458
5242060889613,0.659698594,1,0.2154781494140625,1.7465701110839842,-11.197681164550781,-0.8778625954198473,0.6106870229007634,-1.366412213740458
5242065888780,0.664697761,1,0.20709844360351562,1.7513585144042967,-11.158176837158203,-0.8244274809160306,0.5648854961832062,-1.366412213740458
5242070888988,0.669697969,1,0.18315642700195311,1.7298106994628906,-11.189301458740234,-0.816793893129771,0.48854961832061067,-1.3206106870229009
5242075887842,0.674696823,1,0.2609679809570312,1.707065783691406,-11.124658013916015,-0.8854961832061069,0.5190839694656488,-1.3282442748091603
5242080888259,0.67969724,1,0.25737667846679685,1.7286135986328124,-11.245565197753905,-0.9694656488549618,0.5572519083969466,-1.2595419847328244
5242085888519,0.6846975,1,0.17477672119140625,1.7322049011230467,-11.164162341308593,-0.6870229007633588,0.5801526717557252,-1.3206106870229009
5242090888675,0.689697656,1,0.2501940734863281,1.7549498168945312,-11.152191333007812,-0.7251908396946565,0.5877862595419847,-1.2366412213740459
5242095887009,0.69469599,1,0.27174188842773433,1.7693150268554687,-11.130643518066405,-0.8549618320610687,0.5343511450381679,-1.2366412213740459
5242100888832,0.699697813,1,0.1927332336425781,1.7597382202148437,-11.190498559570312,-0.8625954198473282,0.6030534351145038,-1.3206106870229009
5242105888415,0.704697396,1,0.20949264526367187,1.7274164978027342,-11.130643518066405,-0.8320610687022901,0.5038167938931297,-1.3435114503816794
5242110888467,0.709697448,1,0.22744915771484372,1.705868682861328,-11.206060870361327,-0.7786259541984732,0.5877862595419847,-1.3206106870229009
5242115886592,0.714695573,1,0.22026655273437498,1.7657237243652342,-11.162965240478515,-0.7633587786259542,0.5343511450381679,-1.297709923664122
5242120888259,0.71969724,1,0.17836802368164062,1.7130512878417967,-11.176133349609374,-0.8778625954198473,0.6183206106870229,-1.2595419847328244
5242125889352,0.724698333,1,0.1927332336425781,1.7549498168945312,-11.174936248779296,-0.7862595419847328,0.6183206106870229,-1.2595419847328244
5242130886852,0.729695833,1,0.25258827514648435,1.7776947326660155,-11.209652172851563,-0.8091603053435115,0.5648854961832062,-1.297709923664122
5242135887425,0.734696406,1,0.2885013000488281,1.7286135986328124,-11.165359442138671,-0.9083969465648855,0.5572519083969466,-1.3129770992366412
5242140888884,0.739697865,1,0.23104046020507812,1.725022296142578,-11.233594189453123,-0.916030534351145,0.5725190839694656,-1.381679389312977
5242145889404,0.744698385,1,0.24181436767578124,1.678335363769531,-11.155782635498046,-0.8396946564885496,0.5648854961832062,-1.3587786259541985
5242150889300,0.749698281,1,0.26695348510742184,1.7298106994628906,-11.128249316406249,-0.7938931297709924,0.5114503816793893,-1.297709923664122
5242155886852,0.754695833,1,0.2214636535644531,1.707065783691406,-11.200075366210937,-0.8396946564885496,0.6183206106870229,-1.3282442748091603
5242160888311,0.759697292,1,0.24061726684570311,1.7094599853515624,-11.188104357910156,-0.8702290076335878,0.5572519083969466,-1.2748091603053435
5242165888727,0.764697708,1,0.2813186950683594,1.753752716064453,-11.146205828857422,-0.8473282442748091,0.5114503816793893,-1.2900763358778626
5242170888363,0.769697344,1,0.2537853759765625,1.7178396911621092,-11.19169566040039,-0.8549618320610687,0.5114503816793893,-1.3893129770992367
5242175888154,0.774697135,1,0.2262520568847656,1.6771382629394531,-11.19887826538086,-0.8473282442748091,0.6335877862595419,-1.282442748091603
5242180888519,0.7796975,1,0.22864625854492185,1.7705121276855467,-11.170147845458983,-0.7786259541984732,0.7480916030534351,-1.3129770992366412
5242185888675,0.784697656,1,0.2214636535644531,1.7094599853515624,-11.161768139648437,-0.8244274809160306,0.5725190839694656,-1.2366412213740459
5242190889717,0.789698698,1,0.2609679809570312,1.7525556152343749,-11.150994232177734,-0.7633587786259542,0.5343511450381679,-1.297709923664122
5242195886852,0.794695833,1,0.2549824768066406,1.7262193969726563,-11.208455072021483,-0.8091603053435115,0.48091603053435117,-1.4045801526717556
5242200888415,0.799697396,1,0.2059013427734375,1.7238251953125,-11.186907257080078,-0.8854961832061069,0.5954198473282443,-1.3206106870229009
5242205889092,0.804698073,1,0.2657563842773437,1.7381904052734374,-11.171344946289063,-0.8396946564885496,0.6183206106870229,-1.381679389312977
5242210889040,0.809698021,1,0.229843359375,1.715445489501953,-11.129446417236327,-0.8091603053435115,0.5419847328244275,-1.2595419847328244
5242215886800,0.814695781,1,0.23822306518554687,1.6843208679199217,-11.166556542968749,-0.8702290076335878,0.5648854961832062,-1.3206106870229009
5242220889144,0.819698125,1,0.22026655273437498,1.7214309936523438,-11.158176837158203,-0.9236641221374046,0.6259541984732825,-1.3282442748091603
5242225888832,0.824697813,1,0.24660277099609373,1.7381904052734374,-11.1474029296875,-0.8625954198473282,0.5801526717557252,-1.3206106870229009
5242230888779,0.82969776,1,0.23582886352539062,1.7214309936523438,-11.201272467041015,-0.7480916030534351,0.5572519083969466,-1.2900763358778626
5242235886852,0.834695833,1,0.22266075439453123,1.7357962036132812,-11.137826123046874,-0.8244274809160306,0.5801526717557252,-1.3053435114503817
5242240888571,0.839697552,1,0.2059013427734375,1.7010802795410156,-11.189301458740234,-0.8854961832061069,0.5114503816793893,-1.3129770992366412
5242245889248,0.844698229,1,0.23104046020507812,1.7405846069335937,-11.19169566040039,-0.8244274809160306,0.549618320610687,-1.3969465648854962
5242250888259,0.84969724,1,0.2609679809570312,1.7178396911621092,-11.19169566040039,-0.7709923664122137,0.5343511450381679,-1.381679389312977
5242255887634,0.854696615,1,0.19393033447265623,1.7034744812011717,-11.173739147949219,-0.8396946564885496,0.5572519083969466,-1.3282442748091603
5242260888779,0.85969776,1,0.19033903198242186,1.7310078002929687,-11.13423482055664,-0.8244274809160306,0.6030534351145038,-1.3511450381679388
5242265888311,0.864697292,1,0.20231004028320312,1.7453730102539062,-11.19887826538086,-0.8244274809160306,0.6183206106870229,-1.3740458015267176
5242270889404,0.869698385,1,0.2059013427734375,1.7238251953125,-11.098321795654297,-0.7786259541984732,0.5877862595419847,-1.3053435114503817
5242275886540,0.874695521,1,0.23582886352539062,1.8028338500976562,-11.179724652099608,-0.8396946564885496,0.5725190839694656,-1.2900763358778626
5242280889196,0.879698177,1,0.21308394775390624,1.7788918334960937,-11.14022032470703,-0.9389312977099237,0.5801526717557252,-1.3129770992366412
5242285889717,0.884698698,1,0.20829554443359374,1.687912170410156,-11.240776794433593,-0.8702290076335878,0.6717557251908397,-1.297709923664122
5242290888936,0.889697917,1,0.22864625854492185,1.7465701110839842,-11.124658013916015,-0.7251908396946565,0.5954198473282443,-1.282442748091603
5242295887165,0.894696146,1,0.2753331909179687,1.6819266662597656,-11.180921752929686,-0.8091603053435115,0.5343511450381679,-1.2748091603053435
5242300891540,0.899700521,1,0.23343466186523437,1.6938976745605467,-11.179724652099608,-0.8473282442748091,0.5648854961832062,-1.2290076335877862
5242305892113,0.904701094,1,0.277727392578125,1.7226280944824217,-11.202469567871093,-0.9007633587786259,0.6641221374045801,-1.3740458015267176
5242310888779,0.90969776,1,0.23223756103515625,1.7178396911621092,-11.206060870361327,-0.7251908396946565,0.5648854961832062,-1.3053435114503817
5242315887425,0.914696406,1,0.23223756103515625,1.7393875061035156,-11.227608685302734,-0.8091603053435115,0.6106870229007634,-1.3053435114503817
5242320888779,0.91969776,1,0.2645592834472656,1.7202338928222656,-11.232397088623046,-0.9236641221374046,0.5725190839694656,-1.3358778625954197
5242325889196,0.924698177,1,0.19153613281249998,1.8064251525878905,-11.208455072021483,-0.9312977099236641,0.5572519083969466,-1.3053435114503817
5242330888259,0.92969724,1,0.201112939453125,1.7310078002929687,-11.213243475341796,-0.8778625954198473,0.4961832061068702,-1.366412213740458
5242335887009,0.93469599,1,0.19393033447265623,1.7118541870117185,-11.208455072021483,-0.8244274809160306,0.5114503816793893,-1.3358778625954197
5242340888675,0.939697656,1,0.2741360900878906,1.7274164978027342,-11.214440576171874,-0.7862595419847328,0.5114503816793893,-1.2900763358778626
5242345888988,0.944697969,1,0.21428104858398436,1.7214309936523438,-11.135431921386719,-0.9007633587786259,0.6183206106870229,-1.3129770992366412
5242350888831,0.949697812,1,0.29448680419921874,1.7130512878417967,-11.154585534667968,-0.8015267175572519,0.6946564885496184,-1.3587786259541985
5242355887321,0.954696302,1,0.18555062866210936,1.763329522705078,-11.21084927368164,-0.8320610687022901,0.46564885496183206,-1.2290076335877862
5242360888988,0.959697969,1,0.2501940734863281,1.7286135986328124,-11.192892761230468,-0.8244274809160306,0.5114503816793893,-1.3587786259541985
5242365888623,0.964697604,1,0.24899697265624998,1.7573440185546874,-11.197681164550781,-0.8854961832061069,0.6259541984732825,-1.3435114503816794
5242370888831,0.969697812,1,0.181959326171875,1.7585411193847655,-11.21084927368164,-0.7404580152671756,0.5954198473282443,-1.2748091603053435
5242375886852,0.974695833,1,0.19632453613281248,1.7609353210449217,-11.195286962890624,-0.7022900763358778,0.6412213740458015,-1.282442748091603
5242380889352,0.979698333,1,0.17956512451171874,1.7393875061035156,-11.19169566040039,-0.8854961832061069,0.5725190839694656,-1.2748091603053435
5242385888571,0.984697552,1,0.2262520568847656,1.7501614135742187,-11.222820281982422,-0.9007633587786259,0.5648854961832062,-1.3740458015267176
5242390888102,0.989697083,1,0.19632453613281248,1.7465701110839842,-11.173739147949219,-0.8931297709923665,0.44274809160305345,-1.366412213740458
5242395884873,0.994693854,1,0.2346317626953125,1.725022296142578,-11.133037719726563,-0.8015267175572519,0.5877862595419847,-1.297709923664122
5242400891644,0.999700625,1,0.1879448303222656,1.7238251953125,-11.162965240478515,-0.7862595419847328,0.5725190839694656,-1.3893129770992367
5242405888988,1.004697969,1,0.2741360900878906,1.744175909423828,-11.113884106445312,-0.8778625954198473,0.549618320610687,-1.4045801526717556
5242410888623,1.009697604,1,0.21188684692382811,1.7298106994628906,-11.225214483642578,-0.7633587786259542,0.48854961832061067,-1.297709923664122
5242415887425,1.014696406,1,0.16160861206054686,1.7166425903320313,-11.233594189453123,-0.7404580152671756,0.6259541984732825,-1.3282442748091603
5242420889404,1.019698385,1,0.2561795776367187,1.7178396911621092,-11.166556542968749,-0.6946564885496184,0.5954198473282443,-1.3053435114503817
5242425889196,1.024698177,1,0.23822306518554687,1.7932570434570312,-11.154585534667968,-0.8396946564885496,0.6335877862595419,-1.2671755725190839
5242430887113,1.029696094,1,0.22385785522460935,1.7274164978027342,-11.21683477783203,-0.8473282442748091,0.5419847328244275,-1.3282442748091603
5242435886904,1.034695885,1,0.23343466186523437,1.7381904052734374,-11.142614526367186,-0.7099236641221374,0.5419847328244275,-1.282442748091603
5242440888571,1.039697552,1,0.23223756103515625,1.697488977050781,-11.1474029296875,-0.8396946564885496,0.5877862595419847,-1.3969465648854962
5242445889144,1.044698125,1,0.2154781494140625,1.7130512878417967,-11.234791290283203,-0.7938931297709924,0.6335877862595419,-1.3358778625954197
5242450888779,1.04969776,1,0.229843359375,1.6927005737304686,-11.206060870361327,-0.8625954198473282,0.5572519083969466,-1.3053435114503817
5242455886904,1.054695885,1,0.23343466186523437,1.772906329345703,-11.130643518066405,-0.7480916030534351,0.549618320610687,-1.3053435114503817
5242460888623,1.059697604,1,0.20470424194335937,1.7226280944824217,-11.215637677001952,-0.7633587786259542,0.5954198473282443,-1.3206106870229009
5242465890498,1.064699479,1,0.25737667846679685,1.7190367919921874,-11.240776794433593,-0.8015267175572519,0.5954198473282443,-1.3358778625954197
5242470889092,1.069698073,1,0.2645592834472656,1.792059942626953,-11.174936248779296,-0.7786259541984732,0.6564885496183206,-1.3358778625954197
5242475887477,1.074696458,1,0.22864625854492185,1.6891092712402342,-11.142614526367186,-0.7786259541984732,0.5419847328244275,-1.2900763358778626
5242480889040,1.079698021,1,0.2454056701660156,1.734599102783203,-11.158176837158203,-0.8244274809160306,0.5343511450381679,-1.366412213740458
5242485889300,1.084698281,1,0.26216508178710934,1.7693150268554687,-11.174936248779296,-0.7709923664122137,0.648854961832061,-1.3893129770992367
5242490889040,1.089698021,1,0.23822306518554687,1.70467158203125,-11.190498559570312,-0.8015267175572519,0.5572519083969466,-1.4122137404580153
5242495887009,1.09469599,1,0.22744915771484372,1.725022296142578,-11.159373937988281,-0.8015267175572519,0.46564885496183206,-1.297709923664122
5242500888363,1.099697344,1,0.21308394775390624,1.705868682861328,-11.182118853759764,-0.816793893129771,0.4351145038167939,-1.297709923664122
5242505889040,1.104698021,1,0.22026655273437498,1.6938976745605467,-11.130643518066405,-0.8473282442748091,0.6106870229007634,-1.4045801526717556
5242510889300,1.109698281,1,0.23104046020507812,1.7393875061035156,-11.177330450439452,-0.8702290076335878,0.6412213740458015,-1.3206106870229009
5242515886956,1.114695937,1,0.2166752502441406,1.7178396911621092,-11.21084927368164,-0.7175572519083969,0.5190839694656488,-1.2748091603053435
5242520888467,1.119697448,1,0.2214636535644531,1.7513585144042967,-11.136629022216797,-0.7404580152671756,0.6335877862595419,-1.297709923664122
5242525888415,1.124697396,1,0.22864625854492185,1.7214309936523438,-11.190498559570312,-0.8473282442748091,0.6946564885496184,-1.3511450381679388
5242530889456,1.129698437,1,0.2346317626953125,1.7932570434570312,-11.136629022216797,-0.7633587786259542,0.5419847328244275,-1.3358778625954197
5242535887738,1.134696719,1,0.2059013427734375,1.7453730102539062,-11.155782635498046,-0.7862595419847328,0.5343511450381679,-1.297709923664122
5242540889561,1.139698542,1,0.24061726684570311,1.7573440185546874,-11.196484063720703,-0.8702290076335878,0.48091603053435117,-1.3053435114503817
5242545888988,1.144697969,1,0.20709844360351562,1.7477672119140624,-11.117475408935546,-0.8396946564885496,0.6412213740458015,-1.3587786259541985
5242550889561,1.149698542,1,0.2166752502441406,1.6771382629394531,-11.212046374511718,-0.816793893129771,0.5114503816793893,-1.4427480916030535
5242555887165,1.154696146,1,0.17238251953125,1.7082628845214842,-11.274295617675781,-0.8396946564885496,0.5267175572519084,-1.282442748091603
5242560889040,1.159698021,1,0.23104046020507812,1.744175909423828,-11.177330450439452,-0.7099236641221374,0.6106870229007634,-1.3435114503816794
5242565888936,1.164697917,1,0.25139117431640623,1.6735469604492186,-11.226411584472656,-0.7786259541984732,0.6793893129770993,-1.297709923664122
5242570888727,1.169697708,1,0.20829554443359374,1.6915034729003906,-11.220426080322264,-0.8778625954198473,0.5343511450381679,-1.2900763358778626
5242575887321,1.174696302,1,0.23582886352539062,1.707065783691406,-11.298237634277344,-0.7175572519083969,0.6106870229007634,-1.3053435114503817
5242580893154,1.179702135,1,0.23104046020507812,1.7369933044433592,-11.240776794433593,-0.7786259541984732,0.4351145038167939,-1.2900763358778626
5242585890967,1.184699948,1,0.2214636535644531,1.7226280944824217,-11.251550701904296,-0.8549618320610687,0.6259541984732825,-1.2213740458015268
5242590888988,1.189697969,1,0.23702596435546874,1.7381904052734374,-11.180921752929686,-0.7022900763358778,0.5190839694656488,-1.3206106870229009
5242595889352,1.194698333,1,0.21308394775390624,1.7202338928222656,-11.195286962890624,-0.7099236641221374,0.549618320610687,-1.2748091603053435
5242600887738,1.199696719,1,0.24301146850585936,1.705868682861328,-11.150994232177734,-0.7709923664122137,0.5038167938931297,-1.3282442748091603
5242605888206,1.204697187,1,0.2262520568847656,1.7717092285156248,-11.225214483642578,-0.8473282442748091,0.5725190839694656,-1.282442748091603
5242610890290,1.209699271,1,0.25737667846679685,1.715445489501953,-11.148600030517578,-0.8778625954198473,0.6030534351145038,-1.2748091603053435
5242615888258,1.214697239,1,0.27892449340820313,1.7405846069335937,-11.228805786132812,-0.8549618320610687,0.5038167938931297,-1.282442748091603
5242620887633,1.219696614,1,0.21188684692382811,1.7489643127441405,-11.174936248779296,-0.7786259541984732,0.5190839694656488,-1.3358778625954197
5242625887894,1.224696875,1,0.17118541870117188,1.7549498168945312,-11.16057103881836,-0.9083969465648855,0.6335877862595419,-1.3435114503816794
5242630889508,1.229698489,1,0.27174188842773433,1.7286135986328124,-11.180921752929686,-0.8625954198473282,0.6183206106870229,-1.2442748091603053
5242635886956,1.234695937,1,0.23104046020507812,1.7405846069335937,-11.201272467041015,-0.8320610687022901,0.5725190839694656,-1.3129770992366412
5242640889300,1.239698281,1,0.24899697265624998,1.7609353210449217,-11.154585534667968,-0.7938931297709924,0.5801526717557252,-1.3129770992366412
5242645888727,1.244697708,1,0.22744915771484372,1.7525556152343749,-11.149797131347656,-0.7938931297709924,0.48091603053435117,-1.3129770992366412
5242650888936,1.249697917,1,0.22266075439453123,1.7034744812011717,-11.143811627197264,-0.8931297709923665,0.6335877862595419,-1.3511450381679388
5242655887113,1.254696094,1,0.2262520568847656,1.7405846069335937,-11.165359442138671,-0.7786259541984732,0.6030534351145038,-1.3129770992366412
5242660889300,1.259698281,1,0.22266075439453123,1.7298106994628906,-11.130643518066405,-0.8625954198473282,0.6793893129770993,-1.2900763358778626
5242665888883,1.264697864,1,0.23582886352539062,1.7130512878417967,-11.209652172851563,-0.8320610687022901,0.6641221374045801,-1.2595419847328244
5242670889248,1.269698229,1,0.23343466186523437,1.7106570861816406,-11.168950744628905,-0.816793893129771,0.6106870229007634,-1.282442748091603
5242675886800,1.274695781,1,0.2059013427734375,1.705868682861328,-11.135431921386719,-0.8625954198473282,0.5190839694656488,-1.297709923664122
5242680888988,1.279697969,1,0.2657563842773437,1.753752716064453,-11.127052215576171,-0.8396946564885496,0.5725190839694656,-1.3129770992366412
5242685887686,1.284696667,1,0.25258827514648435,1.7238251953125,-11.208455072021483,-0.9389312977099237,0.7022900763358778,-1.3435114503816794
5242690890081,1.289699062,1,0.2214636535644531,1.6938976745605467,-11.18571015625,-0.7709923664122137,0.5648854961832062,-1.3053435114503817
5242695886800,1.294695781,1,0.22385785522460935,1.7453730102539062,-11.250353601074218,-0.7099236641221374,0.5419847328244275,-1.3053435114503817
5242700890186,1.299699167,1,0.1771709228515625,1.7693150268554687,-11.184513055419922,-0.7633587786259542,0.48854961832061067,-1.2595419847328244
5242705889404,1.304698385,1,0.23582886352539062,1.772906329345703,-11.155782635498046,-0.8396946564885496,0.5343511450381679,-1.2213740458015268
5242710889144,1.309698125,1,0.2454056701660156,1.6807295654296874,-11.186907257080078,-0.7480916030534351,0.5801526717557252,-1.3053435114503817
5242715887425,1.314696406,1,0.2059013427734375,1.7214309936523438,-11.139023223876952,-0.8091603053435115,0.5190839694656488,-1.251908396946565
5242720890550,1.319699531,1,0.23582886352539062,1.7262193969726563,-11.162965240478515,-0.7938931297709924,0.549618320610687,-1.3435114503816794
5242725888988,1.324697969,1,0.22385785522460935,1.7357962036132812,-11.184513055419922,-0.8854961832061069,0.5801526717557252,-1.3129770992366412
5242730888935,1.329697916,1,0.20350714111328125,1.7465701110839842,-11.167753643798827,-0.9007633587786259,0.6717557251908397,-1.3206106870229009
5242735888102,1.334697083,1,0.2705447875976562,1.715445489501953,-11.234791290283203,-0.7786259541984732,0.549618320610687,-1.4198473282442747
5242740888363,1.339697344,1,0.20709844360351562,1.7286135986328124,-11.202469567871093,-0.7480916030534351,0.5190839694656488,-1.3282442748091603
5242745889508,1.344698489,1,0.24301146850585936,1.6747440612792968,-11.184513055419922,-0.816793893129771,0.6030534351145038,-1.297709923664122
5242750888883,1.349697864,1,0.23223756103515625,1.7322049011230467,-11.166556542968749,-0.8702290076335878,0.5801526717557252,-1.3740458015267176
5242755887113,1.354696094,1,0.27174188842773433,1.7609353210449217,-11.215637677001952,-0.8015267175572519,0.48854961832061067,-1.3511450381679388
5242760888883,1.359697864,1,0.18555062866210936,1.70467158203125,-11.174936248779296,-0.8320610687022901,0.5725190839694656,-1.3206106870229009
5242765889613,1.364698594,1,0.23104046020507812,1.7453730102539062,-11.1474029296875,-0.8778625954198473,0.6106870229007634,-1.3129770992366412
5242770888935,1.369697916,1,0.2549824768066406,1.7226280944824217,-11.195286962890624,-0.8244274809160306,0.5648854961832062,-1.3358778625954197
5242775886852,1.374695833,1,0.20709844360351562,1.7226280944824217,-11.164162341308593,-0.7862595419847328,0.5114503816793893,-1.3358778625954197
5242780889352,1.379698333,1,0.20949264526367187,1.7262193969726563,-11.148600030517578,-0.9007633587786259,0.5877862595419847,-1.3053435114503817
5242785889508,1.384698489,1,0.24061726684570311,1.6723498596191406,-11.133037719726563,-0.7862595419847328,0.5267175572519084,-1.2748091603053435
5242790888675,1.389697656,1,0.20350714111328125,1.7286135986328124,-11.246762298583985,-0.816793893129771,0.6183206106870229,-1.3282442748091603
5242795887529,1.39469651,1,0.21188684692382811,1.7393875061035156,-11.182118853759764,-0.732824427480916,0.5801526717557252,-1.3129770992366412
5242800888727,1.399697708,1,0.22026655273437498,1.7238251953125,-11.194089862060546,-0.7099236641221374,0.5038167938931297,-1.3206106870229009
5242805888675,1.404697656,1,0.22864625854492185,1.7298106994628906,-11.15338843383789,-0.9923664122137404,0.6335877862595419,-1.2671755725190839
5242810889560,1.409698541,1,0.19512743530273435,1.7501614135742187,-11.200075366210937,-0.8015267175572519,0.5725190839694656,-1.297709923664122
5242815888258,1.414697239,1,0.22385785522460935,1.7573440185546874,-11.167753643798827,-0.7938931297709924,0.5877862595419847,-1.3129770992366412
5242820889196,1.419698177,1,0.19871873779296872,1.7010802795410156,-11.23000288696289,-0.8702290076335878,0.5877862595419847,-1.3129770992366412
5242825888415,1.424697396,1,0.24779987182617186,1.7274164978027342,-11.190498559570312,-0.8854961832061069,0.6259541984732825,-1.3206106870229009
5242830889977,1.429698958,1,0.2501940734863281,1.7489643127441405,-11.166556542968749,-0.8702290076335878,0.6335877862595419,-1.366412213740458
5242835887738,1.434696719,1,0.22864625854492185,1.714248388671875,-11.190498559570312,-0.7404580152671756,0.5801526717557252,-1.366412213740458
5242840889144,1.439698125,1,0.20350714111328125,1.7597382202148437,-11.195286962890624,-0.8549618320610687,0.5267175572519084,-1.3511450381679388
5242845890498,1.444699479,1,0.24301146850585936,1.7513585144042967,-11.228805786132812,-0.7938931297709924,0.6259541984732825,-1.297709923664122
5242850890498,1.449699479,1,0.27293898925781246,1.7094599853515624,-11.21683477783203,-0.8473282442748091,0.5725190839694656,-1.3893129770992367
5242855887113,1.454696094,1,0.24181436767578124,1.763329522705078,-11.226411584472656,-0.7480916030534351,0.6183206106870229,-1.3511450381679388
5242860893415,1.459702396,1,0.2214636535644531,1.7238251953125,-11.19169566040039,-0.8702290076335878,0.5267175572519084,-1.3358778625954197
5242865890810,1.464699791,1,0.18315642700195311,1.7298106994628906,-11.226411584472656,-0.8396946564885496,0.5267175572519084,-1.282442748091603
5242870888571,1.469697552,1,0.1879448303222656,1.7645266235351562,-11.179724652099608,-0.8396946564885496,0.6412213740458015,-1.3893129770992367
5242875887738,1.474696719,1,0.21068974609375,1.7082628845214842,-11.180921752929686,-0.7709923664122137,0.5343511450381679,-1.3358778625954197
5242880891279,1.47970026,1,0.16519991455078123,1.7513585144042967,-11.17852755126953,-0.7022900763358778,0.5114503816793893,-1.3206106870229009
5242885889300,1.484698281,1,0.23104046020507812,1.7202338928222656,-11.182118853759764,-0.8320610687022901,0.46564885496183206,-1.3587786259541985
5242890889300,1.489698281,1,0.24301146850585936,1.714248388671875,-11.200075366210937,-0.8244274809160306,0.5572519083969466,-1.2900763358778626
5242895887581,1.494696562,1,0.17477672119140625,1.7429788085937499,-11.159373937988281,-0.8244274809160306,0.6259541984732825,-1.282442748091603
5242900889300,1.499698281,1,0.19871873779296872,1.7310078002929687,-11.241973895263671,-0.7404580152671756,0.6335877862595419,-1.3435114503816794
5242905889508,1.504698489,1,0.21906945190429686,1.7393875061035156,-11.176133349609374,-0.8244274809160306,0.5114503816793893,-1.3129770992366412
5242910888988,1.509697969,1,0.24301146850585936,1.744175909423828,-11.142614526367186,-0.8854961832061069,0.6870229007633588,-1.2900763358778626
5242915887269,1.51469625,1,0.25258827514648435,1.7489643127441405,-11.232397088623046,-0.8473282442748091,0.5801526717557252,-1.3435114503816794
5242920888883,1.519697864,1,0.24779987182617186,1.7118541870117185,-11.177330450439452,-0.7862595419847328,0.5343511450381679,-1.3282442748091603
5242925887738,1.524696719,1,0.21308394775390624,1.7202338928222656,-11.145008728027342,-0.8549618320610687,0.6564885496183206,-1.3206106870229009
5242930889821,1.529698802,1,0.20231004028320312,1.7609353210449217,-11.32577095336914,-0.9389312977099237,0.6641221374045801,-1.4580152671755726
5242935887373,1.534696354,1,0.23702596435546874,1.7226280944824217,-11.154585534667968,-0.8244274809160306,0.5114503816793893,-1.366412213740458
5242940886644,1.539695625,1,0.22864625854492185,1.7489643127441405,-11.079168182373046,-0.8473282442748091,0.48854961832061067,-1.3282442748091603
5242945889248,1.544698229,1,0.2561795776367187,1.7262193969726563,-11.324573852539062,-0.8854961832061069,0.5801526717557252,-1.2748091603053435
5242950888727,1.549697708,1,0.1879448303222656,1.7705121276855467,-11.097124694824219,-0.8625954198473282,0.5038167938931297,-1.3740458015267176
5242955886956,1.554695937,1,0.23343466186523437,1.7298106994628906,-11.305420239257812,-0.8625954198473282,0.549618320610687,-1.3206106870229009
5242960889404,1.559698385,1,0.21068974609375,1.7106570861816406,-11.166556542968749,-0.732824427480916,0.5877862595419847,-1.2748091603053435
5242965889560,1.564698541,1,0.2549824768066406,1.7298106994628906,-11.080365283203124,-0.7786259541984732,0.5954198473282443,-1.366412213740458
5242970888623,1.569697604,1,0.2454056701660156,1.7585411193847655,-11.285069525146485,-0.8625954198473282,0.5648854961832062,-1.3587786259541985
5242975886487,1.574695468,1,0.24061726684570311,1.715445489501953,-11.174936248779296,-0.8473282442748091,0.6030534351145038,-1.3282442748091603
5242980888987,1.579697968,1,0.2059013427734375,1.7465701110839842,-11.168950744628905,-0.816793893129771,0.549618320610687,-1.282442748091603
5242985888831,1.584697812,1,0.20949264526367187,1.7262193969726563,-11.055226165771483,-0.9236641221374046,0.48854961832061067,-1.282442748091603
5242990889560,1.589698541,1,0.19033903198242186,1.6819266662597656,-11.190498559570312,-0.8091603053435115,0.6717557251908397,-1.3587786259541985
5242995887790,1.594696771,1,0.258573779296875,1.7381904052734374,-11.204863769531249,-0.7786259541984732,0.48854961832061067,-1.1984732824427482
5243000888987,1.599697968,1,0.19871873779296872,1.714248388671875,-11.214440576171874,-0.8015267175572519,0.5190839694656488,-1.297709923664122
5243005888935,1.604697916,1,0.21428104858398436,1.7178396911621092,-11.206060870361327,-0.7786259541984732,0.5190839694656488,-1.3053435114503817
5243010888727,1.609697708,1,0.2262520568847656,1.7178396911621092,-11.220426080322264,-0.9389312977099237,0.6335877862595419,-1.297709923664122
5243015887321,1.614696302,1,0.2214636535644531,1.7262193969726563,-11.225214483642578,-0.8244274809160306,0.6641221374045801,-1.3969465648854962
5243020888727,1.619697708,1,0.22505495605468748,1.7274164978027342,-11.334150659179686,-0.7022900763358778,0.5648854961832062,-1.381679389312977
5243025890185,1.624699166,1,0.18315642700195311,1.734599102783203,-11.150994232177734,-0.7862595419847328,0.6412213740458015,-1.3129770992366412
5243030888883,1.629697864,1,0.2645592834472656,1.7334020019531249,-11.130643518066405,-0.9083969465648855,0.6335877862595419,-1.3893129770992367
5243035887165,1.634696146,1,0.2609679809570312,1.7238251953125,-11.039663854980468,-0.9083969465648855,0.6030534351145038,-1.3358778625954197
5243040888883,1.639697864,1,0.22864625854492185,1.7190367919921874,-11.23718549194336,-0.7557251908396947,0.5725190839694656,-1.3282442748091603
5243045888883,1.644697864,1,0.26216508178710934,1.70467158203125,-11.337741961669922,-0.7557251908396947,0.5725190839694656,-1.251908396946565
5243050888675,1.649697656,1,0.2346317626953125,1.763329522705078,-11.071985577392578,-0.7862595419847328,0.6106870229007634,-1.3587786259541985
5243055887790,1.654696771,1,0.22026655273437498,1.7274164978027342,-11.231199987792968,-0.9465648854961832,0.5419847328244275,-1.3358778625954197
5243060889352,1.659698333,1,0.23822306518554687,1.7549498168945312,-11.146205828857422,-0.7786259541984732,0.5190839694656488,-1.3511450381679388
5243065889144,1.664698125,1,0.277727392578125,1.7573440185546874,-11.168950744628905,-0.8702290076335878,0.648854961832061,-1.3053435114503817
5243070888519,1.6696975,1,0.2166752502441406,1.7094599853515624,-11.182118853759764,-0.816793893129771,0.6412213740458015,-1.3206106870229009
5243075886956,1.674695937,1,0.17477672119140625,1.7369933044433592,-11.203666668701171,-0.7786259541984732,0.6183206106870229,-1.2748091603053435
5243080889456,1.679698437,1,0.21188684692382811,1.7238251953125,-11.243170996093749,-0.8091603053435115,0.5267175572519084,-1.2442748091603053
5243085889665,1.684698646,1,0.22266075439453123,1.734599102783203,-11.17852755126953,-0.8091603053435115,0.5038167938931297,-1.3053435114503817
5243090889040,1.689698021,1,0.21906945190429686,1.7310078002929687,-11.166556542968749,-0.8778625954198473,0.5801526717557252,-1.3435114503816794
5243095886956,1.694695937,1,0.21068974609375,1.7369933044433592,-11.12226381225586,-0.8015267175572519,0.5038167938931297,-1.3282442748091603
5243100888467,1.699697448,1,0.22026655273437498,1.7513585144042967,-11.206060870361327,-0.8320610687022901,0.5114503816793893,-1.3129770992366412
5243105889456,1.704698437,1,0.22744915771484372,1.7417817077636717,-11.219228979492186,-0.7938931297709924,0.549618320610687,-1.2442748091603053
5243110888779,1.70969776,1,0.2059013427734375,1.7657237243652342,-11.142614526367186,-0.916030534351145,0.5190839694656488,-1.2748091603053435
5243115887842,1.714696823,1,0.28490999755859375,1.7094599853515624,-11.186907257080078,-0.916030534351145,0.5954198473282443,-1.3053435114503817
5243120887060,1.719696041,1,0.229843359375,1.714248388671875,-11.238382592773437,-0.8778625954198473,0.5343511450381679,-1.282442748091603
5243125889665,1.724698646,1,0.20949264526367187,1.686715069580078,-11.123460913085937,-0.8778625954198473,0.5190839694656488,-1.297709923664122
5243130888623,1.729697604,1,0.25737667846679685,1.70467158203125,-11.189301458740234,-0.8854961832061069,0.5801526717557252,-1.3206106870229009
5243135886383,1.734695364,1,0.22744915771484372,1.6927005737304686,-11.281478222656249,-0.816793893129771,0.5648854961832062,-1.2595419847328244
5243140892685,1.739701666,1,0.20231004028320312,1.697488977050781,-11.183315954589844,-0.8015267175572519,0.6641221374045801,-1.3587786259541985
5243145891175,1.744700156,1,0.23582886352539062,1.7262193969726563,-11.220426080322264,-0.732824427480916,0.6183206106870229,-1.2671755725190839
5243150887425,1.749696406,1,0.23223756103515625,1.7717092285156248,-11.173739147949219,-0.8931297709923665,0.5572519083969466,-1.3893129770992367
5243155888362,1.754697343,1,0.23104046020507812,1.7645266235351562,-11.192892761230468,-0.816793893129771,0.6259541984732825,-1.3587786259541985
5243160889352,1.759698333,1,0.239420166015625,1.7513585144042967,-11.152191333007812,-0.8015267175572519,0.5343511450381679,-1.2748091603053435
5243165888571,1.764697552,1,0.1640028137207031,1.725022296142578,-11.16057103881836,-0.8396946564885496,0.4732824427480916,-1.213740458015267
5243170889248,1.769698229,1,0.26815058593749996,1.763329522705078,-11.127052215576171,-0.8702290076335878,0.5877862595419847,-1.3206106870229009
5243175887842,1.774696823,1,0.20829554443359374,1.7489643127441405,-11.158176837158203,-0.8702290076335878,0.6030534351145038,-1.3053435114503817
5243180889769,1.77969875,1,0.22385785522460935,1.7214309936523438,-11.197681164550781,-0.7786259541984732,0.5801526717557252,-1.3358778625954197
5243185889300,1.784698281,1,0.2753331909179687,1.7453730102539062,-11.189301458740234,-0.7786259541984732,0.5801526717557252,-1.2900763358778626
5243190888883,1.789697864,1,0.19033903198242186,1.6831237670898436,-11.109095703125,-0.7709923664122137,0.6641221374045801,-1.3282442748091603
5243195887321,1.794696302,1,0.201112939453125,1.7717092285156248,-11.214440576171874,-0.8702290076335878,0.6412213740458015,-1.3358778625954197
5243200889925,1.799698906,1,0.16160861206054686,1.734599102783203,-11.204863769531249,-0.8015267175572519,0.5572519083969466,-1.381679389312977
5243205889352,1.804698333,1,0.1975216369628906,1.7022773803710936,-11.274295617675781,-0.6717557251908397,0.5190839694656488,-1.3358778625954197
5243210888727,1.809697708,1,0.24660277099609373,1.7226280944824217,-11.143811627197264,-0.8244274809160306,0.6183206106870229,-1.3206106870229009
5243215887581,1.814696562,1,0.21068974609375,1.7573440185546874,-11.222820281982422,-0.8854961832061069,0.6106870229007634,-1.2290076335877862
5243220890029,1.81969901,1,0.21188684692382811,1.7429788085937499,-11.130643518066405,-0.7633587786259542,0.5954198473282443,-1.3511450381679388
5243225889404,1.824698385,1,0.17477672119140625,1.7657237243652342,-11.207257971191405,-0.7251908396946565,0.5343511450381679,-1.2671755725190839
5243230888362,1.829697343,1,0.2154781494140625,1.7573440185546874,-11.228805786132812,-0.7175572519083969,0.5648854961832062,-1.3740458015267176
5243235886800,1.834695781,1,0.2166752502441406,1.7585411193847655,-11.135431921386719,-0.9236641221374046,0.5343511450381679,-1.3511450381679388
5243240889404,1.839698385,1,0.2765302917480469,1.7310078002929687,-11.170147845458983,-0.8244274809160306,0.5190839694656488,-1.3511450381679388
5243245889196,1.844698177,1,0.25139117431640623,1.715445489501953,-11.218031878662108,-0.7404580152671756,0.6106870229007634,-1.3587786259541985
5243250888727,1.849697708,1,0.2214636535644531,1.7130512878417967,-11.137826123046874,-0.8625954198473282,0.5954198473282443,-1.3129770992366412
5243255887269,1.85469625,1,0.23223756103515625,1.715445489501953,-11.174936248779296,-0.8931297709923665,0.6259541984732825,-1.3740458015267176
5243260889092,1.859698073,1,0.20470424194335937,1.7573440185546874,-11.227608685302734,-0.8396946564885496,0.6412213740458015,-1.3282442748091603
5243265888414,1.864697395,1,0.22266075439453123,1.7585411193847655,-11.167753643798827,-0.8015267175572519,0.4961832061068702,-1.3129770992366412
5243270889560,1.869698541,1,0.22026655273437498,1.7429788085937499,-11.227608685302734,-0.8244274809160306,0.5954198473282443,-1.2213740458015268
5243275886904,1.874695885,1,0.20350714111328125,1.7298106994628906,-11.226411584472656,-0.8320610687022901,0.5419847328244275,-1.4045801526717556
5243280889144,1.879698125,1,0.2561795776367187,1.7525556152343749,-11.209652172851563,-0.8396946564885496,0.6335877862595419,-1.3969465648854962
5243285888883,1.884697864,1,0.20231004028320312,1.7190367919921874,-11.252747802734374,-0.7175572519083969,0.5572519083969466,-1.381679389312977
5243290889404,1.889698385,1,0.2765302917480469,1.7417817077636717,-11.188104357910156,-0.8320610687022901,0.48854961832061067,-1.2595419847328244
5243295888102,1.894697083,1,0.21068974609375,1.7609353210449217,-11.127052215576171,-0.8549618320610687,0.6793893129770993,-1.2900763358778626
5243300888675,1.899697656,1,0.2861070983886719,1.7298106994628906,-11.150994232177734,-0.8778625954198473,0.5801526717557252,-1.3129770992366412
5243305889664,1.904698645,1,0.229843359375,1.695094775390625,-11.128249316406249,-0.7862595419847328,0.5648854961832062,-1.3206106870229009
5243310889196,1.909698177,1,0.201112939453125,1.8363526733398436,-11.241973895263671,-0.7633587786259542,0.549618320610687,-1.251908396946565
5243315887269,1.91469625,1,0.239420166015625,1.5550339782714844,-11.179724652099608,-0.916030534351145,0.5648854961832062,-1.3129770992366412
5243320888623,1.919697604,1,0.21787235107421873,1.7417817077636717,-11.195286962890624,-0.7862595419847328,0.6030534351145038,-1.3129770992366412
5243325889092,1.924698073,1,0.2442085693359375,1.8243816650390623,-11.21683477783203,-0.7404580152671756,0.5038167938931297,-1.183206106870229
5243330888831,1.929697812,1,0.258573779296875,1.7369933044433592,-11.186907257080078,-0.7709923664122137,0.5572519083969466,-1.2671755725190839
5243335887164,1.934696145,1,0.22744915771484372,1.772906329345703,-11.201272467041015,-0.8549618320610687,0.6412213740458015,-1.2900763358778626
5243340889560,1.939698541,1,0.1867477294921875,1.7214309936523438,-11.18571015625,-0.8320610687022901,0.549618320610687,-1.3969465648854962
5243345888935,1.944697916,1,0.20350714111328125,1.7118541870117185,-11.176133349609374,-0.7175572519083969,0.5343511450381679,-1.282442748091603
5243350889092,1.949698073,1,0.24660277099609373,1.7477672119140624,-11.166556542968749,-0.8091603053435115,0.549618320610687,-1.282442748091603
5243355887477,1.954696458,1,0.23223756103515625,1.678335363769531,-11.222820281982422,-0.816793893129771,0.4961832061068702,-1.2900763358778626
5243360889404,1.959698385,1,0.2454056701660156,1.7860744384765623,-11.201272467041015,-0.816793893129771,0.6564885496183206,-1.3740458015267176
5243365889248,1.964698229,1,0.2442085693359375,1.7178396911621092,-11.233594189453123,-0.7557251908396947,0.5725190839694656,-1.3282442748091603
5243370887633,1.969696614,1,0.19871873779296872,1.744175909423828,-11.241973895263671,-0.8015267175572519,0.46564885496183206,-1.381679389312977
5243375888831,1.974697812,1,0.2166752502441406,1.753752716064453,-11.158176837158203,-0.8244274809160306,0.48854961832061067,-1.3129770992366412
5243380888258,1.979697239,1,0.18914193115234373,1.7549498168945312,-11.170147845458983,-0.8396946564885496,0.6641221374045801,-1.366412213740458
5243385888675,1.984697656,1,0.20470424194335937,1.7118541870117185,-11.17852755126953,-0.8320610687022901,0.4961832061068702,-1.366412213740458
5243390888623,1.989697604,1,0.21188684692382811,1.715445489501953,-11.201272467041015,-0.7709923664122137,0.549618320610687,-1.3740458015267176
5243395886800,1.994695781,1,0.24181436767578124,1.7226280944824217,-11.201272467041015,-0.8473282442748091,0.648854961832061,-1.3206106870229009
5243400888779,1.99969776,1,0.19991583862304688,1.7202338928222656,-11.203666668701171,-0.9541984732824428,0.6183206106870229,-1.3053435114503817
5243405889664,2.004698645,1,0.21308394775390624,1.7465701110839842,-11.145008728027342,-0.8625954198473282,0.45038167938931295,-1.2442748091603053
5243410888519,2.0096975,1,0.23582886352539062,1.715445489501953,-11.21084927368164,-0.7099236641221374,0.6183206106870229,-1.3893129770992367
5243415887633,2.014696614,1,0.22864625854492185,1.7489643127441405,-11.209652172851563,-0.8320610687022901,0.6717557251908397,-1.2442748091603053
5243420889821,2.019698802,1,0.26815058593749996,1.7501614135742187,-11.142614526367186,-0.9083969465648855,0.5877862595419847,-1.2442748091603053
5243425891487,2.024700468,1,0.2561795776367187,1.7226280944824217,-11.165359442138671,-0.7557251908396947,0.5725190839694656,-1.3358778625954197
5243430889925,2.029698906,1,0.24660277099609373,1.7334020019531249,-11.256339105224608,-0.8244274809160306,0.5038167938931297,-1.2748091603053435
5243435887373,2.034696354,1,0.22026655273437498,1.7262193969726563,-11.239579693603515,-0.7099236641221374,0.48854961832061067,-1.3358778625954197
5243440888935,2.039697916,1,0.19991583862304688,1.7573440185546874,-11.188104357910156,-0.8778625954198473,0.6030534351145038,-1.4122137404580153
5243445889144,2.044698125,1,0.21906945190429686,1.7453730102539062,-11.250353601074218,-0.8396946564885496,0.5572519083969466,-1.3435114503816794
5243450889196,2.049698177,1,0.239420166015625,1.7549498168945312,-11.173739147949219,-0.7786259541984732,0.5114503816793893,-1.251908396946565
5243455888987,2.054697968,1,0.22864625854492185,1.7214309936523438,-11.192892761230468,-0.7633587786259542,0.5343511450381679,-1.3129770992366412
5243460892216,2.059701197,1,0.2753331909179687,1.7621324218749999,-11.215637677001952,-0.8473282442748091,0.6030534351145038,-1.3129770992366412
5243465891748,2.064700729,1,0.2454056701660156,1.7214309936523438,-11.18571015625,-0.8091603053435115,0.6106870229007634,-1.4122137404580153
5243470889664,2.069698645,1,0.2059013427734375,1.7082628845214842,-11.202469567871093,-0.7709923664122137,0.5190839694656488,-1.2366412213740459
5243475887008,2.074695989,1,0.2442085693359375,1.6998831787109374,-11.125855114746093,-0.7557251908396947,0.5419847328244275,-1.3282442748091603
5243480889508,2.079698489,1,0.26336218261718747,1.7417817077636717,-11.208455072021483,-0.8015267175572519,0.5572519083969466,-1.3053435114503817
5243485889716,2.084698697,1,0.21308394775390624,1.7357962036132812,-11.247959399414063,-0.8015267175572519,0.6106870229007634,-1.3129770992366412
5243490888727,2.089697708,1,0.21188684692382811,1.7022773803710936,-11.19887826538086,-0.7862595419847328,0.5114503816793893,-1.3129770992366412
5243495887008,2.094695989,1,0.18555062866210936,1.7334020019531249,-11.130643518066405,-0.7557251908396947,0.4351145038167939,-1.3282442748091603
5243500889508,2.099698489,1,0.22864625854492185,1.7549498168945312,-11.226411584472656,-0.8015267175572519,0.549618320610687,-1.3053435114503817
5243505889091,2.104698072,1,0.21787235107421873,1.707065783691406,-11.186907257080078,-0.8702290076335878,0.6564885496183206,-1.297709923664122
5243510888935,2.109697916,1,0.23223756103515625,1.7286135986328124,-11.177330450439452,-0.6641221374045801,0.5038167938931297,-1.4045801526717556
5243515887216,2.114696197,1,0.1927332336425781,1.7178396911621092,-11.176133349609374,-0.8396946564885496,0.46564885496183206,-1.381679389312977
5243520889508,2.119698489,1,0.23223756103515625,1.7238251953125,-11.136629022216797,-0.8473282442748091,0.4961832061068702,-1.3587786259541985
5243525889091,2.124698072,1,0.22505495605468748,1.7513585144042967,-11.264718811035156,-0.8091603053435115,0.5343511450381679,-1.3282442748091603
5243530888310,2.129697291,1,0.20829554443359374,1.7238251953125,-11.139023223876952,-0.6793893129770993,0.5801526717557252,-1.381679389312977
5243535887789,2.13469677,1,0.19512743530273435,1.7657237243652342,-11.196484063720703,-0.8702290076335878,0.5801526717557252,-1.3053435114503817
5243540889508,2.139698489,1,0.23104046020507812,1.68551796875,-11.177330450439452,-0.8244274809160306,0.5267175572519084,-1.3969465648854962
5243545888623,2.144697604,1,0.2154781494140625,1.696291876220703,-11.148600030517578,-0.8015267175572519,0.648854961832061,-1.3511450381679388
5243550889196,2.149698177,1,0.25737667846679685,1.7262193969726563,-11.243170996093749,-0.7404580152671756,0.45038167938931295,-1.297709923664122
5243555887425,2.154696406,1,0.1975216369628906,1.7489643127441405,-11.159373937988281,-0.8015267175572519,0.40458015267175573,-1.251908396946565
5243560887477,2.159696458,1,0.26216508178710934,1.7166425903320313,-11.15338843383789,-0.9083969465648855,0.549618320610687,-1.3740458015267176
5243565889091,2.164698072,1,0.2537853759765625,1.6903063720703124,-11.17254204711914,-0.8320610687022901,0.6335877862595419,-1.3358778625954197
5243570889091,2.169698072,1,0.2645592834472656,1.7202338928222656,-11.2240173828125,-0.7022900763358778,0.5419847328244275,-1.251908396946565
5243575887581,2.174696562,1,0.26216508178710934,1.7022773803710936,-11.202469567871093,-0.7938931297709924,0.4732824427480916,-1.3053435114503817
5243580888362,2.179697343,1,0.24779987182617186,1.7429788085937499,-11.218031878662108,-0.9389312977099237,0.6641221374045801,-1.282442748091603
5243585889300,2.184698281,1,0.27892449340820313,1.7094599853515624,-11.250353601074218,-0.8702290076335878,0.5038167938931297,-1.2442748091603053
5243590888831,2.189697812,1,0.22026655273437498,1.7381904052734374,-11.179724652099608,-0.7786259541984732,0.5343511450381679,-1.2748091603053435
5243595886644,2.194695625,1,0.21068974609375,1.7417817077636717,-11.165359442138671,-0.8244274809160306,0.549618320610687,-1.297709923664122
5243600889560,2.199698541,1,0.22505495605468748,1.7322049011230467,-11.21084927368164,-0.8473282442748091,0.6183206106870229,-1.3129770992366412
5243605889664,2.204698645,1,0.24181436767578124,1.686715069580078,-11.21683477783203,-0.8244274809160306,0.5419847328244275,-1.3282442748091603
5243610887268,2.209696249,1,0.2861070983886719,1.7357962036132812,-11.179724652099608,-0.8778625954198473,0.48854961832061067,-1.3358778625954197
5243615888310,2.214697291,1,0.23702596435546874,1.7262193969726563,-11.222820281982422,-0.732824427480916,0.5267175572519084,-1.282442748091603
5243620889196,2.219698177,1,0.23702596435546874,1.734599102783203,-11.219228979492186,-0.8702290076335878,0.5190839694656488,-1.2900763358778626
5243625888883,2.224697864,1,0.22266075439453123,1.7693150268554687,-11.176133349609374,-0.8015267175572519,0.5648854961832062,-1.2595419847328244
5243630889039,2.22969802,1,0.21308394775390624,1.7334020019531249,-11.202469567871093,-0.7862595419847328,0.4351145038167939,-1.3511450381679388
5243635886591,2.234695572,1,0.20350714111328125,1.7489643127441405,-11.12226381225586,-0.916030534351145,0.5877862595419847,-1.3206106870229009
5243640889404,2.239698385,1,0.19632453613281248,1.7597382202148437,-11.121066711425781,-0.8549618320610687,0.4580152671755725,-1.282442748091603
5243645888831,2.244697812,1,0.21428104858398436,1.7369933044433592,-11.141417425537108,-0.816793893129771,0.6183206106870229,-1.2442748091603053
5243650889925,2.249698906,1,0.19632453613281248,1.7357962036132812,-11.213243475341796,-0.7938931297709924,0.5648854961832062,-1.3511450381679388
5243655887633,2.254696614,1,0.19632453613281248,1.7405846069335937,-11.233594189453123,-0.7480916030534351,0.6030534351145038,-1.251908396946565
5243660888727,2.259697708,1,0.2549824768066406,1.7202338928222656,-11.188104357910156,-0.7938931297709924,0.5114503816793893,-1.3511450381679388
5243665889352,2.264698333,1,0.2705447875976562,1.7334020019531249,-11.177330450439452,-0.8778625954198473,0.6412213740458015,-1.3358778625954197
5243670888362,2.269697343,1,0.22505495605468748,1.7609353210449217,-11.239579693603515,-0.7938931297709924,0.5419847328244275,-1.3587786259541985
5243675886696,2.274695677,1,0.21308394775390624,1.715445489501953,-11.203666668701171,-0.7633587786259542,0.5190839694656488,-1.3282442748091603
5243680888831,2.279697812,1,0.21428104858398436,1.7310078002929687,-11.166556542968749,-0.8320610687022901,0.5572519083969466,-1.381679389312977
5243685888102,2.284697083,1,0.23223756103515625,1.7310078002929687,-11.220426080322264,-0.8931297709923665,0.6793893129770993,-1.3435114503816794
5243690888883,2.289697864,1,0.21428104858398436,1.7429788085937499,-11.194089862060546,-0.8396946564885496,0.5038167938931297,-1.251908396946565
5243695887529,2.29469651,1,0.20949264526367187,1.7657237243652342,-11.220426080322264,-0.7480916030534351,0.5343511450381679,-1.3587786259541985
5243700888727,2.299697708,1,0.20949264526367187,1.715445489501953,-11.152191333007812,-0.8854961832061069,0.5572519083969466,-1.3282442748091603
5243705888571,2.304697552,1,0.22026655273437498,1.715445489501953,-11.21084927368164,-0.9465648854961832,0.6106870229007634,-1.3129770992366412
5243710887008,2.309695989,1,0.26815058593749996,1.7800889343261719,-11.225214483642578,-0.8396946564885496,0.5572519083969466,-1.3740458015267176
5243715887477,2.314696458,1,0.21428104858398436,1.7190367919921874,-11.221623181152344,-0.7175572519083969,0.5419847328244275,-1.4122137404580153
5243720889039,2.31969802,1,0.2059013427734375,1.7190367919921874,-11.200075366210937,-0.7633587786259542,0.5343511450381679,-1.2442748091603053
5243725889508,2.324698489,1,0.2262520568847656,1.7501614135742187,-11.098321795654297,-0.816793893129771,0.5801526717557252,-1.3358778625954197
5243730888727,2.329697708,1,0.21428104858398436,1.70467158203125,-11.150994232177734,-0.7709923664122137,0.48091603053435117,-1.282442748091603
5243735887164,2.334696145,1,0.21428104858398436,1.714248388671875,-11.173739147949219,-0.7862595419847328,0.549618320610687,-1.297709923664122
5243740888102,2.339697083,1,0.2059013427734375,1.7561469177246092,-11.212046374511718,-0.8091603053435115,0.6183206106870229,-1.3206106870229009
5243745896539,2.34470552,1,0.21188684692382811,1.7741034301757812,-11.158176837158203,-0.8320610687022901,0.5801526717557252,-1.282442748091603
5243750891383,2.349700364,1,0.21906945190429686,1.7585411193847655,-11.219228979492186,-0.816793893129771,0.6183206106870229,-1.2671755725190839
5243755888050,2.354697031,1,0.21428104858398436,1.7022773803710936,-11.180921752929686,-0.7862595419847328,0.5572519083969466,-1.3129770992366412
5243760889560,2.359698541,1,0.24301146850585936,1.734599102783203,-11.208455072021483,-0.8473282442748091,0.5343511450381679,-1.3129770992366412
5243765889404,2.364698385,1,0.258573779296875,1.725022296142578,-11.1474029296875,-0.7175572519083969,0.6412213740458015,-1.3282442748091603
5243770889039,2.36969802,1,0.24061726684570311,1.7753005310058592,-11.113884106445312,-0.7709923664122137,0.5572519083969466,-1.297709923664122
5243775887373,2.374696354,1,0.23822306518554687,1.7310078002929687,-11.17254204711914,-0.7786259541984732,0.5572519083969466,-1.3282442748091603
5243780889925,2.379698906,1,0.23582886352539062,1.7393875061035156,-11.204863769531249,-0.8091603053435115,0.5267175572519084,-1.3053435114503817
5243785889300,2.384698281,1,0.19512743530273435,1.70467158203125,-11.189301458740234,-0.8625954198473282,0.5954198473282443,-1.3511450381679388
5243790889873,2.389698854,1,0.1867477294921875,1.7645266235351562,-11.214440576171874,-0.8320610687022901,0.48854961832061067,-1.3740458015267176
5243795886904,2.394695885,1,0.1975216369628906,1.7453730102539062,-11.159373937988281,-0.732824427480916,0.5190839694656488,-1.2671755725190839
5243800888935,2.399697916,1,0.18315642700195311,1.7178396911621092,-11.209652172851563,-0.7251908396946565,0.5725190839694656,-1.2595419847328244
5243805888779,2.40469776,1,0.24061726684570311,1.678335363769531,-11.203666668701171,-0.7938931297709924,0.6030534351145038,-1.3206106870229009
5243810888518,2.409697499,1,0.20829554443359374,1.7645266235351562,-11.170147845458983,-0.816793893129771,0.5114503816793893,-1.3206106870229009
5243815888206,2.414697187,1,0.239420166015625,1.7322049011230467,-11.145008728027342,-0.7480916030534351,0.5038167938931297,-1.282442748091603
5243820889456,2.419698437,1,0.24660277099609373,1.7453730102539062,-11.226411584472656,-0.7175572519083969,0.5038167938931297,-1.3053435114503817
5243825889456,2.424698437,1,0.21428104858398436,1.7274164978027342,-11.166556542968749,-0.8015267175572519,0.5877862595419847,-1.3053435114503817
5243830888570,2.429697551,1,0.1867477294921875,1.7429788085937499,-11.179724652099608,-0.8854961832061069,0.5572519083969466,-1.297709923664122
5243835886643,2.434695624,1,0.21068974609375,1.7322049011230467,-11.201272467041015,-0.7709923664122137,0.5572519083969466,-1.282442748091603
5243840888518,2.439697499,1,0.20829554443359374,1.7214309936523438,-11.146205828857422,-0.7938931297709924,0.46564885496183206,-1.2366412213740459
5243845889091,2.444698072,1,0.22864625854492185,1.7310078002929687,-11.21683477783203,-0.8396946564885496,0.5419847328244275,-1.2595419847328244
5243850889560,2.449698541,1,0.23822306518554687,1.744175909423828,-11.113884106445312,-0.9083969465648855,0.5954198473282443,-1.297709923664122
5243855887581,2.454696562,1,0.24779987182617186,1.792059942626953,-11.143811627197264,-0.816793893129771,0.4961832061068702,-1.3206106870229009
5243860887998,2.459696979,1,0.2154781494140625,1.6819266662597656,-11.168950744628905,-0.7938931297709924,0.5190839694656488,-1.2748091603053435
5243865890498,2.464699479,1,0.22505495605468748,1.772906329345703,-11.174936248779296,-0.8396946564885496,0.648854961832061,-1.3435114503816794
5243870890185,2.469699166,1,0.20231004028320312,1.7621324218749999,-11.145008728027342,-0.8320610687022901,0.6030534351145038,-1.4045801526717556
5243875887425,2.474696406,1,0.2454056701660156,1.6807295654296874,-11.131840618896483,-0.8320610687022901,0.5038167938931297,-1.366412213740458
5243880889300,2.479698281,1,0.2657563842773437,1.697488977050781,-11.209652172851563,-0.7862595419847328,0.5419847328244275,-1.2442748091603053
5243885889664,2.484698645,1,0.25737667846679685,1.7585411193847655,-11.184513055419922,-0.8015267175572519,0.5725190839694656,-1.282442748091603
5243890889195,2.489698176,1,0.1975216369628906,1.714248388671875,-11.19169566040039,-0.7404580152671756,0.5190839694656488,-1.3206106870229009
5243895886852,2.494695833,1,0.18315642700195311,1.7465701110839842,-11.196484063720703,-0.7862595419847328,0.4961832061068702,-1.3587786259541985
5243900888206,2.499697187,1,0.21428104858398436,1.7178396911621092,-11.238382592773437,-0.7404580152671756,0.5267175572519084,-1.3282442748091603
5243905888570,2.504697551,1,0.19153613281249998,1.7322049011230467,-11.19169566040039,-0.7557251908396947,0.4732824427480916,-1.3358778625954197
5243910889195,2.509698176,1,0.19512743530273435,1.7298106994628906,-11.179724652099608,-0.8702290076335878,0.6259541984732825,-1.4427480916030535
5243915886800,2.514695781,1,0.2885013000488281,1.7525556152343749,-11.180921752929686,-0.8320610687022901,0.5419847328244275,-1.3435114503816794
5243920888935,2.519697916,1,0.24660277099609373,1.714248388671875,-11.225214483642578,-0.8015267175572519,0.5725190839694656,-1.3053435114503817
5243925888623,2.524697604,1,0.22864625854492185,1.715445489501953,-11.165359442138671,-0.816793893129771,0.6183206106870229,-1.3053435114503817
5243930888675,2.529697656,1,0.24301146850585936,1.7357962036132812,-11.164162341308593,-0.7557251908396947,0.6564885496183206,-1.4427480916030535
5243935886227,2.534695208,1,0.25139117431640623,1.7082628845214842,-11.257536206054686,-0.732824427480916,0.5572519083969466,-1.3053435114503817
5243940888675,2.539697656,1,0.2154781494140625,1.7214309936523438,-11.16057103881836,-0.7480916030534351,0.44274809160305345,-1.3358778625954197
5243945888102,2.544697083,1,0.22026655273437498,1.7477672119140624,-11.18571015625,-0.8549618320610687,0.6564885496183206,-1.1526717557251909
5243950888883,2.549697864,1,0.18435352783203124,1.7561469177246092,-11.139023223876952,-0.7938931297709924,0.6259541984732825,-1.3893129770992367
5243955886956,2.554695937,1,0.25139117431640623,1.7106570861816406,-11.105504400634764,-0.8396946564885496,0.6793893129770993,-1.3740458015267176
5243960888779,2.55969776,1,0.2214636535644531,1.7693150268554687,-11.196484063720703,-0.8091603053435115,0.4732824427480916,-1.3206106870229009
5243965887008,2.564695989,1,0.22385785522460935,1.753752716064453,-11.221623181152344,-0.8854961832061069,0.6335877862595419,-1.282442748091603
5243970888779,2.56969776,1,0.2214636535644531,1.7034744812011717,-11.176133349609374,-0.8549618320610687,0.5267175572519084,-1.2671755725190839
5243975887060,2.574696041,1,0.20709844360351562,1.7477672119140624,-11.145008728027342,-0.8473282442748091,0.549618320610687,-1.3587786259541985
5243980889716,2.579698697,1,0.22026655273437498,1.7453730102539062,-11.246762298583985,-0.7709923664122137,0.48854961832061067,-1.366412213740458
5243985888675,2.584697656,1,0.27293898925781246,1.7573440185546874,-11.171344946289063,-0.816793893129771,0.6183206106870229,-1.251908396946565
5243990888414,2.589697395,1,0.23702596435546874,1.7597382202148437,-11.154585534667968,-0.7862595419847328,0.5954198473282443,-1.2900763358778626
5243995886591,2.594695572,1,0.25737667846679685,1.7010802795410156,-11.150994232177734,-0.7786259541984732,0.5114503816793893,-1.3969465648854962
5244000888310,2.599697291,1,0.22266075439453123,1.6998831787109374,-11.186907257080078,-0.7557251908396947,0.5114503816793893,-1.4045801526717556
5244005886695,2.604695676,1,0.21308394775390624,1.7190367919921874,-11.17852755126953,-0.7709923664122137,0.5343511450381679,-1.3053435114503817
5244010886800,2.609695781,1,0.21308394775390624,1.763329522705078,-11.219228979492186,-0.9236641221374046,0.5038167938931297,-1.297709923664122
5244015887164,2.614696145,1,0.2442085693359375,1.7298106994628906,-11.202469567871093,-0.7404580152671756,0.5267175572519084,-1.3358778625954197
5244020888466,2.619697447,1,0.23343466186523437,1.715445489501953,-11.23000288696289,-0.8015267175572519,0.48091603053435117,-1.3358778625954197
5244025894508,2.624703489,1,0.2442085693359375,1.7860744384765623,-11.197681164550781,-0.8549618320610687,0.5648854961832062,-1.3282442748091603
5244030890081,2.629699062,1,0.21787235107421873,1.7298106994628906,-11.19169566040039,-0.8320610687022901,0.5648854961832062,-1.3740458015267176
5244035886800,2.634695781,1,0.24779987182617186,1.7405846069335937,-11.192892761230468,-0.8702290076335878,0.5343511450381679,-1.3587786259541985
5244040889352,2.639698333,1,0.23343466186523437,1.7310078002929687,-11.240776794433593,-0.7786259541984732,0.5419847328244275,-1.3206106870229009
5244045888987,2.644697968,1,0.22266075439453123,1.7166425903320313,-11.180921752929686,-0.816793893129771,0.5648854961832062,-1.3053435114503817
5244050888831,2.649697812,1,0.24181436767578124,1.792059942626953,-11.182118853759764,-0.8549618320610687,0.5648854961832062,-1.2442748091603053
5244055887372,2.654696353,1,0.2442085693359375,1.7561469177246092,-11.194089862060546,-0.7709923664122137,0.6183206106870229,-1.3129770992366412
5244060889508,2.659698489,1,0.2501940734863281,1.7693150268554687,-11.202469567871093,-0.7557251908396947,0.5419847328244275,-1.2595419847328244
5244065888831,2.664697812,1,0.2549824768066406,1.7513585144042967,-11.167753643798827,-0.8320610687022901,0.5648854961832062,-1.3282442748091603
5244070888206,2.669697187,1,0.21068974609375,1.7034744812011717,-11.228805786132812,-0.8625954198473282,0.5725190839694656,-1.3282442748091603
5244075886643,2.674695624,1,0.1975216369628906,1.7812860351562498,-11.139023223876952,-0.8778625954198473,0.6335877862595419,-1.3511450381679388
5244080889039,2.67969802,1,0.21787235107421873,1.725022296142578,-11.15338843383789,-0.8625954198473282,0.6030534351145038,-1.3129770992366412
5244085888987,2.684697968,1,0.2501940734863281,1.7453730102539062,-11.204863769531249,-0.8244274809160306,0.4122137404580153,-1.3282442748091603
5244090888518,2.689697499,1,0.24660277099609373,1.7322049011230467,-11.289857928466796,-0.8320610687022901,0.6335877862595419,-1.2900763358778626
5244095886747,2.694695728,1,0.19871873779296872,1.7381904052734374,-11.21084927368164,-0.8244274809160306,0.648854961832061,-1.366412213740458
5244100889091,2.699698072,1,0.229843359375,1.715445489501953,-11.194089862060546,-0.7557251908396947,0.46564885496183206,-1.2748091603053435
5244105889404,2.704698385,1,0.20350714111328125,1.7130512878417967,-11.141417425537108,-0.7709923664122137,0.6183206106870229,-1.3587786259541985
5244110889820,2.709698801,1,0.2154781494140625,1.7298106994628906,-11.196484063720703,-0.9083969465648855,0.6030534351145038,-1.3282442748091603
5244115888310,2.714697291,1,0.2154781494140625,1.7429788085937499,-11.161768139648437,-0.8244274809160306,0.6030534351145038,-1.3206106870229009
5244120889820,2.719698801,1,0.2166752502441406,1.6891092712402342,-11.207257971191405,-0.7938931297709924,0.5801526717557252,-1.3129770992366412
5244125889560,2.724698541,1,0.2454056701660156,1.7561469177246092,-11.148600030517578,-0.7862595419847328,0.6946564885496184,-1.3206106870229009
5244130888727,2.729697708,1,0.24660277099609373,1.7238251953125,-11.225214483642578,-0.9007633587786259,0.5877862595419847,-1.3053435114503817
5244135886643,2.734695624,1,0.2346317626953125,1.7417817077636717,-11.170147845458983,-0.8549618320610687,0.5190839694656488,-1.3435114503816794
5244140889872,2.739698853,1,0.22026655273437498,1.6915034729003906,-11.215637677001952,-0.8396946564885496,0.5954198473282443,-1.297709923664122
5244145889195,2.744698176,1,0.18914193115234373,1.7956512451171873,-11.2240173828125,-0.8091603053435115,0.5419847328244275,-1.3511450381679388
5244150888518,2.749697499,1,0.239420166015625,1.686715069580078,-11.209652172851563,-0.9312977099236641,0.6717557251908397,-1.3206106870229009
5244155886591,2.754695572,1,0.24779987182617186,1.7369933044433592,-11.212046374511718,-0.8015267175572519,0.5572519083969466,-1.3053435114503817
5244160888310,2.759697291,1,0.24899697265624998,1.7693150268554687,-11.231199987792968,-0.816793893129771,0.5877862595419847,-1.366412213740458
5244165888258,2.764697239,1,0.21906945190429686,1.7705121276855467,-11.19887826538086,-0.7786259541984732,0.5725190839694656,-1.297709923664122
5244170888727,2.769697708,1,0.239420166015625,1.7429788085937499,-11.137826123046874,-0.8549618320610687,0.6259541984732825,-1.3435114503816794
5244175887477,2.774696458,1,0.21428104858398436,1.668758557128906,-11.203666668701171,-0.816793893129771,0.5419847328244275,-1.3511450381679388
5244180888779,2.77969776,1,0.19033903198242186,1.7405846069335937,-11.113884106445312,-0.8549618320610687,0.5267175572519084,-1.3358778625954197
5244185888779,2.78469776,1,0.2825157958984375,1.725022296142578,-11.145008728027342,-0.8091603053435115,0.5343511450381679,-1.3129770992366412
5244190889352,2.789698333,1,0.22266075439453123,1.7010802795410156,-11.170147845458983,-0.8778625954198473,0.5725190839694656,-1.381679389312977
5244195887112,2.794696093,1,0.1975216369628906,1.697488977050781,-11.110292803955078,-0.8244274809160306,0.7175572519083969,-1.297709923664122
5244200888206,2.799697187,1,0.23223756103515625,1.7357962036132812,-11.196484063720703,-0.816793893129771,0.6564885496183206,-1.3282442748091603
5244205889404,2.804698385,1,0.24660277099609373,1.7322049011230467,-11.137826123046874,-0.8015267175572519,0.6793893129770993,-1.297709923664122
5244210888727,2.809697708,1,0.21188684692382811,1.714248388671875,-11.192892761230468,-0.9083969465648855,0.5801526717557252,-1.3511450381679388
5244215887060,2.814696041,1,0.229843359375,1.714248388671875,-11.239579693603515,-0.7938931297709924,0.6183206106870229,-1.366412213740458
5244220887477,2.819696458,1,0.21787235107421873,1.7310078002929687,-11.176133349609374,-0.7862595419847328,0.5038167938931297,-1.3129770992366412
5244225890550,2.824699531,1,0.2549824768066406,1.7214309936523438,-11.155782635498046,-0.7557251908396947,0.5801526717557252,-1.3358778625954197
5244230888518,2.829697499,1,0.2262520568847656,1.725022296142578,-11.103110198974608,-0.9083969465648855,0.6412213740458015,-1.3129770992366412
5244235888466,2.834697447,1,0.20350714111328125,1.725022296142578,-11.170147845458983,-0.8549618320610687,0.5419847328244275,-1.2290076335877862
5244240889039,2.83969802,1,0.2346317626953125,1.7202338928222656,-11.203666668701171,-0.7938931297709924,0.5648854961832062,-1.3358778625954197
5244245888622,2.844697603,1,0.23104046020507812,1.6915034729003906,-11.123460913085937,-0.6946564885496184,0.5419847328244275,-1.3129770992366412
5244250889091,2.849698072,1,0.20470424194335937,1.705868682861328,-11.213243475341796,-0.7633587786259542,0.5267175572519084,-1.2442748091603053
5244255887529,2.85469651,1,0.22266075439453123,1.7800889343261719,-11.11508120727539,-0.9312977099236641,0.48854961832061067,-1.2671755725190839
5244260889299,2.85969828,1,0.23822306518554687,1.6891092712402342,-11.145008728027342,-0.7557251908396947,0.6412213740458015,-1.3053435114503817
5244265888206,2.864697187,1,0.22864625854492185,1.6771382629394531,-11.18571015625,-0.7786259541984732,0.5038167938931297,-1.3129770992366412
5244270888727,2.869697708,1,0.22864625854492185,1.7657237243652342,-11.220426080322264,-0.7557251908396947,0.6183206106870229,-1.3358778625954197
5244275886747,2.874695728,1,0.1927332336425781,1.7525556152343749,-11.127052215576171,-0.7862595419847328,0.7251908396946565,-1.2671755725190839
5244280889143,2.879698124,1,0.19871873779296872,1.725022296142578,-11.131840618896483,-0.732824427480916,0.5801526717557252,-1.3129770992366412
5244285888518,2.884697499,1,0.22385785522460935,1.7465701110839842,-11.17852755126953,-0.7862595419847328,0.5343511450381679,-1.2366412213740459
5244290888883,2.889697864,1,0.201112939453125,1.7645266235351562,-11.166556542968749,-0.816793893129771,0.4351145038167939,-1.3358778625954197
5244295887112,2.894696093,1,0.23702596435546874,1.7753005310058592,-11.171344946289063,-0.8778625954198473,0.6641221374045801,-1.366412213740458
5244300889299,2.89969828,1,0.24301146850585936,1.734599102783203,-11.142614526367186,-0.7480916030534351,0.5801526717557252,-1.4198473282442747
5244305893518,2.904702499,1,0.24301146850585936,1.7405846069335937,-11.21683477783203,-0.7404580152671756,0.46564885496183206,-1.3435114503816794
5244310890185,2.909699166,1,0.2059013427734375,1.7501614135742187,-11.189301458740234,-0.8320610687022901,0.5954198473282443,-1.2900763358778626
5244315887320,2.914696301,1,0.2154781494140625,1.7274164978027342,-11.148600030517578,-0.7175572519083969,0.5648854961832062,-1.3511450381679388
5244320889820,2.919698801,1,0.2561795776367187,1.7214309936523438,-11.194089862060546,-0.7022900763358778,0.6106870229007634,-1.297709923664122
5244325889612,2.924698593,1,0.22744915771484372,1.7094599853515624,-11.069591375732422,-0.7786259541984732,0.5114503816793893,-1.3358778625954197
5244330889091,2.929698072,1,0.22505495605468748,1.7130512878417967,-11.190498559570312,-0.8015267175572519,0.5954198473282443,-1.3053435114503817
5244335887320,2.934696301,1,0.20949264526367187,1.7298106994628906,-11.16057103881836,-0.7786259541984732,0.5267175572519084,-1.3129770992366412
5244340888935,2.939697916,1,0.23702596435546874,1.7369933044433592,-11.182118853759764,-0.8778625954198473,0.5572519083969466,-1.3129770992366412
5244345888310,2.944697291,1,0.25258827514648435,1.7705121276855467,-11.247959399414063,-0.7404580152671756,0.6106870229007634,-1.2900763358778626
5244350889299,2.94969828,1,0.28490999755859375,1.7693150268554687,-11.23000288696289,-0.7709923664122137,0.549618320610687,-1.282442748091603
5244355886279,2.95469526,1,0.23343466186523437,1.7453730102539062,-11.168950744628905,-0.8015267175572519,0.5038167938931297,-1.3206106870229009
5244360887060,2.959696041,1,0.18914193115234373,1.7657237243652342,-11.167753643798827,-0.8091603053435115,0.5648854961832062,-1.3282442748091603
5244365890341,2.964699322,1,0.22744915771484372,1.7322049011230467,-11.141417425537108,-0.8549618320610687,0.5190839694656488,-1.3740458015267176
5244370888049,2.96969703,1,0.2166752502441406,1.7717092285156248,-11.139023223876952,-0.7251908396946565,0.6183206106870229,-1.282442748091603
5244375886487,2.974695468,1,0.2537853759765625,1.7094599853515624,-11.228805786132812,-0.8473282442748091,0.5190839694656488,-1.297709923664122
5244380888779,2.97969776,1,0.229843359375,1.7465701110839842,-11.186907257080078,-0.8091603053435115,0.6335877862595419,-1.3435114503816794
5244385889039,2.98469802,1,0.25139117431640623,1.7417817077636717,-11.194089862060546,-0.6870229007633588,0.5877862595419847,-1.3206106870229009
5244390887997,2.989696978,1,0.28371289672851563,1.7501614135742187,-11.17852755126953,-0.7938931297709924,0.5801526717557252,-1.3053435114503817
5244395887320,2.994696301,1,0.2753331909179687,1.7010802795410156,-11.183315954589844,-0.8778625954198473,0.5572519083969466,-1.2748091603053435
5244400888622,2.999697603,1,0.2561795776367187,1.7226280944824217,-11.19887826538086,-0.8854961832061069,0.6870229007633588,-1.381679389312977
5244405888570,3.004697551,1,0.258573779296875,1.6998831787109374,-11.184513055419922,-0.8091603053435115,0.5648854961832062,-1.3282442748091603
5244410888518,3.009697499,1,0.21188684692382811,1.7429788085937499,-11.203666668701171,-0.8244274809160306,0.5267175572519084,-1.3129770992366412
5244415886747,3.014695728,1,0.2765302917480469,1.7561469177246092,-11.23000288696289,-0.8320610687022901,0.6412213740458015,-1.2671755725190839
5244420888935,3.019697916,1,0.23702596435546874,1.744175909423828,-11.16057103881836,-0.816793893129771,0.6106870229007634,-1.2900763358778626
5244425888883,3.024697864,1,0.2861070983886719,1.7238251953125,-11.245565197753905,-0.7786259541984732,0.44274809160305345,-1.3053435114503817
5244430888987,3.029697968,1,0.23582886352539062,1.705868682861328,-11.221623181152344,-0.8244274809160306,0.5190839694656488,-1.3129770992366412
5244435886435,3.034695416,1,0.26336218261718747,1.734599102783203,-11.135431921386719,-0.8473282442748091,0.5190839694656488,-1.2671755725190839
5244440888414,3.039697395,1,0.2346317626953125,1.7788918334960937,-11.161768139648437,-0.7099236641221374,0.48854961832061067,-1.2748091603053435
5244445887268,3.044696249,1,0.201112939453125,1.7513585144042967,-11.158176837158203,-0.7099236641221374,0.5343511450381679,-1.3587786259541985
5244450889977,3.049698958,1,0.24181436767578124,1.7489643127441405,-11.159373937988281,-0.7404580152671756,0.5190839694656488,-1.3282442748091603
5244455886591,3.054695572,1,0.2262520568847656,1.7238251953125,-11.218031878662108,-0.8244274809160306,0.48854961832061067,-1.297709923664122
5244460888518,3.059697499,1,0.22744915771484372,1.7357962036132812,-11.190498559570312,-0.7938931297709924,0.6870229007633588,-1.3282442748091603
5244465888518,3.064697499,1,0.2262520568847656,1.7741034301757812,-11.234791290283203,-0.7709923664122137,0.6106870229007634,-1.3511450381679388
5244471060185,3.069869166,1,0.22385785522460935,1.7190367919921874,-11.247959399414063,-0.7938931297709924,0.5648854961832062,-1.3358778625954197
5244475910810,3.074719791,1,0.2454056701660156,1.7190367919921874,-11.220426080322264,-0.8015267175572519,0.5877862595419847,-1.297709923664122
5244480896799,3.07970578,1,0.20350714111328125,1.7190367919921874,-11.23718549194336,-0.7862595419847328,0.5801526717557252,-1.3740458015267176
5244485886591,3.084695572,1,0.24061726684570311,1.6819266662597656,-11.168950744628905,-0.7709923664122137,0.6335877862595419,-1.2213740458015268
5244490884508,3.089693489,1,0.20470424194335937,1.7034744812011717,-11.225214483642578,-0.8473282442748091,0.549618320610687,-1.366412213740458
5244495888883,3.094697864,1,0.24301146850585936,1.7357962036132812,-11.173739147949219,-0.916030534351145,0.5648854961832062,-1.2595419847328244
5244500887424,3.099696405,1,0.24061726684570311,1.7369933044433592,-11.222820281982422,-0.9847328244274809,0.5801526717557252,-1.3053435114503817
5244505887424,3.104696405,1,0.23104046020507812,1.7334020019531249,-11.109095703125,-0.732824427480916,0.5725190839694656,-1.3206106870229009
5244510887893,3.109696874,1,0.2561795776367187,1.734599102783203,-11.219228979492186,-0.7404580152671756,0.5725190839694656,-1.282442748091603
5244515888622,3.114697603,1,0.2059013427734375,1.7202338928222656,-11.171344946289063,-0.7862595419847328,0.6030534351145038,-1.3129770992366412
5244520888987,3.119697968,1,0.2154781494140625,1.7405846069335937,-11.23718549194336,-0.8625954198473282,0.6259541984732825,-1.3969465648854962
5244525888987,3.124697968,1,0.2693476867675781,1.734599102783203,-11.197681164550781,-0.8778625954198473,0.6641221374045801,-1.3435114503816794
5244530888726,3.129697707,1,0.23343466186523437,1.7178396911621092,-11.180921752929686,-0.8549618320610687,0.4961832061068702,-1.3511450381679388
5244535886591,3.134695572,1,0.20231004028320312,1.7705121276855467,-11.158176837158203,-0.8473282442748091,0.6259541984732825,-1.3511450381679388
5244540889351,3.139698332,1,0.13646949462890623,1.7286135986328124,-11.245565197753905,-0.7557251908396947,0.6183206106870229,-1.2900763358778626
5244545889612,3.144698593,1,0.22864625854492185,1.7082628845214842,-11.202469567871093,-0.7709923664122137,0.5877862595419847,-1.3435114503816794
5244550889195,3.149698176,1,0.21308394775390624,1.7621324218749999,-11.168950744628905,-0.7404580152671756,0.5572519083969466,-1.366412213740458
5244555886747,3.154695728,1,0.2346317626953125,1.7298106994628906,-11.209652172851563,-0.8702290076335878,0.5419847328244275,-1.2061068702290076
5244560887945,3.159696926,1,0.19393033447265623,1.7322049011230467,-11.158176837158203,-0.816793893129771,0.5877862595419847,-1.2290076335877862
5244565888466,3.164697447,1,0.17956512451171874,1.7477672119140624,-11.220426080322264,-0.8549618320610687,0.6793893129770993,-1.3435114503816794
5244570888622,3.169697603,1,0.24660277099609373,1.686715069580078,-11.164162341308593,-0.7633587786259542,0.6564885496183206,-1.3893129770992367
5244575886747,3.174695728,1,0.22505495605468748,1.714248388671875,-11.206060870361327,-0.8015267175572519,0.5954198473282443,-1.2748091603053435
5244580888831,3.179697812,1,0.20829554443359374,1.725022296142578,-11.258733306884764,-0.7938931297709924,0.5648854961832062,-1.297709923664122
5244585894872,3.184703853,1,0.22744915771484372,1.7130512878417967,-11.212046374511718,-0.7862595419847328,0.5801526717557252,-1.3282442748091603
5244590890341,3.189699322,1,0.18435352783203124,1.744175909423828,-11.177330450439452,-0.8015267175572519,0.5725190839694656,-1.3358778625954197
5244595886904,3.194695885,1,0.2442085693359375,1.7034744812011717,-11.21084927368164,-0.8473282442748091,0.6412213740458015,-1.3358778625954197
5244600889456,3.199698437,1,0.23223756103515625,1.763329522705078,-11.119869610595703,-0.8473282442748091,0.4961832061068702,-1.3206106870229009
5244605888987,3.204697968,1,0.25737667846679685,1.6915034729003906,-11.227608685302734,-0.9236641221374046,0.6183206106870229,-1.2671755725190839
5244610887789,3.20969677,1,0.21428104858398436,1.7405846069335937,-11.177330450439452,-0.9007633587786259,0.5419847328244275,-1.2290076335877862
5244615887581,3.214696562,1,0.23223756103515625,1.7561469177246092,-11.155782635498046,-0.8778625954198473,0.6641221374045801,-1.3129770992366412
5244620888831,3.219697812,1,0.2214636535644531,1.7310078002929687,-11.197681164550781,-0.8625954198473282,0.732824427480916,-1.2671755725190839
5244625888258,3.224697239,1,0.19153613281249998,1.7405846069335937,-11.265915911865234,-0.9083969465648855,0.6335877862595419,-1.366412213740458
5244630889872,3.229698853,1,0.28969840087890625,1.753752716064453,-11.16057103881836,-0.7480916030534351,0.5038167938931297,-1.2748091603053435
5244635885966,3.234694947,1,0.1771709228515625,1.7286135986328124,-11.200075366210937,-0.8015267175572519,0.4351145038167939,-1.3053435114503817
5244640889195,3.239698176,1,0.239420166015625,1.7501614135742187,-11.235988391113281,-0.8702290076335878,0.6412213740458015,-1.3435114503816794
5244645889247,3.244698228,1,0.2214636535644531,1.7310078002929687,-11.183315954589844,-0.7862595419847328,0.6183206106870229,-1.4122137404580153
5244650889039,3.24969802,1,0.18076222534179687,1.7274164978027342,-11.167753643798827,-0.7480916030534351,0.5267175572519084,-1.3358778625954197
5244655887216,3.254696197,1,0.2059013427734375,1.7621324218749999,-11.214440576171874,-0.7480916030534351,0.549618320610687,-1.3969465648854962
5244660888883,3.259697864,1,0.2454056701660156,1.7214309936523438,-11.161768139648437,-0.8778625954198473,0.5648854961832062,-1.3587786259541985
5244665889143,3.264698124,1,0.201112939453125,1.68551796875,-11.195286962890624,-0.8320610687022901,0.6106870229007634,-1.4198473282442747
5244670889247,3.269698228,1,0.19632453613281248,1.7561469177246092,-11.142614526367186,-0.7251908396946565,0.549618320610687,-1.3053435114503817
5244675887372,3.274696353,1,0.143652099609375,1.7381904052734374,-11.158176837158203,-0.8091603053435115,0.5648854961832062,-1.2900763358778626
5244680889195,3.279698176,1,0.19871873779296872,1.753752716064453,-11.275492718505859,-0.8549618320610687,0.6259541984732825,-1.3893129770992367
5244685889247,3.284698228,1,0.23822306518554687,1.7190367919921874,-11.137826123046874,-0.8320610687022901,0.6870229007633588,-1.3435114503816794
5244690888570,3.289697551,1,0.22505495605468748,1.7393875061035156,-11.188104357910156,-0.7786259541984732,0.5190839694656488,-1.3053435114503817
5244695887112,3.294696093,1,0.258573779296875,1.705868682861328,-11.196484063720703,-0.7251908396946565,0.5419847328244275,-1.3358778625954197
5244700888206,3.299697187,1,0.21188684692382811,1.734599102783203,-11.167753643798827,-0.8320610687022901,0.5190839694656488,-1.3435114503816794
5244705889716,3.304698697,1,0.26815058593749996,1.7310078002929687,-11.203666668701171,-0.8549618320610687,0.732824427480916,-1.2900763358778626
5244710888570,3.309697551,1,0.21428104858398436,1.7585411193847655,-11.148600030517578,-0.732824427480916,0.5343511450381679,-1.3129770992366412
5244715887789,3.31469677,1,0.229843359375,1.7405846069335937,-11.164162341308593,-0.7786259541984732,0.4732824427480916,-1.297709923664122
5244720888778,3.319697759,1,0.17477672119140625,1.7525556152343749,-11.212046374511718,-0.8702290076335878,0.6793893129770993,-1.3358778625954197
5244725888622,3.324697603,1,0.2693476867675781,1.7597382202148437,-11.127052215576171,-0.8931297709923665,0.6106870229007634,-1.3435114503816794
5244730889039,3.32969802,1,0.19991583862304688,1.7214309936523438,-11.171344946289063,-0.8015267175572519,0.5038167938931297,-1.3511450381679388
5244735887737,3.334696718,1,0.21068974609375,1.705868682861328,-11.152191333007812,-0.7404580152671756,0.5114503816793893,-1.3129770992366412
5244740888831,3.339697812,1,0.23822306518554687,1.7525556152343749,-11.156979736328124,-0.8778625954198473,0.5725190839694656,-1.3053435114503817
5244745888362,3.344697343,1,0.26815058593749996,1.7357962036132812,-11.23000288696289,-0.8854961832061069,0.7175572519083969,-1.381679389312977
5244750889143,3.349698124,1,0.2454056701660156,1.7357962036132812,-11.182118853759764,-0.7786259541984732,0.6030534351145038,-1.3053435114503817
5244755886956,3.354695937,1,0.24899697265624998,1.7513585144042967,-11.16057103881836,-0.732824427480916,0.4198473282442748,-1.213740458015267
5244760888622,3.359697603,1,0.2693476867675781,1.7322049011230467,-11.189301458740234,-0.9007633587786259,0.6412213740458015,-1.3282442748091603
5244765886851,3.364695832,1,0.30047230834960936,1.7334020019531249,-11.150994232177734,-0.8778625954198473,0.6259541984732825,-1.4045801526717556
5244770890133,3.369699114,1,0.2154781494140625,1.7130512878417967,-11.168950744628905,-0.8244274809160306,0.5038167938931297,-1.3053435114503817
5244775887372,3.374696353,1,0.239420166015625,1.7106570861816406,-11.117475408935546,-0.816793893129771,0.5572519083969466,-1.297709923664122
5244780888778,3.379697759,1,0.22864625854492185,1.695094775390625,-11.15338843383789,-0.9083969465648855,0.6183206106870229,-1.2748091603053435
5244785888414,3.384697395,1,0.21068974609375,1.697488977050781,-11.244368096923827,-0.816793893129771,0.5572519083969466,-1.3129770992366412
5244790888206,3.389697187,1,0.24061726684570311,1.6986860778808592,-11.194089862060546,-0.7557251908396947,0.549618320610687,-1.3358778625954197
5244795887320,3.394696301,1,0.24779987182617186,1.7274164978027342,-11.252747802734374,-0.7633587786259542,0.5114503816793893,-1.3969465648854962
5244800889247,3.399698228,1,0.21428104858398436,1.7034744812011717,-11.197681164550781,-0.7786259541984732,0.549618320610687,-1.3511450381679388
5244805888726,3.404697707,1,0.24181436767578124,1.7214309936523438,-11.196484063720703,-0.9389312977099237,0.5725190839694656,-1.3282442748091603
5244810888883,3.409697864,1,0.229843359375,1.7094599853515624,-11.149797131347656,-0.7633587786259542,0.6106870229007634,-1.3511450381679388
5244815885133,3.414694114,1,0.19512743530273435,1.7322049011230467,-11.206060870361327,-0.7938931297709924,0.5572519083969466,-1.2900763358778626
5244820888778,3.419697759,1,0.26336218261718747,1.7214309936523438,-11.133037719726563,-0.8244274809160306,0.5877862595419847,-1.3129770992366412
5244825888674,3.424697655,1,0.23343466186523437,1.7645266235351562,-11.149797131347656,-0.8320610687022901,0.5801526717557252,-1.3511450381679388
5244830889195,3.429698176,1,0.20709844360351562,1.707065783691406,-11.220426080322264,-0.8473282442748091,0.5419847328244275,-1.3740458015267176
5244835888726,3.434697707,1,0.2166752502441406,1.7369933044433592,-11.186907257080078,-0.7786259541984732,0.5801526717557252,-1.3282442748091603
5244840889091,3.439698072,1,0.2059013427734375,1.753752716064453,-11.165359442138671,-0.816793893129771,0.5801526717557252,-1.251908396946565
5244845888831,3.444697812,1,0.21068974609375,1.7334020019531249,-11.190498559570312,-0.8625954198473282,0.6183206106870229,-1.381679389312977
5244850887528,3.449696509,1,0.23104046020507812,1.753752716064453,-11.207257971191405,-0.8854961832061069,0.648854961832061,-1.251908396946565
5244855889143,3.454698124,1,0.229843359375,1.7369933044433592,-11.174936248779296,-0.8091603053435115,0.6106870229007634,-1.2671755725190839
5244860889716,3.459698697,1,0.19871873779296872,1.7310078002929687,-11.112687005615234,-0.8473282442748091,0.6183206106870229,-1.3129770992366412
5244865894091,3.464703072,1,0.27892449340820313,1.7788918334960937,-11.166556542968749,-0.8702290076335878,0.648854961832061,-1.3129770992366412
5244870890185,3.469699166,1,0.2501940734863281,1.7669208251953124,-11.149797131347656,-0.8320610687022901,0.5648854961832062,-1.2366412213740459
5244875886747,3.474695728,1,0.18435352783203124,1.7214309936523438,-11.21084927368164,-0.732824427480916,0.5877862595419847,-1.3206106870229009
5244880888049,3.47969703,1,0.21068974609375,1.7525556152343749,-11.21084927368164,-0.8396946564885496,0.6641221374045801,-1.3435114503816794
5244885889039,3.48469802,1,0.23343466186523437,1.7681179260253905,-11.167753643798827,-0.9465648854961832,0.5725190839694656,-1.2366412213740459
5244890889403,3.489698384,1,0.2741360900878906,1.7944541442871094,-11.189301458740234,-0.8015267175572519,0.5954198473282443,-1.3435114503816794
5244895889351,3.494698332,1,0.17597382202148437,1.7226280944824217,-11.162965240478515,-0.8625954198473282,0.5114503816793893,-1.381679389312977
5244900889612,3.499698593,1,0.20470424194335937,1.7094599853515624,-11.19169566040039,-0.8473282442748091,0.5725190839694656,-1.297709923664122
5244905888831,3.504697812,1,0.22744915771484372,1.7501614135742187,-11.23000288696289,-0.8396946564885496,0.5954198473282443,-1.3893129770992367
5244910889247,3.509698228,1,0.2262520568847656,1.6986860778808592,-11.21683477783203,-0.816793893129771,0.6030534351145038,-1.297709923664122
5244915887528,3.514696509,1,0.21906945190429686,1.7166425903320313,-11.196484063720703,-0.8320610687022901,0.5572519083969466,-1.2366412213740459
5244920889039,3.51969802,1,0.277727392578125,1.734599102783203,-11.218031878662108,-0.8778625954198473,0.5190839694656488,-1.3893129770992367
5244925889299,3.52469828,1,0.23104046020507812,1.7357962036132812,-11.200075366210937,-0.9007633587786259,0.5343511450381679,-1.366412213740458
5244930889143,3.529698124,1,0.29568390502929687,1.7357962036132812,-11.119869610595703,-0.816793893129771,0.48854961832061067,-1.2748091603053435
5244935887528,3.534696509,1,0.2813186950683594,1.7274164978027342,-11.21084927368164,-0.7938931297709924,0.4961832061068702,-1.3511450381679388
5244940889560,3.539698541,1,0.23104046020507812,1.7310078002929687,-11.221623181152344,-0.7557251908396947,0.46564885496183206,-1.3129770992366412
5244945889455,3.544698436,1,0.18555062866210936,1.7381904052734374,-11.123460913085937,-0.9236641221374046,0.5267175572519084,-1.3053435114503817
5244950889299,3.54969828,1,0.20829554443359374,1.7501614135742187,-11.116278308105468,-0.7938931297709924,0.5038167938931297,-1.3358778625954197
5244955886799,3.55469578,1,0.20470424194335937,1.7202338928222656,-11.139023223876952,-0.7175572519083969,0.48854961832061067,-1.3206106870229009
5244960889403,3.559698384,1,0.19033903198242186,1.7393875061035156,-11.182118853759764,-0.8931297709923665,0.5648854961832062,-1.2442748091603053
5244965889872,3.564698853,1,0.2609679809570312,1.715445489501953,-11.218031878662108,-0.816793893129771,0.5572519083969466,-1.381679389312977
5244970888414,3.569697395,1,0.2705447875976562,1.734599102783203,-11.087547888183593,-0.8091603053435115,0.6946564885496184,-1.366412213740458
5244975887164,3.574696145,1,0.20829554443359374,1.734599102783203,-11.203666668701171,-0.732824427480916,0.5419847328244275,-1.3206106870229009
5244980889247,3.579698228,1,0.29448680419921874,1.7202338928222656,-11.156979736328124,-0.816793893129771,0.5190839694656488,-1.2748091603053435
5244985888622,3.584697603,1,0.17118541870117188,1.744175909423828,-11.183315954589844,-0.8702290076335878,0.6183206106870229,-1.3206106870229009
5244990888101,3.589697082,1,0.229843359375,1.7753005310058592,-11.179724652099608,-0.8015267175572519,0.6106870229007634,-1.3206106870229009
5244995887268,3.594696249,1,0.24899697265624998,1.7645266235351562,-11.219228979492186,-0.7786259541984732,0.549618320610687,-1.3129770992366412
5245000958778,3.599767759,1,0.26695348510742184,1.7501614135742187,-11.203666668701171,-0.8091603053435115,0.5648854961832062,-1.2748091603053435
5245005906903,3.604715884,1,0.1867477294921875,1.744175909423828,-11.162965240478515,-0.8778625954198473,0.5572519083969466,-1.3358778625954197
5245010899612,3.609708593,1,0.17836802368164062,1.715445489501953,-11.170147845458983,-0.7786259541984732,0.5954198473282443,-1.3969465648854962
5245015901383,3.614710364,1,0.22026655273437498,1.7429788085937499,-11.164162341308593,-0.8091603053435115,0.4961832061068702,-1.282442748091603
5245020902789,3.61971177,1,0.201112939453125,1.705868682861328,-11.215637677001952,-0.816793893129771,0.5572519083969466,-1.3740458015267176
5245025903935,3.624712916,1,0.22266075439453123,1.7034744812011717,-11.174936248779296,-0.8473282442748091,0.5267175572519084,-1.3282442748091603
5245030899247,3.629708228,1,0.22505495605468748,1.725022296142578,-11.130643518066405,-0.7938931297709924,0.5877862595419847,-1.3129770992366412
5245035899976,3.634708957,1,0.24181436767578124,1.734599102783203,-11.200075366210937,-0.7099236641221374,0.5954198473282443,-1.2900763358778626
5245040902528,3.639711509,1,0.20709844360351562,1.7465701110839842,-11.274295617675781,-0.7480916030534351,0.5725190839694656,-1.3282442748091603
5245045902997,3.644711978,1,0.24899697265624998,1.7214309936523438,-11.15338843383789,-0.8931297709923665,0.5419847328244275,-1.2595419847328244
5245050899195,3.649708176,1,0.21308394775390624,1.7465701110839842,-11.168950744628905,-0.9236641221374046,0.6183206106870229,-1.2900763358778626
5245055900497,3.654709478,1,0.23702596435546874,1.6986860778808592,-11.158176837158203,-0.7251908396946565,0.4580152671755725,-1.297709923664122
5245060902372,3.659711353,1,0.22864625854492185,1.7322049011230467,-11.166556542968749,-0.8320610687022901,0.5267175572519084,-1.3053435114503817
5245065903518,3.664712499,1,0.23582886352539062,1.7932570434570312,-11.194089862060546,-0.9083969465648855,0.5343511450381679,-1.381679389312977
5245070900497,3.669709478,1,0.19512743530273435,1.7489643127441405,-11.184513055419922,-0.916030534351145,0.5648854961832062,-1.3740458015267176
5245075900758,3.674709739,1,0.20470424194335937,1.7357962036132812,-11.215637677001952,-0.8396946564885496,0.648854961832061,-1.3435114503816794
5245080902893,3.679711874,1,0.2501940734863281,1.7477672119140624,-11.182118853759764,-0.8091603053435115,0.5114503816793893,-1.3053435114503817
5245085902424,3.684711405,1,0.24660277099609373,1.7501614135742187,-11.17852755126953,-0.8320610687022901,0.6183206106870229,-1.3053435114503817
5245090900549,3.68970953,1,0.2537853759765625,1.7130512878417967,-11.196484063720703,-0.8778625954198473,0.5725190839694656,-1.3282442748091603
5245095901122,3.694710103,1,0.23702596435546874,1.7130512878417967,-11.16057103881836,-0.8854961832061069,0.5190839694656488,-1.3206106870229009
5245100941070,3.699750051,1,0.2454056701660156,1.7286135986328124,-11.161768139648437,-0.8854961832061069,0.5801526717557252,-1.251908396946565
5245105901174,3.704710155,1,0.22744915771484372,1.7322049011230467,-11.16057103881836,-0.8320610687022901,0.5114503816793893,-1.2900763358778626
5245110900237,3.709709218,1,0.22266075439453123,1.7322049011230467,-11.194089862060546,-0.8931297709923665,0.6259541984732825,-1.3282442748091603
5245115901643,3.714710624,1,0.18435352783203124,1.7573440185546874,-11.166556542968749,-0.7938931297709924,0.6030534351145038,-1.297709923664122
5245120904143,3.719713124,1,0.201112939453125,1.7405846069335937,-11.148600030517578,-0.8091603053435115,0.549618320610687,-1.4045801526717556
5245125903414,3.724712395,1,0.21787235107421873,1.7322049011230467,-11.149797131347656,-0.9007633587786259,0.5038167938931297,-1.3358778625954197
5245130900549,3.72970953,1,0.24779987182617186,1.7585411193847655,-11.16057103881836,-0.8396946564885496,0.6412213740458015,-1.3893129770992367
5245135901226,3.734710207,1,0.2741360900878906,1.7214309936523438,-11.152191333007812,-0.8396946564885496,0.5954198473282443,-1.3282442748091603
5245140903414,3.739712395,1,0.21188684692382811,1.705868682861328,-11.24915650024414,-0.7480916030534351,0.5725190839694656,-1.282442748091603
5245145908674,3.744717655,1,0.2442085693359375,1.7405846069335937,-11.170147845458983,-0.7557251908396947,0.48854961832061067,-1.282442748091603
5245150902268,3.749711249,1,0.2166752502441406,1.7357962036132812,-11.165359442138671,-0.8244274809160306,0.6030534351145038,-1.282442748091603
5245155901591,3.754710572,1,0.18315642700195311,1.7513585144042967,-11.139023223876952,-0.8702290076335878,0.4580152671755725,-1.4045801526717556
5245160902685,3.759711666,1,0.2154781494140625,1.7788918334960937,-11.161768139648437,-0.7786259541984732,0.6183206106870229,-1.3511450381679388
5245165903310,3.764712291,1,0.23582886352539062,1.7357962036132812,-11.247959399414063,-0.7862595419847328,0.4961832061068702,-1.3587786259541985
5245170900445,3.769709426,1,0.24061726684570311,1.7226280944824217,-11.200075366210937,-0.8931297709923665,0.5572519083969466,-1.3511450381679388
5245175900341,3.774709322,1,0.2214636535644531,1.705868682861328,-11.212046374511718,-0.8396946564885496,0.5648854961832062,-1.2748091603053435
5245180903726,3.779712707,1,0.2549824768066406,1.7106570861816406,-11.2240173828125,-0.6717557251908397,0.5114503816793893,-1.3435114503816794
5245185903518,3.784712499,1,0.21308394775390624,1.7274164978027342,-11.170147845458983,-0.8625954198473282,0.4732824427480916,-1.2748091603053435
5245190900757,3.789709738,1,0.24181436767578124,1.792059942626953,-11.159373937988281,-0.8320610687022901,0.5954198473282443,-1.297709923664122
5245195899768,3.794708749,1,0.2549824768066406,1.7717092285156248,-11.167753643798827,-0.8244274809160306,0.5419847328244275,-1.3358778625954197
5245200902789,3.79971177,1,0.23104046020507812,1.687912170410156,-11.194089862060546,-0.7557251908396947,0.44274809160305345,-1.3435114503816794
5245205905028,3.804714009,1,0.2346317626953125,1.7477672119140624,-11.225214483642578,-0.7786259541984732,0.5114503816793893,-1.3358778625954197
5245210899820,3.809708801,1,0.15682020874023436,1.7310078002929687,-11.148600030517578,-0.8702290076335878,0.5725190839694656,-1.381679389312977
5245215899820,3.814708801,1,0.22864625854492185,1.7298106994628906,-11.18571015625,-0.7938931297709924,0.5648854961832062,-1.366412213740458
5245220903570,3.819712551,1,0.2154781494140625,1.7369933044433592,-11.154585534667968,-0.8015267175572519,0.5801526717557252,-1.1984732824427482
5245225904976,3.824713957,1,0.20829554443359374,1.6891092712402342,-11.201272467041015,-0.8396946564885496,0.6412213740458015,-1.2671755725190839
5245230900028,3.829709009,1,0.23582886352539062,1.7202338928222656,-11.26831011352539,-0.8473282442748091,0.6183206106870229,-1.282442748091603
5245235900028,3.834709009,1,0.2561795776367187,1.695094775390625,-11.19887826538086,-0.816793893129771,0.6335877862595419,-1.297709923664122
5245240902216,3.839711197,1,0.18435352783203124,1.7178396911621092,-11.256339105224608,-0.8244274809160306,0.48091603053435117,-1.366412213740458
5245245901382,3.844710363,1,0.24061726684570311,1.7010802795410156,-11.243170996093749,-0.8244274809160306,0.48091603053435117,-1.3206106870229009
5245250900601,3.849709582,1,0.181959326171875,1.7405846069335937,-11.168950744628905,-0.8473282442748091,0.5267175572519084,-1.2595419847328244
5245255900237,3.854709218,1,0.23223756103515625,1.7322049011230467,-11.135431921386719,-0.8778625954198473,0.5572519083969466,-1.3206106870229009
5245260902945,3.859711926,1,0.239420166015625,1.7262193969726563,-11.154585534667968,-0.7709923664122137,0.6106870229007634,-1.3129770992366412
5245265903414,3.864712395,1,0.2609679809570312,1.6998831787109374,-11.196484063720703,-0.8244274809160306,0.5725190839694656,-1.2900763358778626
5245270899924,3.869708905,1,0.22385785522460935,1.7489643127441405,-11.173739147949219,-0.7786259541984732,0.6030534351145038,-1.3435114503816794
5245275900862,3.874709843,1,0.2454056701660156,1.678335363769531,-11.139023223876952,-0.8549618320610687,0.6259541984732825,-1.3129770992366412
5245280903518,3.879712499,1,0.2262520568847656,1.7130512878417967,-11.170147845458983,-0.8091603053435115,0.5725190839694656,-1.3740458015267176
5245285903935,3.884712916,1,0.24181436767578124,1.7561469177246092,-11.207257971191405,-0.7709923664122137,0.5648854961832062,-1.2671755725190839
5245290901851,3.889710832,1,0.20709844360351562,1.6843208679199217,-11.195286962890624,-0.8244274809160306,0.6641221374045801,-1.2900763358778626
5245295900445,3.894709426,1,0.23822306518554687,1.7585411193847655,-11.214440576171874,-0.8244274809160306,0.5877862595419847,-1.3435114503816794
5245300902841,3.899711822,1,0.19871873779296872,1.7453730102539062,-11.168950744628905,-0.9465648854961832,0.5801526717557252,-1.3358778625954197
5245305903622,3.904712603,1,0.24181436767578124,1.7274164978027342,-11.190498559570312,-0.8549618320610687,0.5954198473282443,-1.251908396946565
5245310900132,3.909709113,1,0.26216508178710934,1.7178396911621092,-11.244368096923827,-0.8625954198473282,0.5343511450381679,-1.3435114503816794
5245315900341,3.914709322,1,0.2346317626953125,1.7860744384765623,-11.142614526367186,-0.8473282442748091,0.5954198473282443,-1.3969465648854962
5245320902580,3.919711561,1,0.23582886352539062,1.7393875061035156,-11.164162341308593,-0.816793893129771,0.6106870229007634,-1.3435114503816794
5245325903726,3.924712707,1,0.2346317626953125,1.7393875061035156,-11.174936248779296,-0.8015267175572519,0.6412213740458015,-1.3206106870229009
5245330900497,3.929709478,1,0.16998831787109375,1.782483135986328,-11.219228979492186,-0.7633587786259542,0.5954198473282443,-1.3282442748091603
5245335900757,3.934709738,1,0.201112939453125,1.7238251953125,-11.168950744628905,-0.8091603053435115,0.6335877862595419,-1.366412213740458
5245340903362,3.939712343,1,0.18555062866210936,1.7944541442871094,-11.243170996093749,-0.6717557251908397,0.6183206106870229,-1.3129770992366412
5245345902059,3.94471104,1,0.23822306518554687,1.7501614135742187,-11.155782635498046,-0.816793893129771,0.6106870229007634,-1.366412213740458
5245350900862,3.949709843,1,0.26815058593749996,1.714248388671875,-11.158176837158203,-0.7480916030534351,0.6335877862595419,-1.3969465648854962
5245355900966,3.954709947,1,0.17836802368164062,1.6986860778808592,-11.192892761230468,-0.7786259541984732,0.5190839694656488,-1.3587786259541985
5245360902632,3.959711613,1,0.24061726684570311,1.7274164978027342,-11.189301458740234,-0.7862595419847328,0.6335877862595419,-1.3435114503816794
5245365902059,3.96471104,1,0.22505495605468748,1.7776947326660155,-11.143811627197264,-0.8473282442748091,0.6717557251908397,-1.3893129770992367
5245370899507,3.969708488,1,0.19991583862304688,1.744175909423828,-11.156979736328124,-0.7862595419847328,0.6335877862595419,-1.297709923664122
5245375899403,3.974708384,1,0.22864625854492185,1.7357962036132812,-11.171344946289063,-0.8091603053435115,0.6412213740458015,-1.3206106870229009
5245380902737,3.979711718,1,0.20470424194335937,1.7513585144042967,-11.119869610595703,-0.7938931297709924,0.5877862595419847,-1.2900763358778626
5245385902945,3.984711926,1,0.229843359375,1.7453730102539062,-11.16057103881836,-0.8244274809160306,0.5572519083969466,-1.3511450381679388
5245390900184,3.989709165,1,0.22744915771484372,1.7393875061035156,-11.165359442138671,-0.9007633587786259,0.6030534351145038,-1.3282442748091603
5245395901122,3.994710103,1,0.2501940734863281,1.7322049011230467,-11.227608685302734,-0.7938931297709924,0.6106870229007634,-1.366412213740458
5245400903257,3.999712238,1,0.24181436767578124,1.714248388671875,-11.174936248779296,-0.8396946564885496,0.4961832061068702,-1.3511450381679388
5245405904299,4.00471328,1,0.2549824768066406,1.725022296142578,-11.19169566040039,-0.7862595419847328,0.5190839694656488,-1.2748091603053435
5245410899820,4.009708801,1,0.1879448303222656,1.7310078002929687,-11.170147845458983,-0.8244274809160306,0.5190839694656488,-1.3358778625954197
5245415900341,4.014709322,1,0.21308394775390624,1.7585411193847655,-11.1474029296875,-0.7786259541984732,0.5725190839694656,-1.2061068702290076
5245420903570,4.019712551,1,0.17956512451171874,1.697488977050781,-11.253944903564452,-0.732824427480916,0.5343511450381679,-1.3282442748091603
5245425909143,4.024718124,1,0.258573779296875,1.725022296142578,-11.238382592773437,-0.8091603053435115,0.5801526717557252,-1.3358778625954197
5245430901174,4.029710155,1,0.17118541870117188,1.7286135986328124,-11.23718549194336,-0.8625954198473282,0.4961832061068702,-1.2442748091603053
5245435900809,4.03470979,1,0.2442085693359375,1.7226280944824217,-11.17852755126953,-0.7938931297709924,0.6259541984732825,-1.282442748091603
5245440902945,4.039711926,1,0.20470424194335937,1.7525556152343749,-11.257536206054686,-0.8244274809160306,0.44274809160305345,-1.3282442748091603
5245445903830,4.044712811,1,0.23223756103515625,1.7274164978027342,-11.149797131347656,-0.7557251908396947,0.5267175572519084,-1.3740458015267176
5245450899924,4.049708905,1,0.2154781494140625,1.7310078002929687,-11.148600030517578,-0.8244274809160306,0.5954198473282443,-1.3893129770992367
5245455900237,4.054709218,1,0.19033903198242186,1.7465701110839842,-11.251550701904296,-0.9312977099236641,0.6335877862595419,-1.2748091603053435
5245460905497,4.059714478,1,0.21787235107421873,1.7417817077636717,-11.165359442138671,-0.9236641221374046,0.648854961832061,-1.3587786259541985
5245465905601,4.064714582,1,0.2705447875976562,1.7286135986328124,-11.218031878662108,-0.7862595419847328,0.5572519083969466,-1.3740458015267176
5245470902112,4.069711093,1,0.20350714111328125,1.7334020019531249,-11.209652172851563,-0.7786259541984732,0.648854961832061,-1.2595419847328244
5245475900341,4.074709322,1,0.19991583862304688,1.7274164978027342,-11.221623181152344,-0.8854961832061069,0.6183206106870229,-1.3282442748091603
5245480903570,4.079712551,1,0.16639701538085935,1.734599102783203,-11.110292803955078,-0.8778625954198473,0.5343511450381679,-1.3282442748091603
5245485903101,4.084712082,1,0.239420166015625,1.705868682861328,-11.188104357910156,-0.8473282442748091,0.6946564885496184,-1.4351145038167938
5245490900289,4.08970927,1,0.21787235107421873,1.696291876220703,-11.271901416015623,-0.7786259541984732,0.6259541984732825,-1.297709923664122
5245495900393,4.094709374,1,0.22385785522460935,1.7417817077636717,-11.253944903564452,-0.8625954198473282,0.6335877862595419,-1.282442748091603
5245500900705,4.099709686,1,0.28730419921875,1.7190367919921874,-11.208455072021483,-0.8931297709923665,0.6030534351145038,-1.3358778625954197
5245505904820,4.104713801,1,0.20949264526367187,1.782483135986328,-11.221623181152344,-0.7633587786259542,0.5648854961832062,-1.3969465648854962
5245510899612,4.109708593,1,0.20231004028320312,1.7322049011230467,-11.183315954589844,-0.7709923664122137,0.5877862595419847,-1.2900763358778626
5245515899976,4.114708957,1,0.17357962036132812,1.7645266235351562,-11.233594189453123,-0.8625954198473282,0.5725190839694656,-1.4045801526717556
5245520903257,4.119712238,1,0.23582886352539062,1.7262193969726563,-11.208455072021483,-0.7786259541984732,0.4961832061068702,-1.3206106870229009
5245525903622,4.124712603,1,0.2597708801269531,1.7549498168945312,-11.068394274902342,-0.7862595419847328,0.5648854961832062,-1.3435114503816794
5245530900601,4.129709582,1,0.22266075439453123,1.6938976745605467,-11.142614526367186,-0.8473282442748091,0.4122137404580153,-1.3206106870229009
5245535900184,4.134709165,1,0.2346317626953125,1.7094599853515624,-11.133037719726563,-0.8549618320610687,0.5343511450381679,-1.3206106870229009
5245540902580,4.139711561,1,0.22266075439453123,1.7549498168945312,-11.252747802734374,-0.7251908396946565,0.4961832061068702,-1.3206106870229009
5245545904039,4.14471302,1,0.23822306518554687,1.7405846069335937,-11.107898602294922,-0.6870229007633588,0.6412213740458015,-1.3511450381679388
5245550900445,4.149709426,1,0.2693476867675781,1.7226280944824217,-11.197681164550781,-0.7938931297709924,0.4580152671755725,-1.3053435114503817
5245555900862,4.154709843,1,0.2262520568847656,1.7477672119140624,-11.174936248779296,-0.7938931297709924,0.5038167938931297,-1.2671755725190839
5245560903466,4.159712447,1,0.21068974609375,1.7238251953125,-11.177330450439452,-0.8549618320610687,0.6412213740458015,-1.381679389312977
5245565903361,4.164712342,1,0.24181436767578124,1.7357962036132812,-11.162965240478515,-0.8015267175572519,0.5572519083969466,-1.3435114503816794
5245570899976,4.169708957,1,0.2501940734863281,1.7381904052734374,-11.194089862060546,-0.8320610687022901,0.48854961832061067,-1.282442748091603
5245575899664,4.174708645,1,0.27293898925781246,1.725022296142578,-11.213243475341796,-0.7938931297709924,0.5801526717557252,-1.297709923664122
5245580902841,4.179711822,1,0.25258827514648435,1.7932570434570312,-11.25514200439453,-0.8931297709923665,0.6641221374045801,-1.3282442748091603
5245585903153,4.184712134,1,0.19512743530273435,1.753752716064453,-11.23718549194336,-0.7862595419847328,0.6030534351145038,-1.2900763358778626
5245590900445,4.189709426,1,0.27174188842773433,1.7513585144042967,-11.167753643798827,-0.8549618320610687,0.5267175572519084,-1.3358778625954197
5245595901695,4.194710676,1,0.21308394775390624,1.7322049011230467,-11.240776794433593,-0.8702290076335878,0.5267175572519084,-1.2671755725190839
5245600901539,4.19971052,1,0.23582886352539062,1.7381904052734374,-11.190498559570312,-0.7862595419847328,0.5190839694656488,-1.3129770992366412
