timestamp_ns,t_s,sensor_id,ax,ay,az,gx,gy,gz
6257081800996,0.18836427,3,-0.9038111267089843,6.552929943847656,-6.716932757568359,-14.458015267175572,-3.83206106870229,36.19847328244275
6257101529434,0.208092708,3,-2.404975567626953,6.388927130126953,-6.721721160888672,-14.022900763358779,-11.282442748091603,45.152671755725194
6257121465684,0.228028958,3,-1.4161702819824218,7.370549810791015,-7.957129217529296,-57.68702290076336,-23.206106870229007,30.65648854961832
6257141392507,0.247955781,3,-1.0486603271484374,7.3094976684570305,-7.803900311279296,-18.18320610687023,4.587786259541985,44.3206106870229
6257161405528,0.267968802,3,-0.5961562133789062,6.0896519226074215,-6.751648681640624,43.74809160305343,35.63358778625954,61.274809160305345
6257181358601,0.287921875,3,-0.022744915771484374,3.9276878234863277,-5.7700260009765625,34.18320610687023,45.48091603053435,84.00763358778626
6257201408601,0.307971875,3,0.00239420166015625,2.8143840515136715,-5.313930584716797,33.76335877862596,33.770992366412216,60.25954198473283
6257221405788,0.327969062,3,-1.313219610595703,6.297947467041015,-7.862558251953125,-14.396946564885496,-28.00763358778626,-10.778625954198473
6257241390215,0.347953489,3,-0.3172317199707031,9.764751470947266,-9.381679205322266,-116.54961832061069,-21.99236641221374,-59.69465648854962
6257261400996,0.36796427,3,-0.4225765930175781,10.321403356933594,-8.953117108154297,25.923664122137403,36.786259541984734,3.33587786259542
6257281696621,0.388259895,3,0.21068974609375,6.695384942626953,-6.512228515625,68.64885496183206,100.79389312977099,107.97709923664122
6257301457819,0.408021093,3,1.1192892761230469,2.693476867675781,-4.989516259765625,84.8854961832061,109.9618320610687,160.94656488549617
6257321459486,0.42802276,3,1.9859902770996092,0.27174188842773433,-4.187458703613281,67.83969465648855,83.83969465648855,124.18320610687023
6257341387976,0.44795125,3,2.574963885498047,-0.11133037719726561,-3.928884924316406,31.65648854961832,43.229007633587784,40.274809160305345
6257361452351,0.468015625,3,2.1775264099121094,1.2138602416992186,-4.086902233886718,-3.282442748091603,-7.7251908396946565,-50.80916030534351
6257381543132,0.488106406,3,1.4113818786621093,3.094505645751953,-4.651933825683593,-37.63358778625954,-51.06106870229008,-120.49618320610686
6257401383653,0.507946927,3,-0.04908113403320312,5.067327813720703,-4.811148236083984,-47.54961832061068,-78.74045801526718,-153.9770992366412
6257421381465,0.527944739,3,-1.9728221679687499,7.0652890991210935,-5.671863732910156,-64.97709923664122,-122.3969465648855,-165.93129770992365
6257441334121,0.547897395,3,-3.8367081604003905,10.072406384277343,-7.981071234130859,-107.47328244274809,-164.55725190839695,-166.9618320610687
6257461434538,0.567997812,3,-4.101267443847656,13.160926525878905,-10.347739575195313,-140.49618320610688,-156.24427480916032,-140.9236641221374
6257481400007,0.587963281,3,-2.7736826232910157,13.582306018066406,-11.584344732666015,-83.1526717557252,-85.3587786259542,-45.465648854961835
6257501364850,0.607928124,3,-2.825157958984375,9.75517466430664,-9.943119494628906,40.02290076335878,24.27480916030534,113.82442748091603
6257521382663,0.627945937,3,-1.9584569580078124,5.2456958374023435,-7.217320904541015,114.63358778625954,117.44274809160305,176.2290076335878
6257541400684,0.647963958,3,-0.2645592834472656,2.834734765625,-5.567715960693359,130.49618320610688,146.58778625954199,147.6030534351145
6257561385059,0.667948333,3,1.1935095275878906,1.5658078857421873,-4.1946413085937495,92.30534351145039,137.0381679389313,92.64885496183206
6257581383288,0.687946562,3,2.109291662597656,1.3682862487792968,-3.5697546752929687,66.85496183206106,98.6412213740458,32.13740458015267
6257601382975,0.707946249,3,1.696291876220703,2.0087351928710935,-3.593696691894531,22.083969465648856,33.00763358778626,-24.84732824427481
6257621380163,0.727943437,3,0.9636661682128905,3.7158009765625,-4.690241052246093,-28.732824427480917,-35.23664122137404,-76.25954198473282
6257641378600,0.747941874,3,0.19153613281249998,5.364208819580078,-5.8262897399902345,-59.94656488549618,-72.61832061068702,-100.72519083969466
6257661390215,0.767953489,3,-0.4213794921875,6.4846951965332025,-6.981492041015625,-66.73282442748092,-91.80152671755725,-97.25190839694656
6257681371830,0.787935104,3,-1.209071838378906,6.987477545166016,-7.5165961120605465,-67.67175572519083,-86.36641221374046,-82.52671755725191
6257701383236,0.80794651,3,-1.8423381774902343,7.129932543945312,-7.89727417602539,-44.343511450381676,-70.79389312977099,-64.56488549618321
6257721358652,0.827921926,3,-1.7944541442871094,6.890512377929687,-8.160636358642577,-44.18320610687023,-52.786259541984734,-47.221374045801525
6257741470736,0.84803401,3,-1.8698714965820311,6.34583150024414,-7.781155395507812,-25.129770992366414,-24.633587786259543,-33.0763358778626
6257761382090,0.867945364,3,-2.1990742248535153,6.640318304443359,-7.3549875,-2.030534351145038,-1.916030534351145,-39.595419847328245
6257781398496,0.88796177,3,-3.0131027893066404,8.15345375366211,-6.884526873779296,10.053435114503817,13.19083969465649,-63.587786259541986
6257801347402,0.907910676,3,-2.3223756103515623,9.436745843505859,-7.636306195068359,-5.679389312977099,6.480916030534351,-56.229007633587784
6257821368340,0.927931614,3,-1.6029180114746093,9.630676177978515,-7.995436444091796,-8.091603053435115,13.51908396946565,-12.48091603053435
6257841385892,0.947949166,3,-1.5849614990234373,7.71890615234375,-7.260416534423828,35.86259541984733,41.717557251908396,58.6412213740458
6257861373861,0.967937135,3,-0.719457598876953,5.163095880126953,-6.041767889404296,58.12213740458015,66.0381679389313,97.89312977099236
6257881368444,0.987931718,3,0.2753331909179687,3.1567548889160153,-5.219359619140625,57.396946564885496,66.10687022900764,100.70229007633588
6257901405319,1.007968593,3,0.8044517578125,1.9668366638183592,-4.582501977539062,45.969465648854964,50.282442748091604,71.7175572519084
6257921379538,1.027942812,3,0.6775590698242188,1.7310078002929687,-4.236539837646484,28.34351145038168,20.290076335877863,21.206106870229007
6257941379121,1.047942395,3,0.09816226806640624,2.7054478759765623,-5.040991595458984,-5.603053435114504,-27.938931297709924,-35.732824427480914
6257961405788,1.067969062,3,-1.1671733093261718,4.43047017211914,-6.523002423095702,-59.98473282442748,-74.13740458015268,-68.17557251908397
6257981342871,1.087906145,3,-1.159990704345703,6.218938812255859,-7.961917620849609,-84.95419847328245,-85.29770992366412,-86.93893129770993
6258001364902,1.107928176,3,-2.402581365966797,7.017405065917968,-8.588001354980468,-66.83969465648855,-62.54961832061068,-80.80916030534351
6258021356361,1.127919635,3,-1.543062969970703,7.162254266357421,-8.525752111816406,-14.290076335877863,-9.541984732824428,-74.20610687022901
6258041403027,1.147966301,3,-2.2206220397949217,6.874950067138672,-6.667851623535156,13.244274809160306,33.05343511450382,-59.98473282442748
6258061327194,1.167890468,3,-1.7932570434570312,6.848613848876953,-6.0321910827636716,37.10687022900763,35.961832061068705,-58.88549618320611
6258081462611,1.188025885,3,-2.2361843505859373,7.161057165527343,-5.786785412597656,23.740458015267176,22.595419847328245,-49.534351145038165
6258101383027,1.207946301,3,-1.552639776611328,7.3286512817382805,-6.49307490234375,12.473282442748092,6.534351145038168,-35.48854961832061
6258121392246,1.22795552,3,-1.8136077575683593,7.048529687499999,-7.292738256835937,40.274809160305345,-2.564885496183206,-7.709923664122138
6258141401465,1.247964739,3,-1.0330980163574217,6.1842228881835934,-7.789535101318359,24.908396946564885,6.190839694656488,15.633587786259541
6258161397454,1.267960728,3,-3.4931402221679684,6.347028601074219,-6.11598814086914,14.641221374045802,31.404580152671755,17.16793893129771
6258181358444,1.287921718,3,-0.9636661682128905,6.527790826416015,-7.012616662597656,46.38931297709924,20.946564885496183,10.618320610687023
6258201369277,1.307932551,3,-1.8758570007324218,5.475539196777343,-6.289567761230469,32.6412213740458,13.687022900763358,37.06106870229008
6258221519434,1.328082708,3,-1.4508862060546874,4.358644122314453,-6.093243225097656,64.50381679389314,11.16030534351145,61.656488549618324
6258241483496,1.34804677,3,-1.2713210815429687,3.968389251708984,-5.7891796142578125,-6.3893129770992365,-7.404580152671755,60.55725190839695
6258261401881,1.367965155,3,-1.3204022155761719,3.9911341674804683,-6.6702458251953125,-41.916030534351144,-56.274809160305345,59.25190839694657
6258281381986,1.38794526,3,-1.0977414611816405,3.775656018066406,-7.62912359008789,-118.6412213740458,-69.51908396946565,53.81679389312977
6258301380840,1.407944114,3,-1.7741034301757812,3.7505169006347656,-8.455123162841796,-39.25190839694657,-64.40458015267176,38.76335877862596
6258321393288,1.427956562,3,-2.3415292236328122,4.359841223144531,-8.410830432128906,-38.56488549618321,-38.0763358778626,7.1679389312977095
6258341345892,1.447909166,3,-2.858676782226562,5.541379742431641,-8.775946185302734,-13.473282442748092,-23.564885496183205,-16.31297709923664
6258361379850,1.467943124,3,-2.0925322509765625,7.156268762207031,-8.957905511474609,-27.984732824427482,4.267175572519084,-32.29007633587786
6258381383704,1.487946978,3,-1.8291700683593748,7.331045483398437,-8.45272896118164,6.091603053435114,42.80916030534351,-3.6259541984732824
6258401398704,1.507961978,3,-1.3527239379882812,5.667075329589843,-7.208941198730468,32.083969465648856,66.76335877862596,40.16793893129771
6258421353340,1.527916614,3,-0.373495458984375,3.9504327392578125,-6.206967803955078,39.13740458015267,71.72519083969466,48.18320610687023
6258441405944,1.547969218,3,-0.12569558715820311,3.046621612548828,-5.428852264404297,44.0763358778626,67.22900763358778,26.30534351145038
6258461400683,1.567963957,3,-0.034715924072265626,4.132392065429687,-5.439626171875,24.16030534351145,38.6793893129771,-26.00763358778626
6258481385163,1.587948437,3,0.04548983154296875,5.747281085205078,-5.923254907226562,-0.03816793893129771,9.618320610687023,-57.725190839694655
6258501381569,1.607944843,3,-0.6787561706542968,6.554127044677734,-6.161477972412109,-4.145038167938932,-11.633587786259541,-46.74809160305343
6258521362506,1.62792578,3,-1.255758770751953,6.555324145507812,-6.880935571289062,-11.83206106870229,-34.85496183206107,-14.259541984732824
6258541378860,1.647942134,3,-1.4065934753417968,6.56968935546875,-7.841010437011718,-40.030534351145036,-52.51145038167939,9.076335877862595
6258561385215,1.667948489,3,-2.1811177124023438,7.4579381713867186,-9.542090716552734,-49.282442748091604,-58.786259541984734,20.572519083969464
6258581376465,1.687939739,3,-2.540247961425781,9.673771807861328,-10.832565411376953,-59.9236641221374,-32.13740458015267,18.114503816793892
6258601379954,1.707943228,3,-3.372233038330078,10.64821188354492,-10.946289990234375,-42.030534351145036,11.183206106870228,68.67175572519083
6258621389798,1.727953072,3,-2.835931866455078,9.069235888671875,-11.579556329345703,-7.404580152671755,45.412213740458014,161.1145038167939
6258641387350,1.747950624,3,-1.0690110412597655,3.938461730957031,-9.21887349243164,31.717557251908396,133.22137404580153,240.54961832061068
6258661347767,1.767911041,3,0.2262520568847656,0.2645592834472656,-6.423643054199219,172.74809160305344,207.6793893129771,228.18320610687022
6258681352871,1.787916145,3,2.1260510742187497,-2.127248175048828,-4.295197778320312,142.1679389312977,236.0381679389313,161.3969465648855
6258701380423,1.807943697,3,3.5314474487304683,-3.404554760742187,-2.31758720703125,131.9236641221374,227.34351145038167,69.02290076335878
6258721385423,1.827948697,3,4.321533996582031,-2.682702960205078,-1.1336544860839843,136.6412213740458,158.3969465648855,-56.67175572519084
6258741383965,1.847947239,3,3.689464758300781,-0.7745242370605468,-0.7709329345703124,45.916030534351144,65.70992366412214,-168.74045801526717
6258761393652,1.867956926,3,2.454056701660156,2.440888592529297,-1.6699556579589843,-18.87786259541985,-37.99236641221374,-249.64885496183206
6258781379850,1.887943124,3,0.36750995483398435,6.417657550048828,-3.612850305175781,-88.18320610687023,-140.75572519083968,-250.13740458015266
6258801390579,1.907953853,3,-0.9050082275390624,10.728417639160156,-5.84783755493164,-161.33587786259542,-200.55725190839695,-250.13740458015266
6258821379017,1.927942291,3,-1.9871873779296874,13.549984295654296,-8.354566693115235,-153.9618320610687,-224.38931297709922,-243.3969465648855
6258841380162,1.947943436,3,-1.9764134704589842,13.318943835449218,-10.558429321289061,-118.76335877862596,-201.34351145038167,-96.64885496183206
6258861405892,1.967969166,3,-1.8411410766601561,10.302249743652343,-10.722432135009765,-57.49618320610687,-112.17557251908397,31.954198473282442
6258881391881,1.987955155,3,-1.2282254516601563,6.556521246337891,-8.986635931396483,56.37404580152672,-10.893129770992367,83.41984732824427
6258901381621,2.007944895,3,-0.8930372192382812,4.754884497070313,-6.787561706542968,107.93129770992367,50.70992366412214,62.7557251908397
6258921374798,2.027938072,3,-0.7613561279296874,4.027047192382812,-5.9950809570312495,76.94656488549619,40.465648854961835,34.00763358778626
6258941381204,2.047944478,3,-1.158793603515625,4.412513659667969,-6.89530078125,-2.1603053435114505,-21.72519083969466,15.664122137404581
6258961480579,2.068043853,3,-1.1935095275878906,6.436811163330078,-8.388085516357421,-72.08396946564885,-50.74809160305343,-24.27480916030534
6258981407558,2.087970832,3,-1.5263035583496092,8.954314208984375,-8.170213165283203,-34.12213740458015,-26.0,-51.83969465648855
6259001367871,2.107931145,3,-2.039859814453125,9.558850128173827,-8.473079675292968,-24.419847328244273,-38.74809160305343,-14.053435114503817
6259021411152,2.127974426,3,-2.5474305664062498,8.481459381103516,-8.39526812133789,-67.74809160305344,-57.74809160305343,56.732824427480914
6259041406517,2.147969791,3,-1.9943699829101562,7.766790185546874,-9.150638745117186,-93.74809160305344,-67.40458015267176,74.98473282442748
6259061365006,2.16792828,3,-1.3934253662109375,7.114370233154297,-8.755595471191405,-46.85496183206107,-24.33587786259542,76.61832061068702
6259081399329,2.187962603,3,-0.6607996582031249,5.4707507934570305,-7.520187414550781,15.541984732824428,38.57251908396947,77.66412213740458
6259101453183,2.208016457,3,0.16280571289062498,4.165910888671875,-5.327098693847656,96.92366412213741,100.45801526717557,70.83969465648855
6259121401933,2.227965207,3,1.0414777221679687,3.247734552001953,-3.1962592163085937,106.33587786259542,139.81679389312978,58.43511450381679
6259141393704,2.247956978,3,1.4903905334472656,2.6300305236816404,-2.0075380920410155,104.69465648854961,115.04580152671755,55.70992366412214
6259161402402,2.267965676,3,2.076969940185547,1.7753005310058592,-1.8459294799804686,41.61832061068702,59.213740458015266,59.44274809160305
6259181384642,2.287947916,3,1.8854338073730468,1.054645831298828,-2.8419173706054686,-2.5343511450381677,-7.305343511450381,52.969465648854964
6259201382298,2.307945572,3,1.2401964599609374,1.005564697265625,-4.341884710693359,-50.725190839694655,-66.25954198473282,28.12213740458015
6259221385371,2.327948645,3,0.9469067565917968,1.85790048828125,-5.802347723388672,-91.76335877862596,-87.19847328244275,-20.931297709923665
6259241392766,2.34795604,3,0.8595183959960937,3.3315316101074215,-6.763619689941406,-49.10687022900763,-78.40458015267176,-75.70992366412214
6259261350423,2.367913697,3,1.0414777221679687,4.490325213623047,-5.697002850341796,-5.450381679389313,-29.251908396946565,-118.48091603053435
6259281404069,2.387967343,3,-0.2825157958984375,5.864596966552734,-4.2137949218749995,62.00763358778626,-16.31297709923664,-146.23664122137404
6259301392975,2.407956249,3,-1.4688427185058592,7.3286512817382805,-4.510675927734375,16.450381679389313,-71.59541984732824,-147.45801526717557
6259321379537,2.427942811,3,-2.6958710693359373,8.711302740478516,-5.8262897399902345,-52.396946564885496,-129.35114503816794,-133.46564885496184
6259341413704,2.447976978,3,-4.8877626892089845,9.458293658447266,-7.544129431152343,-71.09923664122137,-168.46564885496184,-89.12977099236642
6259361389433,2.467952707,3,-5.403713146972656,9.606734161376952,-10.079588989257813,-103.05343511450381,-189.93129770992365,-46.595419847328245
6259381388548,2.487951822,3,-4.839878656005859,9.532513909912108,-11.420341918945311,-102.70992366412214,-150.85496183206106,-17.801526717557252
6259401397766,2.50796104,3,-4.669890338134765,8.335413079833984,-11.244368096923827,-40.61832061068702,-66.41984732824427,14.15267175572519
6259421366100,2.527929374,3,-4.016273284912109,6.9348051086425775,-9.32182416381836,24.984732824427482,33.38167938931298,20.778625954198475
6259441360475,2.547923749,3,-3.314772198486328,6.9731123352050774,-7.125144140624999,76.29007633587786,97.5114503816794,-7.564885496183206
6259461398860,2.567962134,3,-2.722207287597656,7.273584643554687,-5.547365246582031,55.465648854961835,107.2824427480916,-20.16030534351145
6259481394641,2.587957915,3,-2.558204473876953,7.572859851074218,-5.1523219726562495,36.88549618320611,75.18320610687023,-8.687022900763358
6259501397506,2.60796078,3,-2.3618799377441406,7.493851196289062,-5.680243438720702,-6.99236641221374,29.419847328244273,15.15267175572519
6259521408496,2.62797177,3,-2.4013842651367185,7.605181573486328,-6.828263134765624,-33.43511450381679,-4.732824427480916,27.977099236641223
6259541398235,2.647961509,3,-2.1595698974609374,7.153874560546875,-7.249642626953125,-30.6793893129771,-2.33587786259542,41.06870229007634
6259561398912,2.667962186,3,-1.6795324645996093,5.80354482421875,-6.836642840576172,4.557251908396947,20.80916030534351,59.05343511450382
6259581415058,2.687978332,3,-0.9038111267089843,4.6255976074218745,-5.780799908447265,35.62595419847328,52.05343511450382,53.62595419847328
6259601387923,2.707951197,3,-0.5267243652343749,4.301183282470703,-4.570530969238281,63.0763358778626,70.16793893129771,29.870229007633586
6259621394068,2.727957342,3,-0.2861070983886719,4.771643908691406,-4.108450048828125,49.12213740458015,55.10687022900763,6.66412213740458
6259641403756,2.74796703,3,0.20949264526367187,5.29238276977539,-4.185064501953125,10.473282442748092,31.64885496183206,1.0687022900763359
6259661402402,2.767965676,3,0.22864625854492185,4.848258361816406,-4.209006518554688,1.1297709923664123,12.893129770992367,27.572519083969464
6259681405839,2.787969113,3,0.24181436767578124,3.7912183288574215,-4.35385571899414,-11.954198473282442,-1.2442748091603053,49.3206106870229
6259701410266,2.80797354,3,0.07302315063476562,2.731784094238281,-5.009866973876953,-28.916030534351144,-23.427480916030536,52.33587786259542
6259721388339,2.827951613,3,-0.3854664672851562,2.422932080078125,-5.372588525390625,-30.412213740458014,-27.442748091603054,23.3206106870229
6259741385110,2.847948384,3,-1.889025109863281,4.587290380859375,-6.191405493164062,-33.67175572519084,-36.282442748091604,-30.396946564885496
6259761394902,2.867958176,3,-2.31758720703125,7.581239556884765,-7.922413293457031,-85.69465648854961,-52.9236641221374,-73.63358778625954
6259781397610,2.887960884,3,-2.3427263244628906,7.308300567626953,-8.831012823486327,-53.31297709923664,-30.85496183206107,-35.79389312977099
6259801392454,2.907955728,3,-3.5027170288085934,7.16943687133789,-8.01818135986328,20.916030534351144,11.259541984732824,-19.16030534351145
6259821403756,2.92796703,3,-3.303998291015625,8.355763793945313,-9.39125601196289,-0.9618320610687023,4.763358778625954,-33.70992366412214
6259841389693,2.947952967,3,-2.4097639709472656,8.70771143798828,-9.466673364257812,-37.23664122137404,31.015267175572518,-18.603053435114504
6259861356777,2.967920051,3,-2.136824981689453,6.868964562988281,-8.443152154541016,46.41984732824427,77.3206106870229,21.671755725190838
6259881419537,2.987982811,3,-1.3311761230468748,5.556942053222656,-7.082048510742187,66.61068702290076,107.56488549618321,9.16030534351145
6259901395162,3.007958436,3,-0.7936778503417968,6.030993981933594,-7.0844427124023435,46.25954198473283,91.01526717557252,-28.633587786259543
6259921367975,3.027931249,3,-0.8690952026367187,6.056133099365234,-6.321889483642578,43.44274809160305,107.01526717557252,-32.534351145038165
6259941414693,3.047977967,3,-0.015562310791015624,5.57370146484375,-6.15429536743164,52.6793893129771,105.58015267175573,-18.931297709923665
6259961391412,3.067954686,3,1.025915411376953,4.100070343017578,-5.579686968994141,38.98473282442748,104.62595419847328,1.1755725190839694
6259981388131,3.087951405,3,1.3778630554199218,4.168305090332031,-5.358223315429687,51.13740458015267,70.7557251908397,-22.389312977099237
6260001396516,3.10795979,3,1.0438719238281249,4.6351744140625,-4.695029455566406,10.885496183206106,46.14503816793893,-40.404580152671755
6260021384433,3.127947707,3,0.5374982727050781,5.220556719970703,-4.993107562255859,8.67175572519084,2.7251908396946565,-44.58015267175573
6260041395318,3.147958592,3,0.32082302246093747,5.835866546630859,-5.951985327148437,-38.58015267175573,-38.56488549618321,-43.770992366412216
6260061408287,3.167971561,3,-0.16041151123046873,6.490680700683593,-7.234080316162109,-37.3206106870229,-66.53435114503817,-35.48854961832061
6260081363547,3.187926821,3,-0.32441432495117184,6.330269189453125,-7.829039428710937,-39.50381679389313,-57.083969465648856,-19.450381679389313
6260101354537,3.207917811,3,-1.0187328063964842,4.503493322753906,-7.824251025390624,-4.923664122137405,-39.961832061068705,6.763358778625954
6260121405318,3.227968592,3,-1.552639776611328,3.2704794677734372,-7.915230688476562,-8.51908396946565,-34.29770992366412,5.374045801526718
6260141468183,3.248031457,3,-0.16759411621093748,5.042188696289062,-9.437942944335937,-51.25954198473283,-41.14503816793893,-55.9236641221374
6260161404745,3.267968019,3,-1.7417817077636717,7.659051110839843,-9.527725506591796,-70.76335877862596,-18.595419847328245,-83.6793893129771
6260181463704,3.288026978,3,-1.9895815795898437,8.919598284912109,-9.424774835205078,-14.068702290076336,19.52671755725191,-65.1526717557252
6260201398599,3.307961873,3,-2.9939491760253905,8.589198455810546,-8.265981231689453,16.244274809160306,54.9236641221374,-18.48854961832061
6260221383964,3.327947238,3,-0.6093243225097655,7.507019305419921,-8.292317449951172,10.366412213740459,51.19847328244275,22.374045801526716
6260241485006,3.34804828,3,0.354341845703125,4.8877626892089845,-6.937199310302734,36.41984732824427,80.7175572519084,68.29007633587786
6260261437714,3.368000988,3,1.1755530151367186,2.7712884216308593,-4.566939666748047,97.3206106870229,121.33587786259542,69.38167938931298
6260281368183,3.387931457,3,1.5682020874023437,2.1990742248535153,-3.028665100097656,84.40458015267176,110.67175572519083,28.244274809160306
6260301414849,3.407978123,3,1.1947066284179686,4.10485874633789,-3.4332851806640625,59.38167938931298,40.48091603053435,-39.786259541984734
6260321391776,3.42795505,3,1.073799444580078,7.353790399169921,-5.021837982177734,-36.83206106870229,-43.3587786259542,-83.52671755725191
6260341383912,3.447947186,3,0.38187516479492184,9.082403997802734,-7.058106494140625,-54.778625954198475,-99.1526717557252,-50.63358778625954
6260361403547,3.467966821,3,-1.2868833923339842,8.959102612304687,-8.109161022949218,-84.22137404580153,-123.59541984732824,38.6793893129771
6260381350058,3.487913332,3,-2.043451116943359,6.241683728027343,-9.520542901611327,-127.22137404580153,-140.6412213740458,126.77862595419847
6260401387818,3.507951092,3,-1.7968483459472655,5.4899044067382805,-11.589133135986328,-102.04580152671755,-123.22900763358778,125.72519083969466
6260421490318,3.528053592,3,-1.2725181823730467,5.66946953125,-11.056423266601563,-54.343511450381676,-22.671755725190838,61.81679389312977
6260443007401,3.549570675,3,-1.1264718811035155,6.411672045898437,-8.986635931396483,62.3587786259542,58.3206106870229,10.0
6260462982818,3.569546092,3,-0.737414111328125,6.379350323486328,-7.941566906738281,40.83206106870229,72.58015267175573,17.732824427480917
6260482968235,3.589531509,3,-0.35194764404296874,6.367379315185547,-7.592013464355468,14.236641221374045,65.93893129770993,45.916030534351144
6260503008443,3.609571717,3,0.35793314819335936,5.482721801757812,-7.040149981689453,0.3816793893129771,77.54961832061069,75.29007633587786
6260522981203,3.629544477,3,1.24498486328125,4.857835168457031,-6.313509777832031,39.66412213740458,101.12213740458016,68.30534351145039
6260542947922,3.649511196,3,2.1679496032714844,3.2716765686035156,-4.236539837646484,101.09160305343511,163.21374045801528,83.90839694656489
6260562996985,3.669560259,3,2.3319524169921872,1.1707646118164061,-2.0087351928710935,145.10687022900763,180.93893129770993,101.67175572519083
6260583019276,3.68958255,3,2.0973206542968748,1.189918225097656,-1.6519991455078125,85.45801526717557,118.3969465648855,73.7175572519084
6260602996724,3.709559998,3,3.4739866088867184,2.299630694580078,-3.584119885253906,-40.56488549618321,24.03053435114504,25.6793893129771
6260623033703,3.729596977,3,2.5917232971191404,3.4428619873046875,-5.306747979736328,-79.06870229007633,-35.87022900763359,17.259541984732824
6260642980787,3.749544061,3,2.8000188415527343,5.992686755371094,-7.9283987976074215,-118.97709923664122,-77.22900763358778,-15.335877862595419
6260662941620,3.769504894,3,2.8012159423828122,7.316680273437499,-9.087192401123046,-125.74045801526718,-64.30534351145039,-24.938931297709924
6260682990683,3.789553957,3,1.5969325073242187,7.784746697998046,-9.269151727294922,-4.396946564885496,-25.083969465648856,-17.259541984732824
6260702976360,3.809539634,3,1.9033903198242186,7.997830645751953,-8.692149127197265,-9.01526717557252,9.50381679389313,-5.267175572519084
6260722974328,3.829537602,3,2.4061726684570313,6.271611248779297,-7.363367205810547,22.84732824427481,34.97709923664122,30.221374045801525
6260743003599,3.849566873,3,2.8886043029785156,4.474762902832031,-5.697002850341796,65.74045801526718,59.56488549618321,43.80152671755725
6260762980370,3.869543644,3,3.861847277832031,3.4332851806640625,-4.465186096191406,53.908396946564885,63.656488549618324,26.763358778625953
6260782990214,3.889553488,3,0.12449848632812499,4.687846850585937,-4.246116644287109,27.374045801526716,12.816793893129772,-0.3816793893129771
6260802992193,3.909555467,3,3.9037458068847655,4.06655151977539,-6.460753179931641,-48.083969465648856,-33.52671755725191,-16.938931297709924
6260823006464,3.929569738,3,2.480392919921875,6.102820031738281,-7.535749725341796,-31.419847328244273,-54.045801526717554,-32.79389312977099
6260842982193,3.949545467,3,3.1962592163085937,6.449979272460937,-7.68658442993164,-33.725190839694655,-44.58015267175573,-21.923664122137403
6260862961151,3.969524425,3,2.7042507751464844,4.629188909912109,-6.835445739746094,-1.5190839694656488,-32.045801526717554,21.80916030534351
6260882986047,3.989549321,3,2.418143676757812,3.027467999267578,-6.285976458740234,8.664122137404581,-33.229007633587784,30.770992366412212
6260902992141,4.009555415,3,2.1906945190429687,2.5641899780273434,-7.613561279296874,-38.083969465648856,-57.045801526717554,4.603053435114504
6260922997193,4.029560467,3,1.3467384338378905,4.292803576660156,-8.406042028808594,-65.12977099236642,-55.25954198473283,-55.81679389312977
6260942994380,4.049557654,3,1.608903515625,6.095637426757812,-8.564059338378906,-3.2061068702290076,-20.129770992366414,-96.81679389312977
6260963040057,4.069603331,3,1.4113818786621093,6.602011077880859,-7.7608046813964835,14.954198473282442,16.580152671755727,-95.87022900763358
6260982993755,4.089557029,3,1.7262193969726563,5.853823059082031,-7.212532501220703,45.25190839694657,24.213740458015266,-70.93893129770993
6261002958755,4.109522029,3,1.1563994018554686,3.497928625488281,-6.453570574951171,3.2595419847328246,16.984732824427482,-26.328244274809162
6261022984172,4.129547446,3,1.5286977600097655,1.6352397338867186,-7.0640919982910155,-40.343511450381676,-14.34351145038168,-23.9618320610687
6261042980162,4.149543436,3,0.42377369384765623,2.625242120361328,-7.4699091796875,-99.77862595419847,-24.053435114503817,-87.14503816793894
6261062986932,4.169550206,3,-0.031124621582031248,5.398924743652343,-8.56765064086914,-26.870229007633586,-13.473282442748092,-163.76335877862596
6261083023339,4.189586613,3,0.11013327636718749,7.098807922363281,-8.772354882812499,-23.198473282442748,12.15267175572519,-172.25954198473283
6261102973599,4.209536873,3,-0.9109937316894531,7.600393170166015,-8.271966735839843,-15.748091603053435,30.34351145038168,-136.2824427480916
6261123021516,4.22958479,3,-0.32082302246093747,7.505822204589843,-7.972691528320312,-11.702290076335878,49.770992366412216,-103.22137404580153
6261142996776,4.24956005,3,0.5219359619140624,7.077260107421875,-7.311891870117187,-18.213740458015266,78.31297709923665,-77.48091603053435
6261162939328,4.269502602,3,1.35990654296875,6.766013891601562,-6.34583150024414,16.763358778625953,96.62595419847328,-65.65648854961832
6261182977141,4.289540415,3,1.1013327636718748,7.135918048095703,-5.462371087646484,29.374045801526716,95.08396946564885,-79.6793893129771
6261202980057,4.309543331,3,1.16837041015625,8.170213165283203,-5.219359619140625,-0.732824427480916,70.50381679389314,-99.38167938931298
6261223013026,4.3295763,3,0.22505495605468748,9.29548794555664,-4.781220715332031,0.9770992366412213,57.25190839694657,-82.90839694656489
6261242962089,4.349525363,3,0.86191259765625,9.5001921875,-5.221753820800781,-0.8320610687022901,27.480916030534353,-38.534351145038165
6261262973182,4.369536456,3,0.8451531860351562,8.086416107177733,-5.390545037841797,-35.06106870229008,6.259541984732825,33.80916030534351
6261282987870,4.389551144,3,0.5147533569335937,6.367379315185547,-5.863399865722656,-17.33587786259542,-12.099236641221374,84.10687022900764
6261302975474,4.409538748,3,0.8667010009765624,4.959588739013672,-6.517016918945312,-60.64885496183206,-19.083969465648856,95.97709923664122
6261322971880,4.429535154,3,1.8411410766601561,4.553771557617187,-6.713341455078124,-53.213740458015266,-16.12213740458015,68.85496183206106
6261342977245,4.449540519,3,0.9923965881347656,5.7700260009765625,-7.621940985107422,0.5190839694656488,-17.053435114503817,29.374045801526716
6261362965891,4.469529165,3,1.523909356689453,6.081272216796875,-7.8170684204101555,-53.25954198473283,-8.435114503816793,23.022900763358777
6261382991724,4.489554998,3,0.8942343200683593,5.452794281005859,-7.235277416992187,-7.137404580152672,5.038167938931298,38.52671755725191
6261402968234,4.509531508,3,1.533486163330078,4.860229370117187,-6.6893994384765625,16.396946564885496,28.221374045801525,33.32824427480916
6261422974953,4.529538227,3,1.3431471313476562,4.6830584472656245,-5.910086798095703,8.931297709923664,36.32824427480916,18.916030534351144
6261443090318,4.549653592,3,1.7226280944824217,5.633556506347656,-6.010643267822266,-2.068702290076336,28.595419847328245,-12.198473282442748
6261463008391,4.569571665,3,1.7513585144042967,6.697779144287109,-5.911283898925781,-23.366412213740457,20.66412213740458,-24.954198473282442
6261482983339,4.589546613,3,1.5825672973632812,6.979097839355468,-5.931634613037109,-25.213740458015266,12.885496183206106,-15.816793893129772
6261502974797,4.609538071,3,2.138022082519531,7.851784344482422,-6.374561920166015,-15.664122137404581,9.251908396946565,-17.0
6261522960891,4.629524165,3,1.8507178833007811,7.511807708740234,-6.063315704345703,-6.633587786259542,16.404580152671755,2.1374045801526718
6261542995057,4.649558331,3,2.3439234252929686,6.751648681640624,-5.9962780578613275,-15.595419847328245,12.580152671755725,27.389312977099237
6261562905734,4.669469008,3,1.5945383056640625,5.900509991455078,-6.238092425537109,-43.33587786259542,-5.267175572519084,53.31297709923664
6261582975370,4.689538644,3,2.020706201171875,5.681440539550781,-6.885723974609375,-69.4885496183206,-7.770992366412214,40.603053435114504
6261602968026,4.7095313,3,1.848323681640625,5.600037683105469,-7.184999182128906,-66.0,4.916030534351145,23.938931297709924
6261623004380,4.729567654,3,3.037044805908203,5.849034655761718,-6.477512591552734,27.84732824427481,65.22137404580153,-18.374045801526716
6261643085213,4.749648487,3,1.839943975830078,5.585672473144531,-5.0182466796875,52.282442748091604,81.87022900763358,-30.564885496183205
6261662985630,4.769548904,3,0.12569558715820311,6.593631372070312,-4.540603448486328,28.114503816793892,62.152671755725194,-43.88549618320611
6261682922609,4.789485883,3,3.1292215698242187,6.9156514953613275,-5.716156463623046,-25.770992366412212,38.83206106870229,-44.83969465648855
6261702986984,4.809550258,3,3.2237925354003902,6.947973217773437,-5.577292767333984,-10.106870229007633,40.81679389312977,-32.969465648854964
6261722923703,4.829486977,3,3.0980969482421874,6.436811163330078,-5.313930584716797,0.6335877862595419,39.49618320610687,-20.068702290076335
6261743067297,4.849630571,3,3.4524387939453125,5.802347723388672,-4.42448466796875,34.603053435114504,57.2442748091603,-26.786259541984734
6261762981359,4.869544633,3,3.3327287109375,5.552153649902343,-3.584119885253906,58.06870229007634,41.3587786259542,-32.778625954198475
6261782987349,4.889550623,3,2.7090391784667966,6.1076084350585935,-3.015496990966797,43.541984732824424,16.290076335877863,-60.732824427480914
6261802963182,4.909526456,3,3.518279339599609,6.833051538085937,-3.6272155151367187,21.862595419847327,-41.23664122137404,-59.12213740458015
6261822979432,4.929542706,3,1.9237410339355467,7.295132458496093,-3.8474820678710935,-35.770992366412216,-95.17557251908397,-46.29007633587786
6261842970005,4.949533279,3,1.7513585144042967,7.320271575927734,-4.892551092529296,-24.442748091603054,-134.09923664122138,-17.66412213740458
6261862995734,4.969559008,3,0.6272808349609375,6.721721160888672,-5.530605834960937,-60.41984732824427,-149.03053435114504,10.404580152671755
6261882970838,4.989534112,3,0.3507505432128906,6.440402465820312,-6.495469104003906,-75.95419847328245,-161.55725190839695,18.80916030534351
6261902910526,5.0094738,3,0.32441432495117184,6.9539587219238275,-7.2723875427246085,-45.969465648854964,-136.90076335877862,-11.587786259541986
6261922923443,5.029486717,3,-1.054645831298828,7.392097625732421,-7.668627917480468,-10.366412213740459,-120.94656488549619,-21.61832061068702
6261942966099,5.049529373,3,-0.6871358764648438,7.751227874755859,-8.098387115478515,-32.587786259541986,-103.03053435114504,-28.82442748091603
6261962948807,5.069512081,3,-1.2976572998046874,7.841010437011718,-8.257601525878906,-6.198473282442748,-77.93129770992367,-16.015267175572518
6261982953807,5.089517081,3,-0.8415618835449218,7.526172918701171,-7.387309222412109,2.8473282442748094,-27.793893129770993,-9.076335877862595
6262002941880,5.109505154,3,-0.9995791931152344,7.116764434814453,-7.017405065917968,43.9236641221374,-7.480916030534351,4.5038167938931295
6262023208130,5.129771404,3,-0.10175357055664062,6.441599566650391,-6.4834980957031245,6.580152671755725,7.740458015267175,9.129770992366412
6262043036567,5.149599841,3,-0.04548983154296875,6.1088055358886715,-5.887341882324218,47.61068702290076,20.068702290076335,1.5267175572519085
6262062986515,5.169549789,3,0.3184288208007812,5.839457849121094,-5.568913061523437,35.030534351145036,15.740458015267176,-6.778625954198473
6262082991932,5.189555206,3,1.0594342346191405,5.594052178955078,-5.358223315429687,21.435114503816795,6.931297709923665,-9.748091603053435
6262102975630,5.209538904,3,-0.18914193115234373,5.947196923828125,-5.012261175537109,28.717557251908396,-8.98473282442748,-19.206106870229007
6262122944797,5.229508071,3,-0.4082113830566406,7.156268762207031,-5.796362219238281,-12.366412213740459,-42.396946564885496,-40.06106870229008
6262143063599,5.249626873,3,-1.0079588989257813,8.259995727539062,-6.49307490234375,-33.396946564885496,-56.01526717557252,-44.847328244274806
6262163133130,5.269696404,3,-0.16041151123046873,8.473079675292968,-6.478709692382812,-7.190839694656488,-41.74809160305343,-29.328244274809162
6262183002192,5.289565466,3,-0.9612719665527343,7.174225274658203,-5.780799908447265,19.35114503816794,-30.045801526717558,11.870229007633588
6262202976828,5.309540102,3,-0.8942343200683593,6.011840368652344,-5.145139367675781,36.23664122137404,-24.14503816793893,23.595419847328245
6262222962713,5.329525987,3,-0.8379705810546875,5.606023187255859,-5.125985754394531,25.259541984732824,-40.29770992366412,11.564885496183207
6262243185682,5.349748956,3,-1.8255787658691405,6.944381915283203,-5.270834954833984,14.083969465648854,-58.0,-19.34351145038168
6262262985942,5.369549216,3,-2.013523596191406,7.783549597167968,-6.718129858398437,-21.236641221374047,-92.06106870229007,-11.290076335877863
6262283632817,5.390196091,3,-2.929305731201172,8.091204510498047,-7.753622076416015,-53.94656488549618,-86.1145038167939,23.908396946564885
6262303152609,5.409715883,3,-2.5342624572753905,7.36097300415039,-8.22288560180664,-44.19847328244275,-59.25954198473283,56.89312977099237
6262323015682,5.429578956,3,-2.461239306640625,6.517016918945312,-8.342595684814453,-15.465648854961833,-24.862595419847327,78.67175572519083
6262343000422,5.449563696,3,-1.9237410339355467,5.275623358154297,-8.030152368164062,-8.603053435114504,15.557251908396946,85.83206106870229
6262363007869,5.469571143,3,-1.744175909423828,4.303577484130859,-7.168239770507812,22.755725190839694,55.786259541984734,62.66412213740458
6262382982765,5.489546039,3,-2.0937293518066404,6.262034442138671,-8.134300140380859,55.3206106870229,58.6412213740458,-1.816793893129771
6262402974432,5.509537706,3,0.20231004028320312,6.998251452636718,-8.39526812133789,-21.396946564885496,92.97709923664122,-27.931297709923665
6262422995682,5.529558956,3,0.4177881896972656,6.185419989013671,-6.519411120605469,92.2824427480916,148.00763358778627,-2.717557251908397
6262442968286,5.54953156,3,0.28730419921875,4.295197778320312,-4.023455889892578,107.6793893129771,173.4351145038168,6.625954198473282
6262462992088,5.569555362,3,0.5686228942871093,4.592078784179687,-3.5601778686523438,116.18320610687023,126.9618320610687,-22.80916030534351
6262483006776,5.58957005,3,1.255758770751953,5.8226984375,-4.1754876953124995,19.0,59.954198473282446,-43.0763358778626
6262503000838,5.609564112,3,2.2756886779785157,6.781576202392578,-5.021837982177734,-9.82442748091603,13.488549618320612,-37.12977099236641
6262522996776,5.62956005,3,1.6124948181152343,5.917269403076172,-5.030217687988281,-8.366412213740459,-14.870229007633588,8.557251908396946
6262542968963,5.649532237,3,2.270900274658203,4.511873028564453,-5.222950921630859,-10.610687022900763,-36.86259541984733,38.282442748091604
6262563006255,5.669569529,3,1.3239935180664062,2.8502970764160156,-4.487931011962891,-12.84732824427481,-50.778625954198475,48.80152671755725
6262582977765,5.689541039,3,0.7781155395507812,2.3235727111816407,-4.529829541015625,-23.65648854961832,-76.44274809160305,19.27480916030534
6262602977661,5.709540935,3,-0.3280056274414062,3.1004911499023438,-5.1343654602050774,-49.66412213740458,-110.68702290076335,-36.86259541984733
6262622936984,5.729500258,3,-2.4947581298828125,5.966350537109375,-5.932831713867187,-56.06106870229008,-148.9236641221374,-107.17557251908397
6262642987349,5.749550623,3,-3.3016040893554686,8.749609967041016,-8.212111694335936,-99.12213740458016,-191.06870229007635,-135.82442748091603
6262663005994,5.769569268,3,-3.9839515624999997,10.715249530029297,-9.149441644287108,-100.06870229007633,-169.08396946564886,-112.73282442748092
6262682990994,5.789554268,3,-4.5585599609375,10.771513269042968,-9.637858782958984,-45.152671755725194,-117.0381679389313,-45.12213740458015
6262702977713,5.809540987,3,-5.142745166015625,9.658209497070311,-8.724470849609375,-25.64885496183206,-45.954198473282446,15.50381679389313
6262722993338,5.829556612,3,-4.455609289550781,9.320627062988281,-7.575254052734374,41.038167938931295,14.916030534351146,14.938931297709924
6262742989015,5.849552289,3,-3.604470599365234,9.549273321533203,-7.333439685058593,14.16793893129771,11.702290076335878,17.595419847328245
6262762986567,5.869549841,3,-1.7214309936523438,9.088389501953124,-7.638700396728515,-4.106870229007634,-4.1679389312977095,46.98473282442748
6262782968546,5.88953182,3,-2.3331495178222657,7.465120776367187,-7.030573175048827,-1.7251908396946565,-20.282442748091604,112.34351145038168
6262802992453,5.909555727,3,-1.7405846069335937,6.177040283203125,-6.430825659179687,3.5572519083969465,3.2900763358778624,122.87786259541984
6262822984796,5.92954807,3,-0.8403647827148437,4.905719201660156,-5.498284112548828,38.14503816793893,30.65648854961832,116.2824427480916
6262842920786,5.94948406,3,-0.2705447875976562,3.5410242553710933,-5.242104534912109,10.51908396946565,31.106870229007633,127.07633587786259
6262863000265,5.969563539,3,-0.4632780212402344,2.7042507751464844,-4.821922143554687,-0.09923664122137404,40.05343511450382,106.22137404580153
6262882993651,5.989556925,3,0.3806780639648437,2.4157494750976563,-4.942829327392578,18.984732824427482,45.16793893129771,67.45038167938931
6262902987400,6.009550674,3,1.4736311218261717,2.0254946044921875,-4.854243865966796,14.488549618320612,57.51145038167939,36.152671755725194
6262922985369,6.029548643,3,1.467645617675781,1.8447323791503905,-4.241328240966797,51.66412213740458,68.05343511450381,3.099236641221374
6262942985005,6.049548279,3,0.718260498046875,1.9656395629882812,-3.9791631591796874,51.213740458015266,48.29770992366412,-25.99236641221374
6262962992921,6.069556195,3,0.06823474731445311,3.2118215270996093,-4.474762902832031,4.893129770992366,7.923664122137405,-65.68702290076335
6262983064119,6.089627393,3,0.2741360900878906,4.531026641845703,-5.8262897399902345,-31.977099236641223,-31.27480916030534,-100.52671755725191
6263002989328,6.109552602,3,-0.9612719665527343,5.871779571533203,-6.010643267822266,-36.6793893129771,-34.70229007633588,-120.55725190839695
6263022990734,6.129554008,3,-2.2649147705078123,7.660248211669922,-6.26921704711914,-6.885496183206107,-43.38931297709924,-139.63358778625954
6263042983911,6.149547185,3,-2.540247961425781,9.363722692871093,-6.861781958007812,-38.045801526717554,-64.38931297709924,-144.76335877862596
6263062978703,6.169541977,3,-4.559757061767578,11.105504400634764,-7.003039855957031,-37.847328244274806,-80.08396946564885,-129.3740458015267
6263082973338,6.189536612,3,-5.45877978515625,12.610260144042968,-8.65623610229492,-41.10687022900763,-116.61068702290076,-92.27480916030534
6263102989328,6.209552602,3,-5.1690813842773435,12.495338464355468,-9.300276348876952,-90.97709923664122,-96.80152671755725,-20.47328244274809
6263122989744,6.229553018,3,-4.556165759277343,11.866860528564452,-8.480262280273436,16.328244274809162,-30.893129770992367,31.458015267175572
6263142958442,6.249521716,3,-3.507505432128906,9.46787046508789,-6.999448553466796,45.68702290076336,13.32824427480916,96.6793893129771
6263162991775,6.269555049,3,-2.7162217834472653,7.343016491699219,-5.9208607055664055,24.709923664122137,1.4732824427480915,145.2290076335878
6263182974952,6.289538226,3,-1.7202338928222656,5.579686968994141,-5.913678100585937,-20.061068702290076,-28.61832061068702,169.3740458015267
6263202989380,6.309552654,3,-0.9959878906249999,4.410119458007812,-5.811924530029296,-30.396946564885496,-22.82442748091603,151.51908396946564
6263222971619,6.329534893,3,-0.4429273071289062,3.670311145019531,-5.813121630859374,22.282442748091604,2.480916030534351,115.86259541984732
6263242974744,6.349538018,3,-0.23582886352539062,2.893392706298828,-5.17746109008789,22.557251908396946,32.412213740458014,92.72519083969466
6263262983025,6.369546299,3,0.6536170532226562,2.3546973327636715,-4.854243865966796,39.847328244274806,51.152671755725194,64.19847328244275
6263282984327,6.389547601,3,0.9888052856445312,1.8806454040527343,-4.253299249267578,35.20610687022901,64.58778625954199,39.80152671755725
6263302962713,6.409525987,3,0.9959878906249999,1.9393033447265624,-3.7624879089355465,50.80152671755725,71.02290076335878,-2.7251908396946565
6263322920994,6.429484268,3,0.5722141967773438,2.722207287597656,-3.3865982482910155,51.06106870229008,68.50381679389314,-55.343511450381676
6263342975213,6.449538487,3,0.5267243652343749,4.328716601562499,-4.173093493652344,19.045801526717558,25.893129770992367,-96.57251908396947
6263362979432,6.469542706,3,0.2214636535644531,5.974730242919922,-5.329492895507812,-10.13740458015267,-5.221374045801527,-113.3969465648855
6263382969588,6.489532862,3,-0.3507505432128906,6.818686328125,-5.969941839599609,-16.557251908396946,-19.69465648854962,-100.76335877862596
6263402974484,6.509537758,3,-0.4465186096191406,7.176619476318359,-6.32667788696289,-17.52671755725191,-26.69465648854962,-82.31297709923665
6263422961098,6.529524372,3,-2.057816326904297,7.70573804321289,-6.246472131347656,-18.595419847328245,-40.47328244274809,-74.62595419847328
6263442984640,6.549547914,3,-2.6396073303222654,8.637082489013672,-6.733692169189453,-24.244274809160306,-59.595419847328245,-80.14503816793894
6263463076827,6.569640101,3,-3.361459130859375,9.287108239746093,-7.586027960205078,-59.82442748091603,-84.62595419847328,-58.229007633587784
6263482975317,6.589538591,3,-3.39018955078125,9.285911138916015,-8.382100012207031,-74.54198473282443,-84.38167938931298,-22.793893129770993
6263502953182,6.609516456,3,-3.4536358947753905,8.377311608886718,-8.511386901855468,-50.17557251908397,-53.80916030534351,18.47328244274809
6263522991411,6.629554685,3,-2.867056488037109,6.83783994140625,-8.17141026611328,-17.076335877862597,-7.549618320610687,40.83969465648855
6263542979900,6.649543174,3,-2.118868469238281,5.2648494506835934,-7.096413720703125,10.801526717557252,33.16793893129771,45.30534351145038
6263563067713,6.669630987,3,-1.8447323791503905,4.440046978759765,-6.415263348388671,26.83206106870229,53.412213740458014,24.114503816793892
6263582922296,6.68948557,3,-1.7621324218749999,4.3634325256347655,-5.859808563232422,6.343511450381679,56.12977099236641,-7.526717557251908
6263602939796,6.70950307,3,-1.7669208251953124,5.390545037841797,-5.8226984375,7.183206106870229,52.06870229007634,-50.274809160305345
6263622981879,6.729545153,3,-1.9823989746093749,6.979097839355468,-5.986701251220703,-7.366412213740458,45.099236641221374,-82.7175572519084
6263642870369,6.749433643,3,-1.7968483459472655,7.995436444091796,-6.308721374511719,-10.786259541984732,47.3587786259542,-82.58778625954199
6263663062921,6.769626195,3,-1.552639776611328,8.10796392211914,-5.904101293945312,6.404580152671755,60.732824427480914,-58.29007633587786
6263682996202,6.789559476,3,-1.2042834350585936,7.370549810791015,-5.214571215820312,29.80916030534351,73.95419847328245,-35.152671755725194
6263702961827,6.809525101,3,-1.429338391113281,6.927622503662109,-4.510675927734375,49.038167938931295,73.06870229007633,-26.748091603053435
6263722986671,6.829549945,3,-0.5566518859863281,6.512228515625,-4.383783239746093,27.81679389312977,52.37404580152672,-19.328244274809162
6263742967556,6.84953083,3,-0.24779987182617186,5.839457849121094,-4.408922357177734,12.290076335877863,23.572519083969464,-0.9770992366412213
6263763002348,6.869565622,3,-0.3280056274414062,5.415684155273437,-4.357447021484375,6.687022900763359,9.305343511450381,-3.572519083969466
6263782979640,6.889542914,3,-0.01915361328125,5.2456958374023435,-4.732139581298828,11.954198473282442,0.9694656488549618,-17.984732824427482
6263802962973,6.909526247,3,-1.897404815673828,5.462371087646484,-4.5585599609375,28.557251908396946,-10.549618320610687,-26.80916030534351
6263822978025,6.929541299,3,-1.1743559143066407,6.38413872680664,-5.327098693847656,-19.587786259541986,-38.38167938931298,-45.85496183206107
6263842972869,6.949536143,3,-3.353079425048828,8.291120349121094,-7.163451367187499,-8.297709923664122,-102.57251908396947,-52.88549618320611
6263862970265,6.969533539,3,-2.1930887207031247,8.492233288574218,-7.888894470214844,-68.98473282442748,-94.64885496183206,-22.519083969465647
6263882980108,6.989543382,3,-2.8191724548339843,8.01818135986328,-7.660248211669922,15.335877862595419,-67.86259541984732,15.381679389312977
6263902984327,7.009547601,3,-2.7808652282714843,6.161477972412109,-7.123947039794921,16.900763358778626,-57.916030534351144,67.5114503816794
6263922992348,7.029555622,3,-3.585316986083984,5.172672686767577,-7.292738256835937,-10.946564885496183,-71.07633587786259,83.16793893129771
6263942974848,7.049538122,3,-3.614047406005859,5.203797308349609,-8.228871105957031,-48.36641221374046,-78.06870229007633,59.6793893129771
6263963096411,7.069659685,3,-2.6707319519042967,5.895721588134765,-8.750807067871094,-28.82442748091603,-38.404580152671755,18.625954198473284
6263982965786,7.08952906,3,-3.3315316101074215,6.710947253417968,-7.887697369384765,11.870229007633588,15.13740458015267,-14.488549618320612
6264002974692,7.109537966,3,-2.50912333984375,7.8721350585937495,-6.76122548828125,50.030534351145036,62.44274809160305,-50.213740458015266
6264022966306,7.12952958,3,-2.6420015319824217,7.644685900878906,-5.80354482421875,46.45038167938932,48.030534351145036,-17.198473282442748
6264042964535,7.149527809,3,-2.8886043029785156,7.314286071777343,-6.3147068786621094,-23.068702290076335,-9.923664122137405,16.229007633587788
6264063052973,7.169616247,3,-2.748543505859375,7.187393383789062,-6.657077716064452,-53.94656488549618,-37.48854961832061,36.3206106870229
6264082952192,7.189515466,3,-2.437297290039062,6.80551821899414,-6.655880615234374,-23.83969465648855,-36.16793893129771,51.38167938931298
6264102954952,7.209518226,3,-2.203862628173828,5.762843395996094,-6.507440112304687,-33.94656488549618,-38.06870229007634,80.06870229007633
6264122890473,7.229453747,3,-1.9069816223144531,4.656722229003906,-6.350619903564453,-42.458015267175576,-32.82442748091603,93.13740458015268
6264142938338,7.249501612,3,-1.618480322265625,3.949235638427734,-6.442796667480469,-53.87022900763359,-19.984732824427482,82.62595419847328
6264163039275,7.269602549,3,-0.7481880187988281,3.7421371948242186,-6.660669018554687,-43.847328244274806,12.099236641221374,44.534351145038165
6264182998546,7.28956182,3,-0.7170633972167968,3.8043864379882812,-5.504269616699219,21.282442748091604,70.7557251908397,2.3435114503816794
6264202968858,7.309532132,3,-0.23582886352539062,3.745728497314453,-4.247313745117188,68.05343511450381,116.68702290076335,-33.045801526717554
6264222972765,7.329536039,3,0.06943184814453125,3.632003918457031,-3.392583752441406,87.37404580152672,122.19847328244275,-49.458015267175576
6264242977765,7.349541039,3,-0.16041151123046873,3.939658831787109,-3.0071172851562498,74.80152671755725,101.18320610687023,-65.6412213740458
6264263041150,7.369604424,3,-0.7003039855957031,4.936843823242187,-3.5506010620117183,35.98473282442748,47.916030534351144,-81.6412213740458
6264282953754,7.389517028,3,-1.1013327636718748,6.581660363769531,-4.7943888244628905,-19.221374045801525,-5.679389312977099,-93.70992366412214
6264302958442,7.409521716,3,-1.8423381774902343,7.5525091369628905,-5.868188269042968,-46.25954198473283,-47.404580152671755,-73.30534351145039
6264322965577,7.429528851,3,-2.501940734863281,8.289923248291014,-6.813897924804687,-61.717557251908396,-71.93893129770993,-55.51145038167939
6264342960265,7.449523539,3,-4.2125978210449215,9.3852705078125,-7.657854010009765,-33.82442748091603,-80.26717557251908,-53.51908396946565
6264363011202,7.469574476,3,-4.970362646484375,10.684124908447265,-9.04050546875,-60.725190839694655,-97.1145038167939,-50.00763358778626
6264382884900,7.489448174,3,-3.860650177001953,11.01931314086914,-10.139444030761718,-79.79389312977099,-79.59541984732824,-18.045801526717558
6264402983494,7.509546768,3,-3.5434184570312497,9.325415466308593,-9.13627353515625,-15.335877862595419,-10.0,44.19083969465649
6264422968650,7.529531924,3,-2.8311434631347656,6.551732843017578,-6.909665991210937,43.88549618320611,61.19083969465649,87.12213740458016
6264442967817,7.549531091,3,-1.8938135131835936,5.015852478027344,-5.351040710449219,53.396946564885496,80.21374045801527,76.68702290076335
6264463018910,7.569582184,3,-1.3634978454589843,4.935646722412109,-4.825513446044922,12.648854961832061,55.87022900763359,36.20610687022901
6264482988910,7.589552184,3,-1.3718775512695311,6.400898138427734,-5.027823486328125,-10.01526717557252,28.793893129770993,-13.572519083969466
6264502964223,7.609527497,3,-1.1839327209472656,7.937975604248046,-5.228936425781249,-5.694656488549619,26.14503816793893,-35.98473282442748
6264522956306,7.62951958,3,-1.0271125122070313,8.204929089355469,-4.905719201660156,11.854961832061068,34.74809160305343,-14.229007633587786
6264542967192,7.649530466,3,-0.7445967163085937,7.034164477539062,-4.440046978759765,22.129770992366414,31.068702290076335,32.29007633587786
6264563021098,7.669584372,3,-0.36272155151367186,5.145139367675781,-4.2149920227050774,7.557251908396947,14.946564885496183,75.64885496183206
6264582972869,7.689536143,3,0.015562310791015624,3.399766357421875,-4.173093493652344,0.8931297709923665,1.2671755725190839,98.49618320610686
6264602964275,7.709527549,3,0.5003881469726562,2.005143890380859,-4.16231958618164,7.297709923664122,-6.122137404580153,99.32824427480917
6264622941306,7.72950458,3,0.04668693237304687,0.8942343200683593,-4.279635467529297,-3.312977099236641,-18.778625954198475,87.36641221374046
6264642965264,7.749528538,3,-0.24061726684570311,0.5913678100585937,-4.760870001220703,-28.801526717557252,-39.282442748091604,52.80152671755725
6264662961514,7.769524788,3,-1.1384428894042968,1.5897499023437498,-6.066907006835937,-58.45038167938932,-68.46564885496183,-7.091603053435114
6264682968546,7.78953182,3,-1.7501614135742187,4.460397692871093,-7.979874133300781,-92.06870229007633,-78.56488549618321,-96.95419847328245
6264702970004,7.809533278,3,-3.2788591735839843,8.124723333740233,-8.093598712158203,-70.58015267175573,-39.16030534351145,-184.7175572519084
6264722968702,7.829531976,3,-5.795165118408203,11.812990991210937,-8.090007409667969,20.732824427480917,-8.183206106870228,-231.6259541984733
6264742970733,7.849534007,3,-6.0896519226074215,14.719551806640624,-8.119934930419921,-11.030534351145038,-1.282442748091603,-222.78625954198472
6264762953337,7.869516611,3,-4.627991809082031,16.002843896484375,-8.651447698974609,-21.068702290076335,-0.8702290076335878,-136.29770992366412
6264782963337,7.889526611,3,-4.141968872070312,13.57272921142578,-7.182604980468749,-4.343511450381679,28.18320610687023,15.15267175572519
6264802969952,7.909533226,3,-3.343502618408203,9.18056626586914,-5.4899044067382805,61.50381679389313,54.06870229007634,138.03053435114504
6264822975733,7.929539007,3,-2.3714567443847656,5.862202764892578,-4.599261389160156,30.450381679389313,40.0,181.38931297709922
6264842956619,7.949519893,3,-1.6543933471679686,4.182670300292968,-4.540603448486328,-6.862595419847328,7.442748091603053,166.09923664122138
6264862968702,7.969531976,3,-0.8499415893554687,3.5434184570312497,-4.547786053466797,-19.61832061068702,-10.717557251908397,126.74045801526718
6264882998858,7.989562132,3,-0.689530078125,3.4919431213378904,-4.797980126953124,-22.954198473282442,-23.770992366412212,83.3206106870229
6264902990368,8.009553642,3,-0.5901707092285156,3.9145197143554684,-5.275623358154297,-27.38167938931298,-27.748091603053435,46.770992366412216
6264922969535,8.029532809,3,-0.30047230834960936,4.000710974121094,-5.6778492370605465,-29.022900763358777,-21.206106870229007,31.99236641221374
6264942960160,8.049523434,3,0.04189852905273437,3.536235852050781,-5.681440539550781,-6.282442748091603,-0.5725190839694656,30.328244274809162
6264962964796,8.06952807,3,0.584185205078125,2.560598675537109,-5.121197351074218,5.259541984732825,26.709923664122137,27.954198473282442
6264982965577,8.089528851,3,0.11731588134765625,2.118868469238281,-4.487931011962891,40.038167938931295,50.954198473282446,4.221374045801527
6265003040993,8.109604267,3,-0.17956512451171874,2.462436407470703,-4.243722442626953,36.48091603053435,48.55725190839695,-40.98473282442748
6265022998129,8.129561403,3,-0.612915625,4.045003704833984,-4.685452648925781,14.526717557251908,28.458015267175572,-97.6412213740458
6265042980889,8.149544163,3,-1.2318167541503906,6.247669232177734,-5.730521673583984,-15.702290076335878,3.969465648854962,-139.3053435114504
6265062969431,8.169532705,3,-2.138022082519531,8.301894256591796,-6.367379315185547,-19.893129770992367,-2.7786259541984735,-154.27480916030535
6265082972921,8.189536195,3,-3.6104561035156246,10.018536846923828,-6.490680700683593,-8.564885496183207,-2.816793893129771,-154.16030534351145
6265103023025,8.209586299,3,-4.872200378417968,12.148179223632813,-6.664260321044922,22.946564885496183,-11.916030534351146,-158.9083969465649
6265122981670,8.229544944,3,-5.179855291748047,13.678074084472655,-7.62912359008789,-22.603053435114504,-56.099236641221374,-111.58778625954199
6265142992348,8.249555622,3,-4.420893365478515,13.083114971923827,-9.281122735595703,-68.40458015267176,-92.33587786259542,-7.183206106870229
6265162981983,8.269545257,3,-3.7792473205566406,10.008960040283203,-8.616731774902343,-36.43511450381679,-52.97709923664122,105.69465648854961
6265182994795,8.289558069,3,-2.959233251953125,6.432022760009765,-6.870161663818359,25.87786259541985,11.48091603053435,156.87786259541986
6265202989900,8.309553174,3,-1.9584569580078124,4.39216294555664,-5.588066674804687,33.00763358778626,37.534351145038165,140.22137404580153
6265222991150,8.329554424,3,-1.5023615417480467,3.7481226989746093,-4.953603234863281,21.015267175572518,36.66412213740458,90.59541984732824
6265242976098,8.349539372,3,-0.7924807495117187,3.968389251708984,-4.839878656005859,16.412213740458014,28.15267175572519,42.6793893129771
6265262973754,8.369537028,3,-0.36272155151367186,4.436455676269531,-4.987122058105468,3.786259541984733,22.17557251908397,12.48091603053435
6265283007400,8.389570674,3,-0.029927520751953124,4.709394665527343,-5.052962603759766,13.572519083969466,27.9618320610687,0.5801526717557252
6265303001462,8.409564736,3,0.37708676147460934,4.228160131835938,-4.475960003662109,27.068702290076335,41.3587786259542,4.4961832061068705
6265322979900,8.429543174,3,0.0909796630859375,3.6080619018554687,-4.16231958618164,29.671755725190838,37.00763358778626,8.854961832061068
6265342982087,8.449545361,3,-0.16041151123046873,3.220201232910156,-4.13718046875,13.992366412213741,22.66412213740458,-2.564885496183206
6265362973077,8.469536351,3,-0.22864625854492185,3.4296938781738278,-4.643554119873047,4.816793893129771,0.6946564885496184,-25.366412213740457
6265383017139,8.489580413,3,-0.3112462158203125,4.319139794921875,-5.439626171875,-21.732824427480917,-22.68702290076336,-53.49618320610687
6265402929379,8.509492653,3,-2.2349872497558594,6.142324359130859,-6.260837341308593,-39.06106870229008,-38.49618320610687,-86.6412213740458
6265422976045,8.529539319,3,-3.077746234130859,8.276755139160155,-6.738480572509765,-10.061068702290076,-32.70992366412214,-117.30534351145039
6265442991254,8.549554528,3,-4.024652990722656,10.25316860961914,-7.44357296142578,-20.763358778625953,-51.83206106870229,-113.6793893129771
6265462981775,8.569545049,3,-5.204994409179688,11.962628594970703,-8.447940557861328,-41.603053435114504,-75.16030534351145,-92.82442748091603
6265482979014,8.589542288,3,-5.1882349975585935,12.649764471435546,-9.792284790039062,-46.80916030534351,-84.40458015267176,-43.213740458015266
6265502958181,8.609521455,3,-4.678270043945313,11.186907257080078,-9.888052856445311,-51.916030534351144,-53.43511450381679,45.404580152671755
6265522995577,8.629558851,3,-3.23696064453125,7.3837179199218745,-8.335413079833984,9.80916030534351,18.404580152671755,132.45038167938932
6265542975212,8.649538486,3,-1.8842367065429686,4.141968872070312,-6.284779357910156,57.62595419847328,87.23664122137404,150.4885496183206
6265562987139,8.669550413,3,-0.9995791931152344,2.893392706298828,-4.282029669189453,82.77099236641222,126.6412213740458,94.8854961832061
6265582979066,8.68954234,3,-0.5913678100585937,3.6008792968749996,-3.394977954101562,75.98473282442748,104.45038167938931,8.13740458015267
6265602987972,8.709551246,3,-0.3232172241210937,6.132747552490234,-3.967192150878906,23.3206106870229,47.11450381679389,-59.61068702290076
6265622939066,8.72950234,3,-0.6835445739746093,8.015787158203125,-5.074510418701172,-24.18320610687023,-14.679389312977099,-57.32824427480916
6265642995264,8.749558538,3,-0.7362170104980469,8.111555224609374,-6.059724401855468,-39.229007633587784,-41.12977099236641,4.748091603053435
6265662933285,8.769496559,3,-0.5039794494628906,5.968744738769531,-5.948394024658203,-30.580152671755727,-28.3206106870229,76.74809160305344
6265683094639,8.789657913,3,-0.011971008300781249,3.4105402648925778,-5.379771130371093,-7.297709923664122,-10.923664122137405,112.25954198473282
6265702991983,8.809555257,3,0.4285620971679687,1.8926164123535154,-4.948814831542968,-2.3893129770992365,8.022900763358779,96.03053435114504
6265722985472,8.829548746,3,0.20709844360351562,1.3120225097656248,-5.017049578857422,-5.908396946564886,9.83206106870229,56.51145038167939
6265742977451,8.849540725,3,0.017956512451171875,1.369483349609375,-5.050568402099609,-5.450381679389313,12.740458015267176,4.801526717557252
6265762996983,8.869560257,3,0.3016694091796875,2.157175695800781,-5.367800122070312,-8.458015267175572,9.763358778625955,-47.587786259541986
6265783067347,8.889630621,3,-2.3451205261230466,3.7241806823730466,-5.5832782714843745,-41.06870229007634,-9.854961832061068,-98.54961832061069
6265802983389,8.909546663,3,-3.526659045410156,7.174225274658203,-6.138733056640625,8.961832061068701,-8.297709923664122,-176.27480916030535
6265822974951,8.929538225,3,-5.987898352050781,12.338518255615234,-6.998251452636718,-4.290076335877862,-52.717557251908396,-250.13740458015266
6265842977139,8.949540413,3,-7.596801867675781,16.82884346923828,-8.668207110595702,-89.26717557251908,-109.46564885496183,-250.13740458015266
6265862965889,8.969529163,3,-5.537788439941406,18.03073270263672,-10.76313356323242,-106.29007633587786,-114.6412213740458,-132.7175572519084
6265883100837,8.989664111,3,-4.540603448486328,14.567520001220702,-9.490615380859374,-25.595419847328245,-27.412213740458014,62.41984732824427
6265902976774,9.009540048,3,-3.6343981201171873,8.57962164916992,-6.534973431396484,92.64885496183206,78.08396946564885,207.26717557251908
6265922974691,9.029537965,3,-1.7010802795410156,4.623203405761719,-4.291606475830078,103.45038167938931,129.1145038167939,234.7175572519084
6265942964118,9.049527392,3,-0.3172317199707031,2.4157494750976563,-3.1543606872558594,70.30534351145039,115.94656488549619,203.0229007633588
6265962960212,9.069523486,3,0.3268085266113281,1.3587094421386718,-2.7760768249511716,34.3206106870229,73.8473282442748,154.67175572519085
6265982957243,9.089520517,3,0.7122749938964843,1.0295067138671874,-2.901772412109375,-1.6641221374045803,23.259541984732824,97.6793893129771
6266002960733,9.109524007,3,0.622492431640625,1.370680450439453,-3.518279339599609,-20.6793893129771,-15.877862595419847,48.725190839694655
6266022892972,9.129456246,3,0.3746925598144531,1.9021932189941406,-4.7117888671875,-34.396946564885496,-47.458015267175576,16.69465648854962
6266043000003,9.149563277,3,0.2346317626953125,2.2493524597167966,-5.651513018798828,-54.23664122137404,-51.38167938931298,0.8091603053435115
6266062973806,9.16953708,3,-0.16998831787109375,2.5258827514648434,-6.414066247558593,-42.74809160305343,-42.732824427480914,-16.9618320610687
6266082976045,9.189539319,3,-0.23223756103515625,3.3877953491210935,-6.442796667480469,-18.81679389312977,-3.946564885496183,-61.51908396946565
6266102976566,9.20953984,3,-0.8978256225585937,5.030217687988281,-6.204573602294921,17.427480916030536,17.72519083969466,-110.82442748091603
6266122955472,9.229518746,3,-2.212242333984375,7.641094598388672,-6.475118389892578,-0.7022900763358778,10.396946564885496,-157.53435114503816
6266142968233,9.249531507,3,-3.153163586425781,9.996989031982421,-6.883329772949218,-12.435114503816793,-6.267175572519084,-190.6946564885496
6266162955108,9.269518382,3,-5.450400079345703,13.4458365234375,-7.337030987548828,-10.396946564885496,-35.02290076335878,-219.83969465648855
6266183067608,9.289630882,3,-4.526238238525391,15.913061334228514,-8.423998541259765,-58.2442748091603,-49.94656488549618,-179.09923664122138
6266202995680,9.309558954,3,-3.9324762268066404,15.279794995117186,-8.468291271972657,-44.770992366412216,-37.70229007633588,-43.70229007633588
6266222984639,9.329547913,3,-3.086125939941406,10.787075579833983,-6.922834100341796,25.69465648854962,11.183206106870228,111.93893129770993
6266242996514,9.349559788,3,-2.2649147705078123,6.4834980957031245,-5.149927770996094,73.42748091603053,48.98473282442748,185.85496183206106
6266263055524,9.369618798,3,-1.1563994018554686,4.169502191162109,-3.977966058349609,52.64885496183206,52.030534351145036,172.27480916030535
6266282987347,9.389550621,3,-1.1360486877441405,3.517082238769531,-3.7708676147460936,29.106870229007633,11.549618320610687,125.32824427480917
6266302974899,9.409538173,3,-0.852335791015625,3.731363287353515,-4.547786053466797,-31.572519083969464,-42.42748091603053,77.54961832061069
6266322946514,9.429509788,3,-1.0498574279785156,4.946420629882812,-5.852625958251953,-70.1526717557252,-82.16793893129771,47.3206106870229
6266342981201,9.449544475,3,-1.0271125122070313,5.335478399658203,-6.9156514953613275,-74.80152671755725,-76.68702290076335,46.961832061068705
6266362966826,9.4695301,3,-0.507570751953125,4.23893403930664,-6.83783994140625,-37.19847328244275,-30.671755725190838,67.29007633587786
6266383027816,9.48959109,3,-0.13766659545898435,2.375048046875,-5.9950809570312495,14.717557251908397,23.450381679389313,81.46564885496183
6266403004795,9.509568069,3,0.4525041137695312,0.9552864624023437,-5.046977099609375,42.396946564885496,64.82442748091603,67.4885496183206
6266422983753,9.529547027,3,0.3327940307617187,0.16759411621093748,-4.179078997802734,71.52671755725191,87.41984732824427,24.53435114503817
6266442992972,9.549556246,3,-0.033518823242187495,0.8559270935058593,-3.806780639648437,71.54961832061069,72.07633587786259,-55.213740458015266
6266462973597,9.569536871,3,-1.2138602416992186,4.080916729736328,-5.049371301269531,8.061068702290076,11.427480916030534,-160.70992366412213
6266482994795,9.589558069,3,-3.906140008544922,8.350975390624999,-6.240486627197265,-51.900763358778626,-34.83969465648855,-248.80152671755727
6266502988441,9.609551715,3,-5.778405706787109,13.314155432128905,-6.99705435180664,-31.519083969465647,-55.05343511450382,-250.13740458015266
6266522960368,9.629523642,3,-6.891709478759765,17.13649838256836,-8.462305767822265,-56.595419847328245,-91.40458015267176,-250.13740458015266
6266542976253,9.649539527,3,-5.1702784851074215,17.55668077392578,-9.961076007080077,-92.2442748091603,-95.33587786259542,-110.0381679389313
6266562985107,9.669548381,3,-4.863820672607422,13.535619085693359,-8.735244757080078,-5.1679389312977095,-39.42748091603053,88.22137404580153
6266583029274,9.689592548,3,-3.7050270690917966,7.827842327880859,-6.770802294921874,57.50381679389313,18.64885496183206,223.84732824427482
6266602980003,9.709543277,3,-1.9680337646484374,4.407725256347656,-5.221753820800781,39.587786259541986,46.01526717557252,244.0916030534351
6266622977972,9.729541246,3,-0.8475473876953125,2.4516625,-4.311957189941406,27.129770992366414,44.81679389312977,206.95419847328245
6266642988232,9.749551506,3,-0.3711012573242187,1.697488977050781,-4.100070343017578,13.473282442748092,23.99236641221374,143.80152671755727
6266662983805,9.769547079,3,0.06823474731445311,1.8507178833007811,-4.295197778320312,-15.206106870229007,2.213740458015267,66.61068702290076
6266682910837,9.789474111,3,-0.05386953735351562,3.1663316955566403,-5.203797308349609,-27.595419847328245,-17.66412213740458,0.5954198473282443
6266702982712,9.809545986,3,-0.04548983154296875,4.404133953857421,-5.738901379394531,-30.137404580152673,-9.106870229007633,-33.79389312977099
6266723003128,9.829566402,3,0.1292868896484375,4.629188909912109,-5.422866760253906,10.641221374045802,24.49618320610687,-32.48091603053435
6266742981670,9.849544944,3,0.09217676391601562,3.5984850952148437,-4.666299035644531,36.32824427480916,46.732824427480914,-12.740458015267176
6266762977607,9.869540881,3,0.22385785522460935,2.565387078857422,-4.41131655883789,29.61832061068702,46.152671755725194,-9.404580152671755
6266782979743,9.889543017,3,0.4369418029785156,2.205059729003906,-4.503493322753906,16.885496183206108,39.93893129770992,-34.969465648854964
6266802992764,9.909556038,3,-0.604535919189453,3.7110125732421873,-5.054159704589844,5.847328244274809,15.946564885496183,-89.76335877862596
6266822985316,9.92954859,3,-2.3834277526855465,6.421248852539062,-6.330269189453125,-37.55725190839695,-19.519083969465647,-158.21374045801528
6266842915732,9.949479006,3,-3.8139632446289062,10.206481677246094,-6.513425616455078,2.6259541984732824,-9.267175572519085,-217.13740458015266
6266862982816,9.96954609,3,-6.190208392333984,13.857639208984374,-7.394491827392578,-12.65648854961832,-67.91603053435115,-226.54961832061068
6266882980420,9.989543694,3,-6.993463049316406,16.144101794433592,-9.392453112792968,-93.93893129770993,-127.61832061068702,-157.33587786259542
6266902980368,10.009543642,3,-5.250484240722656,15.638925244140625,-10.87925234375,-96.44274809160305,-116.22900763358778,-18.862595419847327
6266922968545,10.029531819,3,-4.642357019042969,10.896011755371093,-8.693346228027343,-2.1908396946564888,-16.83969465648855,139.25954198473283
6266942939691,10.049502965,3,-3.2920272827148436,6.174646081542968,-6.350619903564453,73.61068702290076,68.19847328244275,211.05343511450383
6266962977868,10.069541142,3,-1.006761798095703,3.6954502624511716,-4.809951135253906,69.47328244274809,108.18320610687023,185.4732824427481
6266982988805,10.089552079,3,-0.3507505432128906,2.5809493896484375,-3.9647979492187497,46.51908396946565,98.6030534351145,121.22137404580153
6267002921149,10.109484423,3,0.3232172241210937,2.8431144714355465,-3.2321722412109373,46.732824427480914,86.05343511450381,49.80152671755725
6267023036253,10.129599527,3,0.4477157104492187,3.6451720275878903,-3.132812872314453,34.20610687022901,51.44274809160305,-3.595419847328244
6267043020107,10.149583381,3,0.6787561706542968,4.521449835205078,-3.6930560607910152,7.755725190839694,15.687022900763358,-19.282442748091604
6267062988597,10.169551871,3,0.5734112976074218,4.474762902832031,-4.226963031005859,-11.709923664122137,-10.229007633587786,-0.8473282442748091
6267082978284,10.189541558,3,0.469263525390625,3.336320013427734,-4.6627077331542965,-20.64885496183206,-21.236641221374047,27.717557251908396
6267103092555,10.209655829,3,0.29448680419921874,2.2361843505859373,-4.8650177734375,-18.885496183206108,-17.366412213740457,34.30534351145038
6267122992816,10.22955609,3,-0.010773907470703125,1.792059942626953,-4.677072943115234,-1.4122137404580153,-4.633587786259542,9.83969465648855
6267142979847,10.249543121,3,-0.36750995483398435,2.518700146484375,-4.915296008300781,6.083969465648855,-10.946564885496183,-45.091603053435115
6267162975003,10.269538277,3,-2.346317626953125,5.006275671386718,-5.797559320068359,-23.16793893129771,-39.412213740458014,-120.56488549618321
6267183007138,10.289570412,3,-3.7325603881835936,9.044096771240234,-6.4643444824218745,2.0229007633587788,-51.12213740458015,-199.8091603053435
6267203006930,10.309570204,3,-6.9731123352050774,13.414711901855467,-7.666233715820312,-28.52671755725191,-115.50381679389314,-233.26717557251908
6267222991566,10.32955484,3,-7.520187414550781,16.935385443115234,-10.24000050048828,-108.70992366412214,-170.0916030534351,-201.16030534351145
6267242971305,10.349534579,3,-6.161477972412109,17.14128678588867,-11.578359228515625,-102.94656488549619,-133.84732824427482,-64.65648854961832
6267262996253,10.369559527,3,-4.765658404541015,12.331335650634765,-9.540893615722656,-4.9541984732824424,-18.38167938931298,124.0
6267283005055,10.389568329,3,-3.5134909362792968,6.511031414794921,-6.497863305664062,108.05343511450381,93.16793893129771,240.74045801526717
6267303340940,10.409904214,3,-1.8064251525878905,3.1651345947265623,-4.207809417724609,113.38167938931298,148.7175572519084,231.74809160305344
6267322985993,10.429549267,3,-0.4010287780761719,1.3335703247070312,-2.7904420349121093,105.5114503816794,143.35114503816794,176.72519083969465
6267342983232,10.449546506,3,0.39264907226562495,0.7649474304199219,-2.414552374267578,67.8473282442748,88.21374045801527,106.80152671755725
6267363454795,10.470018069,3,0.5674257934570313,0.9636661682128905,-2.8945898071289062,-1.0763358778625953,24.419847328244273,49.29007633587786
6267382988440,10.489551714,3,0.258573779296875,1.9692308654785156,-4.1563340820312495,-41.916030534351144,-31.9618320610687,7.702290076335878
6267403001357,10.509564631,3,-0.33758243408203126,3.5039141296386718,-5.705382556152343,-77.09923664122137,-57.70229007633588,-27.244274809160306
6267422947555,10.529510829,3,-0.834379278564453,4.914098907470703,-6.950367419433594,-69.90839694656489,-54.13740458015267,-49.80152671755725
6267442982920,10.549546194,3,-0.8930372192382812,5.759252093505859,-7.38012661743164,-50.732824427480914,-20.068702290076335,-54.83969465648855
6267462989690,10.569552964,3,-1.1791443176269532,6.167463476562499,-7.145494854736327,-13.67175572519084,12.526717557251908,-49.66412213740458
6267482964274,10.589527548,3,0.31483751831054685,6.151901165771484,-7.242460021972656,-12.022900763358779,33.94656488549618,-49.541984732824424
6267502970159,10.609533433,3,-0.4537012145996093,5.699397052001952,-6.087257720947266,15.351145038167939,62.93893129770992,-62.82442748091603
6267522997503,10.629560777,3,-2.291250988769531,6.744466076660156,-5.427655163574219,88.1145038167939,60.274809160305345,-103.7557251908397
6267542977815,10.649541089,3,-2.7521348083496093,9.017760552978515,-5.547365246582031,16.27480916030534,19.931297709923665,-142.0381679389313
6267562961670,10.669524944,3,-3.649960430908203,11.53646069946289,-6.4739212890625,-29.900763358778626,-40.908396946564885,-142.0381679389313
6267582969013,10.689532287,3,-3.4775779113769527,12.887987536621093,-7.9475524108886715,-72.22137404580153,-79.19083969465649,-92.32824427480917
6267602997920,10.709561194,3,-3.4763808105468748,12.198457458496094,-8.497021691894531,-58.16030534351145,-69.80916030534351,2.0916030534351147
6267623009899,10.729573173,3,-2.8479028747558592,9.216479290771483,-7.574056951904296,-10.84732824427481,-25.80916030534351,97.20610687022901
6267642983909,10.749547183,3,-2.5163059448242184,6.110002636718749,-6.385335827636719,17.748091603053435,3.4656488549618323,145.70229007633588
6267662960888,10.769524162,3,-1.3742717529296875,4.395754248046875,-5.522226129150391,15.412213740458014,23.702290076335878,131.86259541984734
6267682991461,10.789554735,3,-0.612915625,3.3171664001464842,-4.90931050415039,10.564885496183207,26.68702290076336,104.49618320610686
6267702981305,10.809544579,3,-0.20350714111328125,2.797624639892578,-4.712985968017578,8.030534351145038,19.984732824427482,75.03053435114504
6267723001357,10.829564631,3,-0.029927520751953124,2.645592834472656,-4.893748193359374,-5.022900763358779,12.389312977099237,45.93129770992366
6267742958180,10.849521454,3,0.3938461730957031,2.5617957763671875,-5.386953735351562,-19.908396946564885,6.885496183206107,19.740458015267176
6267763004951,10.869568225,3,0.43933600463867184,2.4001871643066406,-5.293579870605469,-10.595419847328245,25.595419847328245,-6.221374045801527
6267782984169,10.889547443,3,0.2346317626953125,2.6767174560546874,-4.572925170898437,33.3206106870229,54.038167938931295,-47.49618320610687
6267802976201,10.909539475,3,0.6368576416015624,3.840299462890625,-4.568136767578125,49.70229007633588,60.786259541984734,-103.64885496183206
6267822956097,10.929519371,3,-1.1731588134765625,6.1830257873535155,-4.709394665527343,29.435114503816795,34.42748091603053,-158.72519083969465
6267842980211,10.949543485,3,-3.641580725097656,9.798270294189452,-4.735730883789063,50.05343511450382,6.4961832061068705,-205.00763358778627
6267862977659,10.969540933,3,-4.855440966796874,13.449427825927733,-6.177040283203125,-23.35114503816794,-78.4885496183206,-203.22137404580153
6267882963336,10.98952661,3,-5.792770916748046,15.538368774414062,-9.10395181274414,-115.34351145038168,-173.61832061068702,-126.59541984732824
6267902971409,11.009534683,3,-5.843049151611328,15.144522601318359,-10.687716210937499,-119.57251908396947,-176.4732824427481,0.4198473282442748
6267922989169,11.029552443,3,-4.590881683349609,11.3006318359375,-9.689334118652344,-51.50381679389313,-90.48091603053435,141.3053435114504
6267942976357,11.049539631,3,-3.417722869873047,6.774393597412109,-7.287949853515625,52.534351145038165,12.954198473282442,214.206106870229
6267962934534,11.069497808,3,-2.094926452636719,4.035426898193359,-5.517437725830078,57.282442748091604,60.36641221374046,194.61832061068702
6267982969534,11.089532808,3,-1.016338604736328,3.2692823669433593,-4.75009609375,43.954198473282446,66.61068702290076,120.80916030534351
6268003527086,11.11009036,3,-0.6093243225097655,3.833116857910156,-4.369418029785156,30.213740458015266,54.58015267175573,45.38167938931298
6268023005419,11.129568693,3,-0.38786066894531246,5.0960582336425775,-4.650736724853515,11.549618320610687,35.74045801526717,-1.9618320610687023
6268042998596,11.14956187,3,0.1484405029296875,5.6946086486816405,-4.885368487548828,0.9541984732824428,28.427480916030536,-0.4122137404580153
6268062975419,11.169538693,3,0.4860229370117187,4.525041137695312,-4.436455676269531,5.824427480916031,38.954198473282446,40.74809160305343
6268082979846,11.18954312,3,0.8044517578125,2.748543505859375,-4.186261602783203,7.00763358778626,43.786259541984734,78.20610687022901
6268103040315,11.209603589,3,1.006761798095703,1.0965443603515623,-3.806780639648437,26.015267175572518,61.66412213740458,84.3587786259542
6268122988857,11.229552131,3,0.8726865051269531,-0.029927520751953124,-3.0897172424316404,65.04580152671755,66.20610687022901,61.70992366412214
6268142954378,11.249517652,3,0.5889736083984375,-0.31004911499023435,-3.1387983764648437,41.282442748091604,22.938931297709924,10.450381679389313
6268162976305,11.269539579,3,0.29448680419921874,1.5215151550292967,-5.074510418701172,-31.610687022900763,-51.9236641221374,-78.54198473282443
6268183016044,11.289579318,3,-3.687070556640625,6.007051965332031,-6.610390783691406,-116.3587786259542,-114.56488549618321,-200.81679389312978
6268203087971,11.309651245,3,-7.339425189208984,12.477381951904297,-7.765593084716796,-67.82442748091603,-122.40458015267176,-250.13740458015266
6268222918023,11.329481297,3,-9.719261639404296,18.467674505615232,-9.995791931152343,-121.16793893129771,-179.57251908396947,-250.13740458015266
6268242988961,11.349552235,3,-7.012616662597656,19.61270144958496,-12.300211029052734,-152.9618320610687,-140.93893129770993,-228.66412213740458
6268263047242,11.369610516,3,-5.589263775634765,18.310854296875,-10.84693062133789,-38.045801526717554,-15.32824427480916,10.961832061068701
6268282988232,11.389551506,3,-4.574122271728515,10.662577093505858,-6.743268975830078,128.22137404580153,139.12977099236642,229.00763358778627
6268303078596,11.40964187,3,-2.5725696838378904,5.662286926269531,-3.7158009765625,139.17557251908397,219.6259541984733,250.12977099236642
6268322987398,11.429550672,3,-0.7026981872558593,2.2373814514160153,-1.70467158203125,120.81679389312977,230.89312977099237,250.12977099236642
6268342964742,11.449528016,3,0.948103857421875,0.296881005859375,-0.9816226806640624,109.58778625954199,170.3969465648855,211.40458015267177
6268362984742,11.469548016,3,1.8363526733398436,-0.9026140258789062,-0.9002198242187499,32.099236641221374,102.6412213740458,149.66412213740458
6268382928075,11.489491349,3,2.1906945190429687,-1.1611878051757811,-1.246181964111328,20.709923664122137,44.778625954198475,83.3969465648855
6268403089430,11.509652704,3,1.8758570007324218,-1.0558429321289062,-1.7908628417968748,10.312977099236642,-5.152671755725191,21.732824427480917
6268422966044,11.529529318,3,1.4101847778320311,-0.00239420166015625,-3.0322564025878904,-28.106870229007633,-49.7557251908397,-35.98473282442748
6268442938805,11.549502079,3,0.967257470703125,1.523909356689453,-4.29639487915039,-42.12977099236641,-73.12977099236642,-86.6412213740458
6268462970523,11.569533797,3,-0.027533319091796873,3.400963458251953,-5.274426257324219,-37.25190839694657,-91.29007633587786,-125.7175572519084
6268482997555,11.589560829,3,-1.543062969970703,5.579686968994141,-6.609193682861328,-61.30534351145038,-119.17557251908397,-166.31297709923663
6268503061669,11.609624943,3,-4.276044165039062,8.985438830566405,-6.99705435180664,-70.68702290076335,-133.76335877862596,-226.29007633587787
6268522975315,11.629538589,3,-7.254431030273437,13.50210026245117,-8.780734588623046,-60.41984732824427,-170.45038167938932,-250.13740458015266
6268542951617,11.649514891,3,-9.367313995361327,17.201141827392576,-10.274716424560546,-127.36641221374046,-182.4198473282443,-244.8091603053435
6268562979325,11.669542599,3,-7.056909393310547,18.64245122680664,-12.574347119140624,-107.12213740458016,-146.67175572519085,-130.10687022900763
6268582979846,11.68954312,3,-6.111199737548827,14.781801049804686,-10.685322009277343,-33.30534351145038,-21.00763358778626,65.38167938931298
6268602943700,11.709506974,3,-4.759672900390624,8.704120135498046,-7.189787585449218,114.36641221374046,110.8473282442748,205.23664122137404
6268622979950,11.729543224,3,-2.518700146484375,4.848258361816406,-4.389768743896484,115.35114503816794,183.8854961832061,223.23664122137404
6268642996773,11.749560047,3,-0.967257470703125,2.8239608581542965,-2.934094134521484,95.58015267175573,171.12213740458014,183.3740458015267
6268662978805,11.769542079,3,0.025139117431640625,1.908178723144531,-2.2864625854492187,60.41984732824427,121.52671755725191,125.93893129770993
6268682973909,11.789537183,3,0.9133879333496093,1.8602946899414061,-2.463633508300781,16.81679389312977,61.25954198473283,68.19847328244275
6268702964013,11.809527287,3,0.8882488159179687,2.5629928771972654,-3.0454245117187497,-18.52671755725191,4.702290076335878,19.82442748091603
6268722939638,11.829502912,3,0.3435679382324219,4.06655151977539,-4.374206433105469,-43.38931297709924,-35.030534351145036,-16.85496183206107
6268742969742,11.849533016,3,0.5063736511230469,4.8494554626464845,-5.359420416259765,-52.213740458015266,-35.49618320610687,-21.076335877862597
6268762927138,11.869490412,3,0.6955155822753906,3.9504327392578125,-5.297171173095703,-11.916030534351146,-6.519083969465649,0.9465648854961832
6268782977763,11.889541037,3,0.469263525390625,2.4768016174316405,-4.29639487915039,36.396946564885496,26.6793893129771,11.641221374045802
6268802976513,11.909539787,3,0.2154781494140625,2.029085906982422,-3.718195178222656,51.725190839694655,30.717557251908396,-16.65648854961832
6268822984377,11.929547651,3,0.105344873046875,2.925714428710937,-4.2317514343261715,18.404580152671755,-4.67175572519084,-66.52671755725191
6268842929013,11.949492287,3,-1.6208745239257811,5.685031842041015,-5.77122310180664,-33.038167938931295,-62.48091603053435,-124.69465648854961
6268862965471,11.969528745,3,-4.00909067993164,8.695740429687499,-6.56968935546875,-34.0,-88.05343511450381,-161.3053435114504
6268882976409,11.989539683,3,-6.600813977050781,11.832144604492187,-8.402450726318358,-64.90076335877863,-159.72519083969465,-181.3587786259542
6268902963648,12.009526922,3,-8.562862237548828,15.13733999633789,-10.684124908447265,-135.32824427480915,-210.21374045801528,-170.18320610687022
6268922964898,12.029528172,3,-7.022193469238281,16.61336531982422,-12.937068670654297,-134.48091603053436,-172.19847328244273,-90.80916030534351
6268942963804,12.049527078,3,-5.870582470703124,13.640963958740233,-11.001356628417968,-37.717557251908396,-21.17557251908397,60.656488549618324
6268962990107,12.069553381,3,-4.292803576660156,8.037334973144532,-7.463923675537109,114.08396946564885,124.90076335877863,185.94656488549617
6268982987138,12.089550412,3,-2.29843359375,4.5322237426757805,-4.477157104492187,105.72519083969466,201.93893129770993,190.90076335877862
6269002988648,12.109551922,3,-0.622492431640625,3.015496990966797,-2.8407202697753906,101.6412213740458,203.83969465648855,137.0
6269023087763,12.129651037,3,0.12210428466796874,2.674323254394531,-1.6244658264160154,86.26717557251908,169.40458015267177,73.6793893129771
6269043039638,12.149602912,3,1.1073182678222655,2.8215666564941406,-1.6723498596191406,45.17557251908397,101.7175572519084,27.442748091603054
6269063004273,12.169567547,3,1.4137760803222656,3.2213983337402343,-2.129642376708984,4.450381679389313,41.2442748091603,8.320610687022901
6269082982034,12.189545308,3,1.5885528015136718,3.1208418640136717,-3.1747114013671873,-29.053435114503817,-7.984732824427481,12.244274809160306
6269103055471,12.209618745,3,1.2617442749023438,2.602497204589844,-3.9600095458984375,-43.961832061068705,-27.076335877862597,19.076335877862597
6269123096513,12.229659787,3,0.9050082275390624,2.070984436035156,-4.007893579101562,-19.557251908396946,-17.404580152671755,5.0
6269142983440,12.249546714,3,0.2813186950683594,2.242169854736328,-3.9791631591796874,10.908396946564885,-8.488549618320612,-32.49618320610687
6269162965836,12.26952911,3,-0.43574470214843747,3.4811692138671875,-4.7560815979003905,7.412213740458015,-29.198473282442748,-82.67175572519083
6269182970731,12.289534005,3,-2.0063409912109376,6.7839704040527335,-5.436034869384765,-30.778625954198475,-66.68702290076335,-153.04580152671755
6269203064013,12.309627287,3,-6.046556292724609,10.905588562011719,-6.592434271240234,-20.755725190839694,-128.5267175572519,-202.3053435114504
6269223002919,12.329566193,3,-8.756792572021483,15.082273358154296,-9.154230047607422,-113.4885496183206,-211.8091603053435,-219.53435114503816
6269242913700,12.349476974,3,-7.624335186767578,17.99003127441406,-12.477381951904297,-152.5114503816794,-235.59541984732823,-153.3587786259542
6269262985783,12.369549057,3,-6.175843182373047,16.697162377929686,-12.53843409423828,-102.8854961832061,-124.76335877862596,12.648854961832061
6269282990367,12.389553641,3,-5.2816088623046875,10.188525164794921,-8.75918677368164,61.06106870229008,44.221374045801525,193.44274809160305
6269303043179,12.409606453,3,-3.5422213562011717,5.204994409179688,-5.720944866943359,136.59541984732823,150.91603053435114,250.12977099236642
6269322992711,12.429555985,3,-1.2701239807128906,2.748543505859375,-3.699041564941406,102.0,180.55725190839695,208.25190839694656
6269342929586,12.44949286,3,-0.08978256225585937,1.5382745666503905,-2.6755203552246094,76.79389312977099,151.206106870229,141.206106870229
6269363006877,12.469570151,3,0.9277531433105468,1.4915876342773438,-2.232593048095703,52.48854961832061,111.81679389312977,66.68702290076335
6269382990106,12.48955338,3,1.35990654296875,2.0542250244140625,-2.2349872497558594,24.106870229007633,68.4885496183206,8.938931297709924
6269402974013,12.509537287,3,1.3730746520996093,2.91134921875,-2.43250888671875,10.312977099236642,34.35114503816794,-22.770992366412212
6269422982033,12.529545307,3,1.3395558288574219,3.087323040771484,-2.9975404785156248,4.9541984732824424,13.49618320610687,-25.580152671755727
6269442986252,12.549549526,3,1.112106671142578,2.5570073730468748,-3.388992449951172,6.549618320610687,-0.061068702290076333,-16.374045801526716
6269462985002,12.569548276,3,0.7481880187988281,2.1691467041015624,-3.5482068603515624,5.1603053435114505,-12.145038167938932,-18.213740458015266
6269482987033,12.589550307,3,0.9409212524414062,2.6886884643554687,-4.940435125732422,-18.954198473282442,-46.43511450381679,-48.48091603053435
6269502947658,12.609510932,3,-1.2114660400390624,5.512649322509765,-6.400898138427734,-59.099236641221374,-83.72519083969466,-109.92366412213741
6269523007138,12.629570412,3,-4.2137949218749995,8.47786807861328,-6.424840155029297,-40.02290076335878,-91.1526717557252,-171.93893129770993
6269542995471,12.649558745,3,-7.398083129882812,12.795810772705078,-8.068459594726562,-42.69465648854962,-156.74809160305344,-222.0916030534351
6269562961460,12.669524734,3,-10.460267053222656,17.18557951660156,-10.700884320068358,-137.29007633587787,-227.50381679389312,-221.35114503816794
6269582976044,12.689539318,3,-7.505822204589843,19.08298433227539,-13.332111944580078,-155.5801526717557,-193.1145038167939,-122.62595419847328
6269602995263,12.709558537,3,-5.5641246582031245,15.128960290527344,-11.585541833496093,-33.48854961832061,-32.99236641221374,85.95419847328245
6269623015940,12.729579214,3,-4.467580297851562,8.070853796386718,-7.435193255615234,130.33587786259542,128.38931297709922,250.12977099236642
6269642981044,12.749544318,3,-2.559401574707031,3.9731776550292968,-4.554968658447265,132.6793893129771,212.83969465648855,250.12977099236642
6269662976460,12.769539734,3,-0.5865794067382812,1.5825672973632812,-2.4971523315429685,117.9618320610687,229.5648854961832,204.1679389312977
6269682989221,12.789552495,3,0.7972691528320313,0.7541735229492187,-1.1875240234375,124.87786259541984,199.83969465648855,123.41984732824427
6269702985367,12.809548641,3,1.5598223815917969,0.5374982727050781,-1.0414777221679687,59.01526717557252,120.95419847328245,57.61068702290076
6269722970210,12.829533484,3,1.9512743530273435,0.928950244140625,-1.4006079711914061,22.633587786259543,63.900763358778626,7.786259541984733
6269742971148,12.849534422,3,1.792059942626953,1.6124948181152343,-1.9871873779296874,19.47328244274809,16.213740458015266,-24.03053435114504
6269762991200,12.869554474,3,1.6148890197753905,1.734599102783203,-3.009511486816406,-24.31297709923664,-27.3206106870229,-26.328244274809162
6269782984273,12.889547547,3,0.8810662109374999,2.0063409912109376,-3.997119671630859,-31.84732824427481,-56.93129770992366,-34.587786259541986
6269802970210,12.909533484,3,0.34117373657226563,3.333925811767578,-5.202600207519531,-55.38931297709924,-86.96946564885496,-66.38167938931298
6269822970887,12.929534161,3,-1.1001356628417969,5.628768103027343,-7.213729602050781,-100.17557251908397,-125.97709923664122,-121.61832061068702
6269842990887,12.949554161,3,-3.7134067749023436,8.726865051269531,-7.544129431152343,-68.80152671755725,-111.07633587786259,-189.2824427480916
6269862973231,12.969536505,3,-6.193799694824218,12.416329809570312,-8.392873919677735,-35.33587786259542,-116.3206106870229,-224.9618320610687
6269882948179,12.989511453,3,-8.31865366821289,15.874754107666014,-9.375693701171874,-62.38931297709924,-125.25954198473282,-213.9618320610687
6269902942658,13.009505932,3,-6.143521459960938,17.311275103759765,-11.42153901977539,-90.2442748091603,-120.66412213740458,-120.62595419847328
6269922979533,13.029542807,3,-5.1128176452636716,14.295778112792968,-10.603919152832031,-44.16030534351145,-37.45038167938932,58.595419847328245
6269942960523,13.049523797,3,-3.944447235107422,8.233659509277343,-7.314286071777343,77.54198473282443,72.99236641221374,206.59541984732823
6269962946044,13.069509318,3,-2.27927998046875,4.146757275390625,-4.984727856445312,95.72519083969466,135.73282442748092,236.93893129770993
6269982962189,13.089525463,3,-0.8164227661132812,2.233790148925781,-3.314772198486328,81.12977099236642,147.48091603053436,190.1145038167939
6270002948596,13.10951187,3,-0.09935936889648436,1.600523809814453,-2.7054478759765623,56.656488549618324,99.61068702290076,118.2824427480916
6270022995262,13.129558536,3,0.3315969299316406,2.024297503662109,-3.2417490478515623,-1.6641221374045803,29.412213740458014,48.847328244274806
6270042980262,13.149543536,3,0.469263525390625,3.4488474914550777,-4.308365887451171,-53.267175572519086,-22.389312977099237,1.2748091603053435
6270062970523,13.169533797,3,0.6248866333007812,4.316745593261719,-5.323507391357421,-60.12977099236641,-35.274809160305345,-13.251908396946565
6270083015210,13.189578484,3,0.8547299926757812,3.8857892944335934,-5.503072515869141,-24.984732824427482,3.7099236641221376,-7.213740458015267
6270102992658,13.209555932,3,0.8271966735839843,2.6815058593749996,-4.475960003662109,37.916030534351144,50.19847328244275,-5.824427480916031
6270122981148,13.229544422,3,0.8200140686035156,2.3906103576660156,-3.659537237548828,47.13740458015267,68.63358778625954,-36.778625954198475
6270142967398,13.249530672,3,0.6021417175292968,3.1783027038574216,-3.4955344238281247,39.18320610687023,55.20610687022901,-86.77862595419847
6270162973439,13.269536713,3,-0.15322890625,5.279214660644531,-4.279635467529297,28.748091603053435,20.106870229007633,-139.12977099236642
6270183047814,13.289611088,3,-2.142810485839844,7.614758380126952,-4.839878656005859,6.809160305343512,-21.236641221374047,-171.83969465648855
6270202964585,13.309527859,3,-4.564545465087891,11.020510241699219,-5.512649322509765,-6.9465648854961835,-77.46564885496183,-188.13740458015266
6270222965002,13.329528276,3,-7.317877374267578,14.10903038330078,-7.989450939941406,-91.1526717557252,-193.8854961832061,-175.78625954198472
6270242974741,13.349538015,3,-7.717709051513672,16.68040296630859,-11.295843432617186,-161.75572519083968,-249.18320610687022,-121.59541984732824
6270262965575,13.369528849,3,-6.266822845458984,16.067487341308592,-12.53244859008789,-116.61068702290076,-174.36641221374046,7.541984732824427
6270283109533,13.389672807,3,-5.228936425781249,10.590751043701172,-9.442731347656249,19.99236641221374,-20.908396946564885,174.3740458015267
6270302976825,13.409540099,3,-3.0813375366210938,5.548562347412109,-6.374561920166015,108.83969465648855,104.17557251908397,240.89312977099237
6270323093752,13.429657026,3,-1.590947003173828,2.9843723693847655,-4.3239281982421875,83.44274809160305,146.9770992366412,205.14503816793894
6270342976200,13.449539474,3,-0.5279214660644531,2.091335150146484,-3.095702746582031,79.81679389312977,144.24427480916032,119.01526717557252
6270362975002,13.469538276,3,0.44532150878906246,2.5378537597656248,-2.503137835693359,67.3587786259542,113.7557251908397,35.66412213740458
6270382965575,13.489528849,3,0.9062053283691406,3.4727895080566404,-2.6108769104003904,23.389312977099237,58.6793893129771,-10.526717557251908
6270402969377,13.509532651,3,0.9181763366699218,4.3442789123535155,-3.009511486816406,3.8931297709923665,17.83969465648855,-21.603053435114504
6270423099429,13.529662703,3,0.7386112121582031,3.7792473205566406,-3.4620156005859375,-6.129770992366412,-4.183206106870229,3.984732824427481
6270442973804,13.549537078,3,0.7146691955566405,2.529474053955078,-3.7900212280273435,-12.229007633587786,-17.946564885496183,31.9618320610687
6270462971200,13.569534474,3,0.5889736083984375,1.4724340209960938,-4.395754248046875,-19.755725190839694,-28.0381679389313,33.44274809160305
6270482965731,13.589529005,3,0.3591302490234375,1.8459294799804686,-5.147533569335937,-19.3206106870229,-35.725190839694655,-11.526717557251908
6270502976252,13.609539526,3,-1.246181964111328,4.284423870849609,-6.260837341308593,-48.85496183206107,-59.74809160305343,-93.68702290076335
6270523021877,13.629585151,3,-2.8119898498535156,7.930792999267577,-6.959944226074218,-32.48854961832061,-58.45038167938932,-183.44274809160305
6270542971929,13.649535203,3,-6.185419989013671,12.094309686279296,-6.99705435180664,-21.977099236641223,-66.25190839694656,-238.3969465648855
6270562983543,13.669546817,3,-8.609549169921875,16.314090112304687,-8.384494213867187,-49.33587786259542,-111.25954198473282,-245.0763358778626
6270582927293,13.689490567,3,-6.347028601074219,18.193538415527343,-10.788272680664061,-103.61068702290076,-119.90839694656489,-147.0381679389313
6270602970366,13.70953364,3,-5.055356805419922,15.444994909667967,-9.963470208740233,-43.98473282442748,-39.74045801526717,42.725190839694655
6270623065783,13.729629057,3,-4.135983367919922,9.138667736816405,-6.663063220214843,86.91603053435115,69.23664122137404,209.14503816793894
6270642995418,13.749558692,3,-2.1799206115722654,4.764461303710937,-4.746504791259765,85.95419847328245,119.90839694656489,250.12977099236642
6270662977554,13.769540828,3,-0.7864952453613281,2.3834277526855465,-3.544615557861328,62.98473282442748,126.66412213740458,218.0
6270682979533,13.789542807,3,0.3746925598144531,1.1935095275878906,-2.588131994628906,65.31297709923665,109.8473282442748,154.3053435114504
6270702967241,13.809530515,3,1.0534487304687499,0.8188169677734375,-2.424129180908203,37.61832061068702,71.53435114503817,88.31297709923665
6270723031148,13.829594422,3,1.274912384033203,1.0366893188476562,-2.6240450195312497,15.854961832061068,31.564885496183205,32.099236641221374
6270742972033,13.849535307,3,0.7254431030273437,1.9309236389160156,-3.3770214416503905,-8.221374045801527,-12.15267175572519,-12.763358778625955
6270762960835,13.869524109,3,0.30885201416015623,3.5039141296386718,-4.75009609375,-48.900763358778626,-52.38167938931298,-48.63358778625954
6270782933804,13.889497078,3,-0.4537012145996093,4.698620758056641,-5.814318731689453,-56.404580152671755,-62.44274809160305,-59.770992366412216
6270802972554,13.909535828,3,-1.6256629272460936,5.487510205078125,-6.513425616455078,-43.0763358778626,-58.847328244274806,-55.58015267175573
6270822978179,13.929541453,3,-1.3024457031249999,5.884947680664062,-7.485471490478515,-42.67175572519084,-51.02290076335878,-58.19847328244275
6270842972137,13.949535411,3,-2.231395947265625,6.6139820861816405,-7.687781530761718,-27.931297709923665,-29.358778625954198,-70.51908396946565
6270862955262,13.969518536,3,-2.8694506896972656,8.087613208007811,-7.7416510681152335,-7.3816793893129775,-9.641221374045802,-105.29007633587786
6270882978283,13.989541557,3,-4.432864373779297,10.50216558227539,-7.413645440673828,0.37404580152671757,-3.3893129770992365,-148.94656488549617
6270902966200,14.009529474,3,-5.391742138671875,13.096283081054686,-7.751227874755859,-14.572519083969466,-22.16793893129771,-161.85496183206106
6270922965210,14.029528484,3,-3.7804444213867185,14.70877789916992,-8.301894256591796,-43.58015267175573,-22.931297709923665,-114.54198473282443
6270942967397,14.049530671,3,-3.537432952880859,13.312958331298827,-7.68658442993164,-12.526717557251908,5.122137404580153,4.068702290076335
6270962990783,14.069554057,3,-2.7365724975585937,9.242815509033203,-5.876567974853515,37.587786259541986,44.05343511450382,122.08396946564885
6270982968491,14.089531765,3,-1.5251064575195312,5.823895538330078,-4.762067102050781,34.56488549618321,50.93893129770992,172.25190839694656
6271002986460,14.109549734,3,-0.6093243225097655,3.939658831787109,-4.144363073730468,8.908396946564885,41.274809160305345,163.50381679389312
6271023015835,14.129579109,3,0.005985504150390624,3.047818713378906,-4.20062681274414,-4.885496183206107,18.435114503816795,127.85496183206106
6271043090574,14.149653848,3,0.42018239135742186,2.6479870361328124,-4.2149920227050774,-14.664122137404581,14.290076335877863,86.43511450381679
6271063031981,14.169595255,3,0.7876923461914062,2.389413256835937,-4.304774584960938,-6.938931297709924,15.389312977099237,55.44274809160305
6271082965366,14.18952864,3,1.0115502014160156,2.021903302001953,-3.9647979492187497,14.572519083969466,36.969465648854964,28.106870229007633
6271102996043,14.209559317,3,1.5586252807617187,1.7585411193847655,-3.9049429077148434,53.64885496183206,53.030534351145036,2.053435114503817
6271123068335,14.229631609,3,0.6775590698242188,1.1168950744628905,-3.294421484375,31.885496183206108,47.01526717557252,-4.099236641221374
6271143093231,14.249656505,3,-0.44532150878906246,1.5670049865722655,-3.4584242980957027,30.870229007633586,19.068702290076335,-53.2442748091603
6271162977970,14.269541244,3,-0.8954314208984374,4.295197778320312,-4.6076410949707025,11.549618320610687,-25.3206106870229,-137.98473282442748
6271182984220,14.289547494,3,-3.408146063232422,8.457517364501953,-6.0333881835937495,-42.80152671755725,-96.5114503816794,-204.42748091603053
6271202995314,14.309558588,3,-6.5768719604492185,12.99931791381836,-8.049305981445311,-98.69465648854961,-164.64885496183206,-242.34351145038167
6271223055418,14.329618692,3,-8.748412866210938,17.098191156005857,-10.740388647460938,-137.2824427480916,-209.35114503816794,-227.5267175572519
6271242989949,14.349553223,3,-6.967126831054687,18.80166563720703,-12.700042706298827,-124.36641221374046,-150.5801526717557,-124.37404580152672
6271262990470,14.369553744,3,-5.596446380615234,14.756661932373046,-10.624269866943358,-15.801526717557252,-2.145038167938931,70.85496183206106
6271283006460,14.389569734,3,-4.146757275390625,8.123526232910155,-6.7839704040527335,125.3969465648855,133.6946564885496,234.3740458015267
6271302996512,14.409559786,3,-1.945288848876953,3.9528269409179684,-4.2880151733398435,113.77099236641222,199.2824427480916,250.12977099236642
6271322995418,14.429558692,3,-0.22385785522460935,1.7513585144042967,-2.3918074584960936,102.43511450381679,203.19847328244273,200.76335877862596
6271343007293,14.449570567,3,1.1827356201171875,1.0199299072265624,-1.7094599853515624,92.86259541984732,156.59541984732823,117.37404580152672
6271363013908,14.469577182,3,1.4712369201660156,1.4185644836425781,-1.5370774658203123,31.49618320610687,88.83206106870229,35.61832061068702
6271382998543,14.489561817,3,1.4544775085449217,3.6284126159667967,-2.3511060302734372,20.290076335877863,29.793893129770993,-38.465648854961835
6271402993908,14.509557182,3,1.4915876342773438,5.02423218383789,-3.5613749694824217,-32.37404580152672,-22.778625954198475,-42.80152671755725
6271422985366,14.52954864,3,1.2737152832031249,4.396951348876953,-4.790797521972656,-61.45038167938932,-44.44274809160305,0.549618320610687
6271442996772,14.549560046,3,0.9612719665527343,2.882618798828125,-5.015852478027344,-26.61832061068702,-30.49618320610687,22.519083969465647
6271462984481,14.569547755,3,0.5063736511230469,2.529474053955078,-4.92846411743164,-19.625954198473284,-17.68702290076336,-8.213740458015268
6271482966408,14.589529682,3,-0.07422025146484375,3.7385458923339843,-5.444414575195312,7.236641221374046,-17.17557251908397,-71.6030534351145
6271502980106,14.60954338,3,-1.0031704956054688,5.6203883972167965,-5.649118817138672,-2.7557251908396947,-24.450381679389313,-126.25190839694656
6271523005783,14.629569057,3,-3.0789433349609374,8.696937530517578,-5.827486840820312,11.938931297709924,-44.603053435114504,-175.0381679389313
6271542999845,14.649563119,3,-5.233724829101562,12.571952917480468,-7.237671618652343,-39.00763358778626,-117.89312977099236,-216.99236641221373
6271562992137,14.669555411,3,-6.478709692382812,15.938200451660155,-10.20169327392578,-110.3969465648855,-186.9236641221374,-188.80152671755727
6271582983960,14.689547234,3,-5.494692810058593,16.57386099243164,-11.896788049316406,-110.54961832061069,-157.05343511450383,-68.94656488549619
6271602995835,14.709559109,3,-4.080916729736328,12.25711539916992,-10.506953985595702,-20.900763358778626,-32.908396946564885,104.72519083969466
6271622998335,14.729561609,3,-2.9664158569335934,6.23090982055664,-7.292738256835937,105.54198473282443,98.06870229007633,231.9770992366412
6271642992397,14.749555671,3,-1.3850456604003905,2.39420166015625,-4.537012145996093,116.90839694656489,176.19847328244273,238.46564885496184
6271663209793,14.769773067,3,0.40581718139648437,0.2501940734863281,-2.3487118286132813,131.95419847328245,211.76335877862596,174.86259541984734
6271683028126,14.7895914,3,0.8762778076171874,-0.9552864624023437,-1.7525556152343749,135.19847328244273,160.206106870229,108.35114503816794
6271703005262,14.809568536,3,1.6065093139648436,-0.958877764892578,-1.62805712890625,50.541984732824424,99.33587786259542,19.564885496183205
6271722995314,14.829558588,3,1.8734627990722654,0.7410054138183594,-2.536656658935547,30.33587786259542,19.16793893129771,-65.69465648854961
6271742976095,14.849539369,3,-0.6189011291503906,3.678690850830078,-3.88818349609375,-41.603053435114504,-62.969465648854964,-131.25190839694656
6271762997605,14.869560879,3,-1.5873557006835937,6.681019732666015,-5.65031591796875,-100.70229007633588,-124.89312977099236,-180.793893129771
6271782983699,14.889546973,3,-3.833116857910156,10.072406384277343,-7.912836486816405,-98.26717557251908,-174.64885496183206,-198.75572519083968
6271802923855,14.909487129,3,-5.8083332275390624,13.273454003906249,-9.859322436523437,-112.25190839694656,-179.80152671755727,-187.2824427480916
6271822937241,14.929500515,3,-5.890933184814453,15.179238525390623,-11.434707128906249,-101.59541984732824,-143.42748091603053,-126.09160305343511
6271843048126,14.9496114,3,-4.594472985839843,14.075511560058592,-11.066000073242186,-43.404580152671755,-43.32824427480916,-14.061068702290076
6271863006460,14.969569734,3,-3.9420530334472654,9.737218151855469,-8.188169677734374,78.16030534351145,68.58778625954199,105.42748091603053
6271882988751,14.989552025,3,-2.0159177978515626,6.530185028076171,-5.566518859863281,105.06870229007633,133.4732824427481,130.8091603053435
6271902973178,15.009536452,3,-1.2497732666015624,5.342661004638671,-3.842693664550781,90.45801526717557,131.06870229007635,106.55725190839695
6271922979689,15.029542963,3,-0.41539398803710936,4.643554119873047,-3.2549171569824216,36.282442748091604,75.55725190839695,86.42748091603053
6271942994064,15.049557338,3,-0.04668693237304687,4.404133953857421,-3.806780639648437,-13.274809160305344,11.076335877862595,75.22900763358778
6271962978855,15.069542129,3,-0.09696516723632811,4.2497079467773435,-4.4568063903808595,-45.57251908396947,-32.05343511450382,75.78625954198473
6271982970626,15.0895339,3,0.15682020874023436,3.5410242553710933,-5.105635040283203,-43.35114503816794,-42.14503816793893,83.66412213740458
6272002992397,15.109555671,3,0.6236895324707031,2.536656658935547,-5.164292980957031,-32.06106870229008,-29.984732824427482,91.35114503816794
6272022978595,15.129541869,3,0.7745242370605468,1.1360486877441405,-5.351040710449219,-23.17557251908397,-18.770992366412212,101.41984732824427
6272042984949,15.149548223,3,0.6368576416015624,-0.2214636535644531,-4.965574243164062,-14.82442748091603,3.854961832061069,87.12977099236642
6272062950782,15.169514056,3,0.7553706237792969,-0.7493851196289062,-4.860229370117187,17.80916030534351,17.076335877862597,28.64885496183206
