timestamp_ns,t_s,sensor_id,ax,ay,az,gx,gy,gz
6257077533444,0.184096718,1,1.2952630981445312,3.7768531188964842,8.119934930419921,-16.595419847328245,-8.419847328244275,-5.396946564885496
6257097498392,0.204061666,1,1.2832920898437499,3.3961750549316405,7.444770062255859,-19.213740458015266,-16.923664122137403,-4.717557251908397
6257117487351,0.224050625,1,1.4903905334472656,3.116053460693359,8.186972576904296,4.687022900763359,-1.6564885496183206,-5.145038167938932
6257137489278,0.244052552,1,1.6771382629394531,3.326743206787109,8.458714465332031,4.572519083969466,3.3740458015267176,-13.51908396946565
6257157488080,0.264051354,1,1.149216796875,3.81156904296875,7.8924857727050775,-9.404580152671755,-11.916030534351146,-20.87786259541985
6257177489382,0.284052656,1,1.073799444580078,4.425681768798828,7.323862878417969,-8.557251908396946,-14.16030534351145,-21.427480916030536
6257197489590,0.304052864,1,1.1168950744628905,4.2892122741699215,6.707355950927734,-3.5572519083969465,-14.122137404580153,-8.541984732824428
6257217488913,0.324052187,1,1.7549498168945312,3.575740179443359,7.1215528381347655,8.206106870229007,5.717557251908397,2.854961832061069
6257237490319,0.344053593,1,1.5107412475585937,3.1483751831054687,8.693346228027343,35.2442748091603,31.53435114503817,7.931297709923665
6257257488392,0.364051666,1,1.1073182678222655,2.693476867675781,8.87410845336914,19.35114503816794,14.34351145038168,-2.900763358778626
6257277521153,0.384084427,1,1.0235212097167967,3.843890765380859,7.581239556884765,-13.86259541984733,-14.793893129770993,-22.709923664122137
6257297492403,0.404055677,1,1.274912384033203,4.667496136474609,6.56968935546875,-1.6106870229007633,-23.732824427480917,-19.85496183206107
6257317490996,0.42405427,1,-0.10773907470703124,4.777629412841796,6.852205151367187,-12.86259541984733,-11.603053435114504,-17.213740458015266
6257337489903,0.444053177,1,2.971204260253906,5.589263775634765,8.10796392211914,22.72519083969466,20.14503816793893,-7.221374045801527
6257357489434,0.464052708,1,0.8475473876953125,4.101267443847656,6.740874774169922,-23.412213740458014,-19.03053435114504,17.862595419847327
6257377504538,0.484067812,1,1.8100164550781248,4.125209460449218,6.775590698242187,4.0534351145038165,13.473282442748092,19.34351145038168
6257397491101,0.504054375,1,1.7681179260253905,3.1675287963867187,7.036558679199218,0.9770992366412213,20.740458015267176,30.00763358778626
6257417488653,0.524051927,1,1.216254443359375,2.5737667846679684,7.948749511718749,6.687022900763359,38.038167938931295,22.31297709923664
6257437484694,0.544047968,1,0.6739677673339843,3.2130186279296873,9.364919793701171,-3.3740458015267176,44.17557251908397,1.816793893129771
6257457488340,0.564051614,1,0.59376201171875,3.9887399658203124,10.122684619140625,-15.870229007633588,23.16793893129771,-14.122137404580153
6257477490475,0.584053749,1,0.718260498046875,3.5027170288085934,9.072827191162109,0.8015267175572519,-15.068702290076336,-7.297709923664122
6257497489225,0.604052499,1,1.3024457031249999,3.2740707702636715,7.28435855102539,-10.587786259541986,-43.51145038167939,-9.564885496183207
6257517488809,0.624052083,1,1.5095441467285156,3.6858734558105466,7.248445526123047,-4.885496183206107,-31.740458015267176,-20.50381679389313
6257537488600,0.644051874,1,1.2102689392089843,4.371812231445312,7.886500268554687,-1.2900763358778626,-14.938931297709924,-23.9618320610687
6257557488548,0.664051822,1,1.3934253662109375,4.352658618164062,7.693767034912109,3.404580152671756,-13.916030534351146,-13.648854961832061
6257577486569,0.684049843,1,1.2306196533203124,4.091690637207031,6.434416961669921,0.7099236641221374,-25.53435114503817,-0.9847328244274809
6257597488913,0.704052187,1,1.4784195251464842,4.402936853027343,6.387730029296875,-9.969465648854962,-13.564885496183207,0.05343511450381679
6257617487767,0.724051041,1,1.1552023010253905,4.256890551757812,7.144297753906249,1.7328244274809161,9.748091603053435,9.473282442748092
6257637488705,0.744051979,1,1.5406687683105469,4.019864587402344,7.7967177062988275,3.366412213740458,18.68702290076336,16.923664122137403
6257657488028,0.764051302,1,1.2378022583007813,3.764882110595703,7.599196069335937,-25.206106870229007,5.534351145038168,16.061068702290076
6257677486882,0.784050156,1,1.458068811035156,3.507505432128906,7.498639599609374,-26.061068702290076,5.9465648854961835,15.473282442748092
6257697488705,0.804051979,1,1.4030021728515625,3.7995980346679685,7.978677032470703,-26.946564885496183,10.84732824427481,13.091603053435115
6257717489590,0.824052864,1,1.1324573852539062,3.1399954772949217,8.142679846191406,-24.33587786259542,13.259541984732824,17.946564885496183
6257737485788,0.844049062,1,1.3120225097656248,3.0358477050781247,7.957129217529296,-20.442748091603054,7.564885496183206,15.0
6257757490684,0.864053958,1,1.3000515014648437,2.987963671875,7.886500268554687,-12.587786259541986,8.374045801526718,12.404580152671755
6257777490423,0.884053697,1,1.5741875915527344,2.8514941772460936,8.878896856689453,-0.1984732824427481,20.48854961832061,8.076335877862595
6257797489330,0.904052604,1,1.504755743408203,2.291250988769531,9.928754284667969,23.221374045801525,22.885496183206108,8.099236641221374
6257817488288,0.924051562,1,1.209071838378906,2.3247698120117186,9.409212524414063,22.435114503816795,-0.5877862595419847,-2.8931297709923665
6257837488809,0.944052083,1,1.2761094848632812,3.3387142150878906,8.131905938720703,10.106870229007633,-22.954198473282442,-20.610687022900763
6257857487663,0.964050937,1,1.2605471740722656,3.9647979492187497,7.314286071777343,7.152671755725191,-30.748091603053435,-24.580152671755727
6257877487819,0.984051093,1,1.2785036865234374,4.2700586608886715,6.8210805297851556,6.358778625954199,-26.18320610687023,-22.099236641221374
6257897487611,1.004050885,1,1.5119383483886717,4.241328240966797,6.254851837158203,2.3740458015267176,-23.48854961832061,-14.389312977099237
6257917489329,1.024052603,1,1.5741875915527344,4.394557147216797,6.311115576171875,-4.694656488549619,-10.931297709923664,-9.793893129770993
6257937486048,1.044049322,1,1.1923124267578125,4.255693450927734,7.3849150207519525,-8.709923664122137,6.00763358778626,-3.2977099236641223
6257957489486,1.06405276,1,0.824802471923828,4.340687609863281,8.295908752441406,-14.526717557251908,9.541984732824428,4.374045801526718
6257977488392,1.084051666,1,1.350329736328125,3.563769171142578,7.876923461914062,-21.03053435114504,-2.8244274809160306,15.618320610687023
6257997488340,1.104051614,1,2.551021868896484,2.7425580017089843,8.013392956542969,-15.351145038167939,-1.083969465648855,15.893129770992367
6258017490267,1.124053541,1,2.4301146850585935,3.015496990966797,7.75721337890625,-59.52671755725191,-15.786259541984732,5.366412213740458
6258037488652,1.144051926,1,2.4851813232421875,3.42849677734375,7.104793426513671,-50.229007633587784,-16.358778625954198,3.183206106870229
6258057489590,1.164052864,1,1.8507178833007811,2.807201446533203,7.734468463134765,-26.946564885496183,5.969465648854962,12.84732824427481
6258077490215,1.184053489,1,1.8195932617187498,1.9979612854003905,8.991424334716797,-8.969465648854962,24.47328244274809,17.923664122137403
6258097490475,1.204053749,1,1.610100616455078,1.5346832641601562,9.37210239868164,-13.129770992366412,11.946564885496183,9.381679389312977
6258117488496,1.22405177,1,1.5514426757812498,2.117671368408203,8.47188257446289,-30.595419847328245,-19.47328244274809,-13.580152671755725
6258137489590,1.244052864,1,2.165555401611328,2.6108769104003904,8.05648858642578,-25.519083969465647,-27.068702290076335,-26.61832061068702
6258157488496,1.26405177,1,2.416946575927734,2.7174188842773437,9.460687860107422,-15.488549618320612,-14.374045801526718,-28.00763358778626
6258177489121,1.284052395,1,2.1835119140624997,1.2246341491699217,7.654262707519531,-2.954198473282443,-45.3206106870229,-19.412213740458014
6258197487506,1.30405078,1,1.2294225524902342,2.2756886779785157,7.550114935302734,-5.015267175572519,-36.80916030534351,-36.7557251908397
6258217489746,1.32405302,1,1.5861585998535155,2.1739351074218747,7.577648254394531,-32.20610687022901,-32.465648854961835,-60.29770992366412
6258237495579,1.344058853,1,3.008314385986328,2.389413256835937,7.597998968505859,7.229007633587786,-27.328244274809162,-61.29007633587786
6258257492038,1.364055312,1,0.3902548706054687,2.4875755249023435,8.152256652832031,5.038167938931298,-16.786259541984734,-58.87786259541985
6258277488756,1.38405203,1,0.814028564453125,4.311957189941406,9.259574920654297,-9.625954198473282,0.1297709923664122,-69.40458015267176
6258297488496,1.40405177,1,0.978031378173828,5.216965417480468,6.487089398193359,-81.64885496183206,-45.343511450381676,-46.267175572519086
6258317490058,1.424053332,1,1.6508020446777343,2.959233251953125,7.109581829833984,-7.076335877862595,-17.076335877862597,6.33587786259542
6258337488183,1.444051457,1,1.0881646545410155,1.3180080139160155,9.012972149658202,15.244274809160306,20.732824427480917,20.213740458015266
6258357488131,1.464051405,1,2.002749688720703,1.2593500732421874,10.079588989257813,14.458015267175572,18.16030534351145,4.122137404580153
6258377489069,1.484052343,1,1.5263035583496092,2.021903302001953,9.390058911132812,-15.557251908396946,-27.885496183206108,-16.519083969465647
6258397487038,1.504050312,1,1.9405004455566406,2.9364883361816405,7.845798840332031,-25.900763358778626,-51.717557251908396,-25.702290076335878
6258417489381,1.524052655,1,2.602497204589844,3.1208418640136717,7.38012661743164,-7.8396946564885495,-39.099236641221374,-15.442748091603054
6258437488756,1.54405203,1,2.912546319580078,2.712630480957031,6.086060620117187,0.6793893129770993,-28.27480916030534,0.48091603053435117
6258457490267,1.564053541,1,2.779668127441406,2.567781280517578,7.62912359008789,6.480916030534351,7.99236641221374,-0.549618320610687
6258477488861,1.584052135,1,2.759317413330078,2.337937921142578,8.74003316040039,9.297709923664122,18.82442748091603,0.5114503816793893
6258497488131,1.604051405,1,2.4588451049804685,2.5809493896484375,7.788338000488281,-11.473282442748092,-8.297709923664122,0.44274809160305345
6258517488704,1.624051978,1,1.7477672119140624,2.598905902099609,7.4699091796875,-20.366412213740457,-4.66412213740458,-2.4580152671755724
6258537489538,1.644052812,1,1.917755529785156,2.090138049316406,9.400832818603515,2.4732824427480917,22.068702290076335,1.9465648854961832
6258557487819,1.664051093,1,1.4353238952636718,1.2174515441894531,9.952696301269532,7.8396946564885495,4.458015267175573,4.061068702290076
6258577488548,1.684051822,1,2.0841525451660154,0.7529764221191406,9.431957440185545,0.2366412213740458,-28.763358778625953,-13.412213740458014
6258597488131,1.704051405,1,1.6244658264160154,0.5710170959472656,9.185354669189453,-15.236641221374045,-50.81679389312977,-39.70229007633588
6258617489069,1.724052343,1,0.928950244140625,2.0302830078125,10.868478436279297,9.473282442748092,-37.0763358778626,-65.40458015267176
6258637487246,1.74405052,1,2.517503045654297,2.8012159423828122,10.78348427734375,33.70992366412214,-55.47328244274809,-63.50381679389313
6258657488183,1.764051457,1,1.407790576171875,3.2154128295898436,5.220556719970703,0.03816793893129771,-145.94656488549617,-47.06870229007634
6258677487558,1.784050832,1,3.1555577880859373,5.040991595458984,4.147954376220703,14.244274809160306,-98.80152671755725,-54.61832061068702
6258697489433,1.804052707,1,3.1567548889160153,5.798756420898437,3.825934252929687,9.687022900763358,-61.229007633587784,-27.03053435114504
6258717487402,1.824050676,1,4.3622354248046875,5.685031842041015,5.012261175537109,17.564885496183205,-13.274809160305344,14.610687022900763
6258737489173,1.844052447,1,3.456030096435547,4.442441180419921,5.574898565673828,6.519083969465649,8.732824427480915,57.267175572519086
6258757489069,1.864052343,1,4.159925384521484,3.592499591064453,6.1830257873535155,-14.396946564885496,27.580152671755727,76.9618320610687
6258777488652,1.884051926,1,4.033032696533203,2.0350714111328125,7.36097300415039,-22.96946564885496,43.541984732824424,89.70229007633588
6258797489225,1.904052499,1,3.7900212280273435,0.31483751831054685,9.348160382080078,8.183206106870228,62.74809160305343,84.1526717557252
6258817488912,1.924052186,1,3.4201170715332028,0.3459621398925781,10.139444030761718,-6.694656488549619,39.33587786259542,48.79389312977099
6258837487975,1.944051249,1,3.2824504760742186,1.8447323791503905,8.407239129638672,-36.70229007633588,-11.16030534351145,12.213740458015268
6258857489537,1.964052811,1,4.991910461425781,2.35589443359375,6.166266375732421,-32.38931297709924,-29.35114503816794,6.511450381679389
6258877489433,1.984052707,1,5.109226342773437,1.7106570861816406,5.6563014221191406,-10.595419847328245,-4.091603053435114,10.16030534351145
6258897489537,2.004052811,1,3.9647979492187497,1.5550339782714844,8.049305981445311,-9.870229007633588,44.778625954198475,-2.8625954198473282
6258917489537,2.024052811,1,2.579752288818359,1.8938135131835936,9.65940659790039,-1.8854961832061068,49.67175572519084,-10.427480916030534
6258937489850,2.044053124,1,2.2637176696777344,2.7820623291015623,10.52131919555664,-18.671755725190838,28.435114503816795,-15.13740458015267
6258957489173,2.064052447,1,3.394977954101562,2.2074539306640624,10.587159741210938,2.7251908396946565,7.778625954198473,0.5572519083969466
6258977492610,2.084055884,1,3.831919757080078,1.1360486877441405,9.09198080444336,23.14503816793893,-17.30534351145038,16.045801526717558
6258997487923,2.104051197,1,3.4201170715332028,1.523909356689453,9.153032946777342,8.84732824427481,-9.297709923664122,-1.8091603053435115
6259017491517,2.124054791,1,3.456030096435547,2.023100402832031,10.785878479003905,30.587786259541986,23.786259541984734,-14.938931297709924
6259037488704,2.144051978,1,3.6547488342285153,3.0980969482421874,11.526883892822266,57.61068702290076,27.27480916030534,-16.763358778625953
6259057489277,2.164052551,1,3.5865140869140624,2.3439234252929686,8.888473663330078,41.85496183206107,-25.015267175572518,-1.9312977099236641
6259077492610,2.184055884,1,3.2920272827148436,1.5167267517089842,6.361393811035156,54.732824427480914,-44.7557251908397,0.8473282442748091
6259097490423,2.204053697,1,2.9041666137695312,2.051830822753906,4.969165545654296,30.00763358778626,-42.847328244274806,-20.18320610687023
6259117489329,2.224052603,1,3.1830911071777344,2.6719290527343746,3.4907460205078125,17.03053435114504,-39.74045801526717,-32.00763358778626
6259137488548,2.244051822,1,2.0266917053222655,3.2249896362304686,2.806004345703125,7.137404580152672,-31.587786259541986,-33.61832061068702
6259157489173,2.264052447,1,1.6711527587890624,3.909731311035156,3.967192150878906,1.0076335877862594,7.694656488549619,-29.31297709923664
6259177485683,2.284048957,1,1.772906329345703,4.005499377441406,4.6998178588867185,0.08396946564885496,22.374045801526716,-13.633587786259541
6259197487662,2.304050936,1,1.696291876220703,3.8582559753417964,5.373785626220703,-10.564885496183207,19.30534351145038,2.946564885496183
6259217489589,2.324052863,1,2.117671368408203,3.679887951660156,6.6522893127441405,-15.022900763358779,27.435114503816795,11.49618320610687
6259237489954,2.344053228,1,3.1304186706542967,3.0430303100585934,5.534197137451171,-33.50381679389313,8.916030534351146,24.9618320610687
6259257487506,2.36405078,1,4.037821099853516,2.7653029174804686,4.461594793701171,-41.44274809160305,19.51145038167939,28.198473282442748
6259277489902,2.384053176,1,4.27724126586914,3.142389678955078,4.930858319091796,-73.20610687022901,48.74809160305343,21.610687022900763
6259297487506,2.40405078,1,2.541445062255859,3.019088293457031,7.886500268554687,-84.16793893129771,95.14503816793894,24.427480916030536
6259317488027,2.424051301,1,2.8407202697753906,1.2761094848632812,11.089942089843749,-59.33587786259542,118.93129770992367,41.595419847328245
6259337488027,2.444051301,1,2.060210528564453,-0.3806780639648437,11.213243475341796,-66.0381679389313,66.19083969465649,46.67175572519084
6259357488339,2.464051613,1,1.744175909423828,-0.24061726684570311,11.225214483642578,-89.16030534351145,29.83969465648855,20.30534351145038
6259377487610,2.484050884,1,2.129642376708984,0.8643067993164062,12.65335577392578,-57.465648854961835,41.23664122137404,3.236641221374046
6259397489641,2.504052915,1,2.5426421630859375,0.9528922607421875,10.947487091064453,-31.427480916030536,2.8396946564885495,11.412213740458014
6259417489173,2.524052447,1,2.8790274963378906,0.49799394531249996,8.688557824707031,-23.755725190839694,-23.412213740458014,16.15267175572519
6259437488548,2.544051822,1,2.779668127441406,0.27174188842773433,9.497797985839844,4.938931297709924,6.625954198473282,7.129770992366412
6259457487923,2.564051197,1,2.703053674316406,0.5315127685546874,10.43153663330078,15.687022900763358,12.320610687022901,-3.381679389312977
6259477489225,2.584052499,1,2.2972364929199216,0.7170633972167968,9.404424121093749,6.32824427480916,-17.68702290076336,-7.282442748091603
6259497487975,2.604051249,1,2.2780828796386716,1.1815385192871093,9.743203656005859,14.01526717557252,-13.687022900763358,-12.740458015267176
6259517487246,2.62405052,1,2.6755203552246094,1.2378022583007813,10.296264239501953,32.267175572519086,-5.770992366412214,-9.633587786259541
6259537489589,2.644052863,1,2.806004345703125,0.7960720520019531,9.16859525756836,42.10687022900763,-26.793893129770993,-1.3053435114503817
6259557488912,2.664052186,1,2.7641058166503907,1.1168950744628905,7.406462835693359,27.31297709923664,-40.61068702290076,-10.618320610687023
6259577489485,2.684052759,1,3.2740707702636715,1.8375497741699218,6.251260534667968,22.206106870229007,-29.923664122137403,-20.702290076335878
6259597489277,2.704052551,1,2.93050283203125,1.9871873779296874,5.353434912109375,21.938931297709924,-15.526717557251908,-17.290076335877863
6259617487454,2.724050728,1,2.5845406921386718,1.9776105712890624,6.581660363769531,25.30534351145038,15.396946564885496,-16.114503816793892
6259637488964,2.744052238,1,2.1918916198730467,1.523909356689453,7.949946612548827,34.48854961832061,19.297709923664122,-14.129770992366412
6259657488495,2.764051769,1,2.166752502441406,1.8040309509277344,6.526593725585937,10.679389312977099,-23.435114503816795,-19.083969465648856
6259677486620,2.784049894,1,2.1248539733886718,2.6491841369628903,4.88417138671875,-15.679389312977099,-48.091603053435115,-29.053435114503817
6259697489225,2.804052499,1,2.086546746826172,3.366247534179687,5.298368273925781,-19.862595419847327,-27.0,-26.229007633587788
6259717489016,2.82405229,1,2.2194249389648437,2.910152117919922,6.257246038818359,-11.816793893129772,-7.793893129770993,-5.900763358778626
6259737488600,2.844051874,1,2.2840683837890623,1.839943975830078,6.7803791015625,-13.396946564885496,-4.374045801526718,12.755725190839694
6259757489745,2.864053019,1,2.120065570068359,0.8930372192382812,8.419210137939453,-7.793893129770993,8.183206106870228,14.458015267175572
6259777488600,2.884051874,1,2.548627667236328,1.350329736328125,9.728838446044922,-6.122137404580153,9.34351145038168,-0.09923664122137404
6259797488652,2.904051926,1,2.6491841369628903,2.309207501220703,9.578003741455078,-56.23664122137404,-21.396946564885496,-14.748091603053435
6259817488652,2.924051926,1,3.2249896362304686,1.2294225524902342,8.582015850830077,-34.30534351145038,-32.48091603053435,2.0381679389312977
6259837489068,2.944052342,1,3.189076611328125,0.12210428466796874,9.315838659667968,6.816793893129771,-3.5572519083969465,12.664122137404581
6259857487558,2.964050832,1,3.3111808959960936,1.1324573852539062,10.335768566894531,-5.0,11.610687022900763,-11.900763358778626
6259877490006,2.98405328,1,4.3622354248046875,2.0159177978515626,9.884461553955077,-27.458015267175572,-3.7022900763358777,-22.099236641221374
6259897489850,3.004053124,1,3.3016040893554686,1.35990654296875,8.894459167480468,5.0458015267175576,-14.748091603053435,0.3282442748091603
6259917488287,3.024051561,1,3.308786694335937,0.3232172241210937,7.164648468017577,23.30534351145038,-16.50381679389313,10.51908396946565
6259937492766,3.04405604,1,3.1579519897460937,0.4740519287109375,6.279990954589843,12.786259541984732,-15.549618320610687,-5.282442748091603
6259957489797,3.064053071,1,3.219004132080078,2.139219183349609,6.95874712524414,1.748091603053435,11.755725190839694,-33.717557251908396
6259977487975,3.084051249,1,2.503137835693359,3.4811692138671875,8.350975390624999,-11.801526717557252,31.984732824427482,-36.603053435114504
6259997488443,3.104051717,1,2.6396073303222654,3.592499591064453,9.81862100830078,5.625954198473282,41.69465648854962,-10.740458015267176
6260017488443,3.124051717,1,2.7078420776367187,1.993172882080078,8.249221820068358,12.511450381679388,0.2595419847328244,28.709923664122137
6260037487818,3.144051092,1,3.2597055603027343,0.8200140686035156,6.913257293701172,8.282442748091603,-11.412213740458014,37.786259541984734
6260057489329,3.164052603,1,3.1459809814453124,0.9421183532714843,7.356184600830078,-5.984732824427481,12.648854961832061,18.603053435114504
6260077488860,3.184052134,1,2.93050283203125,1.7094599853515624,8.992621435546875,-11.603053435114504,32.61068702290076,2.3740458015267176
6260097487714,3.204050988,1,2.4863784240722655,1.7489643127441405,9.126696728515624,-4.587786259541985,18.748091603053435,6.526717557251908
6260117489849,3.224053123,1,2.5641899780273434,1.6843208679199217,9.4618849609375,-9.778625954198473,5.480916030534351,15.709923664122137
6260137488860,3.244052134,1,2.3415292236328122,1.465251416015625,8.672995513916016,4.435114503816794,-4.572519083969466,30.84732824427481
6260157491099,3.264054373,1,2.481590020751953,0.7074865905761718,8.683769421386717,18.30534351145038,-2.114503816793893,37.44274809160305
6260177492610,3.284055884,1,3.347093920898437,0.6105214233398437,9.357737188720703,30.435114503816795,2.9083969465648853,25.66412213740458
6260197490318,3.304053592,1,3.594893792724609,0.47165772705078124,8.440757952880858,28.374045801526716,-13.16030534351145,15.572519083969466
6260217487870,3.324051144,1,2.8598738830566406,0.3399766357421875,8.84777223510742,49.76335877862596,3.9618320610687023,5.687022900763359
6260237495683,3.344058957,1,1.993172882080078,1.9608511596679685,9.466673364257812,35.64885496183206,22.633587786259543,-23.68702290076336
6260257491568,3.364054842,1,2.4013842651367185,3.0334535034179684,6.426037255859375,8.007633587786259,-27.022900763358777,-28.366412213740457
6260277488495,3.384051769,1,3.1639374938964844,3.388992449951172,4.983530755615234,9.557251908396946,-30.236641221374047,-23.30534351145038
6260297489276,3.40405255,1,2.825157958984375,3.1926679138183593,6.017825872802734,4.229007633587786,5.641221374045801,-17.732824427480917
6260317489016,3.42405229,1,3.8762124877929685,2.8095956481933593,8.672995513916016,5.572519083969466,46.16030534351145,-13.82442748091603
6260337488235,3.444051509,1,2.558204473876953,1.6639701538085936,10.071209283447265,26.17557251908397,37.23664122137404,3.931297709923664
6260357488235,3.464051509,1,1.8100164550781248,1.9045874206542968,10.82777700805664,15.091603053435115,15.679389312977099,-9.01526717557252
6260377488704,3.484051978,1,2.5007436340332028,2.896984008789062,10.728417639160156,4.9541984732824424,-17.435114503816795,-18.0
6260397486829,3.504050103,1,2.6108769104003904,2.233790148925781,8.325836273193358,-4.885496183206107,-67.47328244274809,-5.473282442748092
6260417487089,3.524050363,1,4.778826513671874,1.35990654296875,7.607575775146484,36.656488549618324,-44.732824427480914,0.0
6260437504797,3.544068071,1,3.944447235107422,1.458068811035156,7.8924857727050775,48.030534351145036,-20.755725190839694,-6.458015267175573
6260457503860,3.564067134,1,1.6986860778808592,2.721010186767578,9.076418493652342,40.099236641221374,0.3511450381679389,-28.717557251908396
6260477503183,3.584066457,1,1.218648645019531,3.8893805969238278,9.791087689208984,40.76335877862596,2.6717557251908395,-34.10687022900763
6260497504537,3.604067811,1,2.7066449768066403,3.2549171569824216,7.596801867675781,57.02290076335878,-35.961832061068705,-8.793893129770993
6260517502818,3.624066092,1,3.859453076171875,2.1835119140624997,3.535038751220703,35.954198473282446,-74.90839694656489,1.251908396946565
6260537505006,3.64406828,1,3.6164416076660153,2.418143676757812,1.322796417236328,9.923664122137405,-46.25190839694657,-19.12213740458015
6260557503964,3.664067238,1,1.3646949462890625,3.336320013427734,2.1811177124023438,-42.19083969465649,5.519083969465649,-41.79389312977099
6260577504328,3.684067602,1,1.4006079711914061,4.335899206542969,5.968744738769531,-27.091603053435115,72.3587786259542,-44.23664122137404
6260597504172,3.704067446,1,1.2892775939941405,2.5570073730468748,8.046911779785155,-3.183206106870229,59.56488549618321,-12.267175572519085
6260617503026,3.7240663,1,2.050633721923828,2.005143890380859,8.961496813964843,16.14503816793893,24.12213740458015,-10.50381679389313
6260637505006,3.74406828,1,2.9448680419921875,3.001131781005859,9.287108239746093,-38.61068702290076,-17.557251908396946,-35.02290076335878
6260657504381,3.764067655,1,3.4644098022460934,4.073734124755859,9.649829791259766,-34.595419847328245,-27.65648854961832,-39.49618320610687
6260677503964,3.784067238,1,4.027047192382812,4.370615130615234,7.5908163635253905,-52.18320610687023,-51.2442748091603,-25.763358778625953
6260697504693,3.804067967,1,4.452017987060547,3.6571430358886716,7.0844427124023435,-30.267175572519083,-22.282442748091604,-4.786259541984733
6260717506412,3.824069686,1,3.872621185302734,2.483984222412109,8.735244757080078,16.52671755725191,30.015267175572518,12.923664122137405
6260737505630,3.844068904,1,3.0645781249999997,1.9979612854003905,8.78552299194336,3.6106870229007635,23.31297709923664,10.129770992366412
6260757502766,3.86406604,1,3.23696064453125,1.9967641845703124,7.734468463134765,-11.511450381679388,-5.366412213740458,-4.488549618320611
6260777502974,3.884066248,1,3.1411925781249996,2.7844565307617186,6.746860278320312,-35.25954198473283,-22.938931297709924,-23.221374045801525
6260797501776,3.90406505,1,2.835931866455078,3.1088708557128903,7.335833886718749,-15.854961832061068,-3.9389312977099236,-29.46564885496183
6260817504589,3.924067863,1,3.286041778564453,3.414131567382812,7.8912886718749995,-4.977099236641221,12.083969465648854,-19.0
6260837505422,3.944068696,1,2.4959552307128905,2.9089550170898435,8.413224633789062,8.893129770992367,22.15267175572519,-6.068702290076335
6260857504849,3.964068123,1,2.0937293518066404,3.6451720275878903,9.445125549316407,6.931297709923665,27.106870229007633,-0.4961832061068702
6260877503547,3.984066821,1,2.214636535644531,3.660734338378906,8.896853369140624,-14.793893129770993,-4.312977099236641,8.885496183206106
6260897503599,4.004066873,1,2.96881005859375,2.8790274963378906,6.86297905883789,-15.65648854961832,-34.229007633587784,24.541984732824428
6260917504433,4.024067707,1,3.755305303955078,2.3403321228027343,6.215347509765625,-16.297709923664122,-24.206106870229007,32.42748091603053
6260937505526,4.0440688,1,4.035426898193359,2.548627667236328,7.269993341064453,-14.702290076335878,14.19083969465649,32.45038167938932
6260957502089,4.064065363,1,3.0454245117187497,1.7992425476074219,8.105569720458984,6.106870229007634,30.64885496183206,40.79389312977099
6260977507297,4.084070571,1,2.9640216552734375,1.4796166259765624,8.52335791015625,5.236641221374046,29.045801526717558,30.427480916030536
6260997504068,4.104067342,1,3.365050433349609,1.7369933044433592,8.671798413085938,-7.938931297709924,22.297709923664122,15.748091603053435
6261017507505,4.124070779,1,1.6747440612792968,1.9225439331054686,8.35696089477539,-21.47328244274809,10.740458015267176,16.69465648854962
6261037504901,4.144068175,1,2.0937293518066404,0.9193734375,8.726865051269531,-1.9465648854961832,18.091603053435115,25.954198473282442
6261057504328,4.164067602,1,2.0661960327148434,0.9648632690429687,9.062053283691405,14.709923664122137,16.61832061068702,8.49618320610687
6261077508651,4.184071925,1,2.555810272216797,1.0785878479003905,8.665812908935546,12.19083969465649,3.0,-13.16793893129771
6261097503964,4.204067238,1,2.608482708740234,1.2761094848632812,8.35696089477539,10.595419847328245,-1.2366412213740459,-30.31297709923664
6261117506672,4.224069946,1,2.3726538452148436,2.0302830078125,7.495048297119141,10.19083969465649,-7.267175572519084,-44.06870229007634
6261137505995,4.244069269,1,2.551021868896484,3.901351605224609,7.5465236328125,-23.83206106870229,-9.427480916030534,-63.786259541984734
6261157503026,4.2640663,1,2.105700360107422,4.204218115234375,7.4603323730468745,-32.66412213740458,-14.854961832061068,-51.94656488549618
6261177502557,4.284065831,1,2.531868255615234,4.938040924072265,8.998606939697265,-43.13740458015267,-3.3740458015267176,-49.412213740458014
6261197503182,4.304066456,1,4.406528155517578,4.610035296630859,9.993397729492187,-57.900763358778626,-15.977099236641221,-29.137404580152673
6261217503807,4.324067081,1,3.1411925781249996,2.855085479736328,8.815450512695312,0.7251908396946565,-45.45038167938932,20.87786259541985
6261237503964,4.344067238,1,3.9923312683105467,1.4305354919433593,7.436390356445312,-15.748091603053435,-70.29770992366412,26.47328244274809
6261257503339,4.364066613,1,3.725377783203125,0.13646949462890623,6.297947467041015,6.5038167938931295,-63.6793893129771,23.33587786259542
6261277500891,4.384064165,1,3.7612908081054686,0.2549824768066406,5.974730242919922,-7.442748091603053,-48.656488549618324,-10.106870229007633
6261297503599,4.404066873,1,3.414131567382812,0.8188169677734375,6.0142345703124995,-27.480916030534353,-34.57251908396947,-42.900763358778626
6261317504172,4.424067446,1,3.4584242980957027,1.85790048828125,7.109581829833984,-15.19083969465649,-4.633587786259542,-63.732824427480914
6261337504328,4.444067602,1,3.219004132080078,3.3111808959960936,8.218097198486328,-18.35114503816794,11.725190839694656,-71.12977099236642
6261357505057,4.464068331,1,1.9524714538574217,3.6739024475097652,8.044517578125,-11.13740458015267,5.877862595419847,-53.44274809160305
6261377503026,4.4840663,1,2.6204537170410154,3.564966271972656,8.507795599365235,-1.1450381679389312,10.633587786259541,-29.82442748091603
6261397503339,4.504066613,1,2.6192566162109374,2.693476867675781,8.173804467773436,-5.419847328244275,-1.5954198473282444,-8.877862595419847
6261417503651,4.524066925,1,3.0023288818359375,1.868674395751953,7.8721350585937495,-2.8473282442748094,-8.610687022900763,0.8320610687022901
6261437547089,4.544110363,1,3.7038299682617186,1.438915197753906,7.7763669921875,-2.687022900763359,-12.870229007633588,0.46564885496183206
6261457503286,4.56406656,1,3.6727053466796873,1.351526837158203,7.345410693359375,-11.206106870229007,-16.66412213740458,-6.366412213740458
6261477503911,4.584067185,1,3.584119885253906,2.251746661376953,7.681796026611328,-14.50381679389313,-3.8625954198473282,-20.82442748091603
6261497502453,4.604065727,1,3.3255461059570313,2.8287492614746093,8.164227661132813,-10.022900763358779,3.7099236641221376,-19.412213740458014
6261517504693,4.624067967,1,3.5386300537109374,2.165555401611328,7.827842327880859,5.809160305343512,1.8931297709923665,-7.603053435114504
6261537502193,4.644065467,1,3.566163372802734,1.695094775390625,8.407239129638672,-0.5801526717557252,2.1908396946564888,-11.076335877862595
6261557503755,4.664067029,1,2.940079638671875,1.8279729675292968,7.931990100097655,-15.877862595419847,-11.259541984732824,-20.83969465648855
6261577504328,4.684067602,1,3.391386651611328,1.8626888916015625,8.238447912597655,4.66412213740458,-5.404580152671755,-23.786259541984734
6261597500370,4.704063644,1,3.266888165283203,2.0183119995117185,8.158242156982421,-9.16030534351145,-13.969465648854962,-27.801526717557252
6261617503651,4.724066925,1,3.877409588623047,2.272097375488281,7.4603323730468745,5.213740458015267,-17.908396946564885,-23.137404580152673
6261637503859,4.744067133,1,3.5517981628417967,2.252943762207031,6.998251452636718,-20.671755725190838,-26.916030534351144,-28.091603053435115
6261657501411,4.764064685,1,3.812766143798828,2.528276953125,7.296329559326171,-2.786259541984733,-8.580152671755725,-29.053435114503817
6261677504536,4.78406781,1,3.438073583984375,2.961627453613281,7.34181939086914,7.9465648854961835,-2.099236641221374,-16.893129770992367
6261697503130,4.804066404,1,3.5326445495605467,2.389413256835937,7.592013464355468,13.580152671755725,2.877862595419847,-7.427480916030534
6261717502557,4.824065831,1,2.948459344482422,2.2768857788085937,7.400477331542969,-8.442748091603054,-0.8702290076335878,-14.13740458015267
6261737503391,4.844066665,1,3.8103719421386715,2.7257985900878903,7.723694555664062,2.3206106870229006,5.480916030534351,-13.030534351145038
6261757503859,4.864067133,1,2.906560815429687,2.990357873535156,7.2723875427246085,-21.045801526717558,-3.122137404580153,-15.969465648854962
6261777504380,4.884067654,1,4.243722442626953,3.0909143432617188,7.278373046874999,7.374045801526718,13.49618320610687,-3.5343511450381677
6261797503443,4.904066717,1,3.1471780822753903,2.6791116577148437,7.094019519042968,-0.6946564885496184,14.854961832061068,10.259541984732824
6261817502245,4.924065519,1,3.604470599365234,2.346317626953125,7.8529814453124995,16.908396946564885,39.19847328244275,18.412213740458014
6261837505422,4.944068696,1,2.9496564453125,1.7190367919921874,7.5333555236816405,-13.702290076335878,27.84732824427481,16.908396946564885
6261857503547,4.964066821,1,2.711433380126953,2.129642376708984,8.070853796386718,1.3129770992366412,34.86259541984733,14.267175572519085
6261877502505,4.984065779,1,2.3343466186523436,2.370259643554687,8.765172277832031,-30.641221374045802,19.96946564885496,1.5267175572519085
6261897502297,5.004065571,1,3.2345664428710936,2.3259669128417966,8.390479718017577,-18.50381679389313,6.145038167938932,4.893129770992366
6261917505057,5.024068331,1,3.3542765258789062,2.1440075866699217,7.532158422851562,-31.6793893129771,-10.870229007633588,6.175572519083969
6261937503026,5.0440663,1,3.383006945800781,1.8614917907714843,7.953537915039062,-13.610687022900763,13.549618320610687,12.17557251908397
6261957503911,5.064067185,1,3.3494881225585935,1.2617442749023438,8.999804040527343,5.748091603053435,30.358778625954198,19.450381679389313
6261977501724,5.084064998,1,2.8275521606445313,1.092953057861328,8.75918677368164,3.0076335877862594,20.916030534351144,15.038167938931299
6261997502713,5.104065987,1,2.6707319519042967,1.216254443359375,8.225279803466796,-10.16030534351145,4.648854961832061,1.1908396946564885
6262017541932,5.124105206,1,2.9640216552734375,1.7968483459472655,8.282740643310547,-14.412213740458014,4.465648854961832,-9.65648854961832
6262037507453,5.144070727,1,2.7365724975585937,2.203862628173828,8.317456567382813,-4.786259541984733,3.9236641221374047,-7.702290076335878
6262057507036,5.16407031,1,2.693476867675781,2.3882161560058592,8.17859287109375,-4.068702290076335,-0.7938931297709924,-3.5419847328244276
6262077502192,5.184065466,1,2.634818927001953,1.9656395629882812,7.615955480957031,1.8702290076335877,-5.519083969465649,6.076335877862595
6262097504745,5.204068019,1,3.2920272827148436,2.1595698974609374,7.78235249633789,-3.099236641221374,-0.07633587786259542,5.3816793893129775
6262117502609,5.224065883,1,3.475183709716797,2.050633721923828,7.3657614074707025,-13.465648854961833,2.267175572519084,3.7709923664122136
6262137505474,5.244068748,1,3.9612066467285154,1.590947003173828,7.687781530761718,13.366412213740459,21.16793893129771,13.145038167938932
6262157513859,5.264077133,1,3.1316157714843746,0.9133879333496093,8.431181146240235,11.412213740458014,31.17557251908397,10.412213740458014
6262177510838,5.284074112,1,2.8790274963378906,1.254561669921875,8.82263311767578,17.106870229007633,34.25190839694657,-2.900763358778626
6262197503807,5.304067081,1,2.565387078857422,1.4987702392578124,8.43357534790039,-7.572519083969466,13.67175572519084,-18.83969465648855
6262217503286,5.32406656,1,3.1304186706542967,1.7573440185546874,7.11197603149414,-0.022900763358778626,3.4580152671755724,-21.267175572519083
6262237511620,5.344074894,1,3.2237925354003902,2.3151930053710936,6.587645867919922,-2.8702290076335877,15.770992366412214,-25.091603053435115
6262257503234,5.364066508,1,2.8275521606445313,2.849099975585937,7.586027960205078,27.65648854961832,52.70992366412214,-18.114503816793892
6262277505474,5.384068748,1,1.695094775390625,2.5713725830078125,8.407239129638672,29.068702290076335,54.465648854961835,-3.717557251908397
6262297511047,5.404074321,1,1.3670891479492187,2.2601263671875,10.117896215820313,22.290076335877863,50.412213740458014,0.7175572519083969
6262317504901,5.424068175,1,0.8367734802246093,1.6041151123046875,10.512939489746094,14.885496183206106,13.351145038167939,-8.221374045801527
6262337504744,5.444068018,1,1.1133037719726562,1.2797007873535156,9.752780462646484,1.6793893129770991,-26.83206106870229,-23.198473282442748
6262357504797,5.464068071,1,2.1715409057617188,1.5310919616699217,8.419210137939453,-22.412213740458014,-59.02290076335878,-26.35114503816794
6262377505422,5.484068696,1,3.27526787109375,1.668758557128906,6.187814190673827,-19.282442748091604,-61.847328244274806,-24.717557251908396
6262397503130,5.504066404,1,3.0119056884765625,1.8076222534179687,5.553350750732421,-11.50381679389313,-31.53435114503817,-31.068702290076335
6262417505942,5.524069216,1,2.3223756103515623,2.3834277526855465,7.475894683837891,11.16793893129771,19.717557251908396,-31.51145038167939
6262437503286,5.54406656,1,1.4329296936035156,2.8993782104492185,9.421183532714844,16.068702290076335,31.61832061068702,-28.862595419847327
6262457505369,5.564068643,1,1.648407843017578,3.1651345947265623,9.176974963378905,3.2442748091603053,6.32824427480916,-15.98473282442748
6262477504119,5.584067393,1,2.2553379638671873,2.6683377502441403,7.461529473876952,-11.755725190839694,-21.931297709923665,-7.251908396946565
6262497503234,5.604066508,1,2.0075380920410155,2.281674182128906,6.861781958007812,-7.633587786259542,-16.0,-10.603053435114504
6262517503546,5.62406682,1,2.3139959045410157,2.4301146850585935,7.513004809570312,-15.51908396946565,4.259541984732825,-4.641221374045801
6262537503234,5.644066508,1,1.2605471740722656,2.616862414550781,8.252813122558594,-6.702290076335878,13.564885496183207,-7.1679389312977095
6262557505838,5.664069112,1,1.5502455749511719,3.5015199279785154,8.752004168701172,-9.48091603053435,12.450381679389313,0.5572519083969466
6262577505890,5.684069164,1,0.8714894042968749,3.6762966491699216,8.597578161621094,-48.85496183206107,-18.85496183206107,26.862595419847327
6262597501776,5.70406505,1,2.460042205810547,2.806004345703125,7.624335186767578,-43.74809160305343,-38.58015267175573,43.97709923664122
6262617503911,5.724067185,1,3.0358477050781247,1.5119383483886717,6.479906793212891,-46.595419847328245,-29.106870229007633,51.717557251908396
6262637504796,5.74406807,1,3.3387142150878906,1.0486603271484374,8.640673791503906,-17.709923664122137,33.88549618320611,60.89312977099237
6262657505109,5.764068383,1,2.5258827514648434,0.37229835815429685,10.479420666503906,26.16030534351145,61.778625954198475,50.20610687022901
6262677504796,5.78406807,1,2.155978594970703,-0.16639701538085935,10.524910498046875,17.778625954198475,30.221374045801525,24.328244274809162
6262697503651,5.804066925,1,3.4715924072265625,-0.023942016601562498,9.358934289550781,-1.3129770992366412,-13.458015267175572,-2.6946564885496183
6262717503546,5.82406682,1,4.948814831542968,0.8750807067871094,8.986635931396483,-25.946564885496183,1.8244274809160306,11.50381679389313
6262737504067,5.844067341,1,3.659537237548828,0.7230489013671875,9.254786517333983,11.694656488549619,37.2442748091603,18.46564885496183
6262757502661,5.864065935,1,2.3535002319335936,0.9564835632324218,10.524910498046875,65.7557251908397,33.725190839694655,-2.2900763358778624
6262777503494,5.884066768,1,1.455674609375,2.1116858642578125,10.149020837402343,53.961832061068705,11.82442748091603,-7.66412213740458
6262797504119,5.904067393,1,1.149216796875,2.905363714599609,8.749609967041016,70.01526717557252,1.816793893129771,-13.687022900763358
6262817504692,5.924067966,1,2.2673089721679687,3.1794998046874996,8.100781317138672,59.221374045801525,-22.66412213740458,1.3893129770992367
6262837503182,5.944066456,1,1.4688427185058592,2.7353753967285153,6.496666204833984,56.97709923664122,-31.66412213740458,-2.427480916030534
6262857506776,5.96407005,1,1.448492004394531,2.522291448974609,5.6395420104980465,43.587786259541986,-25.81679389312977,-10.770992366412214
6262877505473,5.984068747,1,1.6711527587890624,2.472013214111328,5.143942266845703,33.656488549618324,-27.603053435114504,-12.541984732824428
6262897501046,6.00406432,1,1.6017209106445311,2.4672248107910155,4.3059716857910155,22.84732824427481,-13.717557251908397,-25.778625954198475
6262917503703,6.024066977,1,1.5765817932128905,3.497928625488281,4.358644122314453,-4.923664122137405,4.442748091603053,-31.480916030534353
6262937502765,6.044066039,1,0.5434837768554687,4.378994836425781,5.699397052001952,-35.42748091603053,24.46564885496183,-14.65648854961832
6262957504744,6.064068018,1,0.6272808349609375,4.639962817382812,7.4770917846679685,-27.51145038167939,13.610687022900763,16.6793893129771
6262977504275,6.084067549,1,2.059013427734375,4.0988732421875,8.18457837524414,-32.603053435114504,-8.938931297709924,40.6412213740458
6262997506932,6.104070206,1,2.012326495361328,2.43250888671875,8.155847955322265,-32.3587786259542,-11.259541984732824,37.31297709923664
6263017509119,6.124072393,1,2.900575311279297,1.6603788513183593,8.388085516357421,-51.29770992366412,-5.702290076335878,25.85496183206107
6263037503807,6.144067081,1,3.4201170715332028,1.3024457031249999,9.144653240966797,-60.67175572519084,10.48091603053435,16.778625954198475
6263057505369,6.164068643,1,4.04141240234375,1.5406687683105469,10.200496173095702,-46.87022900763359,8.557251908396946,19.908396946564885
6263077501932,6.184065206,1,3.6475662292480466,1.0749965454101562,10.087968695068358,-27.53435114503817,33.99236641221374,21.587786259541986
6263097509796,6.20407307,1,3.6188358093261717,0.7577648254394531,10.67454810180664,18.580152671755727,31.732824427480917,19.053435114503817
6263117506307,6.224069581,1,4.133589166259766,0.5662286926269531,10.747571252441405,50.74045801526717,29.045801526717558,7.877862595419847
6263137505994,6.244069268,1,3.209427325439453,0.21428104858398436,10.990582720947264,49.48854961832061,18.6793893129771,-17.27480916030534
6263157505317,6.264068591,1,1.7501614135742187,0.967257470703125,11.052831964111327,3.9618320610687023,-7.541984732824427,-54.89312977099237
6263177504171,6.284067445,1,1.236605157470703,3.3351229125976563,9.756371765136718,-0.7633587786259542,-36.152671755725194,-48.916030534351144
6263197504536,6.30406781,1,1.7573440185546874,4.484339709472656,7.313088970947265,41.82442748091603,-25.412213740458014,-15.694656488549619
6263217503702,6.324066976,1,2.408566870117187,3.81156904296875,5.9400143188476555,47.14503816793893,-24.396946564885496,10.236641221374045
6263237502088,6.344065362,1,1.8315642700195311,2.498349432373047,4.6076410949707025,41.58015267175573,-0.8320610687022901,5.229007633587786
6263257504484,6.364067758,1,1.734599102783203,2.4157494750976563,4.636371514892578,17.770992366412212,4.458015267175573,-5.229007633587786
6263277503182,6.384066456,1,1.3527239379882812,2.8107927490234372,4.8889597900390624,-10.488549618320612,0.7022900763358778,-14.106870229007633
6263297504067,6.404067341,1,1.9416975463867185,3.785232824707031,5.067327813720703,-18.083969465648856,-5.9541984732824424,-3.3740458015267176
6263317502869,6.424066143,1,1.6077064147949218,3.356670727539062,5.013458276367187,-2.4885496183206106,4.595419847328245,9.458015267175572
6263337504275,6.444067549,1,1.9871873779296874,2.7832594299316407,5.889736083984375,-15.022900763358779,8.786259541984732,7.793893129770993
6263357501307,6.464064581,1,1.9141642272949217,2.6324247253417967,7.161057165527343,-31.85496183206107,5.656488549618321,1.465648854961832
6263377504484,6.484067758,1,2.099714855957031,2.958036151123047,7.7224974548339835,-41.770992366412216,-1.4045801526717556,4.068702290076335
6263397502869,6.504066143,1,2.088940948486328,3.305195391845703,7.982268334960937,-41.61068702290076,9.13740458015267,8.770992366412214
6263417503494,6.524066768,1,2.905363714599609,3.4548329956054684,9.02733735961914,-38.7557251908397,17.862595419847327,15.687022900763358
6263437504171,6.544067445,1,2.9269115295410155,2.740163800048828,9.78629928588867,-29.46564885496183,15.946564885496183,31.404580152671755
6263457546254,6.564109528,1,2.730586993408203,1.6699556579589843,10.850521923828124,-11.48091603053435,14.488549618320612,31.786259541984734
6263477503546,6.58406682,1,1.9895815795898437,1.0558429321289062,10.861295831298827,-11.267175572519085,-4.9465648854961835,19.6793893129771
6263497503338,6.604066612,1,1.8662801940917968,0.9361328491210937,10.535684405517577,-21.81679389312977,-33.396946564885496,4.190839694656488
6263517503077,6.624066351,1,2.47081611328125,1.0378864196777342,6.979097839355468,-23.885496183206108,-49.79389312977099,-2.8473282442748094
6263537504432,6.644067706,1,2.5246856506347655,1.47482822265625,6.701370446777343,-18.732824427480917,-25.15267175572519,-10.587786259541986
6263557545629,6.664108903,1,2.3774422485351563,2.370259643554687,8.492233288574218,1.0381679389312977,10.259541984732824,-3.3435114503816794
6263577504379,6.684067653,1,1.915361328125,2.868253588867187,9.64623848876953,15.893129770992367,11.007633587786259,15.244274809160306
6263597503077,6.704066351,1,1.9967641845703124,2.4672248107910155,9.083601098632812,8.908396946564885,-15.282442748091603,28.0
6263617503754,6.724067028,1,2.882618798828125,1.5454571716308594,7.903259680175781,-6.083969465648855,-38.18320610687023,25.48854961832061
6263637503598,6.744066872,1,2.941276739501953,0.9313444458007812,7.145494854736327,-10.961832061068701,-33.099236641221374,9.80916030534351
6263657545265,6.764108539,1,3.6834792541503902,1.303642803955078,6.9156514953613275,-17.442748091603054,-25.427480916030536,-1.0076335877862594
6263677505004,6.784068278,1,3.456030096435547,1.763329522705078,7.0449383850097655,-7.748091603053435,-11.442748091603054,-4.129770992366412
6263697504119,6.804067393,1,3.853467572021484,1.8507178833007811,6.762422589111328,-2.8625954198473282,-6.717557251908397,-1.1526717557251909
6263717501827,6.824065101,1,3.484760516357422,1.66636435546875,6.566098052978515,-4.4961832061068705,4.290076335877862,-2.618320610687023
6263737502765,6.844066039,1,3.3255461059570313,1.838746875,7.138312249755859,-18.778625954198475,14.717557251908397,-6.450381679389313
6263757503390,6.864066664,1,3.308786694335937,2.474407415771484,7.6997525390625,-18.290076335877863,14.541984732824428,-0.6717557251908397
6263777504275,6.884067549,1,3.1411925781249996,2.118868469238281,7.574056951904296,-32.32824427480916,-3.6030534351145036,-0.44274809160305345
6263797502088,6.904065362,1,2.7712884216308593,1.7788918334960937,8.492233288574218,-74.85496183206106,-11.458015267175572,-11.98473282442748
6263817504067,6.924067341,1,3.2537200561523436,2.243366955566406,6.555324145507812,-49.54961832061068,-17.404580152671755,12.419847328244275
6263837502921,6.944066195,1,4.661510632324219,1.6543933471679686,8.422801440429687,-9.595419847328245,38.16793893129771,32.7557251908397
6263857503858,6.964067132,1,2.2673089721679687,0.6141127258300781,10.996568225097656,10.122137404580153,73.38931297709924,27.763358778625953
6263877504536,6.98406781,1,2.0649989318847655,0.5746083984375,10.229226593017577,-31.419847328244273,19.129770992366414,16.358778625954198
6263897503858,7.004067132,1,1.6615759521484375,-0.15682020874023436,9.045293872070312,-15.251908396946565,-3.946564885496183,7.038167938931298
6263917504275,7.024067549,1,2.3139959045410157,0.3950432739257812,9.124302526855468,-11.992366412213741,3.099236641221374,-7.9465648854961835
6263937504692,7.044067966,1,2.9173347229003905,0.7805097412109374,8.123526232910155,-3.7938931297709924,-2.5572519083969465,-7.175572519083969
6263957503181,7.064066455,1,3.2142157287597652,1.092953057861328,7.976282830810546,-2.9236641221374047,6.6106870229007635,-10.763358778625955
6263977504900,7.084068174,1,4.358644122314453,0.4656722229003906,8.9255837890625,2.8625954198473282,15.664122137404581,-8.16793893129771
6263997504171,7.104067445,1,3.5326445495605467,0.34237083740234375,10.007762939453125,14.84732824427481,27.702290076335878,-11.061068702290076
6264017502088,7.124065362,1,2.8191724548339843,0.9181763366699218,10.457872851562499,9.007633587786259,20.3206106870229,-13.244274809160306
6264037503025,7.144066299,1,2.3247698120117186,1.5454571716308594,10.970232006835937,14.84732824427481,24.206106870229007,-13.954198473282442
6264057502192,7.164065466,1,1.879448303222656,1.3347674255371094,9.032125762939453,18.717557251908396,-3.099236641221374,2.969465648854962
6264077504848,7.184068122,1,1.7956512451171873,0.8451531860351562,7.259219433593749,20.17557251908397,-11.061068702290076,13.83969465648855
6264097504119,7.204067393,1,1.4544775085449217,1.5298948608398437,7.758410479736328,30.82442748091603,20.458015267175572,7.129770992366412
6264117502192,7.224065466,1,1.5071499450683592,1.9512743530273435,8.963891015625,37.98473282442748,27.47328244274809,8.145038167938932
6264137501358,7.244064632,1,1.1180921752929687,1.6831237670898436,8.772354882812499,35.267175572519086,-2.877862595419847,14.435114503816793
6264157505681,7.264068955,1,1.7597382202148437,1.255758770751953,6.458358978271484,13.305343511450381,-53.41984732824427,15.389312977099237
6264177513025,7.284076299,1,2.501940734863281,1.0378864196777342,4.133589166259766,-15.122137404580153,-78.25954198473282,6.061068702290076
6264197505369,7.304068643,1,2.626439221191406,1.3048399047851562,3.384204046630859,-16.603053435114504,-55.74809160305343,-5.015267175572519
6264217504119,7.324067393,1,2.7341782958984373,2.081758343505859,4.237736938476562,-26.46564885496183,-19.38167938931298,-15.358778625954198
6264237505004,7.344068278,1,2.1344307800292968,2.2972364929199216,6.672640026855468,-27.519083969465647,16.33587786259542,-14.938931297709924
6264257512192,7.364075466,1,2.482787121582031,1.7980454467773437,9.127893829345702,-8.213740458015268,27.65648854961832,1.5877862595419847
6264277505525,7.384068799,1,2.5857377929687497,0.6428431457519531,9.242815509033203,-16.557251908396946,-1.2900763358778626,17.00763358778626
6264297502817,7.404066091,1,3.5027170288085934,0.6763619689941406,9.117119921875,-26.0381679389313,-10.458015267175572,13.114503816793894
6264317503546,7.42406682,1,4.335899206542969,1.1360486877441405,9.315838659667968,-15.213740458015268,-4.709923664122138,9.374045801526718
6264337503754,7.444067028,1,4.089296435546875,0.9373299499511718,10.657788690185546,-33.55725190839695,25.14503816793893,7.511450381679389
6264357503181,7.464066455,1,3.380612744140625,-0.005985504150390624,12.810175982666015,23.755725190839694,49.70229007633588,26.435114503816795
6264377504015,7.484067289,1,3.2716765686035156,-0.6691793640136718,12.361263171386717,37.36641221374046,15.65648854961832,24.908396946564885
6264397504223,7.504067497,1,2.9556419494628905,-0.06943184814453125,9.51814869995117,-4.068702290076335,-42.099236641221374,-5.717557251908397
6264417503442,7.524066716,1,3.5206735412597654,1.1372457885742187,7.542932330322265,-24.870229007633586,-58.030534351145036,-31.46564885496183
6264437502608,7.544065882,1,3.555389465332031,1.867477294921875,7.311891870117187,-10.01526717557252,-32.038167938931295,-31.389312977099237
6264457501358,7.564064632,1,3.737348791503906,1.9213468322753906,8.129511737060547,20.3206106870229,-1.183206106870229,-14.274809160305344
6264477505108,7.584068382,1,3.9899370666503904,1.2521674682617188,8.246827618408203,34.85496183206107,1.6717557251908397,2.2977099236641223
6264497503598,7.604066872,1,3.901351605224609,0.4285620971679687,7.4591352722167965,32.66412213740458,-12.80916030534351,5.244274809160306
6264517502556,7.62406583,1,3.337517114257812,0.5746083984375,6.777984899902344,23.862595419847327,-18.374045801526716,-8.32824427480916
6264537503181,7.644066455,1,2.5809493896484375,1.2030863342285156,6.372167718505859,12.267175572519085,-17.16030534351145,-23.893129770992367
6264557503650,7.664066924,1,1.9668366638183592,1.927332336425781,5.749675286865234,5.396946564885496,-16.30534351145038,-29.938931297709924
6264577504535,7.684067809,1,1.2114660400390624,2.290053887939453,4.6459483215332025,-0.3435114503816794,-19.435114503816795,-22.206106870229007
6264597503858,7.704067132,1,1.0941501586914062,2.482787121582031,4.57771357421875,-2.3282442748091605,-3.198473282442748,-13.572519083969466
6264617502452,7.724065726,1,0.3806780639648437,2.437297290039062,5.743689782714843,-7.083969465648855,12.282442748091603,-2.9160305343511452
6264637500421,7.744063695,1,1.22583125,2.404975567626953,7.557297540283202,-14.50381679389313,21.18320610687023,3.6259541984732824
6264657504014,7.764067288,1,2.528276953125,2.0159177978515626,8.196549383544921,-33.31297709923664,2.900763358778626,16.572519083969464
6264677503441,7.784066715,1,4.979939453125,1.7501614135742187,9.434351641845703,-25.610687022900763,10.587786259541986,24.458015267175572
6264697503650,7.804066924,1,5.086481427001953,0.4584896179199218,9.767145672607422,-3.0381679389312977,2.3053435114503817,39.343511450381676
6264717502556,7.82406583,1,5.877765075683594,0.5063736511230469,11.371260784912108,-42.94656488549618,27.84732824427481,13.992366412213741
6264737502452,7.844065726,1,4.9416322265625,-0.33758243408203126,12.443863128662109,15.778625954198473,38.13740458015267,31.633587786259543
6264757502869,7.864066143,1,4.222174627685547,-0.729034405517578,12.998120812988281,33.56488549618321,36.68702290076336,23.954198473282442
6264777504327,7.884067601,1,3.7900212280273435,-0.18555062866210936,11.5304751953125,21.129770992366414,-3.16793893129771,-2.7099236641221376
6264797503650,7.904066924,1,3.8462849670410155,0.6679822631835937,8.480262280273436,-18.49618320610687,-55.98473282442748,-26.358778625954198
6264817503962,7.924067236,1,3.3961750549316405,1.4257470886230468,6.312312677001953,-11.129770992366412,-49.61068702290076,-34.44274809160305
6264837502973,7.944066247,1,3.039439007568359,2.050633721923828,6.357802508544921,20.84732824427481,-5.015267175572519,-26.16793893129771
6264857502608,7.964065882,1,2.5522189697265625,1.8100164550781248,6.909665991210937,35.06870229007634,18.755725190839694,-11.419847328244275
6264877504483,7.984067757,1,2.2768857788085937,1.3874398620605468,7.037755780029296,37.45038167938932,19.564885496183205,-2.236641221374046
6264897506879,8.004070153,1,1.7489643127441405,1.3204022155761719,6.758831286621094,34.282442748091604,7.9465648854961835,-2.6030534351145036
6264917504535,8.024067809,1,1.438915197753906,1.7393875061035156,6.132747552490234,13.702290076335878,-9.16793893129771,-11.938931297709924
6264937504379,8.044067653,1,1.4437036010742186,2.395398760986328,5.402516046142578,-4.076335877862595,-22.297709923664122,-17.99236641221374
6264957503285,8.064066559,1,1.6555904479980468,3.3877953491210935,4.860229370117187,-22.48854961832061,-26.366412213740457,-18.16793893129771
6264977503910,8.084067184,1,2.114080065917969,3.3028011901855465,4.80755693359375,-33.9236641221374,-21.671755725190838,-3.427480916030534
6264997504171,8.104067445,1,2.770091320800781,2.079364141845703,5.604826086425781,-14.65648854961832,-3.068702290076336,22.022900763358777
6265017509223,8.124072497,1,3.065775225830078,1.045069024658203,7.650671405029296,-7.190839694656488,19.0381679389313,30.908396946564885
6265037505993,8.144069267,1,3.5110967346191404,0.8415618835449218,9.00100114135742,-23.34351145038168,12.65648854961832,23.755725190839694
6265057503962,8.164067236,1,4.44363828125,1.4975731384277342,10.268730920410155,-41.030534351145036,3.0610687022900764,7.488549618320611
6265077503962,8.184067236,1,5.603628985595702,0.3758896606445312,9.251195214843749,-15.15267175572519,-13.312977099236642,19.068702290076335
6265097508233,8.204071507,1,5.358223315429687,0.181959326171875,10.218452685546874,-30.977099236641223,22.251908396946565,11.610687022900763
6265117504066,8.22406734,1,3.417722869873047,-0.2885013000488281,12.782642663574219,19.061068702290076,62.94656488549618,18.435114503816795
6265137503806,8.24406708,1,3.438073583984375,0.3136404174804687,13.972560888671874,32.70992366412214,56.0763358778626,7.702290076335878
6265157503025,8.264066299,1,3.1842882080078123,0.239420166015625,10.74517705078125,6.893129770992366,-26.50381679389313,-1.0763358778625953
6265177503962,8.284067236,1,3.8750153869628905,0.48243163452148435,7.1407064514160155,-9.13740458015267,-68.38167938931298,-17.412213740458014
6265197503441,8.304066715,1,3.816357446289062,1.2401964599609374,5.538985540771484,-10.106870229007633,-50.36641221374046,-31.068702290076335
6265217501775,8.324065049,1,3.3123779968261715,1.9668366638183592,5.692214447021484,7.854961832061068,-2.6030534351145036,-31.022900763358777
6265237502504,8.344065778,1,2.517503045654297,1.9668366638183592,6.5601125488281244,24.587786259541986,24.137404580152673,-15.854961832061068
6265257501879,8.364065153,1,2.290053887939453,1.6041151123046875,7.220912207031249,40.099236641221374,27.931297709923665,-4.740458015267175
6265277505160,8.384068434,1,2.117671368408203,1.696291876220703,6.438008264160156,24.83969465648855,3.2748091603053435,-6.198473282442748
6265297503545,8.404066819,1,2.291250988769531,2.068590234375,5.480327600097656,-11.17557251908397,-15.458015267175572,-16.68702290076336
6265317502660,8.424065934,1,1.7836802368164062,2.5043349365234375,5.348646508789062,-19.793893129770993,-11.938931297709924,-16.17557251908397
6265337503389,8.444066663,1,2.1727380065917967,2.6767174560546874,6.5218053222656245,-21.389312977099237,6.435114503816794,-8.778625954198473
6265357502868,8.464066142,1,1.9608511596679685,1.9728221679687499,7.26520493774414,-16.236641221374047,4.358778625954199,13.267175572519085
6265377503129,8.484066403,1,3.1651345947265623,1.3718775512695311,7.963114721679687,-10.320610687022901,6.129770992366412,23.15267175572519
6265397503597,8.504066871,1,3.6643256408691403,0.5865794067382812,8.550891229248046,-12.98473282442748,3.450381679389313,17.938931297709924
6265417504587,8.524067861,1,4.944026428222656,0.814028564453125,9.135076434326171,-50.0763358778626,-7.862595419847328,5.206106870229007
6265437502920,8.544066194,1,4.3813890380859375,0.6464344482421874,10.31062944946289,-52.0763358778626,16.022900763358777,2.9770992366412212
6265457503389,8.564066663,1,4.636371514892578,0.181959326171875,12.471396447753905,4.312977099236641,54.57251908396947,16.38167938931298
6265477502347,8.584065621,1,3.2166099304199216,-1.0127473022460938,12.826935394287108,36.70992366412214,42.18320610687023,31.740458015267176
6265497502764,8.604066038,1,2.7425580017089843,-0.7062894897460937,11.92551846923828,39.38931297709924,11.48091603053435,11.038167938931299
6265517502816,8.62406609,1,3.0609868225097654,0.22026655273437498,8.597578161621094,8.01526717557252,-53.00763358778626,-13.992366412213741
6265537504274,8.644067548,1,3.8079777404785156,1.638831036376953,5.753266589355468,-17.61832061068702,-73.1145038167939,-41.55725190839695
6265557502556,8.66406583,1,4.292803576660156,2.426523382568359,4.668693237304687,-14.877862595419847,-44.48091603053435,-40.50381679389313
6265577503545,8.684066819,1,3.9564182434082027,2.146401788330078,6.274005450439453,20.0381679389313,16.748091603053435,-19.740458015267176
6265597503962,8.704067236,1,2.919728924560547,1.3862427612304686,8.291120349121094,44.57251908396947,53.786259541984734,-0.8091603053435115
6265617503754,8.724067028,1,1.89620771484375,1.3874398620605468,9.23802710571289,37.57251908396947,50.61832061068702,-0.7251908396946565
6265637504066,8.74406734,1,1.7034744812011717,1.5969325073242187,8.445546356201172,30.076335877862597,16.091603053435115,-0.5877862595419847
6265657503806,8.76406708,1,1.8339584716796873,1.7753005310058592,7.116764434814453,12.13740458015267,-13.65648854961832,-6.778625954198473
6265677552660,8.784115934,1,2.003946789550781,2.1535843933105467,5.686228942871093,-1.900763358778626,-33.87786259541985,-10.236641221374045
6265697505316,8.80406859,1,1.7405846069335937,2.539050860595703,5.011064074707031,-12.34351145038168,-35.656488549618324,-10.755725190839694
6265717504274,8.824067548,1,1.801636749267578,2.855085479736328,5.256469744873047,-16.908396946564885,-24.091603053435115,-5.267175572519084
6265737503077,8.844066351,1,1.5478513732910155,2.389413256835937,5.831078143310546,-14.16030534351145,-15.98473282442748,11.893129770992367
6265757501670,8.864064944,1,1.5502455749511719,1.9788076721191405,7.200561492919921,-14.206106870229007,-7.122137404580153,22.702290076335878
6265777503493,8.884066767,1,4.135983367919922,2.2493524597167966,8.821436016845702,-10.244274809160306,7.6106870229007635,18.84732824427481
6265797503181,8.904066455,1,6.700173345947265,1.1623849060058593,9.342174877929686,-71.37404580152672,-13.213740458015268,23.16793893129771
6265817502868,8.924066142,1,6.760028387451172,-0.5626373901367188,10.958260998535156,-31.00763358778626,36.48091603053435,38.52671755725191
6265837502660,8.944065934,1,4.802768530273437,-1.0893617553710937,13.942633367919921,58.770992366412216,101.25190839694656,49.43511450381679
6265857503754,8.964067028,1,4.438849877929687,-0.7876923461914062,15.303737011718749,42.55725190839695,80.34351145038168,27.572519083969464
6265877503441,8.984066715,1,3.622427111816406,-0.3507505432128906,11.039663854980468,13.82442748091603,-36.229007633587784,-8.717557251908397
6265897505212,9.004068486,1,4.378994836425781,0.6524199523925781,6.1279591491699215,-16.603053435114504,-98.29770992366412,-43.404580152671755
6265917500993,9.024064267,1,3.6391865234374996,1.6915034729003906,3.6954502624511716,2.6946564885496183,-76.86259541984732,-55.48091603053435
6265937503597,9.044066871,1,2.741360900878906,3.2908301818847656,4.454412188720703,-3.4580152671755724,-4.793893129770993,-64.08396946564885
6265957501983,9.064065257,1,1.4784195251464842,3.417722869873047,6.410474945068359,21.15267175572519,36.954198473282446,-37.954198473282446
6265977504170,9.084067444,1,0.958877764892578,2.6659435485839844,7.637503295898437,46.06870229007634,42.099236641221374,-6.526717557251908
6265997503701,9.104066975,1,0.7829039428710937,1.686715069580078,6.660669018554687,33.74045801526717,5.198473282442748,11.267175572519085
6266017499483,9.124062757,1,0.8128314636230468,1.5693991882324219,5.352237811279297,2.6946564885496183,-19.85496183206107,5.152671755725191
6266037503545,9.144066819,1,1.1575965026855468,2.347514727783203,4.983530755615234,-22.954198473282442,-19.748091603053435,-5.625954198473282
6266057503337,9.164066611,1,2.090138049316406,2.987963671875,5.98191284790039,-29.213740458015266,-3.83206106870229,-3.030534351145038
6266077502660,9.184065934,1,2.7581203125,2.2349872497558594,6.647500909423828,-24.3206106870229,-3.3740458015267176,16.786259541984734
6266097504378,9.204067652,1,3.447650390625,1.5011644409179687,7.710526446533203,-26.946564885496183,0.732824427480916,25.984732824427482
6266117503649,9.224066923,1,4.364629626464843,1.5981296081542968,10.66856259765625,-25.801526717557252,29.083969465648856,20.282442748091604
6266137504431,9.244067705,1,5.8226984375,1.0103531005859374,11.136629022216797,-16.870229007633586,20.435114503816795,19.00763358778626
6266157503128,9.264066402,1,5.892130285644531,0.3938461730957031,12.306196533203124,-9.877862595419847,34.725190839694655,19.458015267175572
6266177507295,9.284070569,1,4.866214874267578,-0.8631096984863281,12.114660400390624,22.03053435114504,19.81679389312977,31.931297709923665
6266197507347,9.304070621,1,4.092887738037109,-0.4704606262207031,11.156979736328124,22.114503816793892,7.9541984732824424,4.351145038167939
6266217504483,9.324067757,1,4.310760089111328,0.8008604553222656,8.474276776123046,-9.931297709923664,-35.17557251908397,-25.69465648854962
6266237502035,9.344065309,1,3.920505218505859,1.9093758239746093,5.673060833740234,-15.274809160305344,-46.54961832061068,-39.11450381679389
6266257512243,9.364075517,1,3.9456443359374997,2.6958710693359373,5.66946953125,-3.519083969465649,0.40458015267175573,-37.64885496183206
6266277504795,9.384068069,1,2.529474053955078,2.1224597717285154,7.5165961120605465,19.106870229007633,47.13740458015267,-15.877862595419847
6266297503753,9.404067027,1,1.5801730957031248,1.4030021728515625,9.415198028564452,54.954198473282446,65.86259541984732,4.793893129770993
6266317502503,9.424065777,1,0.9552864624023437,1.139639990234375,9.399635717773437,42.68702290076336,28.938931297709924,5.687022900763359
6266337504222,9.444067496,1,1.1611878051757811,1.4820108276367188,7.4220251464843745,22.251908396946565,-21.893129770992367,-5.229007633587786
6266357501826,9.4640651,1,1.235408056640625,1.6795324645996093,4.942829327392578,0.48091603053435117,-62.50381679389313,-13.625954198473282
6266377502347,9.484065621,1,1.0007762939453124,2.133233679199219,3.763685009765625,-6.809160305343512,-64.40458015267176,-20.519083969465647
6266397502503,9.504065777,1,1.2581529724121092,3.0645781249999997,3.2321722412109373,-25.061068702290076,-50.85496183206107,-25.045801526717558
6266417504482,9.524067756,1,1.915361328125,3.825934252929687,4.3634325256347655,-46.786259541984734,-18.0,-20.801526717557252
6266437503701,9.544066975,1,3.0597897216796874,3.1854853088378903,6.80551821899414,-41.64885496183206,17.435114503816795,4.862595419847328
6266457503701,9.564066975,1,3.6930560607910152,1.7884686401367187,10.072406384277343,-1.4580152671755726,49.93893129770992,36.43511450381679
6266477503962,9.584067236,1,5.887341882324218,0.411802685546875,13.792995764160155,-1.366412213740458,72.93129770992367,42.10687022900763
6266497504274,9.604067548,1,5.758054992675781,-0.5398924743652344,12.066776367187499,-8.145038167938932,-0.9312977099236641,40.786259541984734
6266517503232,9.624066506,1,4.458003491210937,-0.7481880187988281,11.621454858398437,-8.030534351145038,9.618320610687023,22.51145038167939
6266537502660,9.644065934,1,4.551377355957031,-0.08259995727539061,12.419921112060546,15.473282442748092,26.61832061068702,1.717557251908397
6266557504274,9.664067548,1,3.2908301818847656,0.27892449340820313,10.709264025878905,0.9007633587786259,-10.625954198473282,-16.80916030534351
6266577502399,9.684065673,1,3.3961750549316405,1.2138602416992186,7.896077075195312,1.7557251908396947,-41.74045801526717,-28.580152671755727
6266597504378,9.704067652,1,2.7617116149902343,2.146401788330078,6.1255649475097655,1.4961832061068703,-35.33587786259542,-34.778625954198475
6266617500680,9.724063954,1,2.952050646972656,3.0142998901367184,6.3147068786621094,8.236641221374045,-2.198473282442748,-33.099236641221374
6266637503701,9.744066975,1,2.433705987548828,2.6982652709960937,6.570886456298828,23.35114503816794,13.564885496183207,-10.679389312977099
6266657503389,9.764066663,1,2.2661118713378903,2.033874310302734,6.898892083740234,40.16030534351145,19.366412213740457,9.038167938931299
6266677501774,9.784065048,1,1.8531120849609375,1.4425065002441406,6.988674645996094,32.656488549618324,9.50381679389313,11.412213740458014
6266697505628,9.804068902,1,1.8028338500976562,1.581370196533203,6.319495281982421,6.145038167938932,-11.282442748091603,-0.4732824427480916
6266717500368,9.824063642,1,1.600523809814453,1.887828009033203,5.106832141113281,-15.900763358778626,-35.099236641221374,-7.33587786259542
6266737504378,9.844067652,1,1.3192051147460937,2.492363928222656,4.742913488769531,-25.6793893129771,-32.12977099236641,-11.13740458015267
6266757502607,9.864065881,1,1.543062969970703,2.5438392639160154,5.552153649902343,-22.770992366412212,-16.03053435114504,-3.6412213740458017
6266777503545,9.884066819,1,2.50912333984375,2.2469582580566403,6.348225701904297,-29.35114503816794,-10.977099236641221,7.473282442748092
6266797505055,9.904068329,1,3.5386300537109374,2.1320365783691404,7.7608046813964835,-31.389312977099237,-4.419847328244275,15.01526717557252
6266817504378,9.924067652,1,5.807136126708984,2.2840683837890623,9.670180505371093,-17.427480916030536,21.396946564885496,20.862595419847327
6266837502451,9.944065725,1,6.112396838378906,0.8726865051269531,9.574412438964844,-62.38167938931298,-9.366412213740459,22.65648854961832
6266857510420,9.964073694,1,5.166687182617188,0.001197100830078125,11.411962213134766,-18.50381679389313,46.70992366412214,32.3206106870229
6266877505316,9.98406859,1,2.8945898071289062,-0.4513070129394531,14.730325714111327,45.74045801526717,101.93893129770993,43.969465648854964
6266897505524,10.004068798,1,3.803189337158203,-1.0462661254882812,15.4378123046875,60.656488549618324,67.09160305343511,38.221374045801525
6266917502399,10.024065673,1,3.392583752441406,-0.9097966308593749,10.807426293945312,12.885496183206106,-51.89312977099237,3.33587786259542
6266937502764,10.044066038,1,3.9612066467285154,0.49799394531249996,6.277596752929687,-34.05343511450382,-107.18320610687023,-44.786259541984734
6266957504534,10.064067808,1,4.513070129394531,1.7609353210449217,4.186261602783203,-9.923664122137405,-78.9618320610687,-62.02290076335878
6266977504066,10.08406734,1,3.9336733276367184,3.3399113159179685,4.302380383300781,-8.091603053435115,-21.68702290076336,-64.89312977099236
6266997504430,10.104067704,1,2.7437551025390623,3.6379894226074216,5.578489868164062,3.3893129770992365,18.076335877862597,-43.05343511450382
6267017505628,10.124068902,1,1.8650830932617186,2.6695348510742187,6.854599353027344,38.61832061068702,38.44274809160305,-6.648854961832061
6267037511253,10.144074527,1,1.629254229736328,1.6627730529785156,6.720524060058593,38.63358778625954,23.244274809160306,13.34351145038168
6267057504691,10.164067965,1,1.3563152404785155,1.3718775512695311,6.271611248779297,14.16793893129771,2.0076335877862594,6.908396946564886
6267077503024,10.184066298,1,1.2605471740722656,1.7681179260253905,5.542576843261719,-12.801526717557252,-17.27480916030534,-6.931297709923665
6267097510316,10.20407359,1,1.369483349609375,2.6192566162109374,5.099649536132812,-31.480916030534353,-26.587786259541986,-13.030534351145038
6267117503701,10.224066975,1,2.4911668273925778,2.924517327880859,5.328295794677734,-48.221374045801525,-20.85496183206107,-7.778625954198473
6267137504118,10.244067392,1,3.0142998901367184,2.061407629394531,6.1255649475097655,-34.587786259541986,-4.534351145038168,17.114503816793892
6267157502868,10.264066142,1,5.7077767578125,1.924938134765625,8.93156929321289,-17.206106870229007,45.17557251908397,22.748091603053435
6267177503388,10.284066662,1,5.91846650390625,0.9002198242187499,10.339359869384765,-49.88549618320611,32.87786259541985,23.900763358778626
6267197501878,10.304065152,1,5.567715960693359,0.09217676391601562,13.142970013427734,-29.954198473282442,87.25190839694656,25.366412213740457
6267217504170,10.324067444,1,4.072537023925781,-1.120486376953125,15.374365960693359,35.274809160305345,103.16793893129771,50.732824427480914
6267237502868,10.344066142,1,3.2357635437011716,-1.3587094421386718,15.72511650390625,63.80916030534351,64.00763358778626,34.038167938931295
6267257501305,10.364064579,1,3.028665100097656,-0.82360537109375,10.848127722167968,11.900763358778626,-61.587786259541986,-5.99236641221374
6267277503597,10.384066871,1,3.7672763122558592,0.7314286071777343,5.309142181396484,-32.02290076335878,-130.38931297709922,-51.25190839694657
6267297548388,10.404111662,1,3.0262708984374997,2.2637176696777344,2.443282794189453,-21.69465648854962,-101.41984732824427,-68.00763358778626
6267317505940,10.424069214,1,3.402160559082031,3.441664886474609,3.3710359375,2.2061068702290076,-3.015267175572519,-60.091603053435115
6267337506618,10.444069892,1,1.0893617553710937,2.8790274963378906,5.80953032836914,7.259541984732825,51.091603053435115,-32.51908396946565
6267357503597,10.464066871,1,0.4608838195800781,2.440888592529297,8.961496813964843,52.94656488549618,81.36641221374046,-2.1603053435114505
6267377508857,10.484072131,1,0.469263525390625,1.7573440185546874,9.696516723632811,37.6412213740458,33.06870229007634,12.83969465648855
6267397507034,10.504070308,1,1.5071499450683592,1.092953057861328,7.806294512939453,-0.21374045801526717,-36.465648854961835,10.488549618320612
6267417503232,10.524066506,1,2.4384943908691405,1.209071838378906,6.099228729248047,-22.259541984732824,-67.06106870229007,0.5954198473282443
6267437505576,10.54406885,1,2.615665313720703,2.0075380920410155,5.926846209716796,-23.65648854961832,-49.091603053435115,-8.687022900763358
6267457504378,10.564067652,1,2.9460651428222655,2.464830609130859,7.230489013671875,-20.236641221374047,-21.610687022900763,-5.9541984732824424
6267477503440,10.584066714,1,3.7146038757324216,2.146401788330078,8.966285217285156,4.358778625954199,-8.916030534351146,10.648854961832061
6267497504742,10.604068016,1,4.0988732421875,1.0953472595214844,7.258022332763671,-1.1526717557251909,-35.81679389312977,18.885496183206108
6267517503388,10.624066662,1,5.400121844482421,1.5071499450683592,6.102820031738281,-73.6412213740458,-38.587786259541986,1.1450381679389312
6267537505315,10.644068589,1,5.204994409179688,1.1384428894042968,8.986635931396483,-26.85496183206107,37.20610687022901,12.587786259541986
6267557502451,10.664065725,1,4.602852691650391,0.30526071166992186,13.101071484375,35.16793893129771,93.3587786259542,32.030534351145036
6267577502451,10.684065725,1,4.015076184082031,-0.8750807067871094,13.171700433349608,40.465648854961835,56.595419847328245,40.847328244274806
6267597505003,10.704068277,1,4.10485874633789,-0.6943184814453125,10.873266839599609,9.305343511450381,-18.297709923664122,9.50381679389313
6267617505888,10.724069162,1,3.8654385803222655,0.7481880187988281,7.975085729980468,-20.17557251908397,-56.534351145038165,-26.541984732824428
6267637504951,10.744068225,1,3.8091748413085935,1.9213468322753906,6.423643054199219,-24.015267175572518,-43.18320610687023,-44.732824427480914
6267657503649,10.764066923,1,3.2154128295898436,1.8555062866210936,5.348646508789062,10.450381679389313,-23.770992366412212,-23.763358778625953
6267677501878,10.784065152,1,2.4947581298828125,1.4772224243164063,5.821501336669922,33.33587786259542,10.557251908396946,-7.6183206106870225
6267697505472,10.804068746,1,1.8531120849609375,1.695094775390625,7.095216619873047,27.908396946564885,29.709923664122137,-9.34351145038168
6267717501826,10.8240651,1,1.380257257080078,2.1248539733886718,7.6470801025390625,13.206106870229007,14.908396946564885,-10.961832061068701
6267737503024,10.844066298,1,1.6268600280761718,2.1871032165527344,6.623558892822265,-1.6717557251908397,-20.412213740458014,-6.061068702290076
6267757504117,10.864067391,1,2.3786393493652342,2.404975567626953,5.260061047363281,-13.526717557251908,-42.19083969465649,-4.198473282442748
6267777503961,10.884067235,1,3.289633081054687,2.6515783386230467,4.340687609863281,-39.83969465648855,-48.85496183206107,-5.083969465648855
6267797502607,10.904065881,1,3.784035723876953,2.555810272216797,4.5884874816894525,-47.45038167938932,-24.946564885496183,1.916030534351145
6267817503284,10.924066558,1,4.726154077148437,2.768894219970703,6.130353350830077,-6.435114503816794,22.580152671755727,18.221374045801525
6267837502711,10.944065985,1,5.862202764892578,1.025915411376953,10.245986004638672,-46.55725190839695,65.41984732824427,22.251908396946565
6267857499274,10.964062548,1,4.972756848144531,-0.4656722229003906,13.257891693115234,12.549618320610687,92.18320610687023,44.916030534351144
6267877502763,10.984066037,1,4.031835595703125,-1.2042834350585936,15.377957263183593,34.770992366412216,100.86259541984732,46.030534351145036
6267897503753,11.004067027,1,3.365050433349609,-0.8930372192382812,15.029600921630859,31.519083969465647,37.961832061068705,17.396946564885496
6267917502503,11.024065777,1,3.812766143798828,0.086191259765625,10.371681591796875,-0.9923664122137404,-66.66412213740458,-13.290076335877863
6267937502659,11.044065933,1,4.556165759277343,1.1755530151367186,6.1818286865234375,-33.36641221374046,-104.83969465648855,-45.847328244274806
6267957501721,11.064064995,1,4.661510632324219,2.2601263671875,4.076128326416016,-1.8702290076335877,-69.06106870229007,-45.38931297709924
6267977505940,11.084069214,1,4.4819455078125,2.5151088439941405,5.042188696289062,23.770992366412212,7.916030534351145,-29.259541984732824
6267997546357,11.104109631,1,2.8898014038085935,1.5646107849121094,7.507019305419921,52.55725190839695,53.11450381679389,-6.236641221374046
6268017519742,11.124083016,1,1.867477294921875,1.1288660827636718,9.13028803100586,60.595419847328245,53.64885496183206,-3.198473282442748
6268037502242,11.144065516,1,1.2246341491699217,1.2114660400390624,8.130708837890625,38.099236641221374,-2.7022900763358777,-10.229007633587786
6268057503909,11.164067183,1,1.0319009155273438,1.6915034729003906,5.671863732910156,12.526717557251908,-58.083969465648856,-22.442748091603054
6268077503649,11.184066923,1,1.1659762084960936,2.3977929626464842,3.488351818847656,-6.656488549618321,-83.41984732824427,-30.984732824427482
6268097552451,11.204115725,1,1.092953057861328,2.893392706298828,2.2601263671875,-25.267175572519083,-75.66412213740458,-33.091603053435115
6268117502971,11.224066245,1,1.552639776611328,3.7409400939941406,2.6336218261718747,-48.02290076335878,-38.770992366412216,-25.900763358778626
6268137506513,11.244069787,1,1.9129671264648436,3.4763808105468748,5.1343654602050774,-51.900763358778626,16.770992366412212,1.6412213740458015
6268157502607,11.264065881,1,2.8993782104492185,2.2206220397949217,9.909600671386718,1.618320610687023,80.18320610687023,39.70229007633588
6268177510055,11.284073329,1,5.744886883544922,1.2138602416992186,14.51125626220703,23.15267175572519,108.3969465648855,61.37404580152672
6268197552815,11.304116089,1,7.089231115722656,-0.9888052856445312,14.577096807861327,-41.267175572519086,20.702290076335878,51.17557251908397
6268217504326,11.3240676,1,6.909665991210937,-0.9648632690429687,13.541604589843748,-13.053435114503817,6.603053435114504,32.847328244274806
6268237503805,11.344067079,1,5.635950708007812,-1.0211270080566406,12.763489050292968,16.763358778625953,5.480916030534351,18.709923664122137
6268257511773,11.364075047,1,4.970362646484375,0.23822306518554687,11.334150659179686,30.221374045801525,-11.83206106870229,-16.519083969465647
6268277503544,11.384066818,1,4.732139581298828,0.8499415893554687,7.149086157226562,0.20610687022900764,-80.20610687022901,-35.6412213740458
6268297503023,11.404066297,1,4.444835382080078,1.898601916503906,3.9755718566894527,22.27480916030534,-87.12977099236642,-46.732824427480914
6268317506148,11.424069422,1,3.441664886474609,2.73896669921875,2.8383260681152342,3.633587786259542,-51.16030534351145,-55.32824427480916
6268337503701,11.444066975,1,2.2290017456054687,3.4488474914550777,3.632003918457031,9.86259541984733,6.816793893129771,-45.51908396946565
6268357503596,11.46406687,1,1.0785878479003905,3.2728736694335936,5.379771130371093,30.893129770992367,41.69465648854962,-19.984732824427482
6268377503023,11.484066297,1,0.6177040283203125,2.8622680847167965,6.327874987792969,28.404580152671755,33.61068702290076,-0.2366412213740458
6268397505211,11.504068485,1,0.9756371765136718,2.1308394775390624,5.464765289306641,-4.221374045801527,-3.7709923664122136,8.244274809160306
6268417505888,11.524069162,1,1.380257257080078,1.8854338073730468,4.186261602783203,-28.549618320610687,-30.251908396946565,10.679389312977099
6268437503648,11.544066922,1,2.3918074584960936,2.473210314941406,4.001908074951172,-61.80152671755725,-21.358778625954198,4.6183206106870225
6268457504898,11.564068172,1,2.8802245971679685,2.7964275390625,5.823895538330078,-65.38167938931298,18.022900763358777,12.381679389312977
6268477502659,11.584065933,1,6.101622930908203,1.426944189453125,9.969455712890625,-35.64885496183206,72.42748091603053,33.01526717557252
6268497503753,11.604067027,1,5.0182466796875,0.21906945190429686,12.957419384765624,-0.5954198473282443,69.48091603053435,50.412213740458014
6268517504065,11.624067339,1,6.4667386840820305,-0.44532150878906246,13.857639208984374,-77.99236641221374,43.404580152671755,31.541984732824428
6268537503075,11.644066349,1,5.699397052001952,-1.4772224243164063,13.991714501953124,-4.4961832061068705,27.015267175572518,46.343511450381676
6268557503336,11.66406661,1,4.995501763916016,-2.1248539733886718,13.421894506835937,34.51145038167939,18.114503816793892,38.656488549618324
6268577503700,11.684066974,1,4.187458703613281,-0.8319850769042968,11.724405529785155,37.19847328244275,-10.946564885496183,1.0229007633587786
6268597501982,11.704065256,1,4.491522314453125,0.4225765930175781,8.046911779785155,10.450381679389313,-71.74045801526718,-29.99236641221374
6268617504221,11.724067495,1,4.023455889892578,1.389834063720703,5.588066674804687,-18.625954198473284,-76.19083969465649,-54.99236641221374
6268637503075,11.744066349,1,3.5194764404296874,2.395398760986328,4.146757275390625,-2.854961832061069,-52.58015267175573,-50.0763358778626
6268657504482,11.764067756,1,2.971204260253906,2.7042507751464844,5.105635040283203,23.625954198473284,15.0,-31.580152671755727
6268677501669,11.784064943,1,2.2194249389648437,2.1906945190429687,7.279570147705078,43.083969465648856,46.66412213740458,-9.17557251908397
6268697503127,11.804066401,1,2.0458453186035155,1.7681179260253905,8.050503082275391,35.17557251908397,30.87786259541985,0.1984732824427481
6268717503388,11.824066662,1,2.142810485839844,1.5454571716308594,6.758831286621094,14.32824427480916,-12.786259541984732,0.0
6268737503440,11.844066714,1,2.291250988769531,1.4796166259765624,4.814739538574218,-5.229007633587786,-43.87786259541985,-5.015267175572519
6268757502815,11.864066089,1,2.440888592529297,2.057816326904297,3.5625720703124997,-20.419847328244273,-46.29007633587786,-12.786259541984732
6268777504117,11.884067391,1,2.31758720703125,2.89219560546875,3.585316986083984,-35.06870229007634,-24.83206106870229,-17.48854961832061
6268797502815,11.904066089,1,2.7257985900878903,2.919728924560547,4.929661218261718,-43.70992366412214,4.244274809160306,-5.129770992366412
6268817503232,11.924066506,1,2.376245147705078,1.66636435546875,6.749254479980468,-22.14503816793893,30.6793893129771,25.30534351145038
6268837502815,11.944066089,1,3.7900212280273435,0.5111620544433594,9.85692823486328,3.0,62.68702290076336,44.64885496183206
6268857504013,11.964067287,1,4.729745379638672,0.488417138671875,12.103886492919921,-38.595419847328245,52.48854961832061,20.862595419847327
6268877504013,11.984067287,1,5.371391424560547,0.020350714111328123,14.030021728515624,-61.67175572519084,57.93893129770992,19.65648854961832
6268897504221,12.004067495,1,4.5693338684082025,-0.8786720092773437,15.431826800537108,16.557251908396946,62.93893129770992,44.66412213740458
6268917501929,12.024065203,1,3.9803602600097654,-1.5550339782714844,14.44780991821289,53.534351145038165,25.709923664122137,47.85496183206107
6268937502659,12.044065933,1,4.69263525390625,-1.0295067138671874,10.439916339111328,37.94656488549618,-54.57251908396947,16.61832061068702
6268957502919,12.064066193,1,4.329913702392578,0.17597382202148437,6.271611248779297,-7.1603053435114505,-100.58015267175573,-26.80916030534351
6268977504273,12.084067547,1,4.387374542236328,1.5705962890624998,4.826710546875,-15.19083969465649,-71.3587786259542,-58.52671755725191
6268997503388,12.104066662,1,3.994725469970703,2.6898855651855467,4.365826727294921,1.9465648854961832,-34.900763358778626,-52.64885496183206
6269017505471,12.124068745,1,3.0334535034179684,2.834734765625,5.21576831665039,17.251908396946565,9.625954198473282,-33.76335877862596
6269037513440,12.144076714,1,2.133233679199219,1.9213468322753906,6.351817004394531,42.31297709923664,31.442748091603054,-6.145038167938932
6269057505731,12.164069005,1,1.6831237670898436,1.426944189453125,6.987477545166016,37.10687022900763,22.31297709923664,0.6946564885496184
6269077504325,12.184067599,1,1.599326708984375,1.8950106140136718,6.360196710205078,10.931297709923664,-9.045801526717558,-8.549618320610687
6269097500992,12.204064266,1,1.763329522705078,2.43250888671875,4.760870001220703,-23.244274809160306,-45.42748091603053,-15.244274809160306
6269117512502,12.224075776,1,2.474407415771484,2.901772412109375,3.5506010620117183,-37.587786259541986,-55.38167938931298,-13.389312977099237
6269137505419,12.244068693,1,3.027467999267578,2.683900061035156,3.277662072753906,-45.6793893129771,-35.3206106870229,1.3053435114503817
6269157503075,12.264066349,1,4.605246893310547,2.213439434814453,6.078878015136718,-34.2442748091603,19.625954198473284,19.19083969465649
6269177503440,12.284066714,1,4.6459483215332025,1.6747440612792968,9.162609753417968,24.549618320610687,70.5114503816794,38.37404580152672
6269197503336,12.30406661,1,5.965153436279296,0.6260837341308594,14.174870928955077,-79.74045801526718,109.35114503816794,19.72519083969466
6269217506044,12.324069318,1,5.434837768554687,-1.2378022583007813,15.959748266601562,16.603053435114504,92.0381679389313,63.44274809160305
6269237504013,12.344067287,1,4.174290594482422,-2.3977929626464842,15.778986041259765,44.3206106870229,57.20610687022901,61.13740458015267
6269257504377,12.364067651,1,3.835511059570312,-1.4257470886230468,13.576320513916015,47.50381679389313,-5.862595419847328,15.816793893129772
6269277504533,12.384067807,1,4.236539837646484,-0.17956512451171874,8.141482745361328,0.7480916030534351,-104.21374045801527,-27.83969465648855
6269297502398,12.404065672,1,3.9707834533691404,1.4341267944335936,4.847061260986328,-39.725190839694655,-115.12977099236642,-70.3206106870229
6269317504742,12.424068016,1,4.2868180725097655,2.7808652282714843,3.489548919677734,-7.549618320610687,-64.93129770992367,-63.35114503816794
6269337502606,12.44406588,1,3.1842882080078123,3.1459809814453124,4.638765716552734,17.53435114503817,9.80916030534351,-39.02290076335878
6269357503023,12.464066297,1,2.4779987182617185,2.4205378784179685,6.754042883300781,50.54961832061068,47.19847328244275,-8.282442748091603
6269377503908,12.484067182,1,1.792059942626953,1.467645617675781,7.30351216430664,46.213740458015266,28.236641221374047,5.366412213740458
6269397503336,12.50406661,1,1.8830396057128904,1.543062969970703,5.753266589355468,14.458015267175572,-20.083969465648856,-2.3206106870229006
6269417503492,12.524066766,1,1.9620482604980467,1.944091748046875,3.499125726318359,-26.16793893129771,-55.58015267175573,-13.603053435114504
6269437504638,12.544067912,1,1.772906329345703,2.519897247314453,2.6886884643554687,-36.54961832061068,-46.32824427480916,-17.16793893129771
6269457503492,12.564066766,1,2.251746661376953,2.942473840332031,3.9983167724609374,-44.42748091603053,-6.259541984732825,-11.389312977099237
6269477504325,12.584067599,1,2.4660277099609376,2.4899697265625,6.815095025634765,-27.297709923664122,32.41984732824427,11.786259541984732
6269497502398,12.604065672,1,5.699397052001952,0.6919242797851562,9.692925421142577,-2.633587786259542,58.45038167938932,40.534351145038165
6269517504273,12.624067547,1,5.419275457763671,0.48123453369140623,11.95784019165039,-10.19083969465649,40.63358778625954,34.69465648854962
6269537504481,12.644067755,1,6.679822631835937,-0.33758243408203126,12.95382808227539,-90.50381679389314,36.52671755725191,20.885496183206108
6269557503544,12.664066818,1,5.744886883544922,-1.5023615417480467,15.489287640380859,30.946564885496183,84.90839694656489,52.770992366412216
6269577501981,12.684065255,1,4.6830584472656245,-2.051830822753906,16.001646795654295,76.68702290076335,65.26717557251908,53.62595419847328
6269597503700,12.704066974,1,3.803189337158203,-1.4724340209960938,12.240355987548828,48.0763358778626,-29.137404580152673,7.061068702290076
6269617505002,12.724068276,1,4.3442789123535155,0.39145197143554683,7.123947039794921,-19.38167938931298,-117.30534351145039,-53.86259541984733
6269637505263,12.744068537,1,3.985148663330078,1.9608511596679685,3.669114044189453,-26.412213740458014,-121.62595419847328,-78.12213740458016
6269657503908,12.764067182,1,4.226963031005859,3.189076611328125,2.7820623291015623,11.427480916030534,-58.01526717557252,-66.01526717557252
6269677502762,12.784066036,1,2.7545290100097652,3.306392492675781,3.2130186279296873,13.709923664122137,-4.717557251908397,-40.656488549618324
6269697502450,12.804065724,1,2.003946789550781,2.7461493041992187,5.6586956237792965,40.80916030534351,48.45038167938932,-14.106870229007633
6269717503387,12.824066661,1,1.0031704956054688,1.8770541015625,6.8976949829101555,37.770992366412216,40.29770992366412,4.00763358778626
6269737502658,12.844065932,1,1.1240776794433593,1.6723498596191406,6.019022973632812,11.80916030534351,-1.916030534351145,4.030534351145038
6269757499690,12.864062964,1,0.9816226806640624,2.0649989318847655,4.1946413085937495,-39.12213740458015,-41.32824427480916,-5.427480916030534
6269777503700,12.884066974,1,2.0278888061523435,2.8981811096191405,4.377797735595703,-52.68702290076336,-23.80916030534351,-8.511450381679388
6269797503804,12.904067078,1,2.8802245971679685,2.730586993408203,6.827066033935546,-42.62595419847328,13.465648854961833,10.786259541984732
6269817504637,12.924067911,1,4.489128112792969,1.2904746948242187,9.409212524414063,0.3893129770992366,46.66412213740458,43.541984732824424
6269837504637,12.944067911,1,6.242880828857421,0.8906430175781249,11.35689557495117,19.053435114503817,31.51145038167939,39.85496183206107
6269857506460,12.964069734,1,6.9539587219238275,-0.17118541870117188,10.960655200195312,-83.9618320610687,-3.282442748091603,21.244274809160306
6269877502710,12.984065984,1,6.956352923583984,-0.6835445739746093,11.107898602294922,-22.946564885496183,17.358778625954198,24.885496183206108
6269897502189,13.004065463,1,5.130774157714844,-1.5442600708007812,12.548010900878905,40.717557251908396,53.656488549618324,36.3206106870229
6269917505575,13.024068849,1,4.04141240234375,-0.9516951599121093,13.626598748779296,61.954198473282446,57.47328244274809,10.549618320610687
6269937503804,13.044067078,1,3.768473413085937,0.3687070556640625,10.182539660644531,23.213740458015266,-41.465648854961835,-22.755725190839694
6269957502137,13.064065411,1,3.125630267333984,1.2976572998046874,5.737704278564453,-40.98473282442748,-101.85496183206106,-52.038167938931295
6269977503387,13.084066661,1,3.8893805969238278,2.6898855651855467,3.7816415222167965,-8.320610687022901,-70.45801526717557,-54.64885496183206
6269997504117,13.104067391,1,3.3411084167480465,3.009511486816406,4.417302062988281,-9.450381679389313,-8.251908396946565,-36.81679389312977
6270017501304,13.124064578,1,2.2301988464355467,2.1607669982910154,7.308300567626953,53.717557251908396,56.587786259541986,-0.09923664122137404
6270037505002,13.144068276,1,1.7226280944824217,1.20667763671875,9.036914166259765,60.70229007633588,55.2442748091603,18.068702290076335
6270057504533,13.164067807,1,1.9105729248046874,1.2054805358886718,7.44357296142578,25.541984732824428,-8.01526717557252,12.213740458015268
6270077501981,13.184065255,1,2.6683377502441403,1.6579846496582031,4.2700586608886715,-21.610687022900763,-68.45801526717557,-5.320610687022901
6270097504689,13.204067963,1,2.953247747802734,2.5641899780273434,2.4971523315429685,-42.66412213740458,-74.93893129770993,-20.015267175572518
6270117503075,13.224066349,1,3.5422213562011717,3.228580938720703,3.3016040893554686,-43.282442748091604,-36.98473282442748,-19.374045801526716
6270137504064,13.244067338,1,4.556165759277343,2.711433380126953,4.951209033203125,-20.00763358778626,1.4198473282442747,5.5038167938931295
6270157502762,13.264066036,1,3.2417490478515623,1.7274164978027342,5.737704278564453,6.442748091603053,12.251908396946565,33.48091603053435
6270177509846,13.28407312,1,5.408501550292969,1.5837643981933593,9.732429748535155,-18.595419847328245,59.274809160305345,24.053435114503817
6270197507502,13.304070776,1,6.38413872680664,0.9469067565917968,12.419921112060546,-57.16030534351145,56.954198473282446,22.068702290076335
6270217506148,13.324069422,1,6.49307490234375,-0.6260837341308594,14.539986682128905,-5.534351145038168,76.93129770992367,53.05343511450382
6270237504116,13.34406739,1,4.908113403320312,-2.408566870117187,14.56871710205078,44.343511450381676,53.9236641221374,69.92366412213741
6270257503856,13.36406713,1,5.230133526611328,-1.659181750488281,12.574347119140624,45.01526717557252,7.755725190839694,28.374045801526716
6270277509325,13.384072599,1,4.3993455505371095,-0.3184288208007812,8.695740429687499,-11.541984732824428,-59.58015267175573,-22.885496183206108
6270297505054,13.404068328,1,4.465186096191406,1.6328455322265625,5.984307049560546,-29.15267175572519,-73.06870229007633,-60.25954198473283
6270317553908,13.424117182,1,4.613626599121093,2.4911668273925778,4.995501763916016,-20.908396946564885,-50.37404580152672,-58.229007633587784
6270337501096,13.44406437,1,4.314351391601562,2.3439234252929686,4.689043951416015,8.625954198473282,-15.19083969465649,-30.66412213740458
6270357503075,13.464066349,1,3.3099837951660156,1.5227122558593749,5.9579708312988275,37.83206106870229,24.083969465648856,-10.030534351145038
6270377503543,13.484066817,1,2.108094561767578,1.3204022155761719,7.181407879638671,38.93129770992366,34.62595419847328,-6.99236641221374
6270397502658,13.504065932,1,1.7034744812011717,1.7776947326660155,6.870161663818359,12.65648854961832,7.33587786259542,-13.954198473282442
6270417504116,13.52406739,1,1.3814543579101561,2.043451116943359,5.00507857055664,-13.702290076335878,-31.137404580152673,-14.290076335877863
6270437503752,13.544067026,1,1.4137760803222656,2.0781670410156248,3.6463691284179687,-21.9618320610687,-42.969465648854964,-8.954198473282442
6270457503543,13.564066817,1,1.8614917907714843,2.3307553161621093,4.110844250488281,-26.236641221374047,-18.603053435114504,-4.106870229007634
6270477504064,13.584067338,1,3.3590649291992185,2.549824768066406,6.274005450439453,-31.603053435114504,14.305343511450381,3.687022900763359
6270497504325,13.604067599,1,4.171896392822266,1.6316484313964843,7.566874346923828,6.137404580152672,25.6793893129771,31.931297709923665
6270517502658,13.624065932,1,6.4356140625,1.4425065002441406,10.108319409179687,-10.106870229007633,38.786259541984734,31.221374045801525
6270537505210,13.644068484,1,7.060500695800781,0.948103857421875,11.444283935546874,-27.0,33.61068702290076,28.84732824427481
6270557503439,13.664066713,1,7.24605132446289,-0.7110778930664062,13.050793249511718,-9.083969465648854,55.17557251908397,41.87022900763359
6270577504481,13.684067755,1,5.632359405517578,-2.0159177978515626,13.308169927978515,53.3206106870229,53.62595419847328,50.458015267175576
6270597503387,13.704066661,1,4.446032482910156,-1.3000515014648437,13.098677282714842,48.64885496183206,30.709923664122137,6.129770992366412
6270617502606,13.72406588,1,4.197035510253906,0.04548983154296875,9.150638745117186,-16.85496183206107,-59.908396946564885,-41.67175572519084
6270637504377,13.744067651,1,3.7804444213867185,1.6412252380371093,5.517437725830078,-39.12977099236641,-94.46564885496183,-67.99236641221374
6270657504116,13.76406739,1,3.7158009765625,2.6815058593749996,3.8953661010742184,-10.358778625954198,-63.25954198473283,-65.23664122137404
6270677502398,13.784065672,1,3.3877953491210935,2.8574796813964842,3.5146880371093747,10.511450381679388,-22.0381679389313,-41.14503816793893
6270697503491,13.804066765,1,2.2589292663574216,2.2086510314941403,5.013458276367187,28.66412213740458,22.19083969465649,-18.885496183206108
6270717501304,13.824064578,1,1.801636749267578,2.0254946044921875,6.8210805297851556,25.480916030534353,37.6793893129771,-11.82442748091603
6270737504793,13.844068067,1,1.811213555908203,2.1212626708984375,7.214926702880859,-4.465648854961832,11.34351145038168,-10.511450381679388
6270757502866,13.86406614,1,2.1128829650878904,1.9800047729492187,6.121973645019531,-18.793893129770993,-18.48854961832061,-0.4961832061068702
6270777502970,13.884066244,1,2.3451205261230466,1.6436194396972654,5.6766521362304685,-23.702290076335878,-22.47328244274809,8.297709923664122
6270797504637,13.904067911,1,2.2086510314941403,1.908178723144531,7.36097300415039,-23.755725190839694,-1.2900763358778626,10.236641221374045
6270817504637,13.924067911,1,3.0226795959472654,0.7960720520019531,7.4603323730468745,7.435114503816794,4.603053435114504,29.61832061068702
6270837504325,13.944067599,1,4.302380383300781,1.1659762084960936,9.299079248046874,-7.3893129770992365,21.30534351145038,16.82442748091603
6270857504272,13.964067546,1,5.693411547851563,1.2378022583007813,9.931148486328125,-18.244274809160306,5.1679389312977095,15.755725190839694
6270877501825,13.984065099,1,6.925228302001953,0.86191259765625,10.66856259765625,-7.129770992366412,14.19083969465649,16.03053435114504
6270897503179,14.004066453,1,6.696582043457031,-0.2980781066894531,10.960655200195312,-0.5725190839694656,17.106870229007633,31.404580152671755
6270917501720,14.024064994,1,5.700594152832031,-0.9564835632324218,11.213243475341796,42.717557251908396,35.55725190839695,30.793893129770993
6270937503595,14.044066869,1,5.2816088623046875,-0.6189011291503906,11.535263598632811,26.46564885496183,22.221374045801525,-1.381679389312977
6270957503491,14.064066765,1,4.2700586608886715,0.5039794494628906,9.060856182861327,-4.9465648854961835,-30.53435114503817,-26.870229007633586
6270977503960,14.084067234,1,3.900154504394531,1.4329296936035156,6.818686328125,-15.305343511450381,-46.42748091603053,-42.954198473282446
6270997502397,14.104065671,1,3.669114044189453,2.110488763427734,5.629965203857422,-4.259541984732825,-32.06106870229008,-42.3587786259542
6271017503439,14.124066713,1,3.2800562744140622,2.3774422485351563,5.040991595458984,18.80916030534351,-12.770992366412214,-27.31297709923664
6271037504429,14.144067703,1,2.6240450195312497,2.038662713623047,5.321113189697265,34.05343511450382,7.511450381679389,-13.396946564885496
6271057512970,14.164076244,1,2.0374656127929685,1.8327613708496093,5.747281085205078,28.6793893129771,5.816793893129771,-9.709923664122137
6271077505574,14.184068848,1,2.221819140625,2.3151930053710936,4.814739538574218,0.37404580152671757,-19.717557251908396,-16.33587786259542
6271097504116,14.20406739,1,1.1719617126464843,2.6671406494140624,3.6858734558105466,-42.61068702290076,-46.656488549618324,-19.412213740458014
6271117502866,14.22406614,1,2.0829554443359375,2.990357873535156,4.310760089111328,-36.70992366412214,-22.374045801526716,-12.793893129770993
6271137512137,14.244075411,1,2.3032219970703123,3.1591490905761717,6.48589229736328,-43.57251908396947,-1.786259541984733,4.00763358778626
6271157504533,14.264067807,1,4.712985968017578,1.274912384033203,6.8976949829101555,-5.977099236641221,9.259541984732824,42.62595419847328
6271177504064,14.284067338,1,5.480327600097656,0.8092401611328125,10.579977136230468,-29.450381679389313,62.274809160305345,37.01526717557252
6271197503283,14.304066557,1,6.5768719604492185,0.17836802368164062,13.78461605834961,5.6183206106870225,82.06870229007633,46.19847328244275
6271217504272,14.324067546,1,6.825868933105468,-1.150413897705078,15.13733999633789,4.984732824427481,72.03053435114504,53.67175572519084
6271237505158,14.344068432,1,5.323507391357421,-1.9393033447265624,13.84806240234375,41.20610687022901,25.17557251908397,43.19847328244275
6271257503960,14.364067234,1,5.1128176452636716,-1.2330138549804688,10.57159743041992,32.93893129770992,-37.7557251908397,2.381679389312977
6271277502606,14.38406588,1,4.04141240234375,0.3711012573242187,7.165845568847656,-24.80916030534351,-80.89312977099236,-50.01526717557252
6271297503231,14.404066505,1,3.7325603881835936,2.3295582153320313,5.066130712890625,-20.3206106870229,-76.41221374045801,-72.64885496183206
6271317504272,14.424067546,1,3.5960908935546874,3.3351229125976563,4.055777612304687,3.404580152671756,-44.717557251908396,-56.61068702290076
6271337504689,14.444067963,1,3.864241479492187,3.3171664001464842,5.02423218383789,4.870229007633588,-2.045801526717557,-36.900763358778626
6271357505731,14.464069005,1,3.1866824096679687,2.578555187988281,6.069301208496094,31.755725190839694,20.435114503816795,-7.534351145038168
6271377504897,14.484068171,1,1.6208745239257811,2.2170307373046874,7.277175946044921,22.96946564885496,20.64885496183206,-0.21374045801526717
6271397502658,14.504065932,1,2.519897247314453,2.3642741394042965,7.7763669921875,1.6488549618320612,-4.541984732824427,-1.1603053435114503
6271417503491,14.524066765,1,1.9788076721191405,2.3032219970703123,5.6946086486816405,-33.52671755725191,-59.0,2.7099236641221376
6271437504585,14.544067859,1,4.387374542236328,2.262520568847656,4.247313745117188,-45.82442748091603,-71.3587786259542,7.198473282442748
6271457504012,14.564067286,1,3.3351229125976563,1.4808137268066406,2.9700071594238278,-21.587786259541986,-67.34351145038168,28.984732824427482
6271477501824,14.584065098,1,5.513846423339843,1.2665326782226562,4.610035296630859,-22.30534351145038,-15.709923664122137,27.9618320610687
6271497503126,14.6040664,1,5.985504150390625,0.6560112548828124,6.048950494384766,-11.206106870229007,16.64885496183206,35.51908396946565
6271517500574,14.624063848,1,6.823474731445312,0.6476315490722656,9.637858782958984,-48.274809160305345,66.42748091603053,19.900763358778626
6271537505158,14.644068432,1,7.438784558105469,-0.3016694091796875,11.7603185546875,-41.11450381679389,69.91603053435115,32.16030534351145
6271557504481,14.664067755,1,6.212953308105468,-1.8806454040527343,13.70081900024414,28.206106870229007,91.07633587786259,54.20610687022901
6271577500262,14.684063536,1,5.596446380615234,-2.024297503662109,13.87320151977539,48.25190839694657,58.48091603053435,35.778625954198475
6271597504585,14.704067859,1,4.171896392822266,-1.0019733947753906,10.864887133789061,34.587786259541986,-12.48091603053435,-5.343511450381679
6271617502866,14.72406614,1,3.892971899414062,0.3112462158203125,6.299144567871093,-3.49618320610687,-88.81679389312977,-41.770992366412216
6271637504793,14.744068067,1,3.4572271972656248,1.9608511596679685,3.470395306396484,-8.610687022900763,-94.91603053435115,-66.54198473282443
6271657518335,14.764081609,1,3.4620156005859375,2.7533319091796873,1.9596540588378906,-22.015267175572518,-63.76335877862596,-61.465648854961835
6271677506408,14.784069682,1,2.2876596862792966,3.6092590026855467,3.2644939636230466,-30.30534351145038,-7.816793893129771,-50.25954198473283
6271697504064,14.804067338,1,2.4289175842285156,3.246537451171875,7.050923889160156,16.404580152671755,55.213740458015266,-10.618320610687023
6271717503230,14.824066504,1,2.4672248107910155,1.5693991882324219,8.042123376464843,14.65648854961832,36.85496183206107,29.015267175572518
6271737504533,14.844067807,1,3.400963458251953,0.6967126831054687,8.89326206665039,-5.137404580152672,19.33587786259542,31.69465648854962
6271757502605,14.864065879,1,4.932055419921875,0.35673604736328124,8.80347950439453,-38.25954198473283,-2.3282442748091605,22.083969465648856
6271777504168,14.884067442,1,5.82868394165039,0.29927520751953124,9.14824454345703,-68.7175572519084,-5.458015267175573,12.946564885496183
6271797501616,14.90406489,1,6.853402252197265,-0.22744915771484372,10.427945330810546,-22.65648854961832,20.69465648854962,20.419847328244273
6271817504272,14.924067546,1,6.5768719604492185,-1.121683477783203,10.93671318359375,23.129770992366414,27.328244274809162,33.47328244274809
6271837503543,14.944066817,1,6.263231542968749,-1.610100616455078,9.720458740234374,27.82442748091603,8.877862595419847,24.977099236641223
6271857504741,14.964068015,1,6.056133099365234,-0.411802685546875,8.842983831787109,11.335877862595419,2.687022900763359,-15.86259541984733
6271877503178,14.984066452,1,5.570110162353515,0.7625532287597656,7.156268762207031,18.389312977099237,-11.931297709923664,-28.27480916030534
6271897502762,15.004066036,1,5.149927770996094,1.5131354492187499,7.094019519042968,30.938931297709924,10.83206106870229,-34.23664122137404
6271917502710,15.024065984,1,3.8486791687011714,1.7010802795410156,7.712920648193359,31.015267175572518,22.3206106870229,-26.870229007633586
6271937504897,15.044068171,1,3.0933085449218747,1.061828436279297,7.395688928222656,31.87786259541985,16.61832061068702,-14.84732824427481
6271957504428,15.064067702,1,2.3977929626464842,0.7362170104980469,6.691793640136718,31.549618320610687,4.595419847328245,-13.122137404580153
6271977502553,15.084065827,1,2.123656872558594,0.7864952453613281,5.65031591796875,19.923664122137403,-11.198473282442748,-19.64885496183206
6271997502553,15.104065827,1,1.1791443176269532,2.155978594970703,5.060145208740234,-5.984732824427481,-17.9618320610687,-35.98473282442748
6272017503439,15.124066713,1,0.3962403747558593,3.326743206787109,5.623979699707031,-11.404580152671755,-15.267175572519085,-30.66412213740458
6272037502710,15.144065984,1,1.9405004455566406,3.4871547180175777,5.596446380615234,-24.015267175572518,-27.99236641221374,-8.358778625954198
6272057502710,15.164065984,1,1.2389993591308592,2.3977929626464842,3.084928839111328,-15.335877862595419,-64.57251908396947,32.404580152671755
