timestamp_ns,t_s,sensor_id,ax,ay,az,gx,gy,gz
6257079670840,0.186234114,2,-6.016628771972656,-7.308300567626953,1.438915197753906,11.076335877862595,95.93129770992367,-21.61832061068702
6257099513965,0.206077239,2,-7.127538342285156,-6.82467183227539,1.7956512451171873,4.396946564885496,67.18320610687023,-15.366412213740459
6257119438549,0.226001823,2,-7.42441934814453,-8.736441857910156,1.3024457031249999,12.641221374045802,40.23664122137404,9.587786259541986
6257139416205,0.245979479,2,-7.448361364746093,-9.062053283691405,0.9337386474609375,11.694656488549619,-1.213740458015267,-16.984732824427482
6257159424851,0.265988125,2,-6.0321910827636716,-8.250418920898436,0.7673416320800781,-16.33587786259542,6.9541984732824424,-61.29007633587786
6257179382351,0.285945625,2,-4.13718046875,-6.95874712524414,0.7769184387207031,-31.450381679389313,4.206106870229007,-92.99236641221374
6257199431361,0.305994635,2,-3.488351818847656,-5.68862314453125,0.28012159423828126,-32.19083969465649,-10.32824427480916,-74.7557251908397
6257219426465,0.325989739,2,-6.675034228515624,-6.9360022094726554,-0.19871873779296872,-47.908396946564885,8.641221374045802,6.198473282442748
6257239417351,0.345980625,2,-8.409633331298828,-10.398017810058594,-0.4070142822265625,11.068702290076336,8.801526717557252,60.9236641221374
6257259414486,0.36597776,2,-7.340622290039062,-11.40238540649414,0.6153098266601562,39.54961832061068,-4.236641221374046,-17.198473282442748
6257279631830,0.386195104,2,-5.560533355712891,-8.231265307617187,0.49200844116210934,-54.51908396946565,-19.229007633587788,-137.0381679389313
6257299448392,0.406011666,2,-2.069787335205078,-6.1650692749023435,-0.35673604736328124,-75.1526717557252,-17.33587786259542,-172.7709923664122
6257319434278,0.425997552,2,-0.6943184814453125,-4.878185882568359,-0.6153098266601562,-45.57251908396947,-40.06106870229008,-122.53435114503817
6257339415580,0.445978854,2,-1.2485761657714842,-5.117606048583984,-1.294065997314453,-11.648854961832061,-69.50381679389314,-21.47328244274809
6257359428653,0.465991927,2,-2.7281927917480466,-6.619967590332031,-1.7741034301757812,26.213740458015266,-78.77862595419847,73.87022900763358
6257379525423,0.486088697,2,-4.350264416503906,-7.461529473876952,-1.071405242919922,40.76335877862596,-36.587786259541986,123.45038167938931
6257399418028,0.505981302,2,-5.878962176513672,-7.716511950683593,-0.33039982910156246,37.229007633587784,2.404580152671756,140.90076335877862
6257419408496,0.52597177,2,-7.837419134521484,-8.03853207397461,0.38307226562499996,24.045801526717558,51.0,147.58778625954199
6257439371934,0.545935208,2,-10.688913311767578,-9.035717065429687,1.1887211242675781,20.083969465648856,51.58015267175573,144.83969465648855
6257459437975,0.566001249,2,-11.8369330078125,-11.48498536376953,2.2194249389648437,78.83969465648855,32.54961832061068,104.32824427480917
6257479423288,0.585986562,2,-9.600748657226562,-11.475408557128906,2.806004345703125,64.6793893129771,32.541984732824424,-17.206106870229007
6257499382507,0.605945781,2,-8.562862237548828,-8.257601525878906,2.6228479187011717,-79.3969465648855,-26.763358778625953,-160.98473282442748
6257519416673,0.625979947,2,-4.964377142333984,-6.788758807373046,1.2389993591308592,-41.70992366412214,-88.61832061068702,-201.3206106870229
6257539422871,0.645986145,2,-2.5821464904785154,-6.375759020996093,-0.10654197387695312,-35.88549618320611,-120.97709923664122,-176.6412213740458
6257559413080,0.665976354,2,-2.057816326904297,-5.647921716308593,-0.852335791015625,-67.86259541984732,-116.9618320610687,-130.29007633587787
6257579417298,0.685980572,2,-1.294065997314453,-6.1818286865234375,-1.7022773803710936,1.2748091603053435,-123.6030534351145,-66.29007633587786
6257599419798,0.705983072,2,-2.1715409057617188,-6.749254479980468,-1.6268600280761718,17.251908396946565,-89.6412213740458,0.3282442748091603
6257619412403,0.725975677,2,-3.7612908081054686,-7.806294512939453,-1.064222637939453,33.80152671755725,-37.3206106870229,56.42748091603053
6257639414278,0.745977552,2,-4.205415216064453,-8.427589843749999,-0.43574470214843747,72.6030534351145,-0.2748091603053435,72.91603053435115
6257659418809,0.765982083,2,-5.021837982177734,-8.233659509277343,0.6619967590332031,38.16030534351145,54.213740458015266,68.27480916030534
6257679409590,0.785972864,2,-5.275623358154297,-8.104372619628906,1.4041992736816404,52.48854961832061,79.29770992366412,68.36641221374046
6257699417923,0.805981197,2,-5.6778492370605465,-8.179789971923828,2.393004559326172,43.541984732824424,103.70229007633588,73.46564885496183
6257719413652,0.825976926,2,-6.008249066162109,-7.880514764404296,3.1447838806152344,30.580152671755727,93.70229007633588,64.12977099236642
6257739432090,0.845995364,2,-5.4887073059082025,-8.440757952880858,2.749740606689453,15.374045801526718,51.51145038167939,58.83969465648855
6257759416777,0.865980051,2,-8.295908752441406,-7.242460021972656,2.6695348510742187,-9.076335877862595,-3.8396946564885495,51.80916030534351
6257779421986,0.88598526,2,-9.510966094970703,-8.626308581542968,2.3223756103515623,30.52671755725191,-41.3206106870229,71.3969465648855
6257799409121,0.905972395,2,-9.964667309570311,-10.673351000976561,2.2972364929199216,28.801526717557252,-40.732824427480914,46.74045801526717
6257819410527,0.925973801,2,-8.941146099853515,-10.09993970336914,2.076969940185547,-13.427480916030534,-31.458015267175572,-43.12213740458015
6257839411673,0.945974947,2,-6.618770489501952,-7.967903124999999,1.4604630126953124,-53.87022900763359,-33.11450381679389,-138.5114503816794
6257859412298,0.965975572,2,-3.9133226135253905,-6.582857464599609,0.7505822204589844,-49.01526717557252,-41.68702290076336,-168.3206106870229
6257879407663,0.985970937,2,-2.165555401611328,-5.968744738769531,0.3184288208007812,-29.27480916030534,-42.969465648854964,-144.89312977099237
6257899420996,1.00598427,2,-1.4604630126953124,-5.84783755493164,0.239420166015625,-4.748091603053435,-54.541984732824424,-94.12977099236642
6257919417402,1.025980676,2,-1.7501614135742187,-6.0704983093261715,-0.08140285644531249,25.206106870229007,-67.16793893129771,-31.015267175572518
6257939414954,1.045978228,2,-3.0992940490722654,-7.395688928222656,0.45010991210937495,38.43511450381679,-41.038167938931295,33.87786259541985
6257959414850,1.065978124,2,-4.071339923095703,-8.163030560302733,1.6352397338867186,65.70229007633588,12.290076335877863,65.93129770992367
6257979392246,1.08595552,2,-5.197811804199218,-8.519766607666016,2.5809493896484375,25.80916030534351,56.63358778625954,72.42748091603053
6257999408288,1.105971562,2,-6.025008477783203,-8.371326104736328,3.0418332092285154,17.671755725190838,52.51145038167939,62.969465648854964
6258019419017,1.125982291,2,-6.518214019775391,-8.105569720458984,2.834734765625,0.015267175572519083,5.694656488549619,41.43511450381679
6258039432819,1.145996093,2,-6.241683728027343,-8.74601866455078,2.4684219116210935,1.0687022900763359,-25.587786259541986,31.96946564885496
6258059411725,1.165974999,2,-6.993463049316406,-8.761580975341797,2.522291448974609,2.763358778625954,-52.55725190839695,15.648854961832061
6258079438913,1.186002187,2,-6.874950067138672,-8.662221606445312,2.0566192260742184,20.282442748091604,-74.33587786259542,-6.244274809160306
6258099414329,1.205977603,2,-6.433219860839843,-9.482235675048827,2.1679496032714844,5.32824427480916,-74.54198473282443,-36.969465648854964
6258119421465,1.225984739,2,-5.902904193115234,-8.804676605224609,2.009932293701172,23.076335877862597,-87.22137404580153,-75.5114503816794
6258139420840,1.245984114,2,-4.474762902832031,-7.882908966064453,1.8662801940917968,-7.519083969465649,-55.038167938931295,-100.41984732824427
6258159422298,1.265985572,2,-4.8314989501953125,-7.09282241821289,1.9716250671386717,-59.725190839694655,-3.1755725190839694,-92.16030534351145
6258179414225,1.285977499,2,-4.241328240966797,-7.499836700439452,0.8152256652832031,16.603053435114504,-41.85496183206107,-47.87786259541985
6258199420840,1.305984114,2,-2.3834277526855465,-8.589198455810546,1.993172882080078,-8.763358778625955,89.85496183206106,-42.0763358778626
6258219430006,1.32599328,2,-3.699041564941406,-7.164648468017577,2.527079852294922,-32.458015267175576,48.41984732824427,-43.656488549618324
6258239488548,1.346051822,2,-2.9089550170898435,-8.772354882812499,2.8993782104492185,66.57251908396947,51.52671755725191,7.038167938931298
6258259421517,1.365984791,2,-4.935646722412109,-8.895656268310546,3.8582559753417964,15.938931297709924,62.20610687022901,19.870229007633586
6258279415684,1.385978958,2,-3.2142157287597652,-8.881291058349609,3.7098154724121093,20.458015267175572,54.29007633587786,-14.49618320610687
6258299414329,1.405977603,2,-2.953247747802734,-7.406462835693359,3.69664736328125,-10.67175572519084,34.25954198473283,-45.93893129770992
6258319423079,1.425986353,2,-2.5917232971191404,-7.611167077636718,3.497928625488281,1.4122137404580153,17.755725190839694,-16.80916030534351
6258339408704,1.445971978,2,-3.9564182434082027,-8.109161022949218,3.8139632446289062,20.83206106870229,15.030534351145038,23.16793893129771
6258359411100,1.465974374,2,-4.979939453125,-9.37210239868164,3.670311145019531,-2.7022900763358777,24.31297709923664,40.045801526717554
6258379413704,1.485976978,2,-4.976348150634766,-9.443928448486327,2.920926025390625,-16.900763358778626,4.885496183206107,10.183206106870228
6258399426308,1.505989582,2,-4.537012145996093,-8.799888201904297,2.7186159851074216,-45.83206106870229,13.511450381679388,-18.549618320610687
6258419414850,1.525978124,2,-3.621230010986328,-8.475473876953124,2.4863784240722655,-30.862595419847327,11.290076335877863,-26.47328244274809
6258439422558,1.545985832,2,-3.659537237548828,-8.005013250732421,2.1440075866699217,-25.580152671755727,-15.114503816793894,-21.374045801526716
6258459428444,1.565991718,2,-4.010287780761718,-8.06367119140625,1.216254443359375,-19.442748091603054,-59.86259541984733,-5.6183206106870225
6258479415788,1.585979062,2,-4.246116644287109,-8.64426509399414,0.44532150878906246,-2.0610687022900764,-61.17557251908397,11.16793893129771
6258499417819,1.605981093,2,-3.9983167724609374,-8.662221606445312,0.4129997863769531,10.603053435114504,-20.702290076335878,7.732824427480916
6258519419642,1.625982916,2,-3.8079777404785156,-8.271966735839843,1.4245499877929686,18.27480916030534,47.083969465648856,7.870229007633588
6258539417871,1.645981145,2,-4.201823913574218,-7.943961108398437,2.243366955566406,23.374045801526716,92.23664122137404,18.595419847328245
6258559415215,1.665978489,2,-5.555744952392578,-8.201337786865233,2.1739351074218747,0.2900763358778626,86.18320610687023,31.83969465648855
6258579411933,1.685975207,2,-6.513425616455078,-9.941922393798828,2.2254104431152344,37.94656488549618,78.55725190839695,45.93893129770992
6258599414017,1.705977291,2,-8.68257232055664,-10.868478436279297,3.3207577026367185,28.885496183206108,141.59541984732823,34.88549618320611
6258619415267,1.725978541,2,-9.93952819213867,-11.24915650024414,5.318718988037109,-1.1145038167938932,222.38931297709922,-17.893129770992367
6258639416152,1.745979426,2,-6.947973217773437,-11.614272253417967,6.476315490722656,2.9083969465648853,193.46564885496184,-111.00763358778626
6258659408235,1.765971509,2,-2.934094134521484,-8.24802471923828,5.7508723876953125,-61.66412213740458,60.23664122137404,-242.80152671755727
6258679379694,1.785942968,2,0.32441432495117184,-4.531026641845703,3.841496563720703,-145.8091603053435,-68.70229007633588,-250.13740458015266
6258699412558,1.805975832,2,2.990357873535156,-2.7186159851074216,0.7266402038574218,-100.9618320610687,-215.74045801526717,-243.14503816793894
6258719413183,1.825976457,2,2.1547814941406247,-3.1854853088378903,-1.637633935546875,-105.1526717557252,-250.13740458015266,-83.30534351145039
6258739410996,1.84597427,2,0.023942016601562498,-5.199008905029297,-3.422511273193359,-0.4732824427480916,-250.13740458015266,75.79389312977099
6258759423027,1.865986301,2,-2.3822306518554686,-7.758410479736328,-3.891774798583984,99.59541984732824,-247.29770992366412,185.15267175572518
6258779410006,1.88597328,2,-5.685031842041015,-9.234435803222656,-2.8323405639648436,74.36641221374046,-93.93129770992367,235.99236641221373
6258799416517,1.905979791,2,-8.265981231689453,-10.742782849121093,-1.47482822265625,85.06870229007633,25.709923664122137,236.15267175572518
6258819413444,1.925976718,2,-8.88009395751953,-11.722011328125,0.74699091796875,126.83969465648855,141.83969465648855,178.87022900763358
6258839413548,1.945976822,2,-8.780734588623046,-10.542867010498046,3.0801404357910154,81.92366412213741,219.83969465648855,69.43511450381679
6258859419329,1.965982603,2,-7.32266577758789,-9.326612567138671,4.121618157958984,24.801526717557252,177.24427480916032,-15.67175572519084
6258879421569,1.985984843,2,-5.6946086486816405,-8.772354882812499,4.076128326416016,39.19847328244275,47.19847328244275,-46.786259541984734
6258899411204,2.005974478,2,-4.774038110351563,-8.434772448730468,2.876633294677734,22.519083969465647,-56.35114503816794,-48.00763358778626
6258919414433,2.025977707,2,-3.9408559326171875,-8.176198669433592,2.0159177978515626,15.34351145038168,-81.52671755725191,-43.31297709923664
6258939383131,2.045946405,2,-4.280832568359375,-8.11514652709961,2.2828712829589843,12.404580152671755,-22.51145038167939,-21.6793893129771
6258959417975,2.065981249,2,-5.856217260742187,-8.810662109374999,2.6408044311523438,6.114503816793893,2.0381679389312977,15.450381679389313
6258979431933,2.085995207,2,-7.0461354858398435,-10.660182891845702,2.014720697021484,39.48854961832061,-46.534351145038165,41.17557251908397
6258999420319,2.105983593,2,-7.278373046874999,-11.439495532226562,2.3714567443847656,47.770992366412216,-1.8931297709923665,21.16030534351145
6259019434329,2.125997603,2,-7.331045483398437,-10.678139404296875,3.957615344238281,20.083969465648856,85.77099236641222,-17.022900763358777
6259039424069,2.145987343,2,-6.266822845458984,-9.894038360595703,4.460397692871093,5.145038167938932,98.29770992366412,-48.41984732824427
6259059418964,2.165982238,2,-5.504269616699219,-8.447940557861328,3.949235638427734,-40.61068702290076,50.51908396946565,-83.17557251908397
6259079421517,2.185984791,2,-3.774458917236328,-7.181407879638671,2.6132711120605467,-49.213740458015266,-25.427480916030536,-106.3969465648855
6259099429537,2.205992811,2,-2.627636322021484,-6.185419989013671,1.0630255371093749,-59.396946564885496,-80.10687022900764,-119.83206106870229
6259119423860,2.225987134,2,-1.637633935546875,-5.701791253662109,-0.008379705810546874,-57.70229007633588,-98.50381679389314,-118.32824427480917
6259139417506,2.24598078,2,-0.2753331909179687,-5.659892724609374,-0.7769184387207031,-19.18320610687023,-94.74045801526718,-106.33587786259542
6259159419381,2.265982655,2,0.49799394531249996,-5.533000036621093,-0.9193734375,-18.374045801526716,-43.61832061068702,-86.7175572519084
6259179412089,2.285975363,2,0.8391676818847655,-5.461173986816406,-0.507570751953125,-8.122137404580153,0.9465648854961832,-60.33587786259542
6259199414485,2.305977759,2,1.1168950744628905,-5.708973858642578,0.15562310791015624,21.48854961832061,44.61832061068702,-16.977099236641223
6259219417454,2.325980728,2,0.16879121704101563,-6.491877801513671,0.9576806640625,10.083969465648854,60.69465648854962,37.83206106870229
6259239429433,2.345992707,2,-1.7214309936523438,-7.806294512939453,1.4640543151855467,60.49618320610687,24.49618320610687,90.13740458015268
6259259380735,2.365944009,2,-3.2561142578125,-8.354566693115235,1.197100830078125,78.82442748091603,-30.862595419847327,107.30534351145039
6259279426100,2.385989374,2,-3.8750153869628905,-8.704120135498046,0.24301146850585936,62.458015267175576,-73.66412213740458,95.22137404580153
6259299419954,2.405983228,2,-4.4376527770996095,-8.40125362548828,0.46806642456054687,80.74809160305344,-19.641221374045802,87.32824427480917
6259319413027,2.425976301,2,-5.655104321289063,-7.971494427490234,1.5538368774414062,76.80152671755725,68.81679389312977,99.66412213740458
6259339428548,2.445991822,2,-6.534973431396484,-8.404844927978516,2.8658593872070313,81.79389312977099,147.5267175572519,114.00763358778626
6259359419694,2.465982968,2,-8.488641986083984,-8.444349255371094,3.921702319335937,85.3587786259542,194.45038167938932,132.01526717557252
6259379416985,2.485980259,2,-9.873687646484374,-9.917980377197265,5.681440539550781,81.55725190839695,250.12977099236642,148.06106870229007
6259399422402,2.505985676,2,-10.461464154052734,-10.265139617919921,6.701370446777343,78.55725190839695,201.2824427480916,106.7557251908397
6259419420266,2.52598354,2,-10.18373676147461,-10.257957012939453,7.293935357666015,24.99236641221374,106.3587786259542,33.7557251908397
6259439414746,2.54597802,2,-8.536526019287109,-9.028534460449219,6.212953308105468,-10.19083969465649,-23.46564885496183,-46.16793893129771
6259459418287,2.565981561,2,-7.223306408691406,-7.408857037353515,4.108450048828125,-68.00763358778626,-138.6412213740458,-97.80916030534351
6259479418339,2.585981613,2,-5.728127471923828,-7.011419561767577,1.7226280944824217,-71.98473282442748,-189.06870229007635,-97.10687022900764
6259499419746,2.60598302,2,-5.500678314208984,-7.164648468017577,0.24301146850585936,-60.83969465648855,-151.9770992366412,-60.404580152671755
6259519423391,2.625986665,2,-6.160280871582031,-8.07683930053711,-0.201112939453125,-40.38167938931298,-74.89312977099236,-14.282442748091603
6259539423652,2.645986926,2,-6.481103894042969,-8.967482318115234,0.38666356811523434,-9.305343511450381,7.748091603053435,-0.5267175572519084
6259559426516,2.66598979,2,-6.1638721740722655,-8.684966522216797,1.8136077575683593,-2.435114503816794,78.98473282442748,-28.068702290076335
6259579427454,2.685990728,2,-4.880580084228515,-7.712920648193359,2.8239608581542965,-10.458015267175572,81.41221374045801,-65.74809160305344
6259599414329,2.705977603,2,-3.35188232421875,-6.574477758789062,2.4205378784179685,-15.259541984732824,15.854961832061068,-90.14503816793894
6259619417506,2.72598078,2,-2.7617116149902343,-5.853823059082031,1.484405029296875,-29.977099236641223,-29.14503816793893,-81.17557251908397
6259639418860,2.745982134,2,-2.067393133544922,-6.072892510986327,0.5422866760253906,-23.549618320610687,-43.48854961832061,-52.221374045801525
6259659424381,2.765987655,2,-2.128445275878906,-6.102820031738281,-0.06943184814453125,-25.259541984732824,-30.229007633587788,-31.977099236641223
6259679426048,2.785989322,2,-1.946485949707031,-6.1076084350585935,-0.2861070983886719,-17.740458015267176,-3.1526717557251906,-15.641221374045802
6259699425162,2.805988436,2,-2.086546746826172,-6.238092425537109,0.4848258361816406,-2.7786259541984735,39.70992366412214,5.870229007633588
6259719418808,2.825982082,2,-2.3056161987304686,-6.794744311523437,1.4437036010742186,13.900763358778626,60.969465648854964,29.27480916030534
6259739418652,2.845981926,2,-3.9037458068847655,-7.157465863037109,2.1224597717285154,18.374045801526716,52.404580152671755,53.12213740458015
6259759421048,2.865984322,2,-5.6311623046875,-8.33182177734375,2.469619012451172,14.786259541984732,74.50381679389314,82.93893129770993
6259779426516,2.88598979,2,-5.914875201416015,-9.113528619384764,2.4492682983398435,-5.32824427480916,86.46564885496183,70.21374045801527
6259799420683,2.905983957,2,-7.841010437011718,-8.961496813964843,3.210624426269531,-23.129770992366414,70.38931297709924,54.11450381679389
6259819422454,2.925985728,2,-9.273940130615234,-10.237606298828124,3.7888241271972656,27.00763358778626,44.02290076335878,68.09923664122137
6259839418027,2.945981301,2,-8.790311395263672,-11.696872210693359,4.108450048828125,25.00763358778626,42.778625954198475,38.44274809160305
6259859416881,2.965980155,2,-7.48906279296875,-9.82580361328125,3.479972113037109,-46.229007633587784,-3.0839694656488548,-60.908396946564885
6259879427714,2.985990988,2,-6.804321118164062,-7.8541785461425775,2.546233465576172,-92.06106870229007,-44.48854961832061,-99.2824427480916
6259899420422,3.005983696,2,-6.347028601074219,-7.988253839111327,1.5705962890624998,-49.57251908396947,-80.36641221374046,-71.79389312977099
6259919380631,3.025943905,2,-5.039794494628906,-8.237250811767577,0.4752490295410156,-34.79389312977099,-96.7557251908397,-73.53435114503817
6259939434120,3.045997394,2,-3.9600095458984375,-8.10796392211914,-0.07302315063476562,-81.10687022900764,-64.62595419847328,-96.21374045801527
6259959415579,3.065978853,2,-2.437297290039062,-7.566874346923828,-0.41539398803710936,-57.44274809160305,-32.31297709923664,-96.92366412213741
6259979414589,3.085977863,2,-2.443282794189453,-7.273584643554687,-0.09217676391601562,-43.36641221374046,-14.366412213740459,-59.54961832061068
6259999417662,3.105980936,2,-2.4013842651367185,-7.4699091796875,0.16998831787109375,-6.824427480916031,-22.389312977099237,-14.801526717557252
6260019413287,3.125976561,2,-3.5027170288085934,-7.826645227050781,0.5051765502929687,0.8931297709923665,-31.900763358778626,17.99236641221374
6260039419381,3.145982655,2,-4.2892122741699215,-9.060856182861327,0.7242460021972655,29.46564885496183,-43.98473282442748,46.74045801526717
6260059423547,3.165986821,2,-4.8494554626464845,-9.558850128173827,0.9816226806640624,39.42748091603053,-43.541984732824424,42.0763358778626
6260079419277,3.185982551,2,-5.066130712890625,-9.072827191162109,1.0905588562011719,10.992366412213741,-34.725190839694655,16.35114503816794
6260099383079,3.205946353,2,-4.042609503173828,-7.990648040771484,1.6436194396972654,18.328244274809162,-28.47328244274809,-12.465648854961833
6260119429120,3.225992394,2,-4.653130926513672,-7.502230902099609,3.2441432495117186,8.51908396946565,14.305343511450381,-3.877862595419847
6260139420058,3.245983332,2,-5.664681127929687,-9.522937103271484,4.198232611083984,60.3206106870229,-14.793893129770993,48.11450381679389
6260159428235,3.265991509,2,-6.084863519287109,-11.137826123046874,4.322731097412109,50.083969465648856,-49.38167938931298,45.16793893129771
6260179440370,3.286003644,2,-7.690175732421874,-10.48301196899414,3.8690298828125,-47.274809160305345,-91.52671755725191,-19.603053435114504
6260199419693,3.305982967,2,-6.367379315185547,-10.448296044921875,2.4947581298828125,-29.48854961832061,-146.03053435114504,-67.72519083969466
6260219411204,3.325974478,2,-4.329913702392578,-10.952275494384764,2.4061726684570313,-4.809160305343512,-103.82442748091603,-78.90076335877863
6260239456724,3.346019998,2,-2.2589292663574216,-8.396465222167969,1.8507178833007811,-47.45038167938932,-96.76335877862596,-135.87786259541986
6260259436933,3.366000207,2,-0.3687070556640625,-5.724536169433593,0.4082113830566406,-99.14503816793894,-116.83969465648855,-170.15267175572518
6260279417610,3.385980884,2,0.7206546997070312,-5.307945080566406,-2.033874310302734,-71.56488549618321,-166.4198473282443,-120.86259541984732
6260299428964,3.405992238,2,-0.5746083984375,-6.962338427734375,-3.459621398925781,-11.419847328244275,-121.42748091603053,-9.977099236641221
6260319419954,3.425983228,2,-2.9843723693847655,-9.651026892089844,-2.498349432373047,41.732824427480914,25.358778625954198,89.34351145038168
6260339410683,3.445973957,2,-3.679887951660156,-11.012130535888671,-0.7697358337402344,82.50381679389314,148.63358778625954,101.29770992366412
6260359424954,3.465988228,2,-3.5697546752929687,-9.196128576660156,1.811213555908203,36.778625954198475,250.12977099236642,46.45038167938932
6260379414224,3.485977498,2,-5.549759448242187,-7.606378674316406,4.140771771240234,-20.671755725190838,250.12977099236642,45.847328244274806
6260399418495,3.505981769,2,-6.60799658203125,-9.983820922851562,6.341043096923828,63.81679389312977,250.12977099236642,84.90076335877863
6260419423287,3.525986561,2,-7.908048083496094,-12.309787835693358,6.78636460571289,76.78625954198473,126.3969465648855,93.26717557251908
6260440231672,3.546794946,2,-7.507019305419921,-12.539631195068358,5.228936425781249,26.068702290076335,-51.49618320610687,16.27480916030534
6260460213964,3.566777238,2,-5.383362432861328,-10.284293231201172,3.5314474487304683,-63.74045801526717,-88.70992366412214,-100.0381679389313
6260480209797,3.586773071,2,-3.7984009338378906,-7.688978631591796,2.7377695983886716,-92.46564885496183,-55.70992366412214,-152.23664122137404
6260500224433,3.606787707,2,-2.039859814453125,-6.921636999511718,2.4588451049804685,-62.88549618320611,-62.55725190839695,-146.51908396946564
6260520219172,3.626782446,2,-1.4939818359375,-6.788758807373046,1.3658920471191405,-41.954198473282446,-155.76335877862596,-123.21374045801527
6260540162818,3.646726092,2,-1.294065997314453,-6.393715533447265,-0.36750995483398435,-18.770992366412212,-242.793893129771,-110.37404580152672
6260560222506,3.66678578,2,0.29568390502929687,-6.2584431396484375,-1.956062756347656,-35.23664122137404,-215.19847328244273,-110.74809160305344
6260580230370,3.686793644,2,0.6248866333007812,-5.759252093505859,-2.1883003173828124,-65.09160305343511,-128.90076335877862,-108.49618320610686
6260600219172,3.706782446,2,1.0749965454101562,-6.8964978820800775,-1.4437036010742186,-2.5572519083969465,-32.534351145038165,-45.3206106870229
6260620216308,3.726779582,2,0.4177881896972656,-8.060079888916015,0.20231004028320312,18.076335877862597,53.06106870229008,-1.8931297709923665
6260640221203,3.746784477,2,-1.6891092712402342,-10.036493359375,1.6555904479980468,16.282442748091604,78.5114503816794,48.267175572519086
6260660220891,3.766784165,2,-2.1356278808593747,-12.74912384033203,2.644395733642578,66.31297709923665,71.20610687022901,74.12213740458016
6260680228391,3.786791665,2,-3.372233038330078,-12.66652388305664,2.5821464904785154,15.206106870229007,17.17557251908397,36.48091603053435
6260700185474,3.806748748,2,-3.6008792968749996,-12.222399475097655,2.6300305236816404,-20.633587786259543,26.404580152671755,-0.816793893129771
6260720215005,3.826778279,2,-1.927332336425781,-10.250774407958984,1.7741034301757812,-29.80916030534351,15.48091603053435,-47.14503816793893
6260740218391,3.846781665,2,-1.5801730957031248,-8.214505895996094,1.0187328063964842,-77.95419847328245,-2.549618320610687,-68.42748091603053
6260760218599,3.866781873,2,0.2214636535644531,-8.445546356201172,-0.13168109130859373,-18.076335877862597,-24.984732824427482,-45.93893129770992
6260780215735,3.886779009,2,-0.0383072265625,-8.449137658691406,-0.9528922607421875,-7.412213740458015,-14.007633587786259,-12.297709923664122
6260800222610,3.906785884,2,-0.8415618835449218,-9.441534246826171,-0.9959878906249999,-17.137404580152673,49.404580152671755,29.00763358778626
6260820223860,3.926787134,2,-2.7712884216308593,-10.207678778076172,-0.10175357055664062,24.580152671755727,104.16793893129771,53.64885496183206
6260840225995,3.946789269,2,-2.6803087585449217,-11.444283935546874,1.5921441040039062,44.93129770992366,172.98473282442748,61.16793893129771
6260860209172,3.966772446,2,-2.175132208251953,-10.579977136230468,3.3482910217285156,34.23664122137404,174.2290076335878,17.412213740458014
6260880217089,3.986780363,2,-1.112106671142578,-8.787917193603516,3.385401147460937,3.053435114503817,110.8473282442748,-24.450381679389313
6260900213287,4.006776561,2,-0.9660603698730468,-7.866149554443359,2.7724855224609373,-23.763358778625953,61.17557251908397,-21.106870229007633
6260920220214,4.026783488,2,-1.3946224670410154,-9.150638745117186,1.0462661254882812,-4.816793893129771,-2.030534351145038,26.47328244274809
6260940226151,4.046789425,2,-2.7329811950683593,-10.11909331665039,-0.3387795349121094,13.82442748091603,-32.18320610687023,51.93129770992366
6260960215943,4.066779217,2,-3.4775779113769527,-10.626664068603516,-0.7445967163085937,-3.0229007633587788,17.396946564885496,45.01526717557252
6260980223651,4.086786925,2,-3.0538042175292968,-10.514136590576172,-0.32441432495117184,16.51145038167939,81.86259541984732,18.6793893129771
6261000214276,4.10677755,2,-1.6819266662597656,-9.1554271484375,0.5985504150390625,6.908396946564886,157.793893129771,-13.641221374045802
6261020216151,4.126779425,2,-1.9285294372558592,-7.211335400390625,2.398990063476562,-10.98473282442748,219.74809160305344,-12.16030534351145
6261040215162,4.146778436,2,-1.9596540588378906,-8.15345375366211,4.510675927734375,38.404580152671755,240.3206106870229,48.05343511450382
6261060215005,4.166778279,2,-3.84987626953125,-9.524134204101562,5.214571215820312,32.74045801526717,105.03053435114504,89.57251908396947
6261080243287,4.186806561,2,-3.821145849609375,-10.58476553955078,4.854243865966796,51.89312977099237,-30.50381679389313,90.04580152671755
6261100208912,4.206772186,2,-4.134786267089844,-9.545682019042967,3.7002386657714843,0.1297709923664122,-121.40458015267176,49.99236641221374
6261120247766,4.22681104,2,-4.522646936035156,-9.211690887451171,3.891774798583984,-69.80152671755725,-119.80916030534351,32.6412213740458
6261140220005,4.246783279,2,-4.021061688232422,-7.544129431152343,2.749740606689453,-46.0763358778626,-150.9236641221374,24.61832061068702
6261160165578,4.266728852,2,-3.3207577026367185,-9.00100114135742,1.935712042236328,-163.01526717557252,-148.0381679389313,31.236641221374047
6261180213130,4.286776404,2,-5.12000025024414,-8.894459167480468,-1.523909356689453,-83.07633587786259,-250.13740458015266,29.587786259541986
6261200208807,4.306772081,2,-7.16943687133789,-10.529698901367187,-3.239354846191406,-85.45801526717557,-250.13740458015266,57.93893129770992
6261220230474,4.326793748,2,-6.635529901123046,-10.912771166992187,-4.210203619384766,-69.18320610687023,-199.8091603053435,31.16030534351145
6261240212297,4.346775571,2,-5.485116003417969,-10.133458526611328,-3.833116857910156,-75.50381679389314,-87.77862595419847,-31.091603053435115
6261260207974,4.366771248,2,-3.574543078613281,-8.29351455078125,-2.5067291381835934,-38.534351145038165,54.656488549618324,-70.6412213740458
6261280222245,4.386785519,2,-3.2130186279296873,-6.392518432617187,-0.3699041564941406,-31.80916030534351,155.34351145038167,-68.62595419847328
6261300210578,4.406773852,2,-1.93451494140625,-7.529764221191406,1.2593500732421874,-38.229007633587784,219.50381679389312,-23.870229007633586
6261320224016,4.42678729,2,-1.1288660827636718,-10.523713397216797,1.9955670837402342,19.03053435114504,137.0916030534351,18.923664122137403
6261340214641,4.446777915,2,-4.8650177734375,-8.998606939697265,1.7310078002929687,25.740458015267176,22.625954198473284,19.755725190839694
6261360204380,4.466767654,2,-3.9420530334472654,-11.541249102783203,2.3223756103515623,-35.656488549618324,62.2442748091603,19.984732824427482
6261380220214,4.486783488,2,-3.0119056884765625,-9.421183532714844,1.7693150268554687,0.5572519083969466,19.587786259541986,-41.717557251908396
6261400206255,4.506769529,2,-2.8850130004882812,-8.933963494873046,2.3139959045410157,-127.67175572519083,42.89312977099237,-65.44274809160305
6261420215839,4.526779113,2,-1.763329522705078,-8.451531860351562,1.2988544006347655,-27.091603053435115,-68.86259541984732,-63.80916030534351
6261440315422,4.546878696,2,-2.0829554443359375,-8.73285055541992,0.05985504150390625,-74.74045801526718,-139.74045801526717,-41.847328244274806
6261460221307,4.566784581,2,-2.021903302001953,-9.145850341796875,-1.1731588134765625,-71.96946564885496,-164.206106870229,-23.206106870229007
6261480219953,4.586783227,2,-2.6420015319824217,-9.145850341796875,-2.031480108642578,-59.06870229007634,-150.4885496183206,-4.694656488549619
6261500211151,4.606774425,2,-4.432864373779297,-8.932766394042968,-2.1679496032714844,-89.61068702290076,-96.25190839694656,15.717557251908397
6261520201307,4.626764581,2,-2.8802245971679685,-10.888829150390624,-2.711433380126953,-48.86259541984733,-56.7557251908397,9.412213740458014
6261540220422,4.646783696,2,-1.916558428955078,-9.976638317871092,-3.3770214416503905,-19.450381679389313,-64.65648854961832,-21.572519083969464
6261560210370,4.666773644,2,-2.1739351074218747,-8.572439044189453,-2.5665841796874997,-90.42748091603053,36.908396946564885,-40.61832061068702
6261580217453,4.686780727,2,-1.370680450439453,-8.695740429687499,-1.8100164550781248,-32.12977099236641,101.25954198473282,-7.702290076335878
6261600215526,4.7067788,2,-2.942473840332031,-9.63307037963867,-0.7146691955566405,-54.770992366412216,128.9236641221374,26.66412213740458
6261620224016,4.72678729,2,-2.8419173706054686,-9.832986218261718,-1.8459294799804686,-27.19083969465649,-5.366412213740458,15.580152671755725
6261640316880,4.746880154,2,-2.7269956909179687,-8.827421520996094,-2.3139959045410157,-26.19083969465649,-28.129770992366414,-10.106870229007633
6261660219276,4.76678255,2,-2.110488763427734,-8.734047656249999,-2.0745757385253905,-61.152671755725194,13.786259541984732,-9.068702290076336
6261680201203,4.786764477,2,-2.1152771667480468,-8.997409838867187,-2.001552587890625,-32.14503816793893,37.47328244274809,13.17557251908397
6261700210474,4.806773748,2,-2.2840683837890623,-9.351751684570312,-0.82360537109375,-72.76335877862596,81.68702290076335,26.770992366412212
6261720212766,4.82677604,2,-2.002749688720703,-9.247603912353515,-1.9943699829101562,-90.37404580152672,12.15267175572519,12.549618320610687
6261740295370,4.846858644,2,-1.6041151123046875,-9.051279376220702,-3.0621839233398433,-47.595419847328245,-111.38167938931298,-4.656488549618321
6261760217036,4.86678031,2,-3.854664672851562,-8.330624676513672,-3.6152445068359373,-56.31297709923664,-122.25954198473282,4.122137404580153
6261780214328,4.886777602,2,-3.3590649291992185,-10.435127935791016,-2.8790274963378906,-47.50381679389313,-16.893129770992367,42.465648854961835
6261800201047,4.906764321,2,-3.8953661010742184,-9.937133990478515,-3.2728736694335936,-63.00763358778626,-59.86259541984733,7.213740458015267
6261820195213,4.926758487,2,-2.8898014038085935,-8.708908538818358,-3.5984850952148437,-63.30534351145038,-62.81679389312977,-29.541984732824428
6261840212505,4.946775779,2,-0.19632453613281248,-8.34498988647461,-4.3059716857910155,-39.603053435114504,-87.59541984732824,-46.82442748091603
6261860213286,4.96677656,2,-0.7685387329101562,-6.224924316406249,-3.8379052612304685,-51.19083969465649,-23.9618320610687,-25.091603053435115
6261880205318,4.986768592,2,-2.729389892578125,-6.806715319824218,-3.4620156005859375,-99.65648854961832,-4.5038167938931295,35.58015267175573
6261900203703,5.006766977,2,-4.198232611083984,-9.591171850585937,-3.1639374938964844,-4.511450381679389,9.374045801526718,111.74045801526718
6261920204120,5.026767394,2,-4.817133740234374,-10.402806213378906,-2.730586993408203,-33.76335877862596,-17.786259541984734,92.35114503816794
6261940206672,5.046769946,2,-5.967547637939453,-8.850166436767578,-3.6619314392089843,-93.6030534351145,-141.8854961832061,26.80916030534351
6261960192765,5.066756039,2,-3.6104561035156246,-8.12711753540039,-4.768052606201172,-34.16793893129771,-130.6412213740458,4.587786259541985
6261980192922,5.086756196,2,-2.024297503662109,-7.678204724121093,-3.8845921936035155,-97.59541984732824,-9.045801526717558,16.587786259541986
6262000194745,5.106758019,2,-2.2780828796386716,-5.706579656982422,-3.2788591735839843,-124.70992366412214,2.595419847328244,35.083969465648856
6262020405734,5.126969008,2,-4.473565802001953,-4.991910461425781,-4.878185882568359,-89.46564885496183,-136.25190839694656,77.93893129770993
6262040185265,5.146748539,2,-5.19661470336914,-6.894103680419922,-5.91846650390625,-37.541984732824424,-121.97709923664122,137.3206106870229
6262060218442,5.166781716,2,-6.932410906982422,-6.758831286621094,-6.599616876220702,-28.893129770992367,-131.04580152671755,131.08396946564886
6262080214588,5.186777862,2,-9.33379517211914,-6.169857678222656,-7.055712292480468,-36.458015267175576,-128.98473282442748,105.14503816793894
6262100206047,5.206769321,2,-8.35696089477539,-7.970297326660156,-7.64229169921875,60.847328244274806,-92.23664122137404,81.35114503816794
6262120158182,5.226721456,2,-8.073247998046874,-6.740874774169922,-7.184999182128906,96.16793893129771,-29.374045801526716,23.374045801526716
6262140203703,5.246766977,2,-7.857769848632812,-5.149927770996094,-5.511452221679687,60.80152671755725,90.06870229007633,9.366412213740459
6262160308234,5.266871508,2,-7.581239556884765,-5.033808990478516,-4.46279189453125,123.57251908396947,103.44274809160305,21.69465648854962
6262180223651,5.286786925,2,-7.122749938964843,-6.491877801513671,-4.144363073730468,166.10687022900763,74.9618320610687,35.6412213740458
6262200210942,5.306774216,2,-8.049305981445311,-6.6319385986328125,-2.7928362365722657,201.6412213740458,91.06870229007633,26.885496183206108
6262220200838,5.326764112,2,-6.752845782470703,-7.212532501220703,-1.16837041015625,184.17557251908397,135.35114503816794,6.786259541984733
6262240332401,5.346895675,2,-6.585251666259765,-6.515819818115234,-0.2262520568847656,120.10687022900764,108.6030534351145,-20.603053435114504
6262260212140,5.366775414,2,-6.72291826171875,-6.312312677001953,0.4740519287109375,109.95419847328245,111.00763358778626,7.312977099236641
6262280466828,5.387030102,2,-7.289146954345703,-7.82065972290039,1.697488977050781,62.656488549618324,136.35114503816794,29.81679389312977
6262300312453,5.406875727,2,-6.804321118164062,-9.252392315673827,1.8411410766601561,52.63358778625954,28.022900763358777,2.854961832061069
6262320237088,5.426800362,2,-7.066486199951171,-8.55448253173828,0.430956298828125,22.480916030534353,-136.98473282442748,-66.93129770992367
6262340216307,5.446779581,2,-5.96275923461914,-8.555679632568358,-0.6284779357910156,-46.3587786259542,-103.29007633587786,-86.48091603053435
6262360232557,5.466795831,2,-5.434837768554687,-8.288726147460936,-0.9756371765136718,-72.66412213740458,-52.900763358778626,-87.07633587786259
6262380220109,5.486783383,2,-6.53138212890625,-6.556521246337891,-1.772906329345703,-77.56488549618321,-114.94656488549619,-99.23664122137404
6262400175890,5.506739164,2,-6.291961962890625,-8.49103618774414,-1.916558428955078,-67.54961832061069,-57.18320610687023,-55.57251908396947
6262420212661,5.526775935,2,-4.2892122741699215,-8.002619049072266,-2.3223756103515623,-78.00763358778626,-37.16030534351145,-83.73282442748092
6262440205942,5.546769216,2,-4.96078583984375,-7.096413720703125,-3.8199487487792965,-136.793893129771,-137.50381679389312,-112.25190839694656
6262460215890,5.566779164,2,-4.375403533935547,-7.363367205810547,-5.483918902587891,-34.12977099236641,-170.70992366412213,-94.9618320610687
6262480227713,5.586790987,2,-4.177881896972656,-8.413224633789062,-4.7189714721679685,-24.908396946564885,-38.847328244274806,-56.48854961832061
6262500221619,5.606784893,2,-4.3059716857910155,-7.343016491699219,-3.7110125732421873,-39.534351145038165,35.50381679389313,-59.916030534351144
6262520222661,5.626785935,2,-3.400963458251953,-7.696161236572265,-3.9803602600097654,-10.931297709923664,2.1603053435114505,-58.79389312977099
6262540211099,5.646774373,2,0.24660277099609373,-6.574477758789062,-3.840299462890625,68.48091603053435,26.450381679389313,-68.3969465648855
6262560225213,5.666788487,2,-1.3527239379882812,-3.6188358093261717,-3.068169427490234,-81.76335877862596,26.3206106870229,-49.274809160305345
6262580214640,5.686777914,2,-0.16998831787109375,-3.9336733276367184,-3.421314172363281,43.603053435114504,35.48091603053435,44.63358778625954
6262600223234,5.706786508,2,-1.3359645263671873,-5.907692596435546,-3.812766143798828,94.9618320610687,35.2442748091603,152.12213740458014
6262620164536,5.72672781,2,-4.7943888244628905,-6.819883428955078,-3.1555577880859373,49.16030534351145,85.1526717557252,250.12977099236642
6262640222661,5.746785935,2,-9.591171850585937,-7.1778165771484375,-2.0446482177734375,79.0,142.0916030534351,250.12977099236642
6262660222088,5.766785362,2,-12.968193292236327,-8.725667950439453,-1.2425906616210938,40.6793893129771,112.58778625954199,250.12977099236642
6262680222661,5.786785935,2,-12.384008087158202,-9.952696301269532,-0.8068459594726562,79.10687022900764,129.34351145038167,219.9083969465649
6262700214067,5.806777341,2,-13.212401861572264,-8.042123376464843,0.181959326171875,-10.305343511450381,124.93129770992367,94.2824427480916
6262720220265,5.826783539,2,-13.350068457031249,-6.791153009033203,-1.0223241088867188,-48.88549618320611,-14.770992366412214,11.366412213740459
6262740207869,5.846771143,2,-11.730391033935547,-9.33379517211914,-2.7581203125,17.748091603053435,-106.31297709923665,-4.793893129770993
6262760212973,5.866776247,2,-8.294711651611328,-10.480617767333984,-4.608838195800781,24.48854961832061,-98.80152671755725,-52.152671755725194
6262780208755,5.886772029,2,-7.520187414550781,-7.410054138183593,-3.878606689453125,-72.61068702290076,9.541984732824428,-110.52671755725191
6262800220630,5.906783904,2,-7.18859048461914,-5.008669873046875,-3.125630267333984,-82.6412213740458,54.93893129770992,-128.93893129770993
6262820205526,5.9267688,2,-4.839878656005859,-5.365405920410156,-3.8103719421386715,-2.9770992366412212,9.587786259541986,-112.13740458015268
6262840216151,5.946779425,2,-3.9647979492187497,-4.936843823242187,-3.432088079833984,2.9160305343511452,24.53435114503817,-103.29007633587786
6262860226932,5.966790206,2,-3.573345977783203,-4.496310717773437,-3.0023288818359375,-7.66412213740458,52.70992366412214,-91.06870229007633
6262880220161,5.986783435,2,-4.1946413085937495,-5.7125651611328125,-2.481590020751953,-3.435114503816794,47.87786259541985,-62.19083969465649
6262900213546,6.00677682,2,-2.558204473876953,-7.067683300781249,-2.6850971618652344,63.541984732824424,31.0,-60.30534351145038
6262920219380,6.026782654,2,-0.5398924743652344,-6.809109521484374,-2.6420015319824217,11.48091603053435,10.931297709923664,-96.9618320610687
6262940207192,6.046770466,2,-0.45968671875,-3.9791631591796874,-2.5330653564453125,6.473282442748092,-21.419847328244273,-111.21374045801527
6262960219953,6.066783227,2,-1.649604943847656,-4.335899206542969,-2.319981408691406,-3.045801526717557,-32.847328244274806,-30.290076335877863
6262980220057,6.086783331,2,-2.8287492614746093,-6.471527087402343,-2.6491841369628903,83.20610687022901,-49.6412213740458,65.53435114503817
6263000230942,6.106794216,2,-5.604826086425781,-8.201337786865233,-2.710236279296875,44.3587786259542,-41.274809160305345,116.53435114503817
6263020225734,6.126789008,2,-7.144297753906249,-8.616731774902343,-2.5067291381835934,61.79389312977099,-32.88549618320611,111.56488549618321
6263040210369,6.146773643,2,-9.052476477050782,-9.063250384521483,-1.927332336425781,30.17557251908397,-9.13740458015267,102.95419847328245
6263060208807,6.166772081,2,-9.95389340209961,-9.731232647705077,-1.8435352783203125,42.06106870229008,-11.312977099236642,92.8854961832061
6263080208598,6.186771872,2,-11.47899985961914,-10.505756884765624,-2.109291662597656,40.603053435114504,-31.9618320610687,75.90076335877863
6263100198025,6.206761299,2,-12.018892333984374,-10.54047280883789,-1.0857704528808594,26.946564885496183,51.045801526717554,39.038167938931295
6263120216463,6.226779737,2,-10.54047280883789,-8.898050469970702,-1.1647791076660157,-15.351145038167939,41.458015267175576,-42.29007633587786
6263140233494,6.246796768,2,-7.687781530761718,-8.175001568603514,-2.1344307800292968,-30.427480916030536,-1.5267175572519085,-85.1526717557252
6263160222661,6.266785935,2,-6.160280871582031,-8.488641986083984,-2.3151930053710936,-4.977099236641221,20.549618320610687,-64.76335877862596
6263180209588,6.286772862,2,-5.839457849121094,-8.737638958740234,-1.4532804077148436,-13.114503816793894,74.1526717557252,-45.10687022900763
6263200212557,6.306775831,2,-5.622782598876952,-7.5153990112304685,-0.8559270935058593,-39.954198473282446,71.04580152671755,-68.30534351145039
6263220198911,6.326762185,2,-4.623203405761719,-5.9017070922851556,-1.7010802795410156,-63.80916030534351,-16.083969465648856,-107.9618320610687
6263240206411,6.346769685,2,-3.3494881225585935,-5.559336254882812,-2.8502970764160156,-35.9236641221374,-68.68702290076335,-109.25954198473282
6263260210109,6.366773383,2,-2.5151088439941405,-5.347449407958984,-3.2812533752441406,-20.793893129770993,-54.57251908396947,-99.29770992366412
6263280211515,6.386774789,2,-1.9225439331054686,-5.315127685546875,-3.314772198486328,-30.068702290076335,-35.50381679389313,-92.99236641221374
6263300207400,6.406770674,2,-1.5310919616699217,-4.650736724853515,-3.622427111816406,-2.3053435114503817,-49.916030534351144,-87.22900763358778
6263320202869,6.426766143,2,-1.4772224243164063,-4.746504791259765,-3.6535517333984373,-4.419847328244275,-38.3206106870229,-56.458015267175576
6263340211723,6.446774997,2,-1.0031704956054688,-5.655104321289063,-3.9647979492187497,29.702290076335878,-30.541984732824428,-8.98473282442748
6263360217088,6.466780362,2,-1.4592659118652342,-6.066907006835937,-3.8187516479492185,40.229007633587784,-10.572519083969466,34.229007633587784
6263380209015,6.486772289,2,-3.976768957519531,-7.143100653076171,-3.116053460693359,37.030534351145036,38.89312977099237,94.17557251908397
6263400215161,6.506778435,2,-5.586869573974609,-8.941146099853515,-2.3822306518554686,91.1145038167939,60.38167938931298,134.25954198473283
6263420200577,6.526763851,2,-7.850587243652344,-9.665392102050781,-1.419761584472656,69.93129770992367,62.51908396946565,126.83969465648855
6263440214119,6.546777393,2,-8.81664761352539,-10.05564697265625,-0.9947907897949219,56.0763358778626,33.12977099236641,100.57251908396947
6263460298234,6.566861508,2,-8.005013250732421,-10.352527978515624,-0.44532150878906246,64.3206106870229,42.725190839694655,67.12213740458016
6263480214067,6.586777341,2,-7.730877160644531,-9.469067565917967,0.143652099609375,12.076335877862595,54.48854961832061,31.18320610687023
6263500207765,6.606771039,2,-7.311891870117187,-8.486247784423828,0.34237083740234375,-3.312977099236641,33.47328244274809,4.015267175572519
6263520217400,6.626780674,2,-6.809109521484374,-8.546102825927735,-0.10175357055664062,-11.664122137404581,-15.236641221374045,-7.1603053435114505
6263540210994,6.646774268,2,-6.05852730102539,-8.628702783203124,-0.6739677673339843,-10.80916030534351,-38.63358778625954,-20.053435114503817
6263560293806,6.66685708,2,-5.009866973876953,-7.923610394287109,-1.2737152832031249,-32.213740458015266,-61.54961832061068,-41.67175572519084
6263580195056,6.68675833,2,-4.520252734375,-6.949170318603516,-1.5741875915527344,-47.68702290076336,-58.603053435114504,-44.69465648854962
6263600215369,6.706778643,2,-4.886565588378906,-6.467935784912109,-2.117671368408203,-34.81679389312977,-62.23664122137404,-18.61832061068702
6263620213650,6.726776924,2,-6.083666418457031,-7.255628131103515,-2.6815058593749996,-22.938931297709924,-65.86259541984732,20.65648854961832
6263640152088,6.746715362,2,-6.92043989868164,-8.256404425048828,-2.6312276245117188,-3.4198473282442747,-32.12977099236641,41.25190839694657
6263660300473,6.766863747,2,-6.982689141845703,-8.386888415527343,-2.110488763427734,-14.007633587786259,15.19083969465649,23.946564885496183
6263680226150,6.786789424,2,-6.381744525146484,-7.501033801269531,-1.7034744812011717,-30.366412213740457,15.580152671755725,-13.679389312977099
6263700206619,6.806769893,2,-6.196193896484375,-6.400898138427734,-2.3630770385742186,-24.81679389312977,-40.06870229007634,-35.12213740458015
6263720214848,6.826778122,2,-5.749675286865234,-6.9898717468261715,-2.916137622070312,-6.709923664122138,-52.29770992366412,-20.717557251908396
6263740208963,6.846772237,2,-5.373785626220703,-7.510610607910156,-2.4875755249023435,12.511450381679388,-0.10687022900763359,-7.251908396946565
6263760223234,6.866786508,2,-4.96078583984375,-6.4655415832519525,-2.2828712829589843,-13.022900763358779,-5.404580152671755,-27.47328244274809
6263780210629,6.886773903,2,-4.10485874633789,-5.346252307128906,-3.1830911071777344,13.954198473282442,-70.58015267175573,-44.47328244274809
6263800211202,6.906774476,2,-3.499125726318359,-4.826710546875,-3.755305303955078,29.49618320610687,-82.67175572519083,-26.64885496183206
6263820210056,6.92677333,2,-4.679467144775391,-5.735310076904296,-3.564966271972656,64.46564885496183,-31.53435114503817,39.2442748091603
6263840213338,6.946776612,2,-7.79552060546875,-9.129090930175781,-2.8514941772460936,121.6412213740458,37.70229007633588,151.1908396946565
6263860202661,6.966765935,2,-10.510545288085936,-9.727641345214844,-1.5203180541992187,132.87022900763358,116.14503816793894,151.01526717557252
6263880217921,6.986781195,2,-9.415198028564452,-9.302670550537108,-0.0430956298828125,87.27480916030534,174.38931297709922,64.29770992366412
6263900220161,7.006783435,2,-7.240065820312499,-7.8900915710449215,1.0809820495605469,114.25954198473282,160.9618320610687,-2.5572519083969465
6263920215421,7.026778695,2,-6.762422589111328,-7.156268762207031,1.6232687255859375,77.93129770992367,113.41984732824427,-17.786259541984734
6263940213025,7.046776299,2,-7.934384301757812,-6.930016705322266,1.8291700683593748,84.04580152671755,68.29007633587786,1.2442748091603053
6263960328650,7.066891924,2,-8.755595471191405,-8.54849702758789,1.926135235595703,71.29770992366412,41.18320610687023,21.61832061068702
6263980206306,7.08676958,2,-9.068038787841797,-8.504204296874999,1.6304513305664061,41.152671755725194,-2.9389312977099236,-16.610687022900763
6264000206463,7.106769737,2,-8.252813122558594,-8.500612994384765,0.5195417602539062,-32.37404580152672,-72.95419847328245,-65.38167938931298
6264020196827,7.126760101,2,-5.346252307128906,-7.906850982666016,-0.612915625,1.9770992366412214,-106.91603053435115,-92.95419847328245
6264040201775,7.146765049,2,-5.893327386474609,-7.4579381713867186,-0.4321533996582031,-55.9236641221374,-47.786259541984734,-62.603053435114504
6264060287244,7.166850518,2,-6.9719152343749995,-8.476670977783202,-0.44053310546874996,-18.31297709923664,-9.80916030534351,-0.5419847328244275
6264080208025,7.186771299,2,-7.138312249755859,-9.961076007080077,-0.062249243164062495,-14.65648854961832,14.465648854961833,8.412213740458014
6264100197921,7.206761195,2,-5.38815083618164,-9.124302526855468,0.24779987182617186,-24.793893129770993,30.916030534351144,-42.0
6264120191202,7.226754476,2,-4.458003491210937,-7.199364392089843,0.718260498046875,-59.38931297709924,42.0763358778626,-82.14503816793894
6264140170369,7.246733643,2,-3.5110967346191404,-6.0896519226074215,0.5997475158691405,-53.51145038167939,15.389312977099237,-78.23664122137404
6264160210369,7.266773643,2,-3.5122938354492184,-5.896918688964844,0.12090718383789062,-59.42748091603053,-23.297709923664122,-55.68702290076336
6264180230577,7.286793851,2,-3.456030096435547,-5.755660791015624,-1.3778630554199218,-68.50381679389314,-99.83969465648855,-46.06870229007634
6264200208546,7.30677182,2,-3.5901053894042967,-5.6395420104980465,-2.7904420349121093,-50.11450381679389,-148.09923664122138,-41.33587786259542
6264220213910,7.326777184,2,-2.8383260681152342,-5.699397052001952,-3.563769171142578,-40.916030534351144,-112.49618320610686,-34.80916030534351
6264240211775,7.346775049,2,-2.6886884643554687,-5.494692810058593,-3.73495458984375,-28.30534351145038,-74.63358778625954,-29.732824427480917
6264260256983,7.366820257,2,-2.5953145996093747,-5.807136126708984,-3.6200329101562496,15.061068702290076,-25.16793893129771,4.106870229007634
6264280212921,7.386776195,2,-4.453215087890625,-6.804321118164062,-2.2924480895996093,32.732824427480914,49.0763358778626,58.038167938931295
6264300204171,7.406767445,2,-5.955576629638672,-8.538920220947265,-0.8128314636230468,60.152671755725194,115.86259541984732,106.7175572519084
6264320207192,7.426770466,2,-8.453926062011718,-9.464279162597656,0.7625532287597656,63.20610687022901,128.83969465648855,113.77862595419847
6264340202504,7.446765778,2,-9.203311181640624,-10.503362683105468,1.2904746948242187,41.587786259541986,68.80152671755725,89.16793893129771
6264360211306,7.46677458,2,-10.044873065185547,-10.493785876464843,0.3938461730957031,35.41984732824427,-20.717557251908396,58.52671755725191
6264380161046,7.48672432,2,-10.44470474243164,-10.714052429199219,-0.00718260498046875,-1.9312977099236641,-13.15267175572519,36.45038167938932
6264400212192,7.506775466,2,-8.662221606445312,-10.03050785522461,-0.18076222534179687,-14.19083969465649,15.045801526717558,-14.67175572519084
6264420207660,7.526770934,2,-7.062894897460937,-7.943961108398437,-0.08259995727539061,-60.55725190839695,15.98473282442748,-74.52671755725191
6264440206462,7.546769736,2,-5.5258174316406246,-6.619967590332031,-0.3172317199707031,-50.67175572519084,-7.259541984732825,-85.89312977099236
6264460199639,7.566762913,2,-5.1511248718261715,-7.175422375488281,-0.7134720947265625,-33.770992366412216,-30.259541984732824,-46.10687022900763
6264480214275,7.586777549,2,-6.640318304443359,-7.752424975585937,-1.6699556579589843,-36.6412213740458,-64.74809160305344,-12.312977099236642
6264500205212,7.606768486,2,-6.768408093261718,-7.8721350585937495,-2.7581203125,-35.87022900763359,-77.38167938931298,-16.3206106870229
6264520201254,7.626764528,2,-5.944802722167968,-7.162254266357421,-2.701856573486328,-42.51145038167939,-24.38167938931298,-38.87786259541985
6264540206254,7.646769528,2,-4.939238024902344,-6.6510922119140625,-2.558204473876953,-54.79389312977099,7.99236641221374,-49.88549618320611
6264560207348,7.666770622,2,-3.7385458923339843,-6.779182000732422,-2.1212626708984375,-10.122137404580153,35.80152671755725,-39.396946564885496
6264580207400,7.686770674,2,-3.3482910217285156,-6.72890376586914,-1.2808978881835937,-12.053435114503817,59.404580152671755,-31.47328244274809
6264600205681,7.706768955,2,-2.43250888671875,-6.477512591552734,-0.8032546569824218,-2.213740458015267,56.099236641221374,-41.83969465648855
6264620197817,7.726761091,2,-1.43652099609375,-6.439205364990234,-0.6967126831054687,7.3816793893129775,31.83969465648855,-52.23664122137404
6264640207712,7.746770986,2,-0.852335791015625,-5.723339068603515,-0.7936778503417968,26.778625954198475,2.7404580152671754,-56.343511450381676
6264660201202,7.766764476,2,-0.63206923828125,-5.760449194335937,-0.6679822631835937,32.099236641221374,-0.9083969465648855,-26.229007633587788
6264680207139,7.786770413,2,-2.4301146850585935,-6.1279591491699215,-0.34117373657226563,35.52671755725191,12.992366412213741,41.33587786259542
6264700204952,7.806768226,2,-6.891709478759765,-8.00022484741211,-0.48243163452148435,16.251908396946565,-19.290076335877863,126.52671755725191
6264720207608,7.826770882,2,-10.467449658203124,-10.897208856201171,-1.2665326782226562,70.5114503816794,-89.65648854961832,170.2290076335878
6264740201098,7.846764372,2,-13.332111944580078,-12.84489190673828,-1.811213555908203,58.14503816793893,-87.79389312977099,153.78625954198472
6264760199431,7.866762705,2,-13.352462658691405,-13.346477154541015,-1.456871710205078,18.290076335877863,6.129770992366412,82.87022900763358
6264780209744,7.886773018,2,-10.497377178955077,-11.133037719726563,-0.4572925170898437,-8.557251908396946,103.42748091603053,-34.587786259541986
6264800215994,7.906779268,2,-8.148665350341796,-7.79552060546875,0.2059013427734375,-73.77862595419847,109.07633587786259,-116.25190839694656
6264820211254,7.926774528,2,-5.203797308349609,-7.114370233154297,0.08499415893554688,-28.83206106870229,55.587786259541986,-115.93893129770993
6264840200056,7.94676333,2,-4.541800549316406,-7.278373046874999,-0.18914193115234373,-12.038167938931299,1.748091603053435,-74.93893129770993
6264860202712,7.966765986,2,-4.894945294189453,-7.396886029052734,-0.8116343627929687,-32.69465648854962,-31.870229007633586,-52.42748091603053
6264880197452,7.986760726,2,-3.9935283691406247,-7.517793212890624,-1.4449007019042968,-25.412213740458014,-52.02290076335878,-56.49618320610687
6264900218493,8.006781767,2,-3.418919970703125,-6.781576202392578,-2.157175695800781,-35.70229007633588,-56.06106870229008,-68.3587786259542
6264920202973,8.026766247,2,-2.384624853515625,-6.228515618896484,-2.184709014892578,-33.68702290076336,-21.106870229007633,-65.29770992366412
6264940199171,8.046762445,2,-1.3371616271972655,-5.9783215454101555,-1.8806454040527343,-22.19083969465649,9.259541984732824,-52.534351145038165
6264960214066,8.06677734,2,-1.0235212097167967,-5.533000036621093,-1.4820108276367188,-16.045801526717558,24.65648854961832,-36.969465648854964
6264980203233,8.086766507,2,-0.8547299926757812,-5.310339282226562,-1.4317325927734375,-11.01526717557252,4.809160305343512,-19.259541984732824
6265000220837,8.106784111,2,-1.695094775390625,-5.267243652343749,-1.6938976745605467,11.49618320610687,-31.671755725190838,7.885496183206107
6265020227556,8.12679083,2,-2.8227637573242186,-6.451176373291015,-2.038662713623047,19.83969465648855,-42.267175572519086,49.732824427480914
6265040220629,8.146783903,2,-4.491522314453125,-7.693767034912109,-2.098517755126953,41.44274809160305,-26.442748091603054,82.61068702290076
6265060204118,8.166767392,2,-5.973533142089844,-8.698134631347656,-1.7322049011230467,37.36641221374046,4.740458015267175,97.01526717557252
6265080217243,8.186780517,2,-8.643067993164061,-8.382100012207031,-1.2725181823730467,30.793893129770993,17.19083969465649,90.54961832061069
6265100240941,8.206804215,2,-9.925162982177733,-10.552443817138672,-1.3431471313476562,37.458015267175576,-23.27480916030534,102.31297709923665
6265120212400,8.226775674,2,-11.384428894042967,-11.821370697021484,-1.350329736328125,82.48091603053435,-30.00763358778626,97.7175572519084
6265140217868,8.246781142,2,-11.378443389892578,-12.733561529541015,-0.4070142822265625,37.10687022900763,70.4885496183206,68.87022900763358
6265160219170,8.266782444,2,-9.367313995361327,-10.803834991455078,0.9217676391601562,15.900763358778626,137.63358778625954,-20.12213740458015
6265180221514,8.286784788,2,-7.247248425292969,-8.122329132080077,1.4341267944335936,-64.27480916030534,111.19847328244275,-98.80152671755725
6265200217243,8.306780517,2,-4.946420629882812,-6.508637213134765,0.6189011291503906,-31.114503816793892,1.5114503816793894,-116.51908396946565
6265220204014,8.326767288,2,-4.523844036865234,-6.949170318603516,-0.5482721801757812,-35.534351145038165,-72.8854961832061,-73.89312977099236
6265240204795,8.346768069,2,-4.96078583984375,-7.547720733642578,-1.85790048828125,-17.557251908396946,-111.97709923664122,-43.88549618320611
6265260206670,8.366769944,2,-4.151545678710937,-7.493851196289062,-2.549824768066406,-28.045801526717558,-79.21374045801527,-51.954198473282446
6265280221827,8.386785101,2,-3.35188232421875,-6.5409589355468745,-2.5378537597656248,-50.12977099236641,-38.404580152671755,-71.72519083969466
6265300218129,8.406781403,2,-2.031480108642578,-5.91846650390625,-2.147598889160156,-27.793893129770993,-3.114503816793893,-71.09923664122137
6265320212400,8.426775674,2,-1.2018892333984375,-5.483918902587891,-1.8830396057128904,-11.488549618320612,4.251908396946565,-53.61068702290076
6265340211097,8.446774371,2,-1.5729904907226562,-5.309142181396484,-1.695094775390625,-4.145038167938932,-2.2213740458015265,-20.053435114503817
6265360208858,8.466772132,2,-2.1440075866699217,-6.216544610595703,-1.7645266235351562,27.106870229007633,-8.404580152671755,22.49618320610687
6265380232608,8.486795882,2,-3.094505645751953,-6.963535528564453,-1.495178936767578,34.70992366412214,9.48091603053435,54.23664122137404
6265400211254,8.506774528,2,-4.880580084228515,-7.677007623291015,-0.9457096557617187,25.27480916030534,33.282442748091604,74.5114503816794
6265420216254,8.526779528,2,-6.731297967529296,-8.842983831787109,-0.6081272216796875,43.02290076335878,2.282442748091603,94.22137404580153
6265440214795,8.546778069,2,-8.681375219726561,-10.49498297729492,-0.5602431884765625,69.7557251908397,-28.931297709923665,105.29770992366412
6265460204952,8.566768226,2,-10.319009155273436,-11.998541619873047,-0.277727392578125,57.55725190839695,-6.106870229007634,100.54198473282443
6265480214795,8.586778069,2,-11.219228979492186,-12.237961785888672,-0.086191259765625,37.93893129770992,17.15267175572519,62.54961832061068
6265500199170,8.606762444,2,-10.24000050048828,-11.304223138427734,0.4584896179199218,13.67175572519084,72.26717557251908,2.1374045801526718
6265520218754,8.626782028,2,-7.758410479736328,-9.313444458007812,1.3634978454589843,-32.19847328244275,125.33587786259542,-65.25954198473282
6265540207608,8.646770882,2,-5.528211633300781,-7.212532501220703,1.6424223388671875,-67.23664122137404,89.08396946564885,-117.58778625954199
6265560219274,8.666782548,2,-3.949235638427734,-5.9783215454101555,0.8846575134277344,-51.06870229007634,-16.770992366412212,-121.6793893129771
6265580210785,8.686774059,2,-4.127603662109375,-6.208164904785156,-1.1647791076660157,-50.954198473282446,-146.12213740458014,-83.05343511450381
6265600215212,8.706778486,2,-5.099649536132812,-7.930792999267577,-3.2142157287597652,-27.221374045801525,-196.40458015267177,-26.732824427480917
6265620207139,8.726770413,2,-5.577292767333984,-9.719261639404296,-4.064157318115234,-5.343511450381679,-125.90076335877863,1.0076335877862594
6265640215577,8.746778851,2,-4.651933825683593,-8.993818536376953,-3.72178648071289,-19.17557251908397,-14.290076335877863,-30.51145038167939
6265660159483,8.766722757,2,-2.952050646972656,-7.077260107421875,-1.9237410339355467,-39.74809160305343,111.18320610687023,-65.68702290076335
6265680318337,8.786881611,2,-1.964442462158203,-5.555744952392578,-0.5374982727050781,-20.81679389312977,138.25954198473283,-62.18320610687023
6265700223233,8.806786507,2,-1.1336544860839843,-5.512649322509765,-0.17477672119140625,-5.358778625954199,86.08396946564885,-27.53435114503817
6265720220316,8.82678359,2,-0.6955155822753906,-5.872976672363281,-0.5147533569335937,15.511450381679388,20.0,-1.2213740458015268
6265740211827,8.846775101,2,-1.4449007019042968,-6.0513446960449215,-0.9864110839843749,1.5572519083969465,-15.0,23.923664122137403
6265760217347,8.866780621,2,-1.9512743530273435,-6.48589229736328,-1.265335577392578,14.213740458015268,-27.38167938931298,69.22137404580153
6265780297347,8.886860621,2,-2.6563667419433594,-6.985083343505859,-1.3754688537597655,22.893129770992367,-5.893129770992366,102.09923664122137
6265800217035,8.906780309,2,-5.954379528808594,-8.179789971923828,-0.7709329345703124,22.69465648854962,-17.282442748091604,147.206106870229
6265820204379,8.926767653,2,-10.614693060302734,-9.964667309570311,-1.4425065002441406,74.99236641221374,-102.07633587786259,198.10687022900763
6265840220316,8.94678359,2,-14.79257495727539,-13.32373223876953,-1.456871710205078,92.58015267175573,-65.78625954198473,148.87022900763358
6265860204274,8.966767548,2,-15.344438439941406,-15.44978331298828,-0.51714755859375,86.2442748091603,55.19083969465649,-34.68702290076336
6265880326774,8.986890048,2,-12.518083380126953,-12.123040106201172,0.7386112121582031,6.290076335877862,157.33587786259542,-187.2290076335878
6265900217660,9.006780934,2,-8.57962164916992,-7.594407666015624,1.4987702392578124,-124.80152671755725,157.0,-220.65648854961833
6265920217556,9.02678083,2,-4.247313745117188,-5.2648494506835934,0.9995791931152344,-56.916030534351144,38.458015267175576,-166.10687022900763
6265940202139,9.046765413,2,-2.1344307800292968,-5.164292980957031,-0.20350714111328125,-39.83206106870229,-71.94656488549619,-98.03053435114504
6265960196670,9.066759944,2,-1.811213555908203,-5.728127471923828,-1.8830396057128904,-45.404580152671755,-134.87786259541986,-54.42748091603053
6265980196097,9.086759371,2,-1.7788918334960937,-6.481103894042969,-3.228580938720703,-33.86259541984733,-139.6946564885496,-31.671755725190838
6266000198597,9.106761871,2,-1.9572598571777342,-6.616376287841796,-3.775656018066406,-33.48091603053435,-0.22137404580152673,-24.99236641221374
6266020172660,9.126735934,2,-1.274912384033203,-6.562506750488281,-3.373430139160156,-14.16030534351145,83.90839694656489,-20.946564885496183
6266040228493,9.146791767,2,-0.5446808776855468,-5.872976672363281,-1.8411410766601561,5.290076335877862,108.66412213740458,-2.5801526717557253
6266060210420,9.166773694,2,-0.7218518005371093,-5.384559533691406,-0.6775590698242188,1.2366412213740459,77.52671755725191,35.87022900763359
6266080219587,9.186782861,2,-1.2413935607910156,-5.5078609191894525,0.13287819213867186,37.19847328244275,25.30534351145038,82.87022900763358
6266100210524,9.206773798,2,-3.0322564025878904,-6.938396411132812,0.05027823486328125,22.27480916030534,-54.25954198473283,113.56488549618321
6266120181253,9.226744527,2,-5.521029028320312,-8.584410052490234,-0.86191259765625,47.18320610687023,-73.37404580152672,134.26717557251908
6266140207764,9.246771038,2,-8.431181146240235,-10.723629235839843,-1.2318167541503906,45.86259541984733,-93.62595419847328,123.3206106870229
6266160174222,9.266737496,2,-11.79862578125,-11.309011541748045,-1.629254229736328,45.38931297709924,-45.80152671755725,103.87786259541984
6266180233753,9.286797027,2,-13.190854046630859,-12.667720983886719,-1.7836802368164062,27.404580152671755,37.79389312977099,30.458015267175572
6266200224326,9.3067876,2,-11.91953296508789,-12.251129895019531,-1.3587094421386718,-35.70992366412214,117.58015267175573,-70.40458015267176
6266220212868,9.326776142,2,-9.108740216064453,-9.89523546142578,-0.20829554443359374,-56.19083969465649,90.5114503816794,-131.6946564885496
6266240222503,9.346785777,2,-6.412869146728515,-7.313088970947265,0.2059013427734375,-14.473282442748092,8.885496183206106,-124.0381679389313
6266260254691,9.366817965,2,-4.314351391601562,-6.41646044921875,-0.1352723937988281,-15.633587786259541,-63.06870229007634,-84.06106870229007
6266280210160,9.386773434,2,-3.4763808105468748,-6.946776116943359,-1.13006318359375,1.9389312977099236,-87.05343511450381,-40.70229007633588
6266300203701,9.406766975,2,-3.7900212280273435,-7.6997525390625,-2.1883003173828124,-4.068702290076335,-24.0,-16.17557251908397
6266320211410,9.426774684,2,-3.6858734558105466,-8.434772448730468,-2.365471240234375,-14.076335877862595,54.35114503816794,-26.984732824427482
6266340208024,9.446771298,2,-2.906560815429687,-7.677007623291015,-1.5634136840820312,-28.587786259541986,103.54198473282443,-40.099236641221374
6266360212764,9.466776038,2,-2.232593048095703,-6.342240197753906,-0.5123591552734374,-20.580152671755727,86.46564885496183,-45.00763358778626
6266380224430,9.486787704,2,-1.0534487304687499,-5.65031591796875,0.06943184814453125,-21.603053435114504,29.50381679389313,-39.64885496183206
6266400238805,9.506802079,2,-0.5781997009277343,-5.046977099609375,-0.09337386474609374,4.458015267175573,-26.221374045801525,-17.748091603053435
6266420213337,9.526776611,2,-0.033518823242187495,-5.221753820800781,-0.565031591796875,7.572519083969466,-65.12213740458016,15.229007633587786
6266440222920,9.546786194,2,-1.005564697265625,-5.762843395996094,-2.1416133850097654,32.55725190839695,-104.66412213740458,68.80916030534351
6266460202972,9.566766246,2,-2.978386865234375,-7.036558679199218,-2.527079852294922,50.97709923664122,-81.58778625954199,128.22137404580153
6266480213701,9.586776975,2,-6.391321331787109,-8.646659295654297,-1.9692308654785156,32.33587786259542,-27.65648854961832,180.40458015267177
6266500215368,9.606778642,2,-10.74517705078125,-11.396399902343749,-1.668758557128906,102.47328244274809,-28.66412213740458,176.46564885496184
6266520203910,9.626767184,2,-13.684059588623047,-13.150152618408203,-0.23104046020507812,74.42748091603053,91.12213740458016,105.41221374045801
6266540209430,9.646772704,2,-13.686453790283203,-14.301763616943358,1.5346832641601562,2.954198473282443,180.95419847328245,-34.0
6266560217660,9.666780934,2,-10.89122335205078,-11.75433305053711,1.956062756347656,-49.88549618320611,123.7557251908397,-140.99236641221373
6266580208649,9.686771923,2,-7.606378674316406,-8.130708837890625,1.4724340209960938,-43.412213740458014,38.3587786259542,-148.23664122137404
6266600213545,9.706776819,2,-4.656722229003906,-6.947973217773437,0.4836287353515625,-33.83206106870229,-48.099236641221374,-114.72519083969466
6266620209587,9.726772861,2,-3.2333693420410152,-6.675034228515624,-1.1264718811035155,-41.68702290076336,-124.16793893129771,-80.61068702290076
6266640214326,9.7467776,2,-3.299209887695312,-6.509834313964843,-2.5007436340332028,-46.778625954198475,-140.38167938931298,-56.70229007633588
6266660205524,9.766768798,2,-3.3877953491210935,-6.874950067138672,-3.355473626708984,-37.3206106870229,-104.80152671755725,-42.0
6266680197399,9.786760673,2,-2.962824554443359,-6.513425616455078,-3.417722869873047,-30.603053435114504,-42.038167938931295,-34.01526717557252
6266700228597,9.806791871,2,-2.47081611328125,-5.77122310180664,-2.778471026611328,-20.114503816793892,22.52671755725191,-27.14503816793893
6266720225107,9.826788381,2,-1.924938134765625,-5.6958057495117185,-1.8339584716796873,-4.099236641221374,69.01526717557252,-10.450381679389313
6266740217503,9.846780777,2,-1.159990704345703,-5.409698651123047,-0.8978256225585937,13.053435114503817,76.70992366412214,7.526717557251908
6266760212451,9.866775725,2,-1.0594342346191405,-5.653907220458984,-0.29568390502929687,10.786259541984732,61.00763358778626,32.7557251908397
6266780217868,9.886781142,2,-1.638831036376953,-6.3147068786621094,-0.1927332336425781,31.33587786259542,22.770992366412212,59.48091603053435
6266800224482,9.906787756,2,-2.4851813232421875,-7.669825018310546,-0.7110778930664062,30.27480916030534,-29.732824427480917,97.78625954198473
6266820210993,9.926774267,2,-4.689043951416015,-10.00417163696289,-0.9816226806640624,32.16030534351145,-77.43511450381679,141.06870229007635
6266840208076,9.94677135,2,-8.719682446289061,-12.279860314941406,-1.8339584716796873,85.90076335877863,-127.13740458015268,147.5801526717557
6266860245732,9.966809006,2,-11.322179650878905,-14.121001391601562,-1.4185644836425781,83.54198473282443,-39.87022900763359,136.74045801526717
6266880218128,9.986781402,2,-13.423091607666015,-13.266271398925781,0.07900865478515624,40.152671755725194,106.91603053435115,51.091603053435115
6266900210003,10.006773277,2,-12.895170141601561,-10.110713610839843,1.6699556579589843,-30.671755725190838,194.36641221374046,-67.66412213740458
6266920204326,10.0267676,2,-7.241262921142578,-7.832630731201172,2.1918916198730467,-58.47328244274809,139.41221374045801,-132.5114503816794
6266940164274,10.046727548,2,-4.434061474609375,-6.561309649658202,1.3180080139160155,-30.0381679389313,6.893129770992366,-144.93893129770993
6266960212764,10.066776038,2,-3.6739024475097652,-6.523002423095702,-0.08020575561523437,-60.58015267175573,-95.4885496183206,-114.89312977099236
6266980212451,10.086775725,2,-3.8798037902832028,-6.260837341308593,-2.2732944763183593,-41.89312977099237,-180.95419847328245,-79.93129770992367
6267000204691,10.106767965,2,-3.6451720275878903,-6.868964562988281,-3.7505169006347656,-65.53435114503817,-170.1908396946565,-60.961832061068705
6267020217555,10.126780829,2,-2.896984008789062,-6.53138212890625,-4.2688615600585935,-37.10687022900763,-91.87022900763358,-54.030534351145036
6267040239639,10.146802913,2,-1.7681179260253905,-6.171054779052734,-3.796006732177734,-31.46564885496183,-4.396946564885496,-47.541984732824424
6267060205732,10.166769006,2,-1.052251629638672,-5.295974072265625,-2.6048914062499997,-3.4885496183206106,70.8473282442748,-38.42748091603053
6267080210420,10.186773694,2,-0.6607996582031249,-5.2444987365722655,-1.668758557128906,4.603053435114504,94.29770992366412,-9.870229007633588
6267100307191,10.206870465,2,-0.9995791931152344,-5.467159490966797,-0.5542576843261718,37.656488549618324,99.78625954198473,20.31297709923664
6267120222607,10.226785881,2,-1.8519149841308593,-6.112396838378906,0.21308394775390624,42.54961832061068,72.27480916030534,53.87022900763359
6267140212659,10.246775933,2,-4.1958384094238275,-7.095216619873047,0.201112939453125,39.37404580152672,19.72519083969466,85.70992366412214
6267160210628,10.266773902,2,-7.138312249755859,-10.006565838623047,-0.19033903198242186,60.19847328244275,-52.404580152671755,131.27480916030535
6267180228232,10.286791506,2,-11.119869610595703,-11.89439384765625,-1.2138602416992186,112.58778625954199,-136.36641221374046,148.87786259541986
6267200226149,10.306789423,2,-14.215572357177734,-13.772645050048828,-1.2378022583007813,72.59541984732824,-65.74809160305344,153.29007633587787
6267220218024,10.326781298,2,-13.759476940917969,-14.463372229003905,-0.2346317626953125,66.10687022900764,59.67175572519084,81.12977099236642
6267240207243,10.346770517,2,-10.641029278564453,-10.913968267822264,1.3395558288574219,-7.282442748091603,185.6412213740458,-64.06870229007633
6267260211618,10.366774892,2,-7.277175946044921,-7.279570147705078,2.346317626953125,-97.92366412213741,173.36641221374046,-161.06870229007635
6267280220836,10.38678411,2,-3.7241806823730466,-5.77122310180664,1.7369933044433592,-36.045801526717554,35.900763358778626,-177.72519083969465
6267300461982,10.407025256,2,-2.422932080078125,-5.699397052001952,0.23104046020507812,-40.54961832061068,-93.94656488549619,-134.76335877862596
6267320235472,10.426798746,2,-2.280477081298828,-6.100425830078125,-1.9009961181640624,-25.236641221374047,-175.3969465648855,-89.16030534351145
6267340210420,10.446773694,2,-1.8291700683593748,-7.077260107421875,-3.1938650146484373,-23.603053435114504,-142.4885496183206,-51.48854961832061
6267360586618,10.467149892,2,-1.1635820068359375,-6.572083557128906,-3.21780703125,-24.96946564885496,-49.48854961832061,-41.66412213740458
6267380221670,10.486784944,2,-0.958877764892578,-5.473144995117187,-2.109291662597656,-28.442748091603054,50.847328244274806,-28.03053435114504
6267400227763,10.506791037,2,-1.2282254516601563,-5.6311623046875,-1.0558429321289062,-6.99236641221374,84.34351145038168,15.129770992366412
6267420170888,10.526734162,2,-2.588131994628906,-6.813897924804687,-0.4991910461425781,25.435114503816795,81.64885496183206,73.04580152671755
6267440220055,10.546783329,2,-4.151545678710937,-8.534131817626953,0.06703764648437499,22.96946564885496,69.17557251908397,105.42748091603053
6267460220420,10.566783694,2,-5.110423443603516,-9.17458076171875,0.29448680419921874,22.435114503816795,39.18320610687023,88.08396946564885
6267480207868,10.586771142,2,-6.839037042236328,-8.580818749999999,0.48123453369140623,-17.9618320610687,16.480916030534353,55.847328244274806
6267500210524,10.606773798,2,-6.858190655517578,-9.047688073730468,-0.6596025573730468,-10.312977099236642,-92.4885496183206,29.572519083969464
6267520222503,10.626785777,2,-6.931213806152344,-9.323021264648437,-2.1703438049316404,34.74809160305343,-159.50381679389312,19.404580152671755
6267540206253,10.646769527,2,-8.453926062011718,-10.060435375976562,-2.5258827514648434,8.259541984732824,-90.8854961832061,45.16030534351145
6267560200992,10.666764266,2,-9.72285294189453,-10.635043774414061,-1.9093758239746093,31.15267175572519,6.0,58.16793893129771
6267580207086,10.68677036,2,-9.885658654785155,-10.93072767944336,-0.5829881042480468,16.633587786259543,96.44274809160305,38.38931297709924
6267600227659,10.706790933,2,-7.830236529541015,-10.001777435302733,0.42377369384765623,8.282442748091603,131.6793893129771,-17.427480916030536
6267620228284,10.726791558,2,-6.562506750488281,-8.611943371582031,1.158793603515625,-36.80916030534351,100.53435114503817,-63.66412213740458
6267640220211,10.746783485,2,-5.1882349975585935,-7.592013464355468,0.8870517150878906,-19.862595419847327,27.374045801526716,-77.73282442748092
6267660201097,10.766764371,2,-4.035426898193359,-7.669825018310546,0.15203180541992187,-41.274809160305345,-28.061068702290076,-73.19847328244275
6267680215940,10.786779214,2,-2.959233251953125,-6.979097839355468,-0.7326257080078125,-28.793893129770993,-66.51908396946565,-77.1526717557252
6267700211774,10.806775048,2,-1.9536685546875,-6.4272343566894525,-1.6053122131347655,-47.48091603053435,-76.8854961832061,-74.87022900763358
6267720220732,10.826784006,2,-1.4030021728515625,-5.7149593627929685,-2.0925322509765625,-36.79389312977099,-61.961832061068705,-61.343511450381676
6267740171149,10.846734423,2,-1.1013327636718748,-5.304353778076171,-2.1511901916503904,-26.557251908396946,-26.015267175572518,-31.0381679389313
6267760228544,10.866791818,2,-1.5586252807617187,-5.172672686767577,-2.0350714111328125,-23.595419847328245,-12.82442748091603,-0.29770992366412213
6267780211461,10.886774735,2,-2.9568390502929685,-5.796362219238281,-2.3044190979003907,3.427480916030534,-32.12213740458015,33.282442748091604
6267800215524,10.906778798,2,-3.9456443359374997,-7.295132458496093,-2.6803087585449217,38.44274809160305,-50.717557251908396,64.79389312977099
6267820201617,10.926764891,2,-6.744466076660156,-8.889670764160156,-2.437297290039062,39.9236641221374,-44.221374045801525,89.30534351145039
6267840214690,10.946777964,2,-9.096769207763671,-10.662577093505858,-2.2876596862792966,91.36641221374046,-41.587786259541986,110.23664122137404
6267860204899,10.966768173,2,-11.930306872558592,-12.71081661376953,-0.9277531433105468,96.2824427480916,51.74809160305343,136.05343511450383
6267880208284,10.986771558,2,-12.403161700439453,-13.724761016845703,1.0007762939453124,84.85496183206106,153.06870229007635,104.36641221374046
6267900210003,11.006773277,2,-10.520122094726561,-11.804611285400389,2.3630770385742186,30.435114503816795,196.12213740458014,-4.442748091603053
6267920221565,11.026784839,2,-7.963114721679687,-8.872911352539061,2.9604303527832028,-69.89312977099236,142.42748091603053,-107.3587786259542
6267940205003,11.046768277,2,-5.285200164794921,-6.734889270019531,1.7166425903320313,-54.44274809160305,-17.778625954198475,-149.24427480916032
6267960212555,11.066775829,2,-4.722562774658203,-6.381744525146484,-0.36750995483398435,-68.58778625954199,-143.12213740458014,-122.52671755725191
6267980207919,11.086771193,2,-4.643554119873047,-6.950367419433594,-2.6527754394531247,-44.94656488549618,-203.46564885496184,-75.87022900763358
6268000250003,11.106813277,2,-4.185064501953125,-7.765593084716796,-4.198232611083984,-49.93893129770992,-163.33587786259542,-51.099236641221374
6268020217034,11.126780308,2,-3.3219548034667965,-7.101202124023437,-4.4376527770996095,-57.76335877862596,-52.86259541984733,-52.87022900763359
6268040223753,11.146787027,2,-1.5682020874023437,-5.815515832519531,-3.199850518798828,-40.50381679389313,65.1145038167939,-61.12977099236641
6268060209169,11.166772443,2,-0.958877764892578,-4.6351744140625,-1.7118541870117185,-43.37404580152672,133.2824427480916,-50.74045801526717
6268080223284,11.186786558,2,-0.3136404174804687,-4.566939666748047,-0.9959878906249999,-3.0610687022900764,108.3969465648855,-23.083969465648856
6268100313440,11.206876714,2,0.44532150878906246,-5.430049365234375,-0.7685387329101562,27.9618320610687,68.0381679389313,1.8549618320610688
6268120223284,11.226786558,2,0.008379705810546874,-5.7077767578125,-0.14484920043945312,40.12977099236641,44.68702290076336,20.64885496183206
6268140208024,11.246771298,2,-0.853532891845703,-6.354211206054687,-0.03591302490234375,53.98473282442748,16.519083969465647,53.94656488549618
6268160209638,11.266772912,2,-4.272452862548828,-7.419630944824219,-0.05386953735351562,43.67175572519084,4.748091603053435,114.6793893129771
6268180184586,11.28674786,2,-9.516951599121093,-10.624269866943358,-0.21787235107421873,49.12977099236641,-50.54961832061068,197.77862595419847
6268200314378,11.306877652,2,-14.732719915771483,-13.441048120117186,-0.7541735229492187,106.57251908396947,-101.54198473282443,231.86259541984734
6268220159534,11.326722808,2,-18.12530366821289,-16.238672760009763,-0.36750995483398435,91.70229007633588,-34.37404580152672,225.55725190839695
6268240220367,11.346783641,2,-15.157690710449218,-14.857218402099608,0.4177881896972656,33.152671755725194,82.16030534351145,36.908396946564885
6268260250628,11.366813902,2,-10.144232434082031,-9.119514123535156,1.1959037292480468,-131.93893129770993,138.93129770992365,-186.70992366412213
6268280219065,11.386782339,2,-5.955576629638672,-4.376600634765625,0.5111620544433594,-154.12977099236642,47.6412213740458,-250.13740458015266
6268300303961,11.406867235,2,-2.3355437194824216,-3.825934252929687,-0.6500257507324219,-76.98473282442748,-57.19083969465649,-220.6259541984733
6268320218961,11.426782235,2,-1.0594342346191405,-4.417302062988281,-2.4289175842285156,-35.404580152671755,-151.2290076335878,-135.08396946564886
6268340205523,11.446768797,2,-0.7026981872558593,-5.5449710449218745,-3.7624879089355465,-36.267175572519086,-150.61832061068702,-71.90076335877863
6268360212659,11.466775933,2,-0.6488286499023437,-5.552153649902343,-4.070142822265625,-29.80916030534351,-80.10687022900764,-42.42748091603053
6268380159117,11.486722391,2,-0.42975919799804685,-5.181052392578125,-3.816357446289062,-22.801526717557252,-11.786259541984732,-29.80916030534351
6268400311565,11.506874839,2,-0.22026655273437498,-4.742913488769531,-3.0226795959472654,14.526717557251908,42.01526717557252,-13.587786259541986
6268420206721,11.526769995,2,-0.5410895751953124,-4.741716387939453,-1.744175909423828,34.786259541984734,86.76335877862596,15.19083969465649
6268440217242,11.546780516,2,-0.6500257507324219,-5.795165118408203,-0.7817068420410156,63.17557251908397,84.32824427480917,52.396946564885496
6268460212971,11.566776245,2,-2.3307553161621093,-6.584054565429687,0.033518823242187495,82.93129770992367,70.1145038167939,92.70229007633588
6268480225784,11.586789058,2,-6.602011077880859,-8.036137872314452,0.6069301208496093,67.80152671755725,40.770992366412216,149.9770992366412
6268500294430,11.606857704,2,-10.551246716308594,-10.658985791015624,0.36750995483398435,101.85496183206106,-38.88549618320611,194.87786259541986
6268520214742,11.626778016,2,-13.636175555419921,-13.918691351318358,0.411802685546875,117.04580152671755,-52.48854961832061,210.1908396946565
6268540205107,11.646768381,2,-15.410278985595703,-14.802151763916015,0.612915625,74.46564885496183,-8.251908396946565,145.9236641221374
6268560218596,11.66678187,2,-13.305775726318359,-13.13219610595703,1.274912384033203,6.427480916030534,89.41984732824427,8.16793893129771
6268580207450,11.686770724,2,-9.287108239746093,-8.766369378662109,1.3826514587402343,-82.16030534351145,112.41221374045801,-132.77862595419847
6268600166096,11.70672937,2,-6.256048937988281,-6.455964776611328,1.025915411376953,-116.09160305343511,45.6793893129771,-175.4732824427481
6268620211565,11.726774839,2,-3.928884924316406,-5.633556506347656,-0.09337386474609374,-27.770992366412212,-55.35114503816794,-146.36641221374046
6268640219117,11.746782391,2,-2.9448680419921875,-6.7037646484375,-1.2425906616210938,-51.282442748091604,-101.61832061068702,-95.17557251908397
6268660201409,11.766764683,2,-3.057395520019531,-6.624755993652343,-2.4768016174316405,-38.54961832061068,-116.37404580152672,-66.87022900763358
6268680205940,11.786769214,2,-2.7042507751464844,-6.713341455078124,-2.924517327880859,-39.02290076335878,-67.80916030534351,-48.16030534351145
6268700198909,11.806762183,2,-2.1871032165527344,-6.242880828857421,-2.9460651428222655,-28.229007633587788,-12.030534351145038,-38.93129770992366
6268720213805,11.826777079,2,-2.128445275878906,-5.634753607177734,-2.402581365966797,-21.34351145038168,28.748091603053435,-25.389312977099237
6268740213127,11.846776401,2,-1.8148048583984373,-5.796362219238281,-1.5849614990234373,-4.5038167938931295,66.91603053435115,-2.16793893129771
6268760208336,11.86677161,2,-1.7477672119140624,-5.947196923828125,-0.8044517578125,9.381679389312977,65.85496183206106,10.198473282442748
6268780214534,11.886777808,2,-1.7561469177246092,-5.904101293945312,-0.4560954162597656,13.86259541984733,26.587786259541986,9.267175572519085
6268800216565,11.906779839,2,-2.04943662109375,-5.984307049560546,-0.7266402038574218,25.793893129770993,-24.580152671755727,18.46564885496183
6268820206617,11.926769891,2,-3.1184476623535153,-6.836642840576172,-1.0402806213378906,42.2442748091603,-42.038167938931295,52.38931297709924
6268840205784,11.946769058,2,-5.740098480224609,-8.960299713134765,-0.9085995300292968,53.221374045801525,-28.83206106870229,104.31297709923665
6268860214482,11.966777756,2,-8.93755479736328,-10.952275494384764,-0.737414111328125,100.43511450381679,-32.89312977099237,140.03053435114504
6268880221148,11.986784422,2,-12.801796276855468,-13.262680096435545,0.4477157104492187,113.2824427480916,23.198473282442748,177.13740458015266
6268900205575,12.006768849,2,-14.680047479248046,-14.53040987548828,1.7872715393066405,84.47328244274809,103.41221374045801,146.01526717557252
6268920203961,12.026767235,2,-12.722787622070312,-13.072341064453123,3.0442274108886718,21.984732824427482,162.18320610687022,15.34351145038168
6268940205211,12.046768485,2,-8.881291058349609,-8.68257232055664,2.808398547363281,-91.27480916030534,108.22900763358778,-138.61832061068702
6268960220002,12.066783276,2,-5.86699116821289,-6.205770703124999,1.7800889343261719,-130.03053435114504,-13.366412213740459,-193.10687022900763
6268980208023,12.086771297,2,-3.763685009765625,-5.124788653564453,-0.4429273071289062,-63.16793893129771,-149.3206106870229,-164.93893129770993
6269000212659,12.106775933,2,-3.554192364501953,-5.922057806396484,-2.7365724975585937,-84.31297709923665,-210.206106870229,-101.16030534351145
6269020195523,12.126758797,2,-3.547009759521484,-6.494272003173828,-4.237736938476562,-65.73282442748092,-195.61068702290078,-66.9618320610687
6269040248075,12.146811349,2,-2.7138275817871094,-6.667851623535156,-4.8686090759277345,-45.06106870229008,-92.6412213740458,-51.954198473282446
6269060215784,12.166779058,2,-1.2665326782226562,-5.796362219238281,-3.915716815185547,-35.12213740458015,24.610687022900763,-52.603053435114504
6269080212294,12.186775568,2,-0.9696516723632812,-4.575319372558593,-2.4768016174316405,-33.19847328244275,102.93893129770993,-44.44274809160305
6269100218856,12.20678213,2,-0.5770026000976562,-4.369418029785156,-1.4257470886230468,8.068702290076336,100.78625954198473,-13.755725190839694
6269120303231,12.226866505,2,-0.6512228515624999,-4.9416322265625,-0.8080430603027343,37.01526717557252,71.98473282442748,23.129770992366414
6269140216929,12.246780203,2,-2.048239520263672,-5.7077767578125,-0.4908113403320312,34.67175572519084,38.16793893129771,60.541984732824424
6269160203388,12.266766662,2,-4.046200805664062,-7.333439685058593,-0.6332663391113281,66.12977099236642,-6.908396946564886,99.74809160305344
6269180205211,12.286768485,2,-7.339425189208984,-10.144232434082031,-0.7062894897460937,83.87022900763358,-44.16030534351145,147.0916030534351
6269200231200,12.306794474,2,-12.016498132324218,-12.23915888671875,-0.7362170104980469,106.34351145038168,-58.603053435114504,177.05343511450383
6269220219117,12.326782391,2,-15.178041424560545,-15.1313544921875,0.1304839904785156,120.77099236641222,24.64885496183206,203.09923664122138
6269240208388,12.346771662,2,-14.762647436523437,-14.908693737792968,1.9859902770996092,106.06870229007633,151.31297709923663,96.0381679389313
6269260214586,12.36677786,2,-10.77630167236328,-10.913968267822264,3.0238766967773434,-55.37404580152672,201.31297709923663,-93.55725190839695
6269280215627,12.386778901,2,-7.09282241821289,-6.809109521484374,2.8598738830566406,-131.6030534351145,101.52671755725191,-207.793893129771
6269300211461,12.406774735,2,-3.5817256835937497,-5.104437939453125,1.0905588562011719,-47.458015267175576,-56.900763358778626,-194.3969465648855
6269320219117,12.426782391,2,-2.645592834472656,-6.206967803955078,-0.6739677673339843,-64.36641221374046,-148.66412213740458,-119.74809160305344
6269340206773,12.446770047,2,-3.1316157714843746,-6.542156036376952,-2.6767174560546874,-43.786259541984734,-191.0229007633588,-67.23664122137404
6269360212242,12.466775516,2,-2.9568390502929685,-6.704961749267578,-3.812766143798828,-59.29770992366412,-137.4198473282443,-53.23664122137404
6269380211565,12.486774839,2,-2.2278046447753903,-5.645527514648437,-3.9839515624999997,-64.76335877862596,-63.25190839694657,-60.74809160305343
6269400209742,12.506773016,2,-1.150413897705078,-4.73094248046875,-3.381809844970703,-39.465648854961835,8.83206106870229,-58.725190839694655
6269420214690,12.526777964,2,-0.7170633972167968,-4.302380383300781,-2.627636322021484,-10.213740458015268,50.64885496183206,-34.900763358778626
6269440217919,12.546781193,2,-0.3363853332519531,-4.605246893310547,-1.9524714538574217,27.9618320610687,54.88549618320611,-1.748091603053435
6269460212398,12.566775672,2,-0.32441432495117184,-5.450400079345703,-1.120486376953125,47.587786259541986,61.49618320610687,30.244274809160306
6269480216096,12.58677937,2,-1.89620771484375,-5.8610056640625,-0.16519991455078123,62.19083969465649,68.34351145038168,71.47328244274809
6269500163335,12.606726609,2,-6.190208392333984,-7.672219219970703,0.03591302490234375,48.54961832061068,39.48091603053435,142.86259541984734
6269520217606,12.62678088,2,-10.344148272705077,-10.69370171508789,0.0143652099609375,112.55725190839695,-39.6793893129771,198.15267175572518
6269540217919,12.646781193,2,-14.337676641845702,-14.563928698730468,0.3076549133300781,135.75572519083968,-41.6793893129771,226.98473282442748
6269560206981,12.666770255,2,-17.2765591796875,-16.086640954589843,1.1563994018554686,102.58015267175573,33.404580152671755,182.75572519083968
6269580203752,12.686767026,2,-14.165294122314453,-14.483722943115234,2.507926239013672,36.00763358778626,161.7175572519084,16.0381679389313
6269600221929,12.706785203,2,-9.433154541015625,-8.550891229248046,2.608482708740234,-109.41984732824427,157.12977099236642,-187.83969465648855
6269620222554,12.726785828,2,-5.246892938232421,-5.303156677246093,2.24097275390625,-149.25954198473283,50.213740458015266,-250.13740458015266
6269640213960,12.746777234,2,-2.433705987548828,-3.8103719421386715,0.2861070983886719,-56.6412213740458,-109.73282442748092,-217.77862595419847
6269660206617,12.766769891,2,-2.261323468017578,-4.904522100830078,-1.9991583862304687,-86.65648854961832,-197.48091603053436,-122.26717557251908
6269680215106,12.78677838,2,-2.013523596191406,-6.019022973632812,-4.04141240234375,-40.00763358778626,-218.48091603053436,-65.90839694656489
6269700207606,12.80677088,2,-1.9883844787597655,-6.236895324707031,-4.686649749755859,-44.56488549618321,-120.36641221374046,-39.67175572519084
6269720203023,12.826766297,2,-1.3467384338378905,-5.692214447021484,-4.3813890380859375,-43.20610687022901,-23.17557251908397,-40.14503816793893
6269740203648,12.846766922,2,-0.5147533569335937,-4.848258361816406,-3.3303345092773435,-0.31297709923664124,57.717557251908396,-37.49618320610687
6269760221825,12.866785099,2,0.1352723937988281,-4.724956976318359,-1.9428946472167967,25.916030534351144,101.29007633587786,-16.129770992366414
6269780215575,12.886778849,2,0.11372457885742186,-4.99909306640625,-0.834379278564453,64.83969465648855,115.90076335877863,22.671755725190838
6269800210106,12.90677338,2,-1.3347674255371094,-5.801150622558594,0.5961562133789062,68.27480916030534,133.3969465648855,87.0
6269820208700,12.926771974,2,-5.504269616699219,-7.918821990966796,1.071405242919922,49.14503816793893,92.85496183206106,172.78625954198472
6269840193544,12.946756818,2,-10.945092889404297,-11.409568011474608,0.949300958251953,79.48091603053435,-16.244274809160306,231.24427480916032
6269860210106,12.96677338,2,-13.602656732177733,-13.862427612304687,0.43574470214843747,125.2824427480916,-88.12977099236642,200.00763358778627
6269880196044,12.986759318,2,-14.762647436523437,-14.585476513671875,-0.12330138549804687,35.05343511450382,-65.7175572519084,108.93893129770993
6269900190314,13.006753588,2,-12.247538592529295,-12.783839764404297,0.09576806640624999,0.24427480916030533,32.14503816793893,-18.328244274809162
6269920208700,13.026771974,2,-8.091204510498047,-9.251195214843749,0.9217676391601562,-72.76335877862596,120.69465648854961,-126.54961832061069
6269940200314,13.046763588,2,-5.821501336669922,-7.062894897460937,1.6112977172851561,-91.1526717557252,100.51908396946565,-156.67175572519085
6269960189689,13.066752963,2,-3.2333693420410152,-6.203376501464843,0.9085995300292968,-19.480916030534353,-3.5343511450381677,-135.61068702290078
6269980202762,13.086766036,2,-2.3918074584960936,-6.545747338867187,-0.36391865234375,-58.0,-89.08396946564885,-102.22900763358778
6270000196721,13.106759995,2,-2.7653029174804686,-6.995857250976562,-2.1021090576171875,-24.106870229007633,-137.41221374045801,-54.76335877862596
6270020191877,13.126755151,2,-3.1004911499023438,-7.789535101318359,-2.589329095458984,-15.717557251908397,-79.70229007633588,-15.267175572519085
6270040201929,13.146765203,2,-2.8048072448730466,-7.445967163085937,-2.1775264099121094,-28.358778625954198,12.312977099236642,-15.297709923664122
6270060199273,13.166762547,2,-2.176329309082031,-5.843049151611328,-1.1480196960449218,-32.58015267175573,67.03053435114504,-36.900763358778626
6270080208648,13.186771922,2,-1.2904746948242187,-4.940435125732422,-0.6105214233398437,-37.82442748091603,56.030534351145036,-41.06870229007634
6270100215158,13.206778432,2,-0.8307879760742187,-4.435258575439453,-0.8283937744140625,-9.076335877862595,-8.267175572519085,-29.083969465648856
6270120208700,13.226771974,2,-1.380257257080078,-4.881777185058594,-1.5741875915527344,-7.770992366412214,-60.48091603053435,8.717557251908397
6270140201981,13.246765255,2,-2.4576480041503905,-6.003460662841796,-2.6515783386230467,20.0,-103.3969465648855,51.18320610687023
6270160211669,13.266774943,2,-4.412513659667969,-7.186196282958984,-3.039439007568359,28.076335877862597,-79.70992366412214,90.07633587786259
6270180226981,13.286790255,2,-7.530961322021484,-9.354145886230468,-2.5103204406738278,62.786259541984734,-31.541984732824428,137.1145038167939
6270200179377,13.306742651,2,-10.729614739990234,-11.267113012695312,-1.3311761230468748,120.19847328244275,25.740458015267176,167.6946564885496
6270220210835,13.326774109,2,-14.974534283447264,-13.403937994384766,0.7876923461914062,101.90839694656489,112.61068702290076,192.74809160305344
6270240216721,13.346779995,2,-15.065513946533203,-15.084667559814452,2.7054478759765623,128.16030534351145,178.19847328244273,136.2824427480916
6270260203179,13.366766453,2,-11.34492456665039,-12.373234179687499,3.6104561035156246,33.11450381679389,179.8854961832061,-39.89312977099237
6270280305106,13.38686838,2,-8.135497241210937,-7.4411787597656245,3.1316157714843746,-128.7175572519084,80.99236641221374,-190.09923664122138
6270300211408,13.406774682,2,-4.915296008300781,-4.818330841064453,1.3467384338378905,-84.63358778625954,-73.42748091603053,-216.10687022900763
6270320309325,13.426872599,2,-3.314772198486328,-4.697423657226563,-1.1552023010253905,-66.50381679389314,-189.5801526717557,-156.95419847328245
6270340200627,13.446763901,2,-3.189076611328125,-6.245275030517578,-3.446453289794922,-71.93129770992367,-228.8091603053435,-80.14503816793894
6270360203908,13.466767182,2,-3.4536358947753905,-6.941987713623046,-4.495113616943359,-30.900763358778626,-151.54961832061068,-35.61068702290076
6270380200887,13.486764161,2,-3.2022447204589843,-7.2723875427246085,-4.44363828125,-46.25954198473283,-44.083969465648856,-22.450381679389313
6270400206877,13.506770151,2,-1.782483135986328,-6.076483813476562,-3.3075895935058592,-12.236641221374045,60.0763358778626,-40.83969465648855
6270420309064,13.526872338,2,-1.4520833068847656,-4.762067102050781,-1.7214309936523438,-23.595419847328245,130.72519083969465,-41.42748091603053
6270440213908,13.546777182,2,-0.4381389038085937,-4.848258361816406,-0.7050923889160156,29.80916030534351,120.38931297709924,-19.419847328244273
6270460208023,13.566771297,2,0.05386953735351562,-5.449202978515625,0.0526724365234375,55.81679389312977,100.61068702290076,10.412213740458014
6270480209585,13.586772859,2,-1.3000515014648437,-5.653907220458984,1.2198457458496093,43.717557251908396,92.89312977099236,50.61068702290076
6270500206512,13.606769786,2,-5.054159704589844,-6.682216833496093,0.8894459167480468,21.0,11.908396946564885,110.25954198473282
6270520298387,13.626861661,2,-8.857349041748046,-10.31661495361328,-0.49799394531249996,66.12977099236642,-105.47328244274809,178.32824427480915
6270540212918,13.646776192,2,-12.745532537841797,-12.859257116699219,-1.2234370483398436,92.18320610687023,-135.04580152671755,189.77862595419847
6270560212189,13.666775463,2,-15.836446881103514,-14.468160632324217,-1.1240776794433593,47.030534351145036,-64.76335877862596,150.85496183206106
6270580202502,13.686765776,2,-13.560758203125,-14.276624499511717,-0.033518823242187495,51.37404580152672,75.87786259541984,38.961832061068705
6270600210418,13.706773692,2,-9.724050042724608,-9.804255798339844,1.3335703247070312,-54.9236641221374,168.16030534351145,-118.77862595419847
6270620292970,13.726856244,2,-6.320692382812499,-6.3709706176757805,1.610100616455078,-102.92366412213741,109.58778625954199,-190.45038167938932
6270640220523,13.746783797,2,-3.1268273681640624,-5.549759448242187,0.8044517578125,-29.076335877862597,5.374045801526718,-166.6412213740458
6270660200210,13.766763484,2,-2.455253802490234,-5.574898565673828,-0.6177040283203125,-49.83969465648855,-84.54198473282443,-113.83206106870229
6270680207814,13.786771088,2,-2.2385785522460937,-5.9591679321289055,-2.29843359375,-40.05343511450382,-136.22137404580153,-73.58778625954199
6270700203179,13.806766453,2,-1.6675614562988281,-6.291961962890625,-3.065775225830078,-26.778625954198475,-104.45038167938931,-49.88549618320611
6270720256773,13.826820047,2,-1.37906015625,-5.833472344970703,-3.2561142578125,-37.83206106870229,-42.17557251908397,-41.32824427480916
6270740206616,13.84676989,2,-0.9995791931152344,-5.510255120849609,-2.808398547363281,-3.618320610687023,14.335877862595419,-19.709923664122137
6270760209012,13.866772286,2,-1.5466542724609373,-6.02022007446289,-1.5478513732910155,19.702290076335878,74.6412213740458,24.717557251908396
6270780158491,13.886721765,2,-2.6132711120605467,-7.003039855957031,-0.10893617553710937,35.94656488549618,106.57251908396947,64.42748091603053
6270800213960,13.906777234,2,-3.286041778564453,-8.027758166503906,0.9373299499511718,51.83206106870229,99.6412213740458,78.62595419847328
6270820206200,13.926769474,2,-4.920084411621094,-8.271966735839843,1.5322890624999999,28.022900763358777,61.13740458015267,77.29770992366412
6270840208752,13.946772026,2,-6.086060620117187,-9.230844500732422,1.3144167114257812,11.67175572519084,-1.5267175572519085,75.90076335877863
6270860203439,13.966766713,2,-8.14028564453125,-9.989806427001952,0.15442600708007811,15.236641221374045,-88.29770992366412,72.61832061068702
6270880205366,13.98676864,2,-10.670956799316405,-11.34492456665039,-1.158793603515625,8.51908396946565,-137.78625954198472,84.2442748091603
6270900201772,14.006765046,2,-11.895590948486328,-12.55758770751953,-1.9069816223144531,33.152671755725194,-103.70992366412214,73.90076335877863
6270920202658,14.026765932,2,-11.145008728027342,-12.211625567626953,-1.5825672973632812,-9.259541984732824,5.480916030534351,14.48091603053435
6270940200158,14.046763432,2,-8.482656481933594,-9.779116680908203,-0.4513070129394531,-43.48854961832061,91.57251908396947,-73.56488549618321
6270960217658,14.066780932,2,-6.106411334228516,-7.68059892578125,0.19033903198242186,-50.66412213740458,92.48091603053435,-110.97709923664122
6270980200835,14.086764109,2,-4.2521021484374995,-7.236474517822265,0.3938461730957031,-34.63358778625954,55.29007633587786,-99.35114503816794
6271000209272,14.106772546,2,-3.432088079833984,-6.883329772949218,-0.13287819213867186,-25.603053435114504,-3.7099236641221376,-77.54198473282443
6271020202970,14.126766244,2,-3.104082452392578,-6.654683514404296,-1.01514150390625,-42.98473282442748,-48.87022900763359,-63.44274809160305
6271040244168,14.146807442,2,-2.308010400390625,-6.186617089843749,-2.1068974609374997,-41.97709923664122,-66.37404580152672,-62.98473282442748
6271060239012,14.166802286,2,-1.6579846496582031,-5.386953735351562,-2.4660277099609376,-44.083969465648856,-46.33587786259542,-62.62595419847328
6271080174793,14.186738067,2,-1.6340426330566404,-4.544194750976562,-2.4013842651367185,-38.9236641221374,-22.16030534351145,-53.83969465648855
6271100219637,14.206782911,2,5.239710333251953,-6.913257293701172,-3.564966271972656,2.984732824427481,-10.381679389312977,-36.49618320610687
6271120228543,14.226791817,2,-0.9145850341796874,-3.0897172424316404,-1.7226280944824217,-54.44274809160305,37.404580152671755,-21.53435114503817
6271140294533,14.246857807,2,-1.6723498596191406,-5.257666845703125,-1.4353238952636718,24.53435114503817,31.862595419847327,79.94656488549619
6271160216877,14.266780151,2,-5.078101721191406,-8.615534674072265,-0.9983820922851562,140.05343511450383,-16.206106870229007,151.77862595419847
6271180214220,14.286777494,2,-8.96269391479492,-11.413159313964844,-0.4429273071289062,97.6412213740458,0.2748091603053435,192.24427480916032
6271200216043,14.306779317,2,-13.07593236694336,-13.395558288574218,0.7206546997070312,102.95419847328245,26.65648854961832,187.8091603053435
6271220226564,14.326789838,2,-14.835670587158202,-14.765041638183593,1.6244658264160154,85.7175572519084,60.404580152671755,148.14503816793894
6271240222449,14.346785723,2,-13.593079925537108,-13.70680450439453,1.8183961608886718,23.396946564885496,69.2442748091603,25.114503816793892
6271260214845,14.366778119,2,-9.404424121093749,-9.593566052246093,1.523909356689453,-92.2442748091603,59.52671755725191,-129.86259541984734
6271280226720,14.386789994,2,-5.8083332275390624,-6.171054779052734,0.5746083984375,-118.3969465648855,-5.572519083969466,-203.55725190839695
6271300219272,14.406782546,2,-3.227383837890625,-4.961982940673828,-0.5027823486328125,-86.01526717557252,-70.89312977099236,-183.1908396946565
6271320212606,14.42677588,2,-2.327164013671875,-5.219359619140625,-1.9393033447265624,-57.79389312977099,-128.57251908396947,-122.12977099236642
6271340229272,14.446792546,2,-2.626439221191406,-6.1279591491699215,-3.3865982482910155,-41.06106870229008,-147.31297709923663,-66.99236641221374
6271360230731,14.466794005,2,-3.5194764404296874,-6.718129858398437,-3.9815573608398434,-26.641221374045802,-105.16793893129771,-29.045801526717558
6271380210731,14.486774005,2,-3.0310593017578125,-7.72489165649414,-4.106055847167968,-16.870229007633586,-40.87022900763359,-17.50381679389313
6271400220001,14.506783275,2,-1.5406687683105469,-6.13514175415039,-2.8000188415527343,4.419847328244275,61.89312977099237,-46.62595419847328
6271420213856,14.52677713,2,-1.121683477783203,-4.978742352294922,-1.6136919189453125,-34.229007633587784,98.22137404580153,-44.47328244274809
6271440230470,14.546793744,2,0.015562310791015624,-4.746504791259765,-1.3180080139160155,39.31297709923664,63.01526717557252,-13.541984732824428
6271460213751,14.566777025,2,-0.7984662536621093,-4.768052606201172,-0.6105214233398437,30.862595419847327,69.25190839694656,38.93129770992366
6271480210418,14.586773692,2,-3.8558617736816405,-6.497863305664062,-0.28371289672851563,19.48854961832061,30.83206106870229,109.87786259541984
6271500208647,14.606771921,2,-6.4667386840820305,-8.79749400024414,-0.6500257507324219,96.38167938931298,-18.49618320610687,150.84732824427482
6271520233960,14.626797234,2,-9.39843861694336,-10.473435162353516,-0.2920926025390625,67.90839694656489,-31.31297709923664,147.8091603053435
6271540219012,14.646782286,2,-12.526463085937499,-12.855665814208983,-0.2705447875976562,80.53435114503817,-42.900763358778626,151.3206106870229
6271560225470,14.666788744,2,-12.76827745361328,-14.682441680908202,-0.1197100830078125,105.1145038167939,5.809160305343512,124.10687022900764
6271580213178,14.686776452,2,-11.556811413574218,-12.66053837890625,0.978031378173828,16.106870229007633,105.3587786259542,1.9541984732824427
6271600227241,14.706790515,2,-7.8733321594238275,-8.583212951660157,1.5286977600097655,-82.38167938931298,127.16793893129771,-123.63358778625954
6271620223751,14.726787025,2,-4.089296435546875,-5.665878228759765,1.0211270080566406,-75.7175572519084,50.36641221374046,-180.2290076335878
6271640221772,14.746785046,2,-2.0542250244140625,-4.565742565917969,0.4836287353515625,-62.42748091603053,-24.35114503816794,-154.91603053435114
6271660374272,14.766937546,2,0.9002198242187499,-4.824316345214844,-1.5215151550292967,-40.603053435114504,-117.62595419847328,-112.91603053435115
6271680230418,14.786793692,2,-0.38666356811523434,-4.056974713134766,-3.379415643310547,-40.87022900763359,-174.32824427480915,-63.49618320610687
6271700213803,14.806777077,2,-2.270900274658203,-5.321113189697265,-3.5913024902343746,-4.305343511450381,-80.82442748091603,25.106870229007633
6271720219897,14.826783171,2,-3.077746234130859,-7.880514764404296,-2.5450363647460934,66.62595419847328,20.419847328244273,81.2442748091603
6271740212553,14.846775827,2,-4.904522100830078,-9.075221392822264,-0.2442085693359375,58.2442748091603,110.17557251908397,89.02290076335878
6271760225418,14.866788692,2,-5.983109948730468,-9.414000927734374,1.484405029296875,65.59541984732824,106.00763358778626,77.52671755725191
6271780211616,14.88677489,2,-7.308300567626953,-10.166977349853514,1.898601916503906,47.63358778625954,41.17557251908397,74.86259541984732
6271800215210,14.906778484,2,-9.896432562255859,-10.78348427734375,0.9852139831542969,28.114503816793892,-51.42748091603053,79.52671755725191
6271820218439,14.926781713,2,-11.311405743408203,-12.129025610351562,0.011971008300781249,24.61832061068702,-73.03053435114504,73.33587786259542
6271840245210,14.946808484,2,-10.078391888427733,-11.749544647216796,-0.679953271484375,-4.603053435114504,-39.79389312977099,1.0229007633587786
6271860216616,14.96677989,2,-8.259995727539062,-9.048885174560546,-0.8068459594726562,-68.38931297709924,-3.2595419847328246,-92.16793893129771
6271880218230,14.986781504,2,-5.322310290527343,-7.762001782226562,-0.9792284790039062,-57.83206106870229,7.0458015267175576,-114.51908396946565
6271900206147,15.006769421,2,-4.687846850585937,-6.706158850097656,-1.7381904052734374,-18.68702290076336,-22.015267175572518,-89.37404580152672
6271920212501,15.026775775,2,-4.7369279846191406,-7.717709051513672,-1.2581529724121092,-21.541984732824428,20.12213740458015,-35.43511450381679
6271940215053,15.046778327,2,-3.878606689453125,-8.379705810546875,-0.6272808349609375,5.916030534351145,56.908396946564885,-27.14503816793893
6271960212762,15.066776036,2,-2.867056488037109,-7.474697583007812,-0.055066638183593745,-30.374045801526716,85.72519083969466,-48.19847328244275
6271980204532,15.086767806,2,-1.6232687255859375,-6.1076084350585935,0.2693476867675781,-32.01526717557252,69.26717557251908,-70.95419847328245
6272000223178,15.106786452,2,0.20231004028320312,-5.486313104248047,0.316034619140625,-25.061068702290076,46.17557251908397,-65.25954198473282
6272020209324,15.126772598,2,0.49799394531249996,-4.333505004882812,0.3172317199707031,-24.671755725190838,21.893129770992367,-46.41984732824427
6272040219272,15.146782546,2,0.5087678527832031,-4.135983367919922,0.08140285644531249,-18.358778625954198,-15.900763358778626,-8.82442748091603
6272060167553,15.166730827,2,-0.6440402465820312,-4.517858532714843,-0.8080430603027343,-0.33587786259541985,-66.06106870229007,37.93129770992366
