timestamp_ns,t_s,sensor_id,ax,ay,az
3510231078607,0.059776094,1,0.2166752502441406,1.7310078002929687,-11.21084927368164
3510236055482,0.064752969,1,0.2262520568847656,1.7310078002929687,-11.179724652099608
3510241042096,0.069739583,1,0.20949264526367187,1.7405846069335937,-11.208455072021483
3510246044701,0.074742188,1,0.23104046020507812,1.7393875061035156,-11.197681164550781
3510251036888,0.079734375,1,0.2442085693359375,1.7190367919921874,-11.166556542968749
3510256036732,0.084734219,1,0.2442085693359375,1.70467158203125,-11.162965240478515
3510261036211,0.089733698,1,0.2597708801269531,1.7214309936523438,-11.167753643798827
3510266036471,0.094733958,1,0.2166752502441406,1.7310078002929687,-11.195286962890624
3510271036576,0.099734063,1,0.21906945190429686,1.7417817077636717,-11.194089862060546
3510276034909,0.104732396,1,0.23702596435546874,1.7381904052734374,-11.186907257080078
3510281036107,0.109733594,1,0.2442085693359375,1.7453730102539062,-11.19169566040039
3510286035378,0.114732865,1,0.24660277099609373,1.7477672119140624,-11.195286962890624
3510291035534,0.119733021,1,0.2537853759765625,1.7381904052734374,-11.192892761230468
3510296035482,0.124732969,1,0.23104046020507812,1.7214309936523438,-11.214440576171874
3510301035013,0.1297325,1,0.2154781494140625,1.7130512878417967,-11.182118853759764
3510306035742,0.134733229,1,0.2166752502441406,1.7573440185546874,-11.184513055419922
3510311035378,0.139732865,1,0.21428104858398436,1.7226280944824217,-11.17254204711914
3510316034023,0.14473151,1,0.2214636535644531,1.7381904052734374,-11.180921752929686
3510321034909,0.149732396,1,0.21787235107421873,1.725022296142578,-11.21084927368164
3510326034336,0.154731823,1,0.23582886352539062,1.7298106994628906,-11.21084927368164
3510331034440,0.159731927,1,0.20709844360351562,1.7357962036132812,-11.196484063720703
3510336035586,0.164733073,1,0.23223756103515625,1.753752716064453,-11.173739147949219
3510341034492,0.169731979,1,0.23343466186523437,1.7465701110839842,-11.143811627197264
3510346032930,0.174730417,1,0.21906945190429686,1.7298106994628906,-11.177330450439452
3510351034805,0.179732292,1,0.23104046020507812,1.7453730102539062,-11.183315954589844
3510356034648,0.184732135,1,0.22505495605468748,1.7286135986328124,-11.197681164550781
3510361035013,0.1897325,1,0.22026655273437498,1.7405846069335937,-11.174936248779296
3510366034701,0.194732188,1,0.2501940734863281,1.714248388671875,-11.190498559570312
3510371035221,0.199732708,1,0.2537853759765625,1.7561469177246092,-11.192892761230468
3510376035169,0.204732656,1,0.2442085693359375,1.7393875061035156,-11.190498559570312
3510381035326,0.209732813,1,0.20949264526367187,1.7453730102539062,-11.197681164550781
3510386034909,0.214732396,1,0.23822306518554687,1.7513585144042967,-11.200075366210937
3510391035638,0.219733125,1,0.20709844360351562,1.725022296142578,-11.174936248779296
3510396036159,0.224733646,1,0.181959326171875,1.7513585144042967,-11.186907257080078
3510401035117,0.229732604,1,0.21787235107421873,1.744175909423828,-11.196484063720703
3510406034909,0.234732396,1,0.21906945190429686,1.7453730102539062,-11.196484063720703
3510411034492,0.239731979,1,0.24301146850585936,1.7322049011230467,-11.158176837158203
3510416034336,0.244731823,1,0.2609679809570312,1.7322049011230467,-11.162965240478515
3510421035273,0.24973276,1,0.2645592834472656,1.7214309936523438,-11.186907257080078
3510426035169,0.254732656,1,0.19153613281249998,1.7262193969726563,-11.183315954589844
3510431034700,0.259732187,1,0.2214636535644531,1.7405846069335937,-11.170147845458983
3510436034596,0.264732083,1,0.23702596435546874,1.7082628845214842,-11.170147845458983
3510441035013,0.2697325,1,0.22864625854492185,1.7082628845214842,-11.202469567871093
3510446035065,0.274732552,1,0.21308394775390624,1.7405846069335937,-11.161768139648437
3510451034075,0.279731562,1,0.2154781494140625,1.7286135986328124,-11.174936248779296
3510456034232,0.284731719,1,0.239420166015625,1.7369933044433592,-11.188104357910156
3510461035117,0.289732604,1,0.23582886352539062,1.7214309936523438,-11.17852755126953
3510466036107,0.294733594,1,0.2442085693359375,1.7585411193847655,-11.162965240478515
3510471035013,0.2997325,1,0.2609679809570312,1.7298106994628906,-11.200075366210937
3510476035482,0.304732969,1,0.2442085693359375,1.744175909423828,-11.186907257080078
3510481034180,0.309731667,1,0.2214636535644531,1.7381904052734374,-11.189301458740234
3510486034961,0.314732448,1,0.22385785522460935,1.7238251953125,-11.202469567871093
3510491033971,0.319731458,1,0.2166752502441406,1.7262193969726563,-11.176133349609374
3510496034440,0.324731927,1,0.23702596435546874,1.7357962036132812,-11.197681164550781
3510501034232,0.329731719,1,0.2442085693359375,1.7178396911621092,-11.192892761230468
3510506034440,0.334731927,1,0.2501940734863281,1.7238251953125,-11.203666668701171
3510511035065,0.339732552,1,0.23343466186523437,1.7298106994628906,-11.189301458740234
3510516035013,0.3447325,1,0.24061726684570311,1.7489643127441405,-11.203666668701171
3510521034857,0.349732344,1,0.2597708801269531,1.7405846069335937,-11.192892761230468
3510526035325,0.354732812,1,0.2561795776367187,1.7262193969726563,-11.17852755126953
3510531034648,0.359732135,1,0.2537853759765625,1.7429788085937499,-11.184513055419922
3510536034909,0.364732396,1,0.22864625854492185,1.7322049011230467,-11.165359442138671
3510541034648,0.369732135,1,0.24061726684570311,1.7238251953125,-11.17852755126953
3510546034700,0.374732187,1,0.24301146850585936,1.7082628845214842,-11.171344946289063
3510551034753,0.37973224,1,0.21308394775390624,1.725022296142578,-11.152191333007812
3510556035482,0.384732969,1,0.22026655273437498,1.7298106994628906,-11.16057103881836
3510561034961,0.389732448,1,0.22385785522460935,1.687912170410156,-11.189301458740234
3510566034909,0.394732396,1,0.2214636535644531,1.7214309936523438,-11.202469567871093
3510571034753,0.39973224,1,0.23343466186523437,1.7274164978027342,-11.209652172851563
3510576034180,0.404731667,1,0.22026655273437498,1.7166425903320313,-11.188104357910156
3510581034180,0.409731667,1,0.24061726684570311,1.7322049011230467,-11.171344946289063
3510586034232,0.414731719,1,0.21068974609375,1.7381904052734374,-11.179724652099608
3510591033086,0.419730573,1,0.22864625854492185,1.7238251953125,-11.156979736328124
3510596034805,0.424732292,1,0.23223756103515625,1.714248388671875,-11.171344946289063
3510601035065,0.429732552,1,0.21188684692382811,1.714248388671875,-11.173739147949219
3510606034596,0.434732083,1,0.24181436767578124,1.7166425903320313,-11.173739147949219
3510611034127,0.439731614,1,0.22505495605468748,1.7106570861816406,-11.174936248779296
3510616034909,0.444732396,1,0.22864625854492185,1.715445489501953,-11.17254204711914
3510621033659,0.449731146,1,0.21428104858398436,1.7238251953125,-11.135431921386719
3510626034700,0.454732187,1,0.22385785522460935,1.7190367919921874,-11.149797131347656
3510631034544,0.459732031,1,0.21188684692382811,1.7310078002929687,-11.226411584472656
3510636035325,0.464732812,1,0.20949264526367187,1.7298106994628906,-11.182118853759764
3510641034700,0.469732187,1,0.2059013427734375,1.7094599853515624,-11.195286962890624
3510646034127,0.474731614,1,0.23104046020507812,1.7262193969726563,-11.186907257080078
3510651034961,0.479732448,1,0.22026655273437498,1.7549498168945312,-11.19887826538086
3510656034857,0.484732344,1,0.21906945190429686,1.734599102783203,-11.182118853759764
3510661035950,0.489733437,1,0.21787235107421873,1.715445489501953,-11.170147845458983
3510666035221,0.494732708,1,0.22744915771484372,1.7190367919921874,-11.183315954589844
3510671034388,0.499731875,1,0.19871873779296872,1.7310078002929687,-11.206060870361327
3510676034909,0.504732396,1,0.21428104858398436,1.714248388671875,-11.179724652099608
3510681034752,0.509732239,1,0.21787235107421873,1.7010802795410156,-11.167753643798827
3510686035169,0.514732656,1,0.2059013427734375,1.7118541870117185,-11.21084927368164
3510691034336,0.519731823,1,0.1975216369628906,1.7262193969726563,-11.179724652099608
3510696035065,0.524732552,1,0.2214636535644531,1.7381904052734374,-11.166556542968749
3510701043867,0.529741354,1,0.239420166015625,1.7094599853515624,-11.19169566040039
3510706036888,0.534734375,1,0.2262520568847656,1.707065783691406,-11.212046374511718
3510711035169,0.539732656,1,0.20829554443359374,1.7262193969726563,-11.192892761230468
3510716034336,0.544731823,1,0.2537853759765625,1.7429788085937499,-11.165359442138671
3510721034232,0.549731719,1,0.2501940734863281,1.7286135986328124,-11.156979736328124
3510726034909,0.554732396,1,0.22864625854492185,1.7262193969726563,-11.180921752929686
3510731031211,0.559728698,1,0.22026655273437498,1.7525556152343749,-11.16057103881836
3510736034648,0.564732135,1,0.20709844360351562,1.7238251953125,-11.19887826538086
3510741034596,0.569732083,1,0.24061726684570311,1.7106570861816406,-11.245565197753905
3510746034544,0.574732031,1,0.24061726684570311,1.7238251953125,-11.201272467041015
3510751034596,0.579732083,1,0.24660277099609373,1.7262193969726563,-11.195286962890624
3510756035013,0.5847325,1,0.2154781494140625,1.7322049011230467,-11.190498559570312
3510761033971,0.589731458,1,0.22864625854492185,1.7262193969726563,-11.1474029296875
3510766034596,0.594732083,1,0.20231004028320312,1.7214309936523438,-11.183315954589844
3510771034544,0.599732031,1,0.20949264526367187,1.7022773803710936,-11.176133349609374
3510776034440,0.604731927,1,0.21906945190429686,1.7501614135742187,-11.183315954589844
3510781031107,0.609728594,1,0.1975216369628906,1.7130512878417967,-11.177330450439452
3510786034909,0.614732396,1,0.22266075439453123,1.707065783691406,-11.219228979492186
3510791034336,0.619731823,1,0.26216508178710934,1.7214309936523438,-11.201272467041015
3510796035065,0.624732552,1,0.22026655273437498,1.734599102783203,-11.182118853759764
3510801034127,0.629731614,1,0.22385785522460935,1.7334020019531249,-11.179724652099608
3510806034909,0.634732396,1,0.229843359375,1.7190367919921874,-11.206060870361327
3510811033919,0.639731406,1,0.23223756103515625,1.7202338928222656,-11.176133349609374
3510816034180,0.644731667,1,0.22385785522460935,1.7262193969726563,-11.197681164550781
3510821033971,0.649731458,1,0.239420166015625,1.7262193969726563,-11.186907257080078
3510826034857,0.654732344,1,0.2454056701660156,1.7310078002929687,-11.208455072021483
3510831032096,0.659729583,1,0.23223756103515625,1.7357962036132812,-11.192892761230468
3510836034336,0.664731823,1,0.22505495605468748,1.7381904052734374,-11.196484063720703
3510841032929,0.669730416,1,0.239420166015625,1.7381904052734374,-11.184513055419922
3510846033138,0.674730625,1,0.23822306518554687,1.7286135986328124,-11.196484063720703
3510851035429,0.679732916,1,0.24899697265624998,1.7238251953125,-11.149797131347656
3510856034492,0.684731979,1,0.23343466186523437,1.7274164978027342,-11.186907257080078
3510861033815,0.689731302,1,0.239420166015625,1.725022296142578,-11.183315954589844
3510866034596,0.694732083,1,0.2346317626953125,1.7369933044433592,-11.190498559570312
3510871034752,0.699732239,1,0.2214636535644531,1.7226280944824217,-11.18571015625
3510876034596,0.704732083,1,0.2657563842773437,1.7262193969726563,-11.173739147949219
3510881033242,0.709730729,1,0.21787235107421873,1.7286135986328124,-11.189301458740234
3510886034700,0.714732187,1,0.21906945190429686,1.7106570861816406,-11.180921752929686
3510891035117,0.719732604,1,0.21428104858398436,1.7214309936523438,-11.209652172851563
3510896034648,0.724732135,1,0.239420166015625,1.7393875061035156,-11.204863769531249
3510901034440,0.729731927,1,0.22266075439453123,1.7465701110839842,-11.166556542968749
3510906034336,0.734731823,1,0.19871873779296872,1.7226280944824217,-11.16057103881836
3510911034492,0.739731979,1,0.19393033447265623,1.7094599853515624,-11.168950744628905
3510916035013,0.7447325,1,0.21068974609375,1.707065783691406,-11.168950744628905
3510921034857,0.749732344,1,0.20470424194335937,1.7310078002929687,-11.196484063720703
3510926035013,0.7547325,1,0.21428104858398436,1.7298106994628906,-11.204863769531249
3510931033607,0.759731094,1,0.23104046020507812,1.7178396911621092,-11.202469567871093
3510936034752,0.764732239,1,0.22385785522460935,1.7262193969726563,-11.170147845458983
3510941034804,0.769732291,1,0.20709844360351562,1.7190367919921874,-11.164162341308593
3510946034544,0.774732031,1,0.21906945190429686,1.7298106994628906,-11.183315954589844
3510951034700,0.779732187,1,0.24899697265624998,1.7286135986328124,-11.189301458740234
3510956035169,0.784732656,1,0.258573779296875,1.7369933044433592,-11.183315954589844
3510961035742,0.789733229,1,0.23822306518554687,1.7226280944824217,-11.17852755126953
3510966034388,0.794731875,1,0.22026655273437498,1.7298106994628906,-11.196484063720703
3510971034179,0.799731666,1,0.21428104858398436,1.7166425903320313,-11.19169566040039
3510976034752,0.804732239,1,0.22385785522460935,1.7226280944824217,-11.182118853759764
3510981034961,0.809732448,1,0.23223756103515625,1.7094599853515624,-11.046846459960937
3510986034336,0.814731823,1,0.21428104858398436,1.7178396911621092,-11.212046374511718
3510991034127,0.819731614,1,0.2609679809570312,1.725022296142578,-11.188104357910156
3510996033971,0.824731458,1,0.24181436767578124,1.7262193969726563,-11.192892761230468
3511001034804,0.829732291,1,0.24181436767578124,1.7214309936523438,-11.203666668701171
3511006034700,0.834732187,1,0.21428104858398436,1.7214309936523438,-11.194089862060546
3511011034023,0.83973151,1,0.21068974609375,1.7202338928222656,-11.337741961669922
3511016035013,0.8447325,1,0.23104046020507812,1.7094599853515624,-11.037269653320312
3511021034075,0.849731562,1,0.229843359375,1.7417817077636717,-11.194089862060546
3511026034232,0.854731719,1,0.21787235107421873,1.744175909423828,-11.317391247558593
3511031035429,0.859732916,1,0.2166752502441406,1.7310078002929687,-11.184513055419922
3511036034648,0.864732135,1,0.21188684692382811,1.7322049011230467,-11.03846675415039
3511041034492,0.869731979,1,0.21787235107421873,1.7357962036132812,-11.186907257080078
3511046034284,0.874731771,1,0.21428104858398436,1.7238251953125,-11.194089862060546
3511051033867,0.879731354,1,0.23343466186523437,1.7130512878417967,-11.215637677001952
3511056034700,0.884732187,1,0.24899697265624998,1.7190367919921874,-11.186907257080078
3511061032721,0.889730208,1,0.25139117431640623,1.7393875061035156,-11.330559356689452
3511066035117,0.894732604,1,0.2537853759765625,1.7322049011230467,-11.044452258300781
3511071034388,0.899731875,1,0.229843359375,1.7238251953125,-11.200075366210937
3511076034127,0.904731614,1,0.23223756103515625,1.7274164978027342,-11.200075366210937
3511081033659,0.909731146,1,0.22505495605468748,1.7465701110839842,-11.190498559570312
3511086034179,0.914731666,1,0.22505495605468748,1.7166425903320313,-11.336544860839844
3511091032721,0.919730208,1,0.2262520568847656,1.7010802795410156,-11.183315954589844
3511096034127,0.924731614,1,0.239420166015625,1.714248388671875,-11.155782635498046
3511101032513,0.92973,1,0.22864625854492185,1.7286135986328124,-11.182118853759764
3511106035221,0.934732708,1,0.21188684692382811,1.7118541870117185,-11.048043560791015
3511111033763,0.93973125,1,0.2059013427734375,1.7405846069335937,-11.189301458740234
3511116034440,0.944731927,1,0.2166752502441406,1.7262193969726563,-11.170147845458983
3511121034388,0.949731875,1,0.2166752502441406,1.7369933044433592,-11.137826123046874
3511126034752,0.954732239,1,0.22505495605468748,1.7405846069335937,-11.17254204711914
3511131034648,0.959732135,1,0.2537853759765625,1.7286135986328124,-11.176133349609374
3511136036627,0.964734114,1,0.24181436767578124,1.734599102783203,-11.162965240478515
3511141033659,0.969731146,1,0.2597708801269531,1.7465701110839842,-11.207257971191405
3511146034179,0.974731666,1,0.25258827514648435,1.7202338928222656,-11.21683477783203
3511151033711,0.979731198,1,0.2346317626953125,1.7525556152343749,-11.206060870361327
3511156035117,0.984732604,1,0.2166752502441406,1.734599102783203,-11.195286962890624
3511161034544,0.989732031,1,0.2214636535644531,1.7274164978027342,-11.195286962890624
3511166034336,0.994731823,1,0.22385785522460935,1.7130512878417967,-11.177330450439452
3511171038450,0.999735937,1,0.22385785522460935,1.7322049011230467,-11.192892761230468
3511176036106,1.004733593,1,0.22744915771484372,1.7549498168945312,-11.164162341308593
3511181034179,1.009731666,1,0.23822306518554687,1.744175909423828,-11.19887826538086
3511186034231,1.014731718,1,0.21068974609375,1.7357962036132812,-11.170147845458983
3511191034804,1.019732291,1,0.22385785522460935,1.7501614135742187,-11.156979736328124
3511196034752,1.024732239,1,0.23702596435546874,1.7274164978027342,-11.184513055419922
3511201034856,1.029732343,1,0.22864625854492185,1.7393875061035156,-11.234791290283203
3511206034909,1.034732396,1,0.23343466186523437,1.7525556152343749,-11.200075366210937
3511211034961,1.039732448,1,0.21308394775390624,1.7429788085937499,-11.19169566040039
3511216034909,1.044732396,1,0.24301146850585936,1.7429788085937499,-11.184513055419922
3511221034284,1.049731771,1,0.21906945190429686,1.763329522705078,-11.194089862060546
3511226034127,1.054731614,1,0.24301146850585936,1.7453730102539062,-11.183315954589844
3511231034440,1.059731927,1,0.2262520568847656,1.7501614135742187,-11.195286962890624
3511236034700,1.064732187,1,0.2214636535644531,1.7298106994628906,-11.159373937988281
3511241034179,1.069731666,1,0.22744915771484372,1.7310078002929687,-11.180921752929686
3511246034804,1.074732291,1,0.239420166015625,1.7214309936523438,-11.17254204711914
3511251036002,1.079733489,1,0.24779987182617186,1.6986860778808592,-11.202469567871093
3511256035169,1.084732656,1,0.24899697265624998,1.7166425903320313,-11.176133349609374
3511261035117,1.089732604,1,0.23582886352539062,1.7334020019531249,-11.173739147949219
3511266034440,1.094731927,1,0.24181436767578124,1.7094599853515624,-11.18571015625
3511271034231,1.099731718,1,0.24181436767578124,1.6986860778808592,-11.192892761230468
3511276035117,1.104732604,1,0.22864625854492185,1.7130512878417967,-11.179724652099608
3511281035690,1.109733177,1,0.23104046020507812,1.7573440185546874,-11.239579693603515
3511286035377,1.114732864,1,0.23343466186523437,1.7561469177246092,-11.215637677001952
3511291034388,1.119731875,1,0.21906945190429686,1.7357962036132812,-11.18571015625
3511296034596,1.124732083,1,0.2346317626953125,1.7262193969726563,-11.166556542968749
3511301034336,1.129731823,1,0.201112939453125,1.7381904052734374,-11.21084927368164
3511306034856,1.134732343,1,0.22505495605468748,1.7286135986328124,-11.202469567871093
3511311034283,1.13973177,1,0.22505495605468748,1.7322049011230467,-11.183315954589844
3511316034961,1.144732448,1,0.2166752502441406,1.7190367919921874,-11.200075366210937
3511321034440,1.149731927,1,0.239420166015625,1.7393875061035156,-11.16057103881836
3511326035846,1.154733333,1,0.22266075439453123,1.7298106994628906,-11.17254204711914
3511331034336,1.159731823,1,0.21787235107421873,1.7190367919921874,-11.156979736328124
3511336031211,1.164728698,1,0.24779987182617186,1.7214309936523438,-11.174936248779296
3511341035429,1.169732916,1,0.2454056701660156,1.7166425903320313,-11.192892761230468
3511346034856,1.174732343,1,0.2154781494140625,1.7513585144042967,-11.189301458740234
3511351034648,1.179732135,1,0.20949264526367187,1.7322049011230467,-11.166556542968749
3511356064231,1.184761718,1,0.2262520568847656,1.744175909423828,-11.183315954589844
3511361035013,1.1897325,1,0.23582886352539062,1.7130512878417967,-11.201272467041015
3511366034388,1.194731875,1,0.22744915771484372,1.7357962036132812,-11.203666668701171
3511371034648,1.199732135,1,0.23702596435546874,1.744175909423828,-11.195286962890624
3511376035013,1.2047325,1,0.24061726684570311,1.7202338928222656,-11.190498559570312
3511381035273,1.20973276,1,0.239420166015625,1.697488977050781,-11.202469567871093
3511386032929,1.214730416,1,0.2597708801269531,1.7393875061035156,-11.17852755126953
3511391034492,1.219731979,1,0.229843359375,1.7393875061035156,-11.192892761230468
3511396033919,1.224731406,1,0.2501940734863281,1.7477672119140624,-11.207257971191405
3511401033919,1.229731406,1,0.22026655273437498,1.7238251953125,-11.195286962890624
3511406034336,1.234731823,1,0.22744915771484372,1.7369933044433592,-11.192892761230468
3511411035221,1.239732708,1,0.22864625854492185,1.7238251953125,-11.190498559570312
3511416034700,1.244732187,1,0.2537853759765625,1.7190367919921874,-11.196484063720703
3511421034336,1.249731823,1,0.2214636535644531,1.7226280944824217,-11.220426080322264
3511426034440,1.254731927,1,0.21787235107421873,1.725022296142578,-11.208455072021483
3511431033971,1.259731458,1,0.23343466186523437,1.7298106994628906,-11.18571015625
3511436033711,1.264731198,1,0.23223756103515625,1.7166425903320313,-11.17852755126953
3511441035013,1.2697325,1,0.20829554443359374,1.7202338928222656,-11.190498559570312
3511446034752,1.274732239,1,0.20949264526367187,1.725022296142578,-11.226411584472656
3511451034388,1.279731875,1,0.22744915771484372,1.7334020019531249,-11.215637677001952
3511456034856,1.284732343,1,0.22864625854492185,1.7298106994628906,-11.19169566040039
3511461035013,1.2897325,1,0.21308394775390624,1.7381904052734374,-11.218031878662108
3511466035377,1.294732864,1,0.22266075439453123,1.7609353210449217,-11.184513055419922
3511471034804,1.299732291,1,0.23702596435546874,1.744175909423828,-11.197681164550781
3511476035846,1.304733333,1,0.21428104858398436,1.7310078002929687,-11.186907257080078
3511481035533,1.30973302,1,0.23223756103515625,1.725022296142578,-11.170147845458983
3511486034596,1.314732083,1,0.2166752502441406,1.7226280944824217,-11.149797131347656
3511491034752,1.319732239,1,0.20470424194335937,1.7381904052734374,-11.170147845458983
3511496035169,1.324732656,1,0.23223756103515625,1.7334020019531249,-11.196484063720703
3511501033971,1.329731458,1,0.23822306518554687,1.7310078002929687,-11.188104357910156
3511506034596,1.334732083,1,0.22385785522460935,1.7405846069335937,-11.200075366210937
3511511033763,1.33973125,1,0.2214636535644531,1.7166425903320313,-11.188104357910156
3511516034335,1.344731822,1,0.24181436767578124,1.6998831787109374,-11.18571015625
3511521034283,1.34973177,1,0.21308394775390624,1.7082628845214842,-11.188104357910156
3511526034908,1.354732395,1,0.21787235107421873,1.7429788085937499,-11.179724652099608
3511531034544,1.359732031,1,0.22505495605468748,1.7357962036132812,-11.183315954589844
3511536034596,1.364732083,1,0.21787235107421873,1.697488977050781,-11.204863769531249
3511541034856,1.369732343,1,0.2059013427734375,1.6903063720703124,-11.186907257080078
3511546034856,1.374732343,1,0.21906945190429686,1.7298106994628906,-11.177330450439452
3511551034075,1.379731562,1,0.22744915771484372,1.7202338928222656,-11.173739147949219
3511556034388,1.384731875,1,0.2214636535644531,1.6998831787109374,-11.196484063720703
3511561035013,1.3897325,1,0.24779987182617186,1.7369933044433592,-11.207257971191405
3511566034804,1.394732291,1,0.21188684692382811,1.7369933044433592,-11.206060870361327
3511571034648,1.399732135,1,0.24301146850585936,1.7453730102539062,-11.186907257080078
3511576034440,1.404731927,1,0.2454056701660156,1.7489643127441405,-11.174936248779296
3511581034388,1.409731875,1,0.23582886352539062,1.7334020019531249,-11.156979736328124
3511586032669,1.414730156,1,0.2442085693359375,1.7429788085937499,-11.202469567871093
3511591035481,1.419732968,1,0.2442085693359375,1.7262193969726563,-11.21084927368164
3511596034752,1.424732239,1,0.2262520568847656,1.734599102783203,-11.180921752929686
3511601034700,1.429732187,1,0.229843359375,1.734599102783203,-11.222820281982422
3511606035065,1.434732552,1,0.23343466186523437,1.7286135986328124,-11.234791290283203
3511611034856,1.439732343,1,0.258573779296875,1.7357962036132812,-11.162965240478515
3511616034283,1.44473177,1,0.22505495605468748,1.7274164978027342,-11.119869610595703
3511621034127,1.449731614,1,0.22744915771484372,1.7022773803710936,-11.152191333007812
3511626034127,1.454731614,1,0.2262520568847656,1.7202338928222656,-11.141417425537108
3511631034179,1.459731666,1,0.258573779296875,1.7405846069335937,-11.146205828857422
3511636035377,1.464732864,1,0.25139117431640623,1.7214309936523438,-11.167753643798827
3511641040481,1.469737968,1,0.22385785522460935,1.7226280944824217,-11.197681164550781
3511646036158,1.474733645,1,0.2454056701660156,1.7429788085937499,-11.182118853759764
3511651040013,1.4797375,1,0.2262520568847656,1.7501614135742187,-11.197681164550781
3511656055950,1.484753437,1,0.21787235107421873,1.7477672119140624,-11.213243475341796
3511661029335,1.489726822,1,0.21906945190429686,1.7310078002929687,-11.218031878662108
3511666029596,1.494727083,1,0.22385785522460935,1.7381904052734374,-11.203666668701171
3511671033242,1.499730729,1,0.21428104858398436,1.7393875061035156,-11.19887826538086
3511676034440,1.504731927,1,0.2262520568847656,1.7262193969726563,-11.21084927368164
3511681035221,1.509732708,1,0.19632453613281248,1.7465701110839842,-11.208455072021483
3511686034440,1.514731927,1,0.20709844360351562,1.7130512878417967,-11.179724652099608
3511691035273,1.51973276,1,0.23104046020507812,1.725022296142578,-11.17852755126953
3511696035065,1.524732552,1,0.21428104858398436,1.725022296142578,-11.200075366210937
3511701034492,1.529731979,1,0.2262520568847656,1.734599102783203,-11.226411584472656
3511706035273,1.53473276,1,0.2166752502441406,1.714248388671875,-11.203666668701171
3511711035273,1.53973276,1,0.239420166015625,1.7214309936523438,-11.183315954589844
3511716034856,1.544732343,1,0.2549824768066406,1.7525556152343749,-11.189301458740234
3511721034387,1.549731874,1,0.24301146850585936,1.7417817077636717,-11.167753643798827
3511726034544,1.554732031,1,0.21906945190429686,1.7202338928222656,-11.18571015625
3511731034804,1.559732291,1,0.24181436767578124,1.7202338928222656,-11.202469567871093
3511736035637,1.564733124,1,0.26216508178710934,1.7334020019531249,-11.219228979492186
3511741035846,1.569733333,1,0.25258827514648435,1.7178396911621092,-11.219228979492186
3511746034492,1.574731979,1,0.23223756103515625,1.7298106994628906,-11.202469567871093
3511751034648,1.579732135,1,0.20949264526367187,1.7597382202148437,-11.188104357910156
3511756035012,1.584732499,1,0.21068974609375,1.7609353210449217,-11.182118853759764
3511761035585,1.589733072,1,0.22385785522460935,1.7357962036132812,-11.17852755126953
3511766035273,1.59473276,1,0.21308394775390624,1.7597382202148437,-11.164162341308593
3511771034544,1.599732031,1,0.2262520568847656,1.7429788085937499,-11.164162341308593
3511776034804,1.604732291,1,0.23223756103515625,1.7262193969726563,-11.212046374511718
3511781034075,1.609731562,1,0.24301146850585936,1.7393875061035156,-11.183315954589844
3511786035117,1.614732604,1,0.23343466186523437,1.7561469177246092,-11.16057103881836
3511791035585,1.619733072,1,0.24181436767578124,1.7202338928222656,-11.195286962890624
3511796035377,1.624732864,1,0.22744915771484372,1.7286135986328124,-11.183315954589844
3511801034908,1.629732395,1,0.23223756103515625,1.7357962036132812,-11.189301458740234
3511806035377,1.634732864,1,0.24660277099609373,1.7130512878417967,-11.162965240478515
3511811035012,1.639732499,1,0.24181436767578124,1.7178396911621092,-11.152191333007812
3511816035794,1.644733281,1,0.22864625854492185,1.7369933044433592,-11.164162341308593
3511821035273,1.64973276,1,0.2537853759765625,1.7022773803710936,-11.209652172851563
3511826035273,1.65473276,1,0.23822306518554687,1.7130512878417967,-11.190498559570312
3511831034283,1.65973177,1,0.22744915771484372,1.7405846069335937,-11.189301458740234
3511836075794,1.664773281,1,0.2501940734863281,1.7238251953125,-11.208455072021483
3511841036731,1.669734218,1,0.22505495605468748,1.7190367919921874,-11.21084927368164
3511846035377,1.674732864,1,0.23822306518554687,1.7298106994628906,-11.232397088623046
3511851034231,1.679731718,1,0.22505495605468748,1.7130512878417967,-11.227608685302734
3511856035429,1.684732916,1,0.2154781494140625,1.7214309936523438,-11.227608685302734
3511861035794,1.689733281,1,0.24301146850585936,1.7286135986328124,-11.200075366210937
3511866034492,1.694731979,1,0.21428104858398436,1.7286135986328124,-11.19169566040039
3511871031940,1.699729427,1,0.20350714111328125,1.725022296142578,-11.17852755126953
3511876034700,1.704732187,1,0.22026655273437498,1.725022296142578,-11.180921752929686
3511881034700,1.709732187,1,0.2214636535644531,1.7357962036132812,-11.190498559570312
3511886035325,1.714732812,1,0.22505495605468748,1.7369933044433592,-11.194089862060546
3511891034856,1.719732343,1,0.2059013427734375,1.7573440185546874,-11.192892761230468
3511896035481,1.724732968,1,0.20709844360351562,1.7489643127441405,-11.202469567871093
3511901034648,1.729732135,1,0.2166752502441406,1.7453730102539062,-11.176133349609374
3511906034752,1.734732239,1,0.22385785522460935,1.725022296142578,-11.166556542968749
3511911034335,1.739731822,1,0.23822306518554687,1.7106570861816406,-11.176133349609374
3511916035012,1.744732499,1,0.22026655273437498,1.7190367919921874,-11.16057103881836
3511921034648,1.749732135,1,0.20949264526367187,1.7274164978027342,-11.171344946289063
3511926035429,1.754732916,1,0.22385785522460935,1.7298106994628906,-11.218031878662108
3511931034648,1.759732135,1,0.23702596435546874,1.7262193969726563,-11.238382592773437
3511936034752,1.764732239,1,0.23343466186523437,1.734599102783203,-11.21683477783203
3511941034752,1.769732239,1,0.23702596435546874,1.7166425903320313,-11.213243475341796
3511946034648,1.774732135,1,0.2561795776367187,1.7190367919921874,-11.168950744628905
3511951035742,1.779733229,1,0.2442085693359375,1.7334020019531249,-11.152191333007812
3511956035637,1.784733124,1,0.23104046020507812,1.7417817077636717,-11.161768139648437
3511961034960,1.789732447,1,0.2214636535644531,1.7453730102539062,-11.171344946289063
3511966034492,1.794731979,1,0.24061726684570311,1.7298106994628906,-11.174936248779296
3511971034544,1.799732031,1,0.22026655273437498,1.707065783691406,-11.192892761230468
3511976034596,1.804732083,1,0.2166752502441406,1.7369933044433592,-11.177330450439452
3511981034283,1.80973177,1,0.2262520568847656,1.7202338928222656,-11.179724652099608
3511986034075,1.814731562,1,0.2262520568847656,1.7369933044433592,-11.190498559570312
3511991035377,1.819732864,1,0.22385785522460935,1.734599102783203,-11.196484063720703
3511996035742,1.824733229,1,0.20709844360351562,1.7501614135742187,-11.200075366210937
3512001035377,1.829732864,1,0.22385785522460935,1.7381904052734374,-11.183315954589844
3512006033971,1.834731458,1,0.21308394775390624,1.7357962036132812,-11.203666668701171
3512011033971,1.839731458,1,0.23582886352539062,1.753752716064453,-11.202469567871093
3512016035950,1.844733437,1,0.22744915771484372,1.744175909423828,-11.184513055419922
3512021035221,1.849732708,1,0.21906945190429686,1.7298106994628906,-11.186907257080078
3512026034648,1.854732135,1,0.24779987182617186,1.6903063720703124,-11.19169566040039
3512031034856,1.859732343,1,0.22026655273437498,1.707065783691406,-11.192892761230468
3512036034804,1.864732291,1,0.2166752502441406,1.707065783691406,-11.208455072021483
3512041031158,1.869728645,1,0.21428104858398436,1.7393875061035156,-11.212046374511718
3512046034908,1.874732395,1,0.2537853759765625,1.7274164978027342,-11.208455072021483
3512051035012,1.879732499,1,0.22266075439453123,1.7429788085937499,-11.19169566040039
3512056035481,1.884732968,1,0.22026655273437498,1.7310078002929687,-11.208455072021483
3512061034544,1.889732031,1,0.24181436767578124,1.7286135986328124,-11.176133349609374
3512066033867,1.894731354,1,0.24181436767578124,1.7226280944824217,-11.176133349609374
3512071032408,1.899729895,1,0.2346317626953125,1.7190367919921874,-11.162965240478515
3512076034752,1.904732239,1,0.22266075439453123,1.7310078002929687,-11.19887826538086
3512081032408,1.909729895,1,0.2262520568847656,1.7417817077636717,-11.184513055419922
3512086036002,1.914733489,1,0.2705447875976562,1.7381904052734374,-11.197681164550781
3512091033867,1.919731354,1,0.2537853759765625,1.7357962036132812,-11.18571015625
3512096034700,1.924732187,1,0.22744915771484372,1.734599102783203,-11.195286962890624
3512101034283,1.92973177,1,0.22026655273437498,1.7298106994628906,-11.186907257080078
3512106040377,1.934737864,1,0.2214636535644531,1.7262193969726563,-11.207257971191405
3512111036939,1.939734426,1,0.23104046020507812,1.7369933044433592,-11.17254204711914
3512116034960,1.944732447,1,0.2346317626953125,1.7501614135742187,-11.176133349609374
3512121034439,1.949731926,1,0.24301146850585936,1.7322049011230467,-11.182118853759764
3512126033294,1.954730781,1,0.22744915771484372,1.7286135986328124,-11.186907257080078
3512131034856,1.959732343,1,0.22505495605468748,1.7381904052734374,-11.18571015625
3512136034596,1.964732083,1,0.23223756103515625,1.7369933044433592,-11.166556542968749
3512141034960,1.969732447,1,0.22266075439453123,1.734599102783203,-11.179724652099608
3512146035637,1.974733124,1,0.20829554443359374,1.734599102783203,-11.196484063720703
3512151035950,1.979733437,1,0.21428104858398436,1.7262193969726563,-11.206060870361327
3512156077460,1.984774947,1,0.22864625854492185,1.7202338928222656,-11.14022032470703
3512161035377,1.989732864,1,0.2454056701660156,1.7561469177246092,-11.170147845458983
3512166034648,1.994732135,1,0.23223756103515625,1.744175909423828,-11.180921752929686
3512171034700,1.999732187,1,0.20829554443359374,1.7369933044433592,-11.152191333007812
3512176034700,2.004732187,1,0.23582886352539062,1.7369933044433592,-11.201272467041015
3512181034387,2.009731874,1,0.2454056701660156,1.7202338928222656,-11.231199987792968
3512186034648,2.014732135,1,0.20709844360351562,1.7238251953125,-11.149797131347656
3512191034387,2.019731874,1,0.23343466186523437,1.7094599853515624,-11.179724652099608
3512196035012,2.024732499,1,0.23822306518554687,1.7178396911621092,-11.183315954589844
3512201034439,2.029731926,1,0.23104046020507812,1.7010802795410156,-11.164162341308593
3512206034335,2.034731822,1,0.21068974609375,1.7094599853515624,-11.182118853759764
3512211035481,2.039732968,1,0.21308394775390624,1.734599102783203,-11.215637677001952
3512216035012,2.044732499,1,0.2346317626953125,1.7453730102539062,-11.215637677001952
3512221034700,2.049732187,1,0.22266075439453123,1.7477672119140624,-11.19887826538086
3512226034700,2.054732187,1,0.22266075439453123,1.7405846069335937,-11.21084927368164
3512231039752,2.059737239,1,0.1927332336425781,1.7357962036132812,-11.189301458740234
3512236036575,2.064734062,1,0.19871873779296872,1.734599102783203,-11.179724652099608
3512241035012,2.069732499,1,0.22505495605468748,1.7549498168945312,-11.17852755126953
3512246035637,2.074733124,1,0.24061726684570311,1.7381904052734374,-11.190498559570312
3512251034335,2.079731822,1,0.23822306518554687,1.7034744812011717,-11.173739147949219
3512256034596,2.084732083,1,0.2059013427734375,1.6998831787109374,-11.171344946289063
3512261033658,2.089731145,1,0.22026655273437498,1.7477672119140624,-11.220426080322264
3512266035846,2.094733333,1,0.2214636535644531,1.7357962036132812,-11.215637677001952
3512271034127,2.099731614,1,0.2166752502441406,1.7298106994628906,-11.19169566040039
3512276035533,2.10473302,1,0.20829554443359374,1.7310078002929687,-11.194089862060546
3512281034960,2.109732447,1,0.2454056701660156,1.7334020019531249,-11.170147845458983
3512286034856,2.114732343,1,0.24660277099609373,1.7393875061035156,-11.204863769531249
3512291036158,2.119733645,1,0.2214636535644531,1.7274164978027342,-11.208455072021483
3512296035273,2.12473276,1,0.21188684692382811,1.7238251953125,-11.204863769531249
3512301034491,2.129731978,1,0.22026655273437498,1.7501614135742187,-11.202469567871093
3512306034856,2.134732343,1,0.21906945190429686,1.7501614135742187,-11.155782635498046
3512311035116,2.139732603,1,0.2166752502441406,1.7226280944824217,-11.152191333007812
3512316034804,2.144732291,1,0.23582886352539062,1.7178396911621092,-11.149797131347656
3512321033866,2.149731353,1,0.22266075439453123,1.7465701110839842,-11.146205828857422
3512326034335,2.154731822,1,0.22026655273437498,1.7429788085937499,-11.170147845458983
3512331032564,2.159730051,1,0.2059013427734375,1.7094599853515624,-11.188104357910156
3512336034960,2.164732447,1,0.21787235107421873,1.7334020019531249,-11.188104357910156
3512341035325,2.169732812,1,0.22505495605468748,1.7262193969726563,-11.221623181152344
3512346035221,2.174732708,1,0.24660277099609373,1.753752716064453,-11.226411584472656
3512351034387,2.179731874,1,0.22505495605468748,1.7286135986328124,-11.21683477783203
3512356035168,2.184732655,1,0.22026655273437498,1.7274164978027342,-11.19887826538086
3512361035168,2.189732655,1,0.2154781494140625,1.7334020019531249,-11.246762298583985
3512366035064,2.194732551,1,0.22744915771484372,1.7334020019531249,-11.221623181152344
3512371035116,2.199732603,1,0.2561795776367187,1.7238251953125,-11.207257971191405
3512376035377,2.204732864,1,0.23223756103515625,1.7274164978027342,-11.190498559570312
3512381031939,2.209729426,1,0.21428104858398436,1.7513585144042967,-11.190498559570312
3512386035012,2.214732499,1,0.21906945190429686,1.7393875061035156,-11.170147845458983
3512391034700,2.219732187,1,0.23702596435546874,1.7106570861816406,-11.188104357910156
3512396034960,2.224732447,1,0.2346317626953125,1.7357962036132812,-11.195286962890624
3512401035012,2.229732499,1,0.229843359375,1.7322049011230467,-11.190498559570312
3512406035221,2.234732708,1,0.23822306518554687,1.7357962036132812,-11.166556542968749
3512411033814,2.239731301,1,0.2442085693359375,1.7357962036132812,-11.16057103881836
3512416034439,2.244731926,1,0.22026655273437498,1.7130512878417967,-11.167753643798827
3512421034179,2.249731666,1,0.2346317626953125,1.7310078002929687,-11.189301458740234
3512426035012,2.254732499,1,0.2262520568847656,1.7381904052734374,-11.17254204711914
3512431034700,2.259732187,1,0.2454056701660156,1.7310078002929687,-11.182118853759764
3512436034596,2.264732083,1,0.22385785522460935,1.7214309936523438,-11.182118853759764
3512441034908,2.269732395,1,0.21068974609375,1.753752716064453,-11.194089862060546
3512446034543,2.27473203,1,0.23104046020507812,1.7322049011230467,-11.204863769531249
3512451034127,2.279731614,1,0.24779987182617186,1.7202338928222656,-11.184513055419922
3512456034648,2.284732135,1,0.21906945190429686,1.7190367919921874,-11.182118853759764
3512461034752,2.289732239,1,0.229843359375,1.7202338928222656,-11.196484063720703
3512466035533,2.29473302,1,0.22026655273437498,1.7298106994628906,-11.16057103881836
3512471034960,2.299732447,1,0.22505495605468748,1.7178396911621092,-11.183315954589844
3512476034179,2.304731666,1,0.21188684692382811,1.7262193969726563,-11.192892761230468
3512481035846,2.309733333,1,0.22505495605468748,1.7286135986328124,-11.188104357910156
3512486034960,2.314732447,1,0.23343466186523437,1.734599102783203,-11.206060870361327
3512491035012,2.319732499,1,0.21906945190429686,1.7525556152343749,-11.195286962890624
3512496033450,2.324730937,1,0.21308394775390624,1.7381904052734374,-11.202469567871093
3512501034127,2.329731614,1,0.21068974609375,1.7262193969726563,-11.176133349609374
3512506035325,2.334732812,1,0.20709844360351562,1.7286135986328124,-11.188104357910156
3512511035168,2.339732655,1,0.2166752502441406,1.7238251953125,-11.183315954589844
3512516035012,2.344732499,1,0.21787235107421873,1.725022296142578,-11.19169566040039
3512521034596,2.349732083,1,0.23582886352539062,1.7238251953125,-11.156979736328124
3512526034491,2.354731978,1,0.24181436767578124,1.7094599853515624,-11.156979736328124
3512531034179,2.359731666,1,0.23582886352539062,1.7214309936523438,-11.204863769531249
3512536035064,2.364732551,1,0.2442085693359375,1.7393875061035156,-11.19887826538086
3512541035221,2.369732708,1,0.22266075439453123,1.7106570861816406,-11.17254204711914
3512546031262,2.374728749,1,0.2262520568847656,1.7477672119140624,-11.159373937988281
3512551034335,2.379731822,1,0.23223756103515625,1.7477672119140624,-11.173739147949219
3512556035168,2.384732655,1,0.24181436767578124,1.7453730102539062,-11.184513055419922
3512561034648,2.389732135,1,0.22505495605468748,1.7489643127441405,-11.1474029296875
3512566035168,2.394732655,1,0.22026655273437498,1.7525556152343749,-11.165359442138671
3512571034543,2.39973203,1,0.2262520568847656,1.7357962036132812,-11.154585534667968
3512576033137,2.404730624,1,0.1867477294921875,1.7334020019531249,-11.1474029296875
3512581034335,2.409731822,1,0.22744915771484372,1.7417817077636717,-11.146205828857422
3512586035220,2.414732707,1,0.21787235107421873,1.744175909423828,-11.177330450439452
3512591034908,2.419732395,1,0.2166752502441406,1.7334020019531249,-11.221623181152344
3512596034075,2.424731562,1,0.20829554443359374,1.7238251953125,-11.154585534667968
3512601034752,2.429732239,1,0.19512743530273435,1.7262193969726563,-11.204863769531249
3512606034335,2.434731822,1,0.22864625854492185,1.7453730102539062,-11.21084927368164
3512611033866,2.439731353,1,0.20350714111328125,1.725022296142578,-11.200075366210937
3512616034960,2.444732447,1,0.24301146850585936,1.707065783691406,-11.183315954589844
3512621034960,2.449732447,1,0.21428104858398436,1.7190367919921874,-11.148600030517578
3512626035064,2.454732551,1,0.22026655273437498,1.7274164978027342,-11.13423482055664
3512631034960,2.459732447,1,0.22266075439453123,1.7417817077636717,-11.158176837158203
3512636032668,2.464730155,1,0.2262520568847656,1.7298106994628906,-11.170147845458983
3512641035377,2.469732864,1,0.2166752502441406,1.7130512878417967,-11.176133349609374
3512646033345,2.474730832,1,0.22744915771484372,1.7357962036132812,-11.171344946289063
3512651034075,2.479731562,1,0.2059013427734375,1.734599102783203,-11.173739147949219
3512656034335,2.484731822,1,0.229843359375,1.7453730102539062,-11.165359442138671
3512661034491,2.489731978,1,0.1975216369628906,1.7106570861816406,-11.137826123046874
3512666034960,2.494732447,1,0.22505495605468748,1.734599102783203,-11.168950744628905
3512671034075,2.499731562,1,0.21906945190429686,1.7262193969726563,-11.18571015625
3512676034231,2.504731718,1,0.23223756103515625,1.7202338928222656,-11.220426080322264
3512681034960,2.509732447,1,0.24061726684570311,1.744175909423828,-11.190498559570312
3512686034491,2.514731978,1,0.2549824768066406,1.7190367919921874,-11.19169566040039
3512691034700,2.519732187,1,0.23343466186523437,1.7369933044433592,-11.194089862060546
3512696034075,2.524731562,1,0.2262520568847656,1.7334020019531249,-11.184513055419922
3512701034543,2.52973203,1,0.23822306518554687,1.725022296142578,-11.19169566040039
3512706040585,2.534738072,1,0.21787235107421873,1.707065783691406,-11.188104357910156
3512711036835,2.539734322,1,0.23702596435546874,1.7274164978027342,-11.174936248779296
3512716034595,2.544732082,1,0.2537853759765625,1.7202338928222656,-11.183315954589844
3512721035377,2.549732864,1,0.24061726684570311,1.7178396911621092,-11.196484063720703
3512726034752,2.554732239,1,0.239420166015625,1.7262193969726563,-11.155782635498046
3512731034387,2.559731874,1,0.239420166015625,1.7369933044433592,-11.17254204711914
3512736034387,2.564731874,1,0.22505495605468748,1.744175909423828,-11.148600030517578
3512741034335,2.569731822,1,0.21906945190429686,1.7226280944824217,-11.150994232177734
3512746035273,2.57473276,1,0.22266075439453123,1.7226280944824217,-11.177330450439452
3512751035168,2.579732655,1,0.24899697265624998,1.7417817077636717,-11.206060870361327
3512756035012,2.584732499,1,0.2442085693359375,1.7322049011230467,-11.2240173828125
3512761034648,2.589732135,1,0.24061726684570311,1.7262193969726563,-11.164162341308593
3512766034127,2.594731614,1,0.229843359375,1.7226280944824217,-11.177330450439452
3512771034752,2.599732239,1,0.22385785522460935,1.7334020019531249,-11.190498559570312
3512776034387,2.604731874,1,0.2214636535644531,1.7334020019531249,-11.202469567871093
3512781035012,2.609732499,1,0.20350714111328125,1.7657237243652342,-11.192892761230468
3512786034908,2.614732395,1,0.23582886352539062,1.7573440185546874,-11.19887826538086
3512791035168,2.619732655,1,0.22744915771484372,1.7417817077636717,-11.225214483642578
3512796038293,2.62473578,1,0.2154781494140625,1.7417817077636717,-11.208455072021483
3512801034647,2.629732134,1,0.21787235107421873,1.7310078002929687,-11.203666668701171
3512806034595,2.634732082,1,0.21068974609375,1.7274164978027342,-11.170147845458983
3512811034856,2.639732343,1,0.23822306518554687,1.744175909423828,-11.156979736328124
3512816036314,2.644733801,1,0.21308394775390624,1.7166425903320313,-11.158176837158203
3512821035272,2.649732759,1,0.23582886352539062,1.7178396911621092,-11.19169566040039
3512826033502,2.654730989,1,0.21428104858398436,1.7190367919921874,-11.192892761230468
3512831035741,2.659733228,1,0.20709844360351562,1.7118541870117185,-11.213243475341796
3512836035272,2.664732759,1,0.2166752502441406,1.7130512878417967,-11.173739147949219
3512841035220,2.669732707,1,0.2154781494140625,1.7214309936523438,-11.173739147949219
3512846035429,2.674732916,1,0.22505495605468748,1.7094599853515624,-11.206060870361327
3512851034700,2.679732187,1,0.22385785522460935,1.7226280944824217,-11.214440576171874
3512856034595,2.684732082,1,0.23104046020507812,1.707065783691406,-11.182118853759764
3512861032200,2.689729687,1,0.21787235107421873,1.7202338928222656,-11.202469567871093
3512866035377,2.694732864,1,0.20829554443359374,1.7322049011230467,-11.188104357910156
3512871035168,2.699732655,1,0.21787235107421873,1.7310078002929687,-11.214440576171874
3512876034491,2.704731978,1,0.2214636535644531,1.7214309936523438,-11.196484063720703
3512881034231,2.709731718,1,0.22505495605468748,1.7166425903320313,-11.225214483642578
3512886034856,2.714732343,1,0.229843359375,1.7310078002929687,-11.188104357910156
3512891034700,2.719732187,1,0.22266075439453123,1.7429788085937499,-11.189301458740234
3512896036627,2.724734114,1,0.22385785522460935,1.744175909423828,-11.184513055419922
3512901035012,2.729732499,1,0.23582886352539062,1.7357962036132812,-11.179724652099608
3512906034595,2.734732082,1,0.24899697265624998,1.7274164978027342,-11.256339105224608
3512911034179,2.739731666,1,0.23822306518554687,1.7369933044433592,-11.214440576171874
3512916034908,2.744732395,1,0.23343466186523437,1.7334020019531249,-11.183315954589844
3512921035272,2.749732759,1,0.22505495605468748,1.7178396911621092,-11.18571015625
3512926034491,2.754731978,1,0.22385785522460935,1.7322049011230467,-11.195286962890624
3512931035637,2.759733124,1,0.23223756103515625,1.7238251953125,-11.204863769531249
3512936035012,2.764732499,1,0.24061726684570311,1.7238251953125,-11.201272467041015
3512941035637,2.769733124,1,0.2501940734863281,1.7238251953125,-11.189301458740234
3512946035637,2.774733124,1,0.22266075439453123,1.7322049011230467,-11.21084927368164
3512951035168,2.779732655,1,0.2346317626953125,1.7549498168945312,-11.196484063720703
3512956034960,2.784732447,1,0.22266075439453123,1.7453730102539062,-11.213243475341796
3512961034543,2.78973203,1,0.25258827514648435,1.7202338928222656,-11.21084927368164
3512966035481,2.794732968,1,0.21787235107421873,1.7214309936523438,-11.234791290283203
3512971035168,2.799732655,1,0.22505495605468748,1.7130512878417967,-11.2240173828125
3512976035377,2.804732864,1,0.2346317626953125,1.707065783691406,-11.221623181152344
3512981035272,2.809732759,1,0.2454056701660156,1.7322049011230467,-11.196484063720703
3512986035272,2.814732759,1,0.24660277099609373,1.7190367919921874,-11.165359442138671
3512991034231,2.819731718,1,0.239420166015625,1.7226280944824217,-11.204863769531249
3512996035064,2.824732551,1,0.2442085693359375,1.7357962036132812,-11.176133349609374
3513001034543,2.82973203,1,0.2501940734863281,1.7369933044433592,-11.180921752929686
3513006035168,2.834732655,1,0.2346317626953125,1.7357962036132812,-11.204863769531249
3513011034804,2.839732291,1,0.2262520568847656,1.7561469177246092,-11.197681164550781
3513016034804,2.844732291,1,0.2454056701660156,1.7393875061035156,-11.202469567871093
3513021034543,2.84973203,1,0.23223756103515625,1.7130512878417967,-11.200075366210937
3513026034595,2.854732082,1,0.21906945190429686,1.7166425903320313,-11.171344946289063
3513031035377,2.859732864,1,0.20949264526367187,1.6915034729003906,-11.197681164550781
3513036035533,2.86473302,1,0.22026655273437498,1.7166425903320313,-11.188104357910156
3513041034908,2.869732395,1,0.22864625854492185,1.7190367919921874,-11.189301458740234
3513046035324,2.874732811,1,0.23702596435546874,1.7310078002929687,-11.176133349609374
3513051034908,2.879732395,1,0.20470424194335937,1.7190367919921874,-11.213243475341796
3513056034804,2.884732291,1,0.2154781494140625,1.7190367919921874,-11.176133349609374
3513061034387,2.889731874,1,0.2609679809570312,1.7118541870117185,-11.180921752929686
3513066034543,2.89473203,1,0.22744915771484372,1.7286135986328124,-11.171344946289063
3513071035324,2.899732811,1,0.21906945190429686,1.7465701110839842,-11.176133349609374
3513076035481,2.904732968,1,0.23582886352539062,1.7190367919921874,-11.180921752929686
3513081032772,2.909730259,1,0.21068974609375,1.7453730102539062,-11.180921752929686
3513086035064,2.914732551,1,0.21906945190429686,1.7226280944824217,-11.176133349609374
3513091034283,2.91973177,1,0.229843359375,1.7298106994628906,-11.186907257080078
3513096034856,2.924732343,1,0.2501940734863281,1.7190367919921874,-11.183315954589844
3513101034491,2.929731978,1,0.239420166015625,1.7238251953125,-11.21683477783203
3513106034960,2.934732447,1,0.24181436767578124,1.7298106994628906,-11.154585534667968
3513111033970,2.939731457,1,0.23223756103515625,1.7166425903320313,-11.18571015625
3513116034439,2.944731926,1,0.22505495605468748,1.7669208251953124,-11.183315954589844
3513121034647,2.949732134,1,0.22385785522460935,1.7549498168945312,-11.21084927368164
3513126034439,2.954731926,1,0.22266075439453123,1.7310078002929687,-11.201272467041015
3513131034335,2.959731822,1,0.24181436767578124,1.7357962036132812,-11.180921752929686
3513136034439,2.964731926,1,0.24181436767578124,1.7130512878417967,-11.152191333007812
3513141034543,2.96973203,1,0.23104046020507812,1.734599102783203,-11.188104357910156
3513146034127,2.974731614,1,0.2214636535644531,1.7214309936523438,-11.21683477783203
3513151031106,2.979728593,1,0.25258827514648435,1.7010802795410156,-11.18571015625
3513156034543,2.98473203,1,0.23582886352539062,1.7178396911621092,-11.167753643798827
3513161035064,2.989732551,1,0.23702596435546874,1.7238251953125,-11.168950744628905
3513166034543,2.99473203,1,0.23223756103515625,1.7322049011230467,-11.183315954589844
3513171034283,2.99973177,1,0.2262520568847656,1.7238251953125,-11.204863769531249
3513176040324,3.004737811,1,0.22385785522460935,1.725022296142578,-11.162965240478515
3513181034335,3.009731822,1,0.25737667846679685,1.7381904052734374,-11.196484063720703
3513186036158,3.014733645,1,0.24660277099609373,1.7322049011230467,-11.182118853759764
3513191035116,3.019732603,1,0.2214636535644531,1.7238251953125,-11.177330450439452
3513196034752,3.024732239,1,0.2442085693359375,1.7525556152343749,-11.190498559570312
3513201030793,3.02972828,1,0.19632453613281248,1.7369933044433592,-11.192892761230468
3513206034960,3.034732447,1,0.20231004028320312,1.7190367919921874,-11.200075366210937
3513211034179,3.039731666,1,0.20350714111328125,1.7262193969726563,-11.194089862060546
3513216034387,3.044731874,1,0.229843359375,1.7274164978027342,-11.21683477783203
3513221034387,3.049731874,1,0.229843359375,1.7274164978027342,-11.227608685302734
3513226034908,3.054732395,1,0.2346317626953125,1.7381904052734374,-11.186907257080078
3513231035168,3.059732655,1,0.2154781494140625,1.7417817077636717,-11.19887826538086
3513236034699,3.064732186,1,0.21428104858398436,1.7118541870117185,-11.215637677001952
3513241034491,3.069731978,1,0.2166752502441406,1.7130512878417967,-11.166556542968749
3513246035220,3.074732707,1,0.22744915771484372,1.7298106994628906,-11.180921752929686
3513251034491,3.079731978,1,0.23343466186523437,1.7238251953125,-11.19169566040039
3513256034335,3.084731822,1,0.2154781494140625,1.7453730102539062,-11.183315954589844
3513261035585,3.089733072,1,0.24061726684570311,1.7226280944824217,-11.197681164550781
3513266034439,3.094731926,1,0.2537853759765625,1.7310078002929687,-11.195286962890624
3513271035793,3.09973328,1,0.22505495605468748,1.7286135986328124,-11.231199987792968
3513276035064,3.104732551,1,0.20470424194335937,1.7310078002929687,-11.214440576171874
3513281034387,3.109731874,1,0.21308394775390624,1.7369933044433592,-11.218031878662108
3513286035533,3.11473302,1,0.2154781494140625,1.714248388671875,-11.18571015625
3513291034335,3.119731822,1,0.20231004028320312,1.7262193969726563,-11.171344946289063
3513296035220,3.124732707,1,0.21906945190429686,1.6998831787109374,-11.194089862060546
3513301033814,3.129731301,1,0.21428104858398436,1.7118541870117185,-11.219228979492186
3513306034543,3.13473203,1,0.20829554443359374,1.7369933044433592,-11.190498559570312
3513311034543,3.13973203,1,0.21308394775390624,1.7357962036132812,-11.21084927368164
3513316035012,3.144732499,1,0.22744915771484372,1.7334020019531249,-11.208455072021483
3513321033397,3.149730884,1,0.2214636535644531,1.7357962036132812,-11.17254204711914
3513326035689,3.154733176,1,0.20949264526367187,1.7477672119140624,-11.192892761230468
3513331034543,3.15973203,1,0.20231004028320312,1.744175909423828,-11.214440576171874
3513336034595,3.164732082,1,0.2262520568847656,1.714248388671875,-11.194089862060546
3513341034439,3.169731926,1,0.24061726684570311,1.7034744812011717,-11.202469567871093
3513346034804,3.174732291,1,0.22266075439453123,1.7106570861816406,-11.167753643798827
3513351034283,3.17973177,1,0.2214636535644531,1.7082628845214842,-11.152191333007812
3513356035324,3.184732811,1,0.24779987182617186,1.707065783691406,-11.156979736328124
3513361034387,3.189731874,1,0.26815058593749996,1.7453730102539062,-11.168950744628905
3513366034699,3.194732186,1,0.24779987182617186,1.7573440185546874,-11.164162341308593
3513371033762,3.199731249,1,0.22266075439453123,1.7226280944824217,-11.179724652099608
3513376035429,3.204732916,1,0.23822306518554687,1.7310078002929687,-11.17852755126953
3513381034699,3.209732186,1,0.22864625854492185,1.7453730102539062,-11.180921752929686
3513386034074,3.214731561,1,0.23822306518554687,1.744175909423828,-11.170147845458983
3513391033866,3.219731353,1,0.26216508178710934,1.7477672119140624,-11.174936248779296
3513396034699,3.224732186,1,0.19871873779296872,1.7417817077636717,-11.206060870361327
3513401034491,3.229731978,1,0.21068974609375,1.725022296142578,-11.154585534667968
3513406032512,3.234729999,1,0.21068974609375,1.734599102783203,-11.17852755126953
3513411034335,3.239731822,1,0.21068974609375,1.70467158203125,-11.180921752929686
3513416035064,3.244732551,1,0.22385785522460935,1.7262193969726563,-11.19169566040039
3513421034074,3.249731561,1,0.22744915771484372,1.7298106994628906,-11.171344946289063
3513426034283,3.25473177,1,0.23223756103515625,1.7417817077636717,-11.17254204711914
3513431033866,3.259731353,1,0.22026655273437498,1.7381904052734374,-11.195286962890624
3513436034335,3.264731822,1,0.22385785522460935,1.7453730102539062,-11.189301458740234
3513441035012,3.269732499,1,0.2262520568847656,1.7118541870117185,-11.171344946289063
3513446034960,3.274732447,1,0.2346317626953125,1.734599102783203,-11.143811627197264
3513451034595,3.279732082,1,0.22864625854492185,1.7405846069335937,-11.136629022216797
3513456034595,3.284732082,1,0.23223756103515625,1.7369933044433592,-11.149797131347656
3513461035168,3.289732655,1,0.22505495605468748,1.7238251953125,-11.212046374511718
3513466034960,3.294732447,1,0.21188684692382811,1.7190367919921874,-11.219228979492186
3513471034126,3.299731613,1,0.19632453613281248,1.7118541870117185,-11.186907257080078
3513476034960,3.304732447,1,0.21188684692382811,1.7178396911621092,-11.143811627197264
3513481034699,3.309732186,1,0.21188684692382811,1.7381904052734374,-11.192892761230468
3513486034803,3.31473229,1,0.258573779296875,1.7417817077636717,-11.155782635498046
3513491034178,3.319731665,1,0.2262520568847656,1.7286135986328124,-11.149797131347656
3513496034595,3.324732082,1,0.23582886352539062,1.714248388671875,-11.176133349609374
3513501034491,3.329731978,1,0.2214636535644531,1.744175909423828,-11.195286962890624
3513506035324,3.334732811,1,0.24899697265624998,1.7417817077636717,-11.188104357910156
3513511034699,3.339732186,1,0.23582886352539062,1.725022296142578,-11.168950744628905
3513516034543,3.34473203,1,0.20350714111328125,1.7429788085937499,-11.212046374511718
3513521034178,3.349731665,1,0.2214636535644531,1.7094599853515624,-11.200075366210937
3513526035064,3.354732551,1,0.2214636535644531,1.707065783691406,-11.196484063720703
3513531034856,3.359732343,1,0.22026655273437498,1.7118541870117185,-11.173739147949219
3513536035324,3.364732811,1,0.2166752502441406,1.7082628845214842,-11.158176837158203
3513541034803,3.36973229,1,0.22744915771484372,1.715445489501953,-11.171344946289063
3513546034283,3.37473177,1,0.20470424194335937,1.7298106994628906,-11.17254204711914
3513551034335,3.379731822,1,0.20709844360351562,1.7322049011230467,-11.200075366210937
3513556034699,3.384732186,1,0.22505495605468748,1.7298106994628906,-11.189301458740234
3513561035272,3.389732759,1,0.229843359375,1.753752716064453,-11.168950744628905
3513566034647,3.394732134,1,0.19991583862304688,1.734599102783203,-11.145008728027342
3513571032772,3.399730259,1,0.19632453613281248,1.7214309936523438,-11.177330450439452
3513576034439,3.404731926,1,0.2262520568847656,1.7178396911621092,-11.168950744628905
3513581033762,3.409731249,1,0.24301146850585936,1.7310078002929687,-11.180921752929686
3513586035064,3.414732551,1,0.258573779296875,1.7310078002929687,-11.196484063720703
3513591035324,3.419732811,1,0.239420166015625,1.7429788085937499,-11.16057103881836
3513596034699,3.424732186,1,0.20829554443359374,1.725022296142578,-11.166556542968749
3513601034491,3.429731978,1,0.2346317626953125,1.7453730102539062,-11.156979736328124
3513606035012,3.434732499,1,0.24181436767578124,1.7334020019531249,-11.167753643798827
3513611033970,3.439731457,1,0.2561795776367187,1.7298106994628906,-11.235988391113281
3513616035220,3.444732707,1,0.22026655273437498,1.7214309936523438,-11.206060870361327
3513621034647,3.449732134,1,0.22864625854492185,1.7357962036132812,-11.214440576171874
3513626034960,3.454732447,1,0.2597708801269531,1.7609353210449217,-11.218031878662108
3513631034595,3.459732082,1,0.2454056701660156,1.7501614135742187,-11.215637677001952
3513636035012,3.464732499,1,0.20709844360351562,1.7357962036132812,-11.177330450439452
3513641034439,3.469731926,1,0.22864625854492185,1.7262193969726563,-11.176133349609374
3513646040585,3.474738072,1,0.21068974609375,1.7322049011230467,-11.207257971191405
3513651035116,3.479732603,1,0.22266075439453123,1.7334020019531249,-11.207257971191405
3513656035168,3.484732655,1,0.2154781494140625,1.7178396911621092,-11.17254204711914
3513661032564,3.489730051,1,0.24779987182617186,1.7310078002929687,-11.17254204711914
3513666034803,3.49473229,1,0.2166752502441406,1.7178396911621092,-11.189301458740234
3513671034595,3.499732082,1,0.2154781494140625,1.7298106994628906,-11.156979736328124
3513676034699,3.504732186,1,0.2597708801269531,1.714248388671875,-11.183315954589844
3513681034335,3.509731822,1,0.23822306518554687,1.7501614135742187,-11.192892761230468
3513686033970,3.514731457,1,0.23702596435546874,1.7393875061035156,-11.200075366210937
3513691035116,3.519732603,1,0.24061726684570311,1.7274164978027342,-11.194089862060546
3513696034439,3.524731926,1,0.22385785522460935,1.7082628845214842,-11.188104357910156
3513701034178,3.529731665,1,0.19871873779296872,1.7322049011230467,-11.207257971191405
3513706106678,3.534804165,1,0.23104046020507812,1.7298106994628906,-11.194089862060546
3513711049803,3.53974729,1,0.23582886352539062,1.7238251953125,-11.184513055419922
3513716048970,3.544746457,1,0.24660277099609373,1.7417817077636717,-11.192892761230468
3513721049491,3.549746978,1,0.229843359375,1.7262193969726563,-11.168950744628905
3513726048501,3.554745988,1,0.2561795776367187,1.705868682861328,-11.156979736328124
3513731047980,3.559745467,1,0.23104046020507812,1.7453730102539062,-11.192892761230468
3513736048762,3.564746249,1,0.21068974609375,1.7465701110839842,-11.17852755126953
3513741048345,3.569745832,1,0.21308394775390624,1.725022296142578,-11.192892761230468
3513746048605,3.574746092,1,0.23822306518554687,1.744175909423828,-11.228805786132812
3513751048970,3.579746457,1,0.24181436767578124,1.734599102783203,-11.204863769531249
3513756048970,3.584746457,1,0.22744915771484372,1.7393875061035156,-11.16057103881836
3513761048189,3.589745676,1,0.20829554443359374,1.7393875061035156,-11.165359442138671
3513766048449,3.594745936,1,0.22385785522460935,1.753752716064453,-11.15338843383789
3513771048033,3.59974552,1,0.24899697265624998,1.7238251953125,-11.17254204711914
3513776048553,3.60474604,1,0.23822306518554687,1.7286135986328124,-11.19169566040039
3513781048762,3.609746249,1,0.20231004028320312,1.7094599853515624,-11.17254204711914
3513786048553,3.61474604,1,0.20470424194335937,1.7094599853515624,-11.206060870361327
3513791048033,3.61974552,1,0.2454056701660156,1.734599102783203,-11.214440576171874
3513796048658,3.624746145,1,0.21906945190429686,1.7298106994628906,-11.206060870361327
3513801048397,3.629745884,1,0.22026655273437498,1.7369933044433592,-11.167753643798827
3513806087355,3.634784842,1,0.21308394775390624,1.7369933044433592,-11.19169566040039
3513811049178,3.639746665,1,0.24779987182617186,1.7274164978027342,-11.23000288696289
3513816047095,3.644744582,1,0.22744915771484372,1.7226280944824217,-11.201272467041015
3513821051887,3.649749374,1,0.22505495605468748,1.7489643127441405,-11.183315954589844
3513826051887,3.654749374,1,0.201112939453125,1.7226280944824217,-11.17852755126953
3513831048345,3.659745832,1,0.20470424194335937,1.7417817077636717,-11.202469567871093
3513836048345,3.664745832,1,0.21308394775390624,1.70467158203125,-11.226411584472656
3513841049595,3.669747082,1,0.23702596435546874,1.715445489501953,-11.234791290283203
3513846048085,3.674745572,1,0.2537853759765625,1.7357962036132812,-11.202469567871093
3513851048866,3.679746353,1,0.22505495605468748,1.7106570861816406,-11.19169566040039
3513856049230,3.684746717,1,0.21787235107421873,1.7357962036132812,-11.202469567871093
3513861048449,3.689745936,1,0.2561795776367187,1.7393875061035156,-11.189301458740234
3513866048918,3.694746405,1,0.2346317626953125,1.7298106994628906,-11.19887826538086
3513871048814,3.699746301,1,0.24061726684570311,1.7226280944824217,-11.177330450439452
3513876049699,3.704747186,1,0.2154781494140625,1.7357962036132812,-11.18571015625
3513881049439,3.709746926,1,0.22385785522460935,1.7513585144042967,-11.203666668701171
3513886046939,3.714744426,1,0.22505495605468748,1.7405846069335937,-11.203666668701171
3513891049439,3.719746926,1,0.23104046020507812,1.7334020019531249,-11.195286962890624
3513896048657,3.724746144,1,0.24660277099609373,1.7286135986328124,-11.183315954589844
3513901049074,3.729746561,1,0.229843359375,1.7262193969726563,-11.203666668701171
3513906049543,3.73474703,1,0.23702596435546874,1.7525556152343749,-11.195286962890624
3513911049178,3.739746665,1,0.22385785522460935,1.7417817077636717,-11.194089862060546
3513916090532,3.744788019,1,0.23822306518554687,1.7489643127441405,-11.200075366210937
3513921048605,3.749746092,1,0.20949264526367187,1.715445489501953,-11.213243475341796
3513926048866,3.754746353,1,0.23343466186523437,1.744175909423828,-11.214440576171874
3513931048241,3.759745728,1,0.229843359375,1.7310078002929687,-11.206060870361327
3513936048970,3.764746457,1,0.239420166015625,1.7405846069335937,-11.206060870361327
3513941048241,3.769745728,1,0.23582886352539062,1.7429788085937499,-11.19169566040039
3513946049282,3.774746769,1,0.24301146850585936,1.7262193969726563,-11.166556542968749
3513951048762,3.779746249,1,0.2442085693359375,1.7513585144042967,-11.179724652099608
3513956048137,3.784745624,1,0.2346317626953125,1.7310078002929687,-11.201272467041015
3513961049178,3.789746665,1,0.22505495605468748,1.7334020019531249,-11.190498559570312
3513966049491,3.794746978,1,0.20709844360351562,1.7322049011230467,-11.206060870361327
3513971049439,3.799746926,1,0.22026655273437498,1.7274164978027342,-11.197681164550781
3513976048137,3.804745624,1,0.23223756103515625,1.7465701110839842,-11.208455072021483
3513981048293,3.80974578,1,0.24779987182617186,1.7489643127441405,-11.173739147949219
3513986047772,3.814745259,1,0.23582886352539062,1.7669208251953124,-11.204863769531249
3513991048397,3.819745884,1,0.22864625854492185,1.7238251953125,-11.213243475341796
3513996048137,3.824745624,1,0.24660277099609373,1.7226280944824217,-11.177330450439452
3514001375116,3.830072603,1,0.22266075439453123,1.7178396911621092,-11.141417425537108
3514006106782,3.834804269,1,0.22026655273437498,1.7166425903320313,-11.179724652099608
3514011056887,3.839754374,1,0.2262520568847656,1.7202338928222656,-11.177330450439452
3514016048762,3.844746249,1,0.22505495605468748,1.7393875061035156,-11.195286962890624
3514021047251,3.849744738,1,0.201112939453125,1.7369933044433592,-11.213243475341796
3514026046522,3.854744009,1,0.21906945190429686,1.7609353210449217,-11.214440576171874
3514031047616,3.859745103,1,0.239420166015625,1.7106570861816406,-11.189301458740234
3514036047928,3.864745415,1,0.23702596435546874,1.7513585144042967,-11.19887826538086
3514041050428,3.869747915,1,0.22385785522460935,1.715445489501953,-11.159373937988281
3514046048553,3.87474604,1,0.23343466186523437,1.7274164978027342,-11.190498559570312
3514051049126,3.879746613,1,0.24061726684570311,1.7166425903320313,-11.19887826538086
3514056048866,3.884746353,1,0.25258827514648435,1.7381904052734374,-11.183315954589844
3514061048397,3.889745884,1,0.2346317626953125,1.7501614135742187,-11.206060870361327
3514066045376,3.894742863,1,0.21428104858398436,1.7238251953125,-11.171344946289063
3514071045637,3.899743124,1,0.24779987182617186,1.7429788085937499,-11.189301458740234
3514076505793,3.90520328,1,0.2346317626953125,1.7322049011230467,-11.166556542968749
3514081051939,3.909749426,1,0.19632453613281248,1.7298106994628906,-11.190498559570312
3514086065689,3.914763176,1,0.20470424194335937,1.7166425903320313,-11.196484063720703
3514091053657,3.919751144,1,0.20829554443359374,1.714248388671875,-11.164162341308593
3514096051835,3.924749322,1,0.20829554443359374,1.7166425903320313,-11.203666668701171
3514101050064,3.929747551,1,0.23702596435546874,1.7286135986328124,-11.17852755126953
3514106049074,3.934746561,1,0.23822306518554687,1.7501614135742187,-11.189301458740234
3514111052824,3.939750311,1,0.23104046020507812,1.7429788085937499,-11.179724652099608
3514116062199,3.944759686,1,0.2262520568847656,1.7381904052734374,-11.19887826538086
3514121054074,3.949751561,1,0.23582886352539062,1.734599102783203,-11.219228979492186
3514126051522,3.954749009,1,0.2166752502441406,1.7262193969726563,-11.207257971191405
3514131050793,3.95974828,1,0.2154781494140625,1.7178396911621092,-11.173739147949219
3514136051053,3.96474854,1,0.24181436767578124,1.7477672119140624,-11.189301458740234
3514141051105,3.969748592,1,0.24660277099609373,1.7166425903320313,-11.180921752929686
3514146050637,3.974748124,1,0.24181436767578124,1.7298106994628906,-11.197681164550781
3514151050689,3.979748176,1,0.2262520568847656,1.7322049011230467,-11.200075366210937
3514156050012,3.984747499,1,0.2442085693359375,1.7262193969726563,-11.200075366210937
3514161051157,3.989748644,1,0.2262520568847656,1.7286135986328124,-11.176133349609374
3514166050324,3.994747811,1,0.2154781494140625,1.7310078002929687,-11.145008728027342
3514171050949,3.999748436,1,0.22864625854492185,1.7286135986328124,-11.174936248779296
3514176051834,4.004749321,1,0.24061726684570311,1.7381904052734374,-11.206060870361327
3514181050532,4.009748019,1,0.22385785522460935,1.7226280944824217,-11.235988391113281
3514186050741,4.014748228,1,0.22744915771484372,1.7274164978027342,-11.201272467041015
3514191051105,4.019748592,1,0.23343466186523437,1.7393875061035156,-11.189301458740234
3514196050584,4.024748071,1,0.23702596435546874,1.7465701110839842,-11.222820281982422
3514201050793,4.02974828,1,0.22385785522460935,1.7094599853515624,-11.203666668701171
3514206047459,4.034744946,1,0.20231004028320312,1.7082628845214842,-11.233594189453123
3514211050532,4.039748019,1,0.22026655273437498,1.7082628845214842,-11.208455072021483
3514216050428,4.044747915,1,0.22744915771484372,1.7178396911621092,-11.145008728027342
3514221051105,4.049748592,1,0.2442085693359375,1.7429788085937499,-11.177330450439452
3514226051053,4.05474854,1,0.23822306518554687,1.7190367919921874,-11.203666668701171
3514231055637,4.059753124,1,0.22864625854492185,1.7094599853515624,-11.165359442138671
3514236052355,4.064749842,1,0.20470424194335937,1.7214309936523438,-11.182118853759764
3514241050220,4.069747707,1,0.2561795776367187,1.725022296142578,-11.146205828857422
3514246050689,4.074748176,1,0.2657563842773437,1.7082628845214842,-11.190498559570312
3514251051366,4.079748853,1,0.25737667846679685,1.7262193969726563,-11.17852755126953
3514256050637,4.084748124,1,0.22385785522460935,1.7310078002929687,-11.18571015625
3514261051209,4.089748696,1,0.22266075439453123,1.7166425903320313,-11.17852755126953
3514266050480,4.094747967,1,0.22864625854492185,1.7238251953125,-11.183315954589844
3514271050584,4.099748071,1,0.22864625854492185,1.7106570861816406,-11.152191333007812
3514276051782,4.104749269,1,0.22864625854492185,1.744175909423828,-11.1474029296875
3514281046678,4.109744165,1,0.21308394775390624,1.7561469177246092,-11.174936248779296
3514286051522,4.114749009,1,0.21787235107421873,1.725022296142578,-11.194089862060546
3514291050741,4.119748228,1,0.21308394775390624,1.7310078002929687,-11.195286962890624
3514296050116,4.124747603,1,0.17597382202148437,1.7334020019531249,-11.190498559570312
3514301050116,4.129747603,1,0.22505495605468748,1.7429788085937499,-11.197681164550781
3514306051053,4.13474854,1,0.22505495605468748,1.7190367919921874,-11.168950744628905
3514311067616,4.139765103,1,0.22744915771484372,1.7429788085937499,-11.166556542968749
3514316052199,4.144749686,1,0.2154781494140625,1.7298106994628906,-11.19887826538086
3514321050584,4.149748071,1,0.23702596435546874,1.7202338928222656,-11.192892761230468
3514326050741,4.154748228,1,0.24181436767578124,1.7597382202148437,-11.154585534667968
3514331050897,4.159748384,1,0.21068974609375,1.7477672119140624,-11.195286962890624
3514336051366,4.164748853,1,0.20350714111328125,1.7465701110839842,-11.204863769531249
3514341050793,4.16974828,1,0.21188684692382811,1.7501614135742187,-11.192892761230468
3514346051157,4.174748644,1,0.2154781494140625,1.7369933044433592,-11.218031878662108
3514351051418,4.179748905,1,0.22385785522460935,1.7393875061035156,-11.18571015625
3514356051261,4.184748748,1,0.20709844360351562,1.7322049011230467,-11.166556542968749
3514361051157,4.189748644,1,0.2166752502441406,1.7393875061035156,-11.180921752929686
3514366050220,4.194747707,1,0.23582886352539062,1.6938976745605467,-11.164162341308593
3514371051001,4.199748488,1,0.2645592834472656,1.7118541870117185,-11.152191333007812
3514376051782,4.204749269,1,0.22266075439453123,1.7310078002929687,-11.16057103881836
3514381050949,4.209748436,1,0.25139117431640623,1.7369933044433592,-11.180921752929686
3514386049751,4.214747238,1,0.23822306518554687,1.7310078002929687,-11.209652172851563
3514391050689,4.219748176,1,0.21188684692382811,1.7369933044433592,-11.218031878662108
3514396052251,4.224749738,1,0.2346317626953125,1.7369933044433592,-11.177330450439452
3514401049855,4.229747342,1,0.21787235107421873,1.7166425903320313,-11.240776794433593
3514406050897,4.234748384,1,0.2154781494140625,1.7214309936523438,-11.167753643798827
3514411051782,4.239749269,1,0.21787235107421873,1.715445489501953,-11.176133349609374
3514416051730,4.244749217,1,0.2346317626953125,1.7262193969726563,-11.186907257080078
3514421050428,4.249747915,1,0.2442085693359375,1.7453730102539062,-11.203666668701171
3514426050584,4.254748071,1,0.2454056701660156,1.7310078002929687,-11.19887826538086
3514431046574,4.259744061,1,0.22505495605468748,1.7334020019531249,-11.203666668701171
3514436052407,4.264749894,1,0.22505495605468748,1.7429788085937499,-11.186907257080078
3514441051522,4.269749009,1,0.23223756103515625,1.7262193969726563,-11.190498559570312
3514446051366,4.274748853,1,0.2214636535644531,1.714248388671875,-11.226411584472656
3514451051314,4.279748801,1,0.23702596435546874,1.7214309936523438,-11.221623181152344
3514456051574,4.284749061,1,0.23104046020507812,1.7178396911621092,-11.203666668701171
3514461050689,4.289748176,1,0.24660277099609373,1.7166425903320313,-11.19887826538086
3514466052303,4.29474979,1,0.21906945190429686,1.734599102783203,-11.213243475341796
3514471051105,4.299748592,1,0.21308394775390624,1.70467158203125,-11.190498559570312
3514476050949,4.304748436,1,0.2154781494140625,1.725022296142578,-11.17254204711914
3514481050324,4.309747811,1,0.21068974609375,1.714248388671875,-11.18571015625
3514486050897,4.314748384,1,0.23343466186523437,1.7094599853515624,-11.149797131347656
3514491050949,4.319748436,1,0.21787235107421873,1.7202338928222656,-11.182118853759764
3514496051522,4.324749009,1,0.2262520568847656,1.7393875061035156,-11.197681164550781
3514501051470,4.329748957,1,0.23223756103515625,1.7298106994628906,-11.180921752929686
3514506051001,4.334748488,1,0.2501940734863281,1.7322049011230467,-11.208455072021483
3514511050584,4.339748071,1,0.22505495605468748,1.7381904052734374,-11.19887826538086
3514516051782,4.344749269,1,0.2262520568847656,1.7286135986328124,-11.183315954589844
3514521051886,4.349749373,1,0.23702596435546874,1.7214309936523438,-11.214440576171874
3514526051209,4.354748696,1,0.2549824768066406,1.7453730102539062,-11.188104357910156
3514531050793,4.35974828,1,0.21787235107421873,1.744175909423828,-11.209652172851563
3514536051314,4.364748801,1,0.22266075439453123,1.7393875061035156,-11.194089862060546
3514541051105,4.369748592,1,0.23104046020507812,1.7334020019531249,-11.177330450439452
3514546051522,4.374749009,1,0.2262520568847656,1.7298106994628906,-11.201272467041015
3514551051157,4.379748644,1,0.22266075439453123,1.763329522705078,-11.212046374511718
3514556051261,4.384748748,1,0.22864625854492185,1.7393875061035156,-11.161768139648437
3514561046366,4.389743853,1,0.22744915771484372,1.7322049011230467,-11.17852755126953
3514566051001,4.394748488,1,0.229843359375,1.7322049011230467,-11.164162341308593
3514571050636,4.399748123,1,0.19991583862304688,1.7310078002929687,-11.176133349609374
3514576050376,4.404747863,1,0.2154781494140625,1.7549498168945312,-11.176133349609374
3514581050584,4.409748071,1,0.25737667846679685,1.7561469177246092,-11.204863769531249
3514586051001,4.414748488,1,0.229843359375,1.7357962036132812,-11.184513055419922
3514591047043,4.41974453,1,0.22864625854492185,1.7226280944824217,-11.183315954589844
3514596051886,4.424749373,1,0.23702596435546874,1.7489643127441405,-11.162965240478515
3514601051001,4.429748488,1,0.21308394775390624,1.7681179260253905,-11.15338843383789
3514606051574,4.434749061,1,0.229843359375,1.7405846069335937,-11.177330450439452
3514611051418,4.439748905,1,0.24301146850585936,1.7405846069335937,-11.186907257080078
3514616051470,4.444748957,1,0.2549824768066406,1.7477672119140624,-11.155782635498046
3514621051105,4.449748592,1,0.25139117431640623,1.7298106994628906,-11.16057103881836
3514626050480,4.454747967,1,0.24660277099609373,1.7489643127441405,-11.170147845458983
3514631051053,4.45974854,1,0.23343466186523437,1.7190367919921874,-11.154585534667968
3514636051730,4.464749217,1,0.201112939453125,1.7118541870117185,-11.171344946289063
3514641050584,4.469748071,1,0.18555062866210936,1.7130512878417967,-11.148600030517578
3514646050636,4.474748123,1,0.22026655273437498,1.7178396911621092,-11.167753643798827
3514651050741,4.479748228,1,0.20829554443359374,1.7405846069335937,-11.215637677001952
3514656051574,4.484749061,1,0.21068974609375,1.7310078002929687,-11.183315954589844
3514661051157,4.489748644,1,0.22026655273437498,1.7106570861816406,-11.162965240478515
3514666050636,4.494748123,1,0.23223756103515625,1.715445489501953,-11.225214483642578
3514671051313,4.4997488,1,0.24779987182617186,1.7322049011230467,-11.208455072021483
3514676051366,4.504748853,1,0.23702596435546874,1.7298106994628906,-11.17852755126953
3514681051209,4.509748696,1,0.20470424194335937,1.7465701110839842,-11.202469567871093
3514686046678,4.514744165,1,0.21308394775390624,1.7214309936523438,-11.19169566040039
3514691048970,4.519746457,1,0.22385785522460935,1.7489643127441405,-11.177330450439452
3514696050793,4.52474828,1,0.25258827514648435,1.7477672119140624,-11.146205828857422
3514701050428,4.529747915,1,0.2442085693359375,1.7525556152343749,-11.158176837158203
3514706060636,4.534758123,1,0.2442085693359375,1.7381904052734374,-11.149797131347656
3514711052720,4.539750207,1,0.24181436767578124,1.725022296142578,-11.19887826538086
3514716051574,4.544749061,1,0.23223756103515625,1.705868682861328,-11.190498559570312
3514721050636,4.549748123,1,0.21428104858398436,1.7322049011230467,-11.188104357910156
3514726051366,4.554748853,1,0.21787235107421873,1.7298106994628906,-11.189301458740234
3514731051261,4.559748748,1,0.229843359375,1.7190367919921874,-11.213243475341796
3514736050220,4.564747707,1,0.22505495605468748,1.7034744812011717,-11.21683477783203
3514741051313,4.5697488,1,0.21906945190429686,1.7034744812011717,-11.200075366210937
3514746051313,4.5747488,1,0.2346317626953125,1.7202338928222656,-11.196484063720703
3514751051886,4.579749373,1,0.24301146850585936,1.7106570861816406,-11.231199987792968
3514756051782,4.584749269,1,0.2549824768066406,1.6938976745605467,-11.195286962890624
3514761051313,4.5897488,1,0.23104046020507812,1.715445489501953,-11.202469567871093
3514766050793,4.59474828,1,0.2346317626953125,1.7381904052734374,-11.231199987792968
3514771050740,4.599748227,1,0.23223756103515625,1.7238251953125,-11.2240173828125
3514776050688,4.604748175,1,0.22744915771484372,1.725022296142578,-11.215637677001952
3514781051418,4.609748905,1,0.24061726684570311,1.7118541870117185,-11.228805786132812
3514786051938,4.614749425,1,0.22266075439453123,1.7106570861816406,-11.179724652099608
3514791050845,4.619748332,1,0.23822306518554687,1.7585411193847655,-11.15338843383789
3514796051730,4.624749217,1,0.2549824768066406,1.753752716064453,-11.174936248779296
3514801051365,4.629748852,1,0.2609679809570312,1.7214309936523438,-11.208455072021483
3514806050793,4.63474828,1,0.22744915771484372,1.725022296142578,-11.201272467041015
3514811047980,4.639745467,1,0.20231004028320312,1.7238251953125,-11.19169566040039
3514816050740,4.644748227,1,0.2059013427734375,1.7214309936523438,-11.204863769531249
3514821051365,4.649748852,1,0.23104046020507812,1.7357962036132812,-11.201272467041015
3514826051470,4.654748957,1,0.2214636535644531,1.7118541870117185,-11.177330450439452
3514831051834,4.659749321,1,0.22266075439453123,1.7094599853515624,-11.183315954589844
3514836051157,4.664748644,1,0.20350714111328125,1.7381904052734374,-11.192892761230468
3514841051209,4.669748696,1,0.2346317626953125,1.7178396911621092,-11.190498559570312
3514846047303,4.67474479,1,0.23582886352539062,1.7357962036132812,-11.170147845458983
3514851051522,4.679749009,1,0.19153613281249998,1.7322049011230467,-11.177330450439452
3514856051782,4.684749269,1,0.229843359375,1.725022296142578,-11.168950744628905
3514861051418,4.689748905,1,0.23343466186523437,1.7094599853515624,-11.188104357910156
3514866051105,4.694748592,1,0.23582886352539062,1.7274164978027342,-11.222820281982422
3514871051001,4.699748488,1,0.23702596435546874,1.7202338928222656,-11.203666668701171
3514876051574,4.704749061,1,0.20709844360351562,1.7334020019531249,-11.219228979492186
3514881050740,4.709748227,1,0.21068974609375,1.7274164978027342,-11.23000288696289
3514886051470,4.714748957,1,0.23822306518554687,1.7334020019531249,-11.225214483642578
3514891051209,4.719748696,1,0.23104046020507812,1.715445489501953,-11.201272467041015
3514896051522,4.724749009,1,0.201112939453125,1.7190367919921874,-11.202469567871093
3514901051626,4.729749113,1,0.19632453613281248,1.7214309936523438,-11.202469567871093
3514906051053,4.73474854,1,0.17118541870117188,1.7310078002929687,-11.170147845458983
3514911047824,4.739745311,1,0.19393033447265623,1.744175909423828,-11.202469567871093
3514916050272,4.744747759,1,0.23104046020507812,1.7310078002929687,-11.154585534667968
3514921051938,4.749749425,1,0.23702596435546874,1.734599102783203,-11.164162341308593
3514926052511,4.754749998,1,0.201112939453125,1.7118541870117185,-11.184513055419922
3514931051470,4.759748957,1,0.24779987182617186,1.7118541870117185,-11.203666668701171
3514936050793,4.76474828,1,0.229843359375,1.7178396911621092,-11.189301458740234
3514941046261,4.769743748,1,0.23702596435546874,1.7178396911621092,-11.167753643798827
3514946051105,4.774748592,1,0.24061726684570311,1.7477672119140624,-11.186907257080078
3514951050636,4.779748123,1,0.23223756103515625,1.7489643127441405,-11.158176837158203
3514956050220,4.784747707,1,0.23343466186523437,1.7621324218749999,-11.189301458740234
3514961050324,4.789747811,1,0.23104046020507812,1.7118541870117185,-11.188104357910156
3514966052199,4.794749686,1,0.21068974609375,1.7453730102539062,-11.173739147949219
3514971051418,4.799748905,1,0.2346317626953125,1.7274164978027342,-11.158176837158203
3514976051938,4.804749425,1,0.22505495605468748,1.7298106994628906,-11.176133349609374
3514981051782,4.809749269,1,0.23104046020507812,1.7573440185546874,-11.201272467041015
3514986051678,4.814749165,1,0.2549824768066406,1.7465701110839842,-11.194089862060546
3514991050011,4.819747498,1,0.23822306518554687,1.7465701110839842,-11.218031878662108
3514996051157,4.824748644,1,0.2214636535644531,1.7310078002929687,-11.250353601074218
3515001051417,4.829748904,1,0.2454056701660156,1.7393875061035156,-11.201272467041015
3515006050897,4.834748384,1,0.23343466186523437,1.695094775390625,-11.167753643798827
3515011050428,4.839747915,1,0.2154781494140625,1.7334020019531249,-11.156979736328124
3515016066574,4.844764061,1,0.2262520568847656,1.7369933044433592,-11.174936248779296
3515021051365,4.849748852,1,0.22744915771484372,1.7465701110839842,-11.209652172851563
3515026052563,4.85475005,1,0.20829554443359374,1.7597382202148437,-11.226411584472656
3515031051001,4.859748488,1,0.20709844360351562,1.7369933044433592,-11.189301458740234
3515036050949,4.864748436,1,0.21906945190429686,1.7190367919921874,-11.195286962890624
3515041050845,4.869748332,1,0.2154781494140625,1.725022296142578,-11.186907257080078
3515046051938,4.874749425,1,0.23582886352539062,1.7513585144042967,-11.21683477783203
3515051051105,4.879748592,1,0.24061726684570311,1.7549498168945312,-11.168950744628905
3515056073292,4.884770779,1,0.22026655273437498,1.7597382202148437,-11.17852755126953
3515061051782,4.889749269,1,0.21787235107421873,1.7417817077636717,-11.203666668701171
3515066118449,4.894815936,1,0.22505495605468748,1.714248388671875,-11.206060870361327
3515071091313,4.8997888,1,0.23343466186523437,1.7106570861816406,-11.212046374511718
3515076057355,4.904754842,1,0.1975216369628906,1.7274164978027342,-11.189301458740234
3515081046938,4.909744425,1,0.229843359375,1.7322049011230467,-11.189301458740234
3515086046990,4.914744477,1,0.25258827514648435,1.744175909423828,-11.33175645751953
3515091046886,4.919744373,1,0.239420166015625,1.7322049011230467,-11.049240661621093
3515096062407,4.924759894,1,0.22385785522460935,1.7369933044433592,-11.323376751708985
3515101046522,4.929744009,1,0.20470424194335937,1.7310078002929687,-11.167753643798827
3515106050480,4.934747967,1,0.22026655273437498,1.7082628845214842,-11.060014569091797
3515111048449,4.939745936,1,0.22385785522460935,1.7357962036132812,-11.219228979492186
3515116048188,4.944745675,1,0.23104046020507812,1.7322049011230467,-11.218031878662108
3515121050115,4.949747602,1,0.22505495605468748,1.715445489501953,-11.192892761230468
3515126050167,4.954747654,1,0.2262520568847656,1.7310078002929687,-11.19169566040039
3515131049334,4.959746821,1,0.20829554443359374,1.725022296142578,-11.196484063720703
3515136048657,4.964746144,1,0.22026655273437498,1.744175909423828,-11.202469567871093
3515141047720,4.969745207,1,0.20829554443359374,1.7405846069335937,-11.220426080322264
3515146048813,4.9747463,1,0.23223756103515625,1.7322049011230467,-11.189301458740234
3515151048449,4.979745936,1,0.22744915771484372,1.7381904052734374,-11.197681164550781
3515156048345,4.984745832,1,0.23702596435546874,1.763329522705078,-11.324573852539062
3515161048917,4.989746404,1,0.21308394775390624,1.7369933044433592,-11.044452258300781
3515166046365,4.994743852,1,0.22505495605468748,1.7190367919921874,-11.324573852539062
3515171050532,4.999748019,1,0.21906945190429686,1.7381904052734374,-11.176133349609374
3515176066157,5.004763644,1,0.24779987182617186,1.7429788085937499,-11.19169566040039
3515181059855,5.009757342,1,0.239420166015625,1.7573440185546874,-11.219228979492186
3515186051157,5.014748644,1,0.22266075439453123,1.7501614135742187,-11.320982550048827
3515191050376,5.019747863,1,0.22744915771484372,1.7597382202148437,-11.033678350830078
3515196048501,5.024745988,1,0.22744915771484372,1.7477672119140624,-11.190498559570312
3515201049074,5.029746561,1,0.23104046020507812,1.734599102783203,-11.19169566040039
3515206048449,5.034745936,1,0.2262520568847656,1.715445489501953,-11.206060870361327
3515211048657,5.039746144,1,0.21787235107421873,1.7178396911621092,-11.282675323486327
3515216049126,5.044746613,1,0.20350714111328125,1.7214309936523438,-11.182118853759764
3515221050636,5.049748123,1,0.24779987182617186,1.7453730102539062,-11.04564935913086
3515226048969,5.054746456,1,0.22505495605468748,1.7465701110839842,-11.192892761230468
3515231046678,5.059744165,1,0.21188684692382811,1.7453730102539062,-11.21683477783203
3515236048553,5.06474604,1,0.22744915771484372,1.7357962036132812,-11.213243475341796
3515241048865,5.069746352,1,0.22026655273437498,1.725022296142578,-11.301828936767578
3515246049178,5.074746665,1,0.23822306518554687,1.7178396911621092,-11.037269653320312
3515251050011,5.079747498,1,0.22266075439453123,1.7226280944824217,-11.200075366210937
3515256050532,5.084748019,1,0.24779987182617186,1.7453730102539062,-11.247959399414063
3515261048969,5.089746456,1,0.2501940734863281,1.7298106994628906,-11.195286962890624
3515266049438,5.094746925,1,0.23223756103515625,1.7202338928222656,-11.3389390625
3515271049334,5.099746821,1,0.20949264526367187,1.7178396911621092,-11.074379779052734
3515276049647,5.104747134,1,0.22026655273437498,1.7381904052734374,-11.202469567871093
3515281049751,5.109747238,1,0.21787235107421873,1.7585411193847655,-11.186907257080078
3515286049699,5.114747186,1,0.20470424194335937,1.7322049011230467,-11.243170996093749
3515291049282,5.119746769,1,0.21308394775390624,1.7322049011230467,-11.231199987792968
3515296049490,5.124746977,1,0.21428104858398436,1.744175909423828,-11.186907257080078
3515301049126,5.129746613,1,0.20829554443359374,1.7465701110839842,-11.212046374511718
3515306047407,5.134744894,1,0.21308394775390624,1.7178396911621092,-11.183315954589844
3515311050376,5.139747863,1,0.22026655273437498,1.7417817077636717,-11.176133349609374
3515316048865,5.144746352,1,0.20350714111328125,1.7226280944824217,-11.17254204711914
3515321050115,5.149747602,1,0.22505495605468748,1.7334020019531249,-11.1474029296875
3515326049959,5.154747446,1,0.22026655273437498,1.7393875061035156,-11.152191333007812
3515331047876,5.159745363,1,0.239420166015625,1.7178396911621092,-11.184513055419922
3515336049855,5.164747342,1,0.2346317626953125,1.7238251953125,-11.190498559570312
3515341048292,5.169745779,1,0.24660277099609373,1.7381904052734374,-11.196484063720703
3515346049438,5.174746925,1,0.23223756103515625,1.7202338928222656,-11.189301458740234
3515351049022,5.179746509,1,0.2262520568847656,1.7334020019531249,-11.197681164550781
3515356046261,5.184743748,1,0.23582886352539062,1.7262193969726563,-11.197681164550781
3515361051209,5.189748696,1,0.25139117431640623,1.7513585144042967,-11.184513055419922
3515366049178,5.194746665,1,0.23822306518554687,1.7393875061035156,-11.177330450439452
3515371049803,5.19974729,1,0.2166752502441406,1.7381904052734374,-11.135431921386719
3515376048240,5.204745727,1,0.23223756103515625,1.7657237243652342,-11.17852755126953
3515381049022,5.209746509,1,0.22744915771484372,1.7489643127441405,-11.170147845458983
3515386048240,5.214745727,1,0.229843359375,1.7405846069335937,-11.197681164550781
3515391048397,5.219745884,1,0.22744915771484372,1.705868682861328,-11.184513055419922
3515396048709,5.224746196,1,0.24899697265624998,1.7238251953125,-11.220426080322264
3515401047772,5.229745259,1,0.24061726684570311,1.7405846069335937,-11.196484063720703
3515406049178,5.234746665,1,0.22505495605468748,1.7417817077636717,-11.214440576171874
3515411048501,5.239745988,1,0.2154781494140625,1.7202338928222656,-11.162965240478515
3515416048709,5.244746196,1,0.24181436767578124,1.7226280944824217,-11.180921752929686
3515421049699,5.249747186,1,0.20709844360351562,1.715445489501953,-11.195286962890624
3515426048865,5.254746352,1,0.22744915771484372,1.7429788085937499,-11.232397088623046
3515431049594,5.259747081,1,0.21188684692382811,1.7417817077636717,-11.200075366210937
3515436049959,5.264747446,1,0.18435352783203124,1.7477672119140624,-11.195286962890624
3515441047667,5.269745154,1,0.22505495605468748,1.7298106994628906,-11.189301458740234
3515446049542,5.274747029,1,0.2214636535644531,1.7501614135742187,-11.189301458740234
3515451048449,5.279745936,1,0.23702596435546874,1.7477672119140624,-11.18571015625
3515456050219,5.284747706,1,0.22864625854492185,1.7393875061035156,-11.213243475341796
3515461048449,5.289745936,1,0.258573779296875,1.7190367919921874,-11.200075366210937
3515466049803,5.29474729,1,0.24899697265624998,1.7369933044433592,-11.194089862060546
3515471047876,5.299745363,1,0.24660277099609373,1.7429788085937499,-11.183315954589844
3515476049178,5.304746665,1,0.25139117431640623,1.7453730102539062,-11.150994232177734
3515481048605,5.309746092,1,0.22744915771484372,1.7465701110839842,-11.159373937988281
3515486047876,5.314745363,1,0.22385785522460935,1.7166425903320313,-11.194089862060546
3515491049126,5.319746613,1,0.22864625854492185,1.7202338928222656,-11.161768139648437
3515496049074,5.324746561,1,0.24061726684570311,1.7477672119140624,-11.188104357910156
3515501049751,5.329747238,1,0.22266075439453123,1.7381904052734374,-11.174936248779296
3515506049490,5.334746977,1,0.22266075439453123,1.7310078002929687,-11.202469567871093
3515511048605,5.339746092,1,0.21068974609375,1.7190367919921874,-11.17254204711914
3515516049021,5.344746508,1,0.21188684692382811,1.7357962036132812,-11.190498559570312
3515521135167,5.349832654,1,0.2154781494140625,1.7274164978027342,-11.196484063720703
3515526059594,5.354757081,1,0.24301146850585936,1.734599102783203,-11.183315954589844
3515531056209,5.359753696,1,0.23343466186523437,1.7369933044433592,-11.171344946289063
3515536057303,5.36475479,1,0.21787235107421873,1.7286135986328124,-11.164162341308593
3515541056209,5.369753696,1,0.23343466186523437,1.7334020019531249,-11.143811627197264
3515546056313,5.3747538,1,0.24061726684570311,1.7310078002929687,-11.16057103881836
3515551056001,5.379753488,1,0.21428104858398436,1.7118541870117185,-11.19169566040039
3515556059074,5.384756561,1,0.21787235107421873,1.7262193969726563,-11.227608685302734
3515561056730,5.389754217,1,0.229843359375,1.725022296142578,-11.228805786132812
3515566057615,5.394755102,1,0.2501940734863281,1.7513585144042967,-11.186907257080078
3515571056730,5.399754217,1,0.26216508178710934,1.725022296142578,-11.162965240478515
3515576057563,5.40475505,1,0.23223756103515625,1.697488977050781,-11.167753643798827
3515581056730,5.409754217,1,0.22505495605468748,1.7286135986328124,-11.184513055419922
3515586056782,5.414754269,1,0.23582886352539062,1.7477672119140624,-11.184513055419922
3515591056521,5.419754008,1,0.23104046020507812,1.7453730102539062,-11.188104357910156
3515596056313,5.4247538,1,0.21188684692382811,1.7178396911621092,-11.173739147949219
3515601055792,5.429753279,1,0.22026655273437498,1.7501614135742187,-11.203666668701171
3515606057667,5.434755154,1,0.25139117431640623,1.7298106994628906,-11.184513055419922
3515611057042,5.439754529,1,0.2501940734863281,1.725022296142578,-11.173739147949219
3515616056417,5.444753904,1,0.25737667846679685,1.7082628845214842,-11.182118853759764
3515621140740,5.449838227,1,0.23582886352539062,1.7226280944824217,-11.207257971191405
3515626051469,5.454748956,1,0.2262520568847656,1.7369933044433592,-11.192892761230468
3515631050532,5.459748019,1,0.2214636535644531,1.725022296142578,-11.17852755126953
3515636050063,5.46474755,1,0.2537853759765625,1.7405846069335937,-11.19887826538086
3515641048553,5.46974604,1,0.24779987182617186,1.734599102783203,-11.207257971191405
3515646055740,5.474753227,1,0.21428104858398436,1.7202338928222656,-11.18571015625
3515651051469,5.479748956,1,0.23702596435546874,1.6915034729003906,-11.17254204711914
3515656049021,5.484746508,1,0.20949264526367187,1.7381904052734374,-11.206060870361327
3515661049178,5.489746665,1,0.2501940734863281,1.7357962036132812,-11.220426080322264
3515666048553,5.49474604,1,0.22864625854492185,1.7286135986328124,-11.19169566040039
3515671049178,5.499746665,1,0.21428104858398436,1.7190367919921874,-11.179724652099608
3515676049230,5.504746717,1,0.24061726684570311,1.7214309936523438,-11.188104357910156
3515681048709,5.509746196,1,0.23702596435546874,1.7501614135742187,-11.188104357910156
3515686048344,5.514745831,1,0.21308394775390624,1.7417817077636717,-11.186907257080078
3515691048605,5.519746092,1,0.22266075439453123,1.734599102783203,-11.182118853759764
3515696049386,5.524746873,1,0.22505495605468748,1.7202338928222656,-11.2240173828125
3515701049126,5.529746613,1,0.20949264526367187,1.7262193969726563,-11.18571015625
3515706048917,5.534746404,1,0.22864625854492185,1.7238251953125,-11.16057103881836
3515711047146,5.539744633,1,0.23702596435546874,1.7298106994628906,-11.212046374511718
3515716049646,5.544747133,1,0.23582886352539062,1.7405846069335937,-11.18571015625
3515721047771,5.549745258,1,0.21906945190429686,1.7393875061035156,-11.180921752929686
3515726050011,5.554747498,1,0.2346317626953125,1.7465701110839842,-11.208455072021483
3515731049021,5.559746508,1,0.19393033447265623,1.7274164978027342,-11.204863769531249
3515736050063,5.56474755,1,0.24779987182617186,1.7334020019531249,-11.21683477783203
3515741048553,5.56974604,1,0.23104046020507812,1.7357962036132812,-11.204863769531249
3515746048501,5.574745988,1,0.23582886352539062,1.7298106994628906,-11.184513055419922
3515751048136,5.579745623,1,0.23104046020507812,1.7310078002929687,-11.170147845458983
3515756048032,5.584745519,1,0.2166752502441406,1.7322049011230467,-11.19887826538086
3515761049073,5.58974656,1,0.23104046020507812,1.734599102783203,-11.177330450439452
3515766048917,5.594746404,1,0.22864625854492185,1.7322049011230467,-11.148600030517578
3515771048448,5.599745935,1,0.229843359375,1.7262193969726563,-11.220426080322264
3515776049751,5.604747238,1,0.239420166015625,1.7310078002929687,-11.197681164550781
3515781049698,5.609747185,1,0.2561795776367187,1.744175909423828,-11.21683477783203
3515786048969,5.614746456,1,0.23582886352539062,1.7465701110839842,-11.192892761230468
3515791049073,5.61974656,1,0.24181436767578124,1.7393875061035156,-11.179724652099608
3515796048709,5.624746196,1,0.20470424194335937,1.7298106994628906,-11.145008728027342
3515801047042,5.629744529,1,0.21906945190429686,1.7417817077636717,-11.19887826538086
3515806050688,5.634748175,1,0.23343466186523437,1.714248388671875,-11.21084927368164
3515811048813,5.6397463,1,0.23702596435546874,1.715445489501953,-11.182118853759764
3515816049073,5.64474656,1,0.22864625854492185,1.7238251953125,-11.19169566040039
3515821049646,5.649747133,1,0.24061726684570311,1.7417817077636717,-11.190498559570312
3515826051782,5.654749269,1,0.21906945190429686,1.7369933044433592,-11.197681164550781
3515831049230,5.659746717,1,0.22744915771484372,1.7034744812011717,-11.165359442138671
3515836048396,5.664745883,1,0.2262520568847656,1.7322049011230467,-11.204863769531249
3515841049542,5.669747029,1,0.22864625854492185,1.7381904052734374,-11.23000288696289
3515846049073,5.67474656,1,0.2214636535644531,1.7166425903320313,-11.233594189453123
3515851049282,5.679746769,1,0.21068974609375,1.714248388671875,-11.228805786132812
3515856048553,5.68474604,1,0.21068974609375,1.7477672119140624,-11.21084927368164
3515861049073,5.68974656,1,0.20709844360351562,1.744175909423828,-11.197681164550781
3515866049282,5.694746769,1,0.2154781494140625,1.7214309936523438,-11.194089862060546
3515871049698,5.699747185,1,0.21308394775390624,1.7166425903320313,-11.161768139648437
3515876048032,5.704745519,1,0.21906945190429686,1.7202338928222656,-11.171344946289063
3515881048813,5.7097463,1,0.23582886352539062,1.7274164978027342,-11.170147845458983
3515886048292,5.714745779,1,0.2454056701660156,1.7322049011230467,-11.189301458740234
3515891048813,5.7197463,1,0.2346317626953125,1.7130512878417967,-11.188104357910156
3515896049073,5.72474656,1,0.23822306518554687,1.7166425903320313,-11.180921752929686
3515901047980,5.729745467,1,0.23702596435546874,1.7262193969726563,-11.17852755126953
3515906049750,5.734747237,1,0.22385785522460935,1.715445489501953,-11.184513055419922
3515911050167,5.739747654,1,0.25258827514648435,1.734599102783203,-11.196484063720703
3515916048344,5.744745831,1,0.23702596435546874,1.7369933044433592,-11.212046374511718
3515921049334,5.749746821,1,0.22505495605468748,1.7334020019531249,-11.21084927368164
3515926050428,5.754747915,1,0.23223756103515625,1.7429788085937499,-11.21084927368164
3515931049698,5.759747185,1,0.22266075439453123,1.772906329345703,-11.19887826538086
3515936050896,5.764748383,1,0.18914193115234373,1.744175909423828,-11.212046374511718
3515941049386,5.769746873,1,0.2262520568847656,1.7381904052734374,-11.220426080322264
3515946048136,5.774745623,1,0.23104046020507812,1.7453730102539062,-11.234791290283203
3515951048813,5.7797463,1,0.2442085693359375,1.7226280944824217,-11.195286962890624
3515956048709,5.784746196,1,0.24061726684570311,1.7262193969726563,-11.203666668701171
3515961049178,5.789746665,1,0.24660277099609373,1.715445489501953,-11.174936248779296
3515966045792,5.794743279,1,0.2442085693359375,1.7238251953125,-11.170147845458983
3515971046313,5.7997438,1,0.2166752502441406,1.7274164978027342,-11.158176837158203
3515976050844,5.804748331,1,0.20949264526367187,1.7238251953125,-11.196484063720703
3515981048032,5.809745519,1,0.22385785522460935,1.7393875061035156,-11.206060870361327
3515986048188,5.814745675,1,0.20949264526367187,1.714248388671875,-11.19887826538086
3515991050011,5.819747498,1,0.24181436767578124,1.7178396911621092,-11.18571015625
3515996048188,5.824745675,1,0.22864625854492185,1.7082628845214842,-11.195286962890624
3516001048553,5.82974604,1,0.21428104858398436,1.7429788085937499,-11.162965240478515
3516006048136,5.834745623,1,0.22026655273437498,1.7477672119140624,-11.196484063720703
3516011047355,5.839744842,1,0.1975216369628906,1.725022296142578,-11.200075366210937
3516016048292,5.844745779,1,0.22505495605468748,1.7106570861816406,-11.186907257080078
3516021047511,5.849744998,1,0.22266075439453123,1.7202338928222656,-11.214440576171874
3516026049386,5.854746873,1,0.20231004028320312,1.7357962036132812,-11.209652172851563
3516031048865,5.859746352,1,0.22864625854492185,1.725022296142578,-11.180921752929686
3516036049490,5.864746977,1,0.21308394775390624,1.714248388671875,-11.168950744628905
3516041048813,5.8697463,1,0.20231004028320312,1.705868682861328,-11.19169566040039
3516046049282,5.874746769,1,0.24301146850585936,1.7010802795410156,-11.215637677001952
3516051045063,5.87974255,1,0.21308394775390624,1.714248388671875,-11.203666668701171
3516056047615,5.884745102,1,0.21906945190429686,1.7166425903320313,-11.183315954589844
3516061047928,5.889745415,1,0.22864625854492185,1.7417817077636717,-11.189301458740234
3516066048709,5.894746196,1,0.24660277099609373,1.7226280944824217,-11.204863769531249
3516071048657,5.899746144,1,0.23343466186523437,1.7513585144042967,-11.244368096923827
3516076048136,5.904745623,1,0.2442085693359375,1.7585411193847655,-11.201272467041015
3516081048136,5.909745623,1,0.2214636535644531,1.7429788085937499,-11.21683477783203
3516086049177,5.914746664,1,0.19991583862304688,1.744175909423828,-11.207257971191405
3516091048552,5.919746039,1,0.23702596435546874,1.7274164978027342,-11.177330450439452
3516096048188,5.924745675,1,0.24061726684570311,1.714248388671875,-11.200075366210937
3516101049802,5.929747289,1,0.24779987182617186,1.734599102783203,-11.188104357910156
3516106045532,5.934743019,1,0.24181436767578124,1.7465701110839842,-11.192892761230468
3516111046417,5.939743904,1,0.2346317626953125,1.7609353210449217,-11.195286962890624
3516116057250,5.944754737,1,0.21068974609375,1.7393875061035156,-11.165359442138671
3516121050740,5.949748227,1,0.20949264526367187,1.7501614135742187,-11.19169566040039
3516126139698,5.954837185,1,0.22385785522460935,1.7477672119140624,-11.197681164550781
3516131057563,5.95975505,1,0.1975216369628906,1.744175909423828,-11.2240173828125
3516136056677,5.964754164,1,0.239420166015625,1.7465701110839842,-11.233594189453123
3516141057250,5.969754737,1,0.20829554443359374,1.7130512878417967,-11.225214483642578
3516146056938,5.974754425,1,0.19512743530273435,1.7274164978027342,-11.2240173828125
3516151057355,5.979754842,1,0.21188684692382811,1.7178396911621092,-11.220426080322264
3516156055480,5.984752967,1,0.201112939453125,1.7238251953125,-11.196484063720703
3516161055323,5.98975281,1,0.22505495605468748,1.7274164978027342,-11.188104357910156
3516166056625,5.994754112,1,0.27293898925781246,1.734599102783203,-11.161768139648437
3516171057511,5.999754998,1,0.24181436767578124,1.7573440185546874,-11.194089862060546
3516176057563,6.00475505,1,0.23822306518554687,1.7274164978027342,-11.194089862060546
3516181056573,6.00975406,1,0.22744915771484372,1.7130512878417967,-11.196484063720703
3516186056782,6.014754269,1,0.2537853759765625,1.7202338928222656,-11.208455072021483
3516191057563,6.01975505,1,0.239420166015625,1.744175909423828,-11.208455072021483
3516196057771,6.024755258,1,0.21428104858398436,1.707065783691406,-11.17852755126953
3516201055948,6.029753435,1,0.2501940734863281,1.715445489501953,-11.202469567871093
3516206055532,6.034753019,1,0.2501940734863281,1.7322049011230467,-11.19169566040039
3516211056000,6.039753487,1,0.24779987182617186,1.7190367919921874,-11.171344946289063
3516216057146,6.044754633,1,0.22864625854492185,1.7369933044433592,-11.161768139648437
3516221053448,6.049750935,1,0.23343466186523437,1.7298106994628906,-11.200075366210937
3516226139646,6.054837133,1,0.21308394775390624,1.7118541870117185,-11.182118853759764
3516231051261,6.059748748,1,0.22744915771484372,1.7202338928222656,-11.18571015625
3516236051261,6.064748748,1,0.20470424194335937,1.734599102783203,-11.17852755126953
3516241048292,6.069745779,1,0.2059013427734375,1.734599102783203,-11.184513055419922
3516246049386,6.074746873,1,0.2442085693359375,1.7190367919921874,-11.179724652099608
3516251049334,6.079746821,1,0.22864625854492185,1.7357962036132812,-11.164162341308593
3516256050219,6.084747706,1,0.22505495605468748,1.7405846069335937,-11.173739147949219
3516261049073,6.08974656,1,0.23104046020507812,1.7405846069335937,-11.167753643798827
3516266048396,6.094745883,1,0.23343466186523437,1.7453730102539062,-11.197681164550781
3516271048448,6.099745935,1,0.20470424194335937,1.7274164978027342,-11.19169566040039
3516276048605,6.104746092,1,0.23582886352539062,1.7274164978027342,-11.195286962890624
3516281049490,6.109746977,1,0.2166752502441406,1.7381904052734374,-11.179724652099608
3516286048396,6.114745883,1,0.229843359375,1.7525556152343749,-11.180921752929686
3516291048448,6.119745935,1,0.22026655273437498,1.7561469177246092,-11.19169566040039
3516296046000,6.124743487,1,0.24181436767578124,1.7298106994628906,-11.19169566040039
3516301048552,6.129746039,1,0.21787235107421873,1.7334020019531249,-11.208455072021483
3516306047719,6.134745206,1,0.2154781494140625,1.7238251953125,-11.225214483642578
3516311049386,6.139746873,1,0.22505495605468748,1.7238251953125,-11.212046374511718
3516316048969,6.144746456,1,0.22505495605468748,1.7286135986328124,-11.182118853759764
3516321049334,6.149746821,1,0.22385785522460935,1.7190367919921874,-11.143811627197264
3516326047615,6.154745102,1,0.21308394775390624,1.7202338928222656,-11.197681164550781
3516331049177,6.159746664,1,0.22385785522460935,1.7357962036132812,-11.207257971191405
3516336049334,6.164746821,1,0.20231004028320312,1.7322049011230467,-11.21683477783203
3516341049646,6.169747133,1,0.23702596435546874,1.7465701110839842,-11.200075366210937
3516346048136,6.174745623,1,0.2262520568847656,1.7501614135742187,-11.222820281982422
3516351048292,6.179745779,1,0.229843359375,1.7369933044433592,-11.19169566040039
3516356048396,6.184745883,1,0.22505495605468748,1.7202338928222656,-11.171344946289063
3516361047927,6.189745414,1,0.21787235107421873,1.7202338928222656,-11.192892761230468
3516366047979,6.194745466,1,0.2166752502441406,1.7393875061035156,-11.18571015625
3516371048448,6.199745935,1,0.2346317626953125,1.725022296142578,-11.19887826538086
3516376049177,6.204746664,1,0.23104046020507812,1.7298106994628906,-11.2240173828125
3516381049646,6.209747133,1,0.22864625854492185,1.7214309936523438,-11.18571015625
3516386049177,6.214746664,1,0.239420166015625,1.7262193969726563,-11.168950744628905
3516391048136,6.219745623,1,0.22385785522460935,1.7357962036132812,-11.176133349609374
3516396048448,6.224745935,1,0.20709844360351562,1.7166425903320313,-11.196484063720703
3516401048188,6.229745675,1,0.21787235107421873,1.7322049011230467,-11.16057103881836
3516406050011,6.234747498,1,0.23104046020507812,1.7310078002929687,-11.156979736328124
3516411048552,6.239746039,1,0.201112939453125,1.7166425903320313,-11.171344946289063
3516416049386,6.244746873,1,0.229843359375,1.7465701110839842,-11.195286962890624
3516421047979,6.249745466,1,0.20949264526367187,1.7214309936523438,-11.212046374511718
3516426049021,6.254746508,1,0.22505495605468748,1.7106570861816406,-11.197681164550781
3516431048709,6.259746196,1,0.258573779296875,1.7298106994628906,-11.19169566040039
3516436049125,6.264746612,1,0.23822306518554687,1.7381904052734374,-11.168950744628905
3516441048709,6.269746196,1,0.21068974609375,1.744175909423828,-11.195286962890624
3516446049490,6.274746977,1,0.21188684692382811,1.7429788085937499,-11.214440576171874
3516451048657,6.279746144,1,0.20470424194335937,1.7310078002929687,-11.208455072021483
3516456049386,6.284746873,1,0.23223756103515625,1.7453730102539062,-11.186907257080078
3516461048969,6.289746456,1,0.22266075439453123,1.7405846069335937,-11.226411584472656
3516466049229,6.294746716,1,0.24181436767578124,1.7489643127441405,-11.204863769531249
3516471049542,6.299747029,1,0.23702596435546874,1.7166425903320313,-11.225214483642578
3516476086521,6.304784008,1,0.22385785522460935,1.7202338928222656,-11.23000288696289
3516481048865,6.309746352,1,0.21428104858398436,1.7238251953125,-11.21084927368164
3516486048396,6.314745883,1,0.24301146850585936,1.715445489501953,-11.201272467041015
3516491047979,6.319745466,1,0.20470424194335937,1.714248388671875,-11.182118853759764
3516496048500,6.324745987,1,0.22385785522460935,1.7238251953125,-11.197681164550781
3516501048657,6.329746144,1,0.23343466186523437,1.7525556152343749,-11.195286962890624
3516506047719,6.334745206,1,0.19871873779296872,1.7357962036132812,-11.212046374511718
3516511048552,6.339746039,1,0.22864625854492185,1.7238251953125,-11.17254204711914
3516516048709,6.344746196,1,0.2442085693359375,1.714248388671875,-11.171344946289063
3516521048448,6.349745935,1,0.23822306518554687,1.7393875061035156,-11.194089862060546
3516526048604,6.354746091,1,0.23702596435546874,1.6998831787109374,-11.162965240478515
3516531052511,6.359749998,1,0.22385785522460935,1.7501614135742187,-11.1474029296875
3516536050740,6.364748227,1,0.2262520568847656,1.753752716064453,-11.184513055419922
3516541051156,6.369748643,1,0.22266075439453123,1.7429788085937499,-11.17852755126953
3516546046365,6.374743852,1,0.23582886352539062,1.7381904052734374,-11.194089862060546
3516551051469,6.379748956,1,0.2442085693359375,1.7334020019531249,-11.18571015625
3516556051417,6.384748904,1,0.23822306518554687,1.7262193969726563,-11.203666668701171
3516561051365,6.389748852,1,0.2537853759765625,1.7202338928222656,-11.227608685302734
3516566050636,6.394748123,1,0.23223756103515625,1.7286135986328124,-11.208455072021483
3516571050479,6.399747966,1,0.25139117431640623,1.7298106994628906,-11.165359442138671
3516576050948,6.404748435,1,0.23582886352539062,1.7310078002929687,-11.179724652099608
3516581050323,6.40974781,1,0.23343466186523437,1.7405846069335937,-11.18571015625
3516586050323,6.41474781,1,0.2346317626953125,1.7357962036132812,-11.204863769531249
3516591050219,6.419747706,1,0.21428104858398436,1.7381904052734374,-11.207257971191405
3516596051521,6.424749008,1,0.2166752502441406,1.7190367919921874,-11.220426080322264
3516601050792,6.429748279,1,0.21787235107421873,1.7298106994628906,-11.215637677001952
3516606051000,6.434748487,1,0.23822306518554687,1.7166425903320313,-11.202469567871093
3516611050427,6.439747914,1,0.25139117431640623,1.7202338928222656,-11.17254204711914
3516616050427,6.444747914,1,0.21308394775390624,1.7465701110839842,-11.14022032470703
3516621049698,6.449747185,1,0.229843359375,1.7238251953125,-11.161768139648437
3516626050844,6.454748331,1,0.24301146850585936,1.7190367919921874,-11.23000288696289
3516631051209,6.459748696,1,0.2262520568847656,1.715445489501953,-11.225214483642578
3516636051261,6.464748748,1,0.2501940734863281,1.7106570861816406,-11.202469567871093
3516641049959,6.469747446,1,0.21308394775390624,1.705868682861328,-11.2240173828125
3516646050844,6.474748331,1,0.21068974609375,1.7262193969726563,-11.200075366210937
3516651050948,6.479748435,1,0.2262520568847656,1.7298106994628906,-11.222820281982422
3516656050948,6.484748435,1,0.2154781494140625,1.7298106994628906,-11.197681164550781
3516661050584,6.489748071,1,0.2454056701660156,1.7190367919921874,-11.19169566040039
3516666051573,6.49474906,1,0.2166752502441406,1.7381904052734374,-11.173739147949219
3516671050531,6.499748018,1,0.22385785522460935,1.7465701110839842,-11.183315954589844
3516676051209,6.504748696,1,0.2501940734863281,1.734599102783203,-11.16057103881836
3516681050688,6.509748175,1,0.2537853759765625,1.70467158203125,-11.161768139648437
3516686051261,6.514748748,1,0.24779987182617186,1.6938976745605467,-11.186907257080078
3516691050479,6.519747966,1,0.19991583862304688,1.7226280944824217,-11.209652172851563
3516696050948,6.524748435,1,0.25139117431640623,1.7190367919921874,-11.241973895263671
3516701051000,6.529748487,1,0.239420166015625,1.7262193969726563,-11.194089862060546
3516706059125,6.534756612,1,0.22026655273437498,1.7118541870117185,-11.207257971191405
3516711053917,6.539751404,1,0.23822306518554687,1.7513585144042967,-11.19169566040039
3516716051000,6.544748487,1,0.21428104858398436,1.7369933044433592,-11.17852755126953
3516721050948,6.549748435,1,0.2442085693359375,1.7274164978027342,-11.15338843383789
3516726050323,6.55474781,1,0.23702596435546874,1.753752716064453,-11.150994232177734
3516731050792,6.559748279,1,0.20829554443359374,1.7190367919921874,-11.150994232177734
3516736050740,6.564748227,1,0.23582886352539062,1.705868682861328,-11.195286962890624
3516741050688,6.569748175,1,0.21188684692382811,1.7262193969726563,-11.164162341308593
3516746051156,6.574748643,1,0.23343466186523437,1.7334020019531249,-11.173739147949219
3516751050740,6.579748227,1,0.2645592834472656,1.7393875061035156,-11.197681164550781
3516756050740,6.584748227,1,0.22744915771484372,1.7310078002929687,-11.207257971191405
3516761050219,6.589747706,1,0.22266075439453123,1.7298106994628906,-11.165359442138671
3516766050896,6.594748383,1,0.20709844360351562,1.7238251953125,-11.146205828857422
3516771049906,6.599747393,1,0.22864625854492185,1.7322049011230467,-11.154585534667968
3516776050115,6.604747602,1,0.23343466186523437,1.7166425903320313,-11.204863769531249
3516781051990,6.609749477,1,0.22505495605468748,1.7118541870117185,-11.213243475341796
3516786050740,6.614748227,1,0.21308394775390624,1.7274164978027342,-11.204863769531249
3516791050948,6.619748435,1,0.2166752502441406,1.7274164978027342,-11.180921752929686
3516796052042,6.624749529,1,0.229843359375,1.7310078002929687,-11.164162341308593
3516801051000,6.629748487,1,0.25139117431640623,1.7393875061035156,-11.18571015625
3516806051208,6.634748695,1,0.23702596435546874,1.7357962036132812,-11.202469567871093
3516811050688,6.639748175,1,0.21188684692382811,1.725022296142578,-11.195286962890624
3516816050688,6.644748175,1,0.19153613281249998,1.7322049011230467,-11.170147845458983
3516821050740,6.649748227,1,0.1879448303222656,1.744175909423828,-11.177330450439452
3516826050844,6.654748331,1,0.19632453613281248,1.725022296142578,-11.177330450439452
3516831050948,6.659748435,1,0.22864625854492185,1.725022296142578,-11.166556542968749
3516836051313,6.6647488,1,0.23582886352539062,1.7453730102539062,-11.17254204711914
3516841051104,6.669748591,1,0.2597708801269531,1.7262193969726563,-11.171344946289063
3516846051052,6.674748539,1,0.23702596435546874,1.7214309936523438,-11.182118853759764
3516851051313,6.6797488,1,0.2059013427734375,1.7214309936523438,-11.220426080322264
3516856051573,6.68474906,1,0.239420166015625,1.714248388671875,-11.209652172851563
3516861050636,6.689748123,1,0.22744915771484372,1.7477672119140624,-11.214440576171874
3516866051104,6.694748591,1,0.23822306518554687,1.7322049011230467,-11.174936248779296
3516871050271,6.699747758,1,0.22864625854492185,1.7214309936523438,-11.167753643798827
3516876051261,6.704748748,1,0.2154781494140625,1.7262193969726563,-11.152191333007812
3516881049854,6.709747341,1,0.22266075439453123,1.7393875061035156,-11.165359442138671
3516886051938,6.714749425,1,0.24779987182617186,1.7082628845214842,-11.179724652099608
3516891050583,6.71974807,1,0.23104046020507812,1.7310078002929687,-11.154585534667968
3516896050948,6.724748435,1,0.21188684692382811,1.734599102783203,-11.143811627197264
3516901050688,6.729748175,1,0.2166752502441406,1.7645266235351562,-11.17852755126953
3516906052302,6.734749789,1,0.2059013427734375,1.7465701110839842,-11.21084927368164
3516911051313,6.7397488,1,0.21787235107421873,1.7322049011230467,-11.180921752929686
3516916051000,6.744748487,1,0.23582886352539062,1.7202338928222656,-11.171344946289063
3516921050896,6.749748383,1,0.22505495605468748,1.7369933044433592,-11.183315954589844
3516926051052,6.754748539,1,0.20949264526367187,1.7513585144042967,-11.190498559570312
3516931066208,6.759763695,1,0.2166752502441406,1.7573440185546874,-11.182118853759764
3516936051886,6.764749373,1,0.22505495605468748,1.7489643127441405,-11.182118853759764
3516941050844,6.769748331,1,0.24181436767578124,1.7166425903320313,-11.184513055419922
3516946050427,6.774747914,1,0.2454056701660156,1.7214309936523438,-11.183315954589844
3516951050844,6.779748331,1,0.24301146850585936,1.7226280944824217,-11.196484063720703
3516956145219,6.784842706,1,0.21787235107421873,1.7369933044433592,-11.18571015625
3516961051938,6.789749425,1,0.19632453613281248,1.7417817077636717,-11.202469567871093
3516966052094,6.794749581,1,0.20231004028320312,1.753752716064453,-11.206060870361327
3516971051208,6.799748695,1,0.21068974609375,1.7489643127441405,-11.19169566040039
3516976050844,6.804748331,1,0.2346317626953125,1.7405846069335937,-11.195286962890624
3516981050948,6.809748435,1,0.23223756103515625,1.7334020019531249,-11.215637677001952
3516986051521,6.814749008,1,0.21906945190429686,1.7274164978027342,-11.213243475341796
3516991046885,6.819744372,1,0.22505495605468748,1.7118541870117185,-11.179724652099608
3516996051781,6.824749268,1,0.2154781494140625,1.734599102783203,-11.19169566040039
3517001050635,6.829748122,1,0.21068974609375,1.7417817077636717,-11.189301458740234
3517006050948,6.834748435,1,0.21068974609375,1.7465701110839842,-11.180921752929686
3517011050583,6.83974807,1,0.22864625854492185,1.7190367919921874,-11.204863769531249
3517016051625,6.844749112,1,0.22744915771484372,1.7166425903320313,-11.173739147949219
3517021050479,6.849747966,1,0.20350714111328125,1.7082628845214842,-11.170147845458983
3517026051156,6.854748643,1,0.20829554443359374,1.707065783691406,-11.17254204711914
3517031051313,6.8597488,1,0.23343466186523437,1.7322049011230467,-11.162965240478515
3517036052354,6.864749841,1,0.22385785522460935,1.7166425903320313,-11.17254204711914
3517041049125,6.869746612,1,0.21308394775390624,1.7477672119140624,-11.161768139648437
3517046052094,6.874749581,1,0.23223756103515625,1.7369933044433592,-11.176133349609374
3517051051469,6.879748956,1,0.22385785522460935,1.7393875061035156,-11.188104357910156
3517056051156,6.884748643,1,0.2262520568847656,1.7238251953125,-11.182118853759764
3517061051625,6.889749112,1,0.23822306518554687,1.7214309936523438,-11.165359442138671
3517066050792,6.894748279,1,0.24779987182617186,1.7489643127441405,-11.183315954589844
3517071050896,6.899748383,1,0.25737667846679685,1.7322049011230467,-11.186907257080078
3517076050896,6.904748383,1,0.20709844360351562,1.7465701110839842,-11.203666668701171
3517081050948,6.909748435,1,0.21787235107421873,1.7322049011230467,-11.201272467041015
3517086050427,6.914747914,1,0.22266075439453123,1.7214309936523438,-11.165359442138671
3517091050427,6.919747914,1,0.22864625854492185,1.725022296142578,-11.180921752929686
3517096050792,6.924748279,1,0.21068974609375,1.7262193969726563,-11.180921752929686
3517101051260,6.929748747,1,0.21428104858398436,1.7274164978027342,-11.195286962890624
3517106052198,6.934749685,1,0.20350714111328125,1.7118541870117185,-11.182118853759764
3517111051313,6.9397488,1,0.21428104858398436,1.7118541870117185,-11.179724652099608
3517116050948,6.944748435,1,0.23822306518554687,1.7274164978027342,-11.189301458740234
3517121052042,6.949749529,1,0.239420166015625,1.7465701110839842,-11.150994232177734
3517126052094,6.954749581,1,0.22505495605468748,1.7429788085937499,-11.194089862060546
3517131051729,6.959749216,1,0.2454056701660156,1.7190367919921874,-11.219228979492186
3517136052094,6.964749581,1,0.22266075439453123,1.7286135986328124,-11.203666668701171
3517141051417,6.969748904,1,0.21787235107421873,1.7274164978027342,-11.202469567871093
3517146051052,6.974748539,1,0.21308394775390624,1.7226280944824217,-11.19887826538086
3517151052198,6.979749685,1,0.20350714111328125,1.7357962036132812,-11.194089862060546
3517156052146,6.984749633,1,0.21428104858398436,1.7322049011230467,-11.219228979492186
3517161052771,6.989750258,1,0.2166752502441406,1.725022296142578,-11.208455072021483
3517166051677,6.994749164,1,0.23702596435546874,1.7405846069335937,-11.18571015625
3517171051625,6.999749112,1,0.22744915771484372,1.7585411193847655,-11.167753643798827
3517176060115,7.004757602,1,0.2346317626953125,1.7585411193847655,-11.208455072021483
3517181047667,7.009745154,1,0.20829554443359374,1.7429788085937499,-11.207257971191405
3517186053187,7.014750674,1,0.2059013427734375,1.7226280944824217,-11.195286962890624
3517191050948,7.019748435,1,0.23343466186523437,1.7286135986328124,-11.184513055419922
3517196051208,7.024748695,1,0.23104046020507812,1.7118541870117185,-11.183315954589844
3517201050896,7.029748383,1,0.2346317626953125,1.714248388671875,-11.173739147949219
3517206051260,7.034748747,1,0.24899697265624998,1.7034744812011717,-11.182118853759764
