timestamp_ns,t_s,sensor_id,ax,ay,az,gx,gy,gz
6223721628770,0.06149875,1,-1.4030021728515625,6.871358764648437,7.0102224609374995,24.290076335877863,-25.083969465648856,39.091603053435115
6223728256530,0.06812651,1,-1.1947066284179686,6.410474945068359,6.313509777832031,21.282442748091604,-40.61832061068702,38.6412213740458
6223734923822,0.074793802,1,-0.8152256652832031,5.90529839477539,5.529408734130859,23.633587786259543,-51.79389312977099,40.86259541984733
6223741591582,0.081461562,1,-0.5063736511230469,5.518634826660156,4.825513446044922,26.61832061068702,-58.12213740458015,37.61068702290076
6223748251895,0.088121875,1,-0.5662286926269531,5.3199160888671875,4.234145635986328,20.641221374045802,-59.87786259541985,31.114503816793892
6223754917624,0.094787604,1,0.05386953735351562,5.3019595764160155,3.758896606445312,12.251908396946565,-56.44274809160305,19.84732824427481
6223761582988,0.101452968,1,0.4836287353515625,5.482721801757812,3.584119885253906,1.7557251908396947,-47.12977099236641,4.557251908396947
6223768250853,0.108120833,1,0.6440402465820312,5.665878228759765,3.4835634155273434,-13.427480916030534,-41.68702290076336,-5.404580152671755
6223774917103,0.114787083,1,1.1611878051757811,6.00106646118164,3.2824504760742186,-19.870229007633586,-32.961832061068705,-15.358778625954198
6223781583249,0.121453229,1,1.255758770751953,6.420051751708984,2.9987375793457027,-15.587786259541986,-20.709923664122137,-22.68702290076336
6223788249186,0.128119166,1,1.255758770751953,6.406883642578125,2.6779145568847653,-7.893129770992366,-9.801526717557252,-22.0381679389313
6223794916165,0.134786145,1,0.9792284790039062,6.5601125488281244,2.7246014892578123,3.7480916030534353,1.282442748091603,-21.81679389312977
6223801583717,0.141453697,1,0.3016694091796875,6.726509564208984,2.5713725830078125,3.5343511450381677,20.908396946564885,-22.931297709923665
6223808249342,0.148119322,1,-0.001197100830078125,6.517016918945312,2.606088507080078,15.259541984732824,19.595419847328245,-30.17557251908397
6223814916322,0.154786302,1,-0.11611878051757812,6.771999395751953,2.8981811096191405,27.49618320610687,48.908396946564885,-30.801526717557252
6223821585124,0.161455104,1,1.2150573425292968,7.11197603149414,3.034650604248047,35.908396946564885,68.1145038167939,-22.984732824427482
6223828250905,0.168120885,1,1.150413897705078,6.1459156616210935,4.285620971679688,111.7175572519084,123.41221374045801,12.50381679389313
6223834916322,0.174786302,1,1.707065783691406,6.016628771972656,3.402160559082031,194.95419847328245,86.67175572519083,10.366412213740459
6223841582884,0.181452864,1,2.2469582580566403,4.733336682128906,2.906560815429687,148.6030534351145,63.412213740458014,25.053435114503817
6223848249447,0.188119427,1,1.3587094421386718,4.429273071289062,1.419761584472656,101.69465648854961,16.633587786259543,3.6412213740458017
6223854915280,0.19478526,1,-0.7817068420410156,4.034229797363281,0.46208092041015625,30.748091603053435,3.564885496183206,-14.16793893129771
6223861582624,0.201452604,1,-1.9476830505371092,3.9695863525390624,0.5746083984375,4.580152671755725,48.099236641221374,-36.16030534351145
6223868249134,0.208119114,1,-2.0063409912109376,4.237736938476562,1.695094775390625,68.41984732824427,120.83206106870229,-54.465648854961835
6223874915853,0.214785833,1,-1.93451494140625,5.340266802978515,3.6762966491699216,153.06106870229007,186.35114503816794,-77.70992366412214
6223881582936,0.221452916,1,-2.440888592529297,6.4846951965332025,5.303156677246093,130.41221374045801,178.08396946564886,-106.70992366412214
6223888248509,0.228118489,1,-3.835511059570312,7.30351216430664,6.174646081542968,14.32824427480916,127.63358778625954,-126.73282442748092
6223894915488,0.234785468,1,-5.355829113769531,8.559270935058594,6.021417175292968,-82.86259541984732,66.45801526717557,-159.9618320610687
6223901582988,0.241452968,1,-5.802347723388672,9.449913952636718,6.086060620117187,-134.84732824427482,52.31297709923664,-176.77862595419847
6223908249186,0.248119166,1,-5.801150622558594,10.760739361572265,6.434416961669921,-101.6412213740458,71.56488549618321,-175.5648854961832
6223914916113,0.254786093,1,-5.109226342773437,11.450269439697266,7.012616662597656,-31.106870229007633,84.80916030534351,-143.3587786259542
6223921583405,0.261453385,1,-4.174290594482422,11.92551846923828,7.413645440673828,34.49618320610687,90.10687022900764,-109.00763358778626
6223928249603,0.268119583,1,-4.174290594482422,11.903970654296874,7.56567724609375,60.091603053435115,73.08396946564885,-72.69465648854961
6223934913665,0.274783645,1,-3.2788591735839843,11.903970654296874,6.839037042236328,69.29770992366412,30.18320610687023,-29.954198473282442
6223941582832,0.281452812,1,-3.2453403503417966,10.989385620117186,6.839037042236328,81.29770992366412,-15.061068702290076,-0.25190839694656486
6223948248509,0.288118489,1,-3.2525229553222657,9.82580361328125,5.360617517089843,81.29770992366412,-31.076335877862597,13.572519083969466
6223954915853,0.294785833,1,-2.664746447753906,8.79749400024414,4.011484881591796,89.01526717557252,-31.076335877862597,15.50381679389313
6223961580645,0.301450625,1,-1.5119383483886717,8.228871105957031,2.6204537170410154,82.90839694656489,-44.274809160305345,15.50381679389313
6223968250280,0.30812026,1,-0.46806642456054687,7.094019519042968,1.8926164123535154,61.00763358778626,-37.14503816793893,29.916030534351144
6223974915645,0.314785625,1,-0.9181763366699218,6.443993768310547,0.6631938598632812,78.98473282442748,-52.11450381679389,30.9618320610687
6223981583509,0.321453489,1,-1.484405029296875,5.77122310180664,-0.15562310791015624,57.595419847328245,-46.83206106870229,20.450381679389313
6223988249603,0.328119583,1,-2.1906945190429687,4.893748193359374,0.009576806640625,9.679389312977099,-9.206106870229007,7.648854961832061
6223994916270,0.33478625,1,-2.8275521606445313,5.492298608398437,-0.047884033203124995,1.7404580152671756,7.351145038167939,-26.801526717557252
6224001582520,0.3414525,1,-2.2373814514160153,6.938396411132812,1.2114660400390624,-44.16030534351145,62.33587786259542,-72.22137404580153
6224008248874,0.348118854,1,-1.5478513732910155,7.8529814453124995,2.7916391357421872,-100.30534351145039,90.50381679389314,-89.06870229007633
6224014917103,0.354787083,1,-2.6850971618652344,8.744821563720702,4.168305090332031,-94.96946564885496,88.74045801526718,-88.13740458015268
6224021581999,0.361451979,1,-5.663484027099609,9.528922607421874,5.919663604736328,-75.45801526717557,81.3206106870229,-80.38167938931298
6224028248405,0.368118385,1,-8.151059552001952,10.256759912109374,7.978677032470703,-66.06870229007633,94.32824427480917,-71.04580152671755
6224034915801,0.374785781,1,-7.128735443115234,11.559205615234374,8.99501563720703,-52.14503816793893,94.19083969465649,-68.74045801526718
6224041581790,0.38145177,1,-4.395754248046875,12.005724224853514,9.788693487548828,-46.61832061068702,88.53435114503817,-49.045801526717554
6224048249603,0.388119583,1,-3.0502129150390624,11.495759271240233,8.90044467163086,-19.053435114503817,16.740458015267176,-4.435114503816794
6224054915540,0.39478552,1,-3.9755718566894527,9.787496386718749,6.712144354248046,-0.09923664122137404,-66.41221374045801,40.7557251908397
6224061583405,0.401453385,1,-3.768473413085937,7.574056951904296,4.632780212402343,-5.0534351145038165,-114.3969465648855,70.61832061068702
6224068249134,0.408119114,1,-3.793612530517578,7.6614453125,2.2936451904296873,-19.3206106870229,-134.63358778625954,33.534351145038165
6224074914603,0.414784583,1,-2.721010186767578,7.723694555664062,1.945288848876953,-117.16793893129771,-130.98473282442748,37.267175572519086
6224081582936,0.421452916,1,-3.3638533325195312,6.191405493164062,1.85790048828125,-142.91603053435114,-111.53435114503817,21.061068702290076
6224088248874,0.428118854,1,-3.873818286132812,5.877765075683594,1.85790048828125,-144.26717557251908,-67.40458015267176,6.763358778625954
6224094915384,0.434785364,1,-4.3059716857910155,6.119579443359375,2.886210101318359,-103.22900763358778,-67.42748091603053,4.183206106870229
6224101582311,0.441452291,1,-4.043806604003906,6.72890376586914,4.483142608642578,-74.80152671755725,-24.435114503816795,4.9541984732824424
6224108255749,0.448125729,1,-3.6810850524902343,7.382520819091797,6.0884548217773435,-62.76335877862596,-4.33587786259542,6.908396946564886
6224114917780,0.45478776,1,-3.861847277832031,8.258798626708984,7.190984686279297,-63.93893129770992,-9.122137404580153,8.572519083969466
6224121582936,0.461452916,1,-3.939658831787109,8.658630303955078,7.606378674316406,-74.48091603053435,-32.02290076335878,20.083969465648856
6224128249915,0.468119895,1,-3.6391865234374996,8.311471063232421,7.030573175048827,-70.2824427480916,-60.83969465648855,36.725190839694655
6224134915124,0.474785104,1,-3.1878795104980466,7.8541785461425775,5.668272430419922,-44.221374045801525,-82.52671755725191,52.62595419847328
6224141582467,0.481452447,1,-3.094505645751953,7.321468676757812,4.551377355957031,-23.885496183206108,-82.23664122137404,61.86259541984733
6224148249967,0.488119947,1,-3.1268273681640624,6.223727215576171,3.399766357421875,-19.282442748091604,-81.77099236641222,67.8854961832061
6224154915592,0.494785572,1,-2.7916391357421872,5.307945080566406,2.024297503662109,-2.1908396946564888,-77.45801526717557,72.93893129770993
6224161582832,0.501452812,1,-2.3714567443847656,5.163095880126953,1.6903063720703124,29.770992366412212,-32.2442748091603,55.30534351145038
6224168249499,0.508119479,1,-1.879448303222656,5.006275671386718,1.7453730102539062,36.93129770992366,-0.6106870229007634,41.05343511450382
6224174915384,0.514785364,1,-2.205059729003906,5.1714755859374995,2.3523031311035156,27.259541984732824,18.96946564885496,27.053435114503817
6224181582832,0.521452812,1,-2.5246856506347655,5.798756420898437,3.323151904296875,18.81679389312977,39.725190839694655,9.603053435114504
6224188247207,0.528117187,1,-2.3127988037109373,6.655880615234374,4.4005426513671875,7.900763358778626,53.00763358778626,-3.9923664122137406
6224194916322,0.534786302,1,-2.2936451904296873,7.230489013671875,5.4707507934570305,-3.9618320610687023,55.19083969465649,-3.7786259541984735
6224201582832,0.541452812,1,-3.1483751831054687,7.97388862915039,6.190208392333984,-0.2748091603053435,43.67175572519084,-2.83206106870229
6224208246842,0.548116822,1,-3.3111808959960936,8.218097198486328,6.74805737915039,-11.091603053435115,33.63358778625954,-3.7251908396946565
6224214916738,0.554786718,1,-3.3111808959960936,8.44674345703125,7.0473325866699215,-27.38167938931298,21.083969465648856,-1.6106870229007633
6224221583092,0.561453072,1,-3.2632968627929686,8.44674345703125,6.713341455078124,-35.52671755725191,-6.076335877862595,4.9465648854961835
6224228248249,0.568118229,1,-2.9795839660644527,8.109161022949218,6.713341455078124,-35.49618320610687,-17.740458015267176,12.900763358778626
6224234915228,0.574785208,1,-1.3850456604003905,7.193378887939453,6.424840155029297,-35.49618320610687,-31.49618320610687,18.33587786259542
6224241582884,0.581452864,1,-2.5725696838378904,6.6702458251953125,5.453991381835937,-10.694656488549619,-31.49618320610687,25.15267175572519
6224248249655,0.588119635,1,-2.7198130859375,5.84783755493164,4.6076410949707025,-8.954198473282442,-47.79389312977099,25.15267175572519
6224254915176,0.594785156,1,-2.0171148986816405,5.679046337890624,4.513070129394531,3.633587786259542,-25.076335877862597,11.908396946564885
6224261581999,0.601451979,1,-1.6735469604492186,5.898115789794922,4.467580297851562,10.992366412213741,-19.778625954198475,-1.9770992366412214
6224268248769,0.608118749,1,-1.485602130126953,6.242880828857421,4.218583325195312,-13.045801526717558,-25.72519083969466,-10.916030534351146
6224274916269,0.614786249,1,-0.8870517150878906,6.800729815673828,3.3494881225585935,-31.732824427480917,-31.404580152671755,-14.977099236641221
6224281582676,0.621452656,1,-2.864662286376953,7.339425189208984,2.901772412109375,-36.41984732824427,-49.81679389312977,-13.84732824427481
6224288247884,0.628117864,1,-3.2525229553222657,7.673416320800781,3.5051112304687497,-43.87786259541985,-13.16793893129771,-19.641221374045802
6224294915228,0.634785208,1,-1.9069816223144531,8.142679846191406,4.2509050476074215,-18.84732824427481,23.81679389312977,-24.053435114503817
6224301582519,0.641452499,1,-1.5251064575195312,8.665812908935546,4.953603234863281,11.435114503816793,30.893129770992367,-12.65648854961832
6224308247780,0.64811776,1,-1.6220716247558593,8.335413079833984,5.334281298828125,5.8396946564885495,16.0381679389313,5.412213740458015
6224314915488,0.654785468,1,-2.606088507080078,7.735665563964844,5.322310290527343,-3.6717557251908395,-9.900763358778626,20.954198473282442
6224321582624,0.661452604,1,-3.246537451171875,7.179013677978515,5.366603021240234,4.465648854961832,-10.282442748091603,28.801526717557252
6224328248978,0.668118958,1,-2.6408044311523438,7.03536157836914,5.511452221679687,17.099236641221374,3.4885496183206106,22.549618320610687
6224334915280,0.67478526,1,-2.129642376708984,6.866570361328125,5.668272430419922,11.595419847328245,3.9618320610687023,20.923664122137403
6224341582207,0.681452187,1,-2.3056161987304686,6.48589229736328,5.76523759765625,-0.4961832061068702,-8.694656488549619,23.862595419847327
6224348248561,0.688118541,1,-2.3618799377441406,6.4284314575195305,5.495889910888671,-4.229007633587786,-18.625954198473284,18.458015267175572
6224354915176,0.694785156,1,-2.366668341064453,6.537367633056641,5.360617517089843,-9.51908396946565,-20.114503816793892,14.0
6224361582051,0.701452031,1,-2.366668341064453,6.477512591552734,5.074510418701172,-9.083969465648854,-25.251908396946565,6.694656488549619
6224368249499,0.708119479,1,-2.1607669982910154,6.937199310302734,5.2085857116699215,-9.427480916030534,-29.610687022900763,4.282442748091603
6224374915853,0.714785833,1,-2.6001030029296874,7.105990527343749,5.055356805419922,-9.374045801526718,-22.954198473282442,7.106870229007634
6224381583144,0.721453124,1,-3.017891192626953,7.159860064697265,5.199008905029297,-1.5572519083969465,-22.137404580152673,5.00763358778626
6224388248457,0.728118437,1,-2.443282794189453,7.260416534423828,5.572504364013671,14.091603053435115,-12.366412213740459,4.99236641221374
6224394915124,0.734785104,1,-1.7932570434570312,7.20774409790039,5.537788439941406,19.748091603053435,-16.389312977099237,8.900763358778626
6224401582259,0.741452239,1,-1.7884686401367187,6.957550024414062,5.079298822021484,15.007633587786259,-34.61068702290076,15.358778625954198
6224408248509,0.748118489,1,-1.7034744812011717,6.700173345947265,4.583699078369141,2.16793893129771,-42.98473282442748,17.885496183206108
6224414914082,0.754784062,1,-1.209071838378906,6.324283685302734,4.135983367919922,5.312977099236641,-34.17557251908397,17.16030534351145
6224421582728,0.761452708,1,-1.2401964599609374,6.329072088623047,3.9456443359374997,17.022900763358777,-27.27480916030534,9.786259541984732
6224428247988,0.768117968,1,-1.4472949035644531,6.490680700683593,4.027047192382812,8.916030534351146,-18.64885496183206,2.8931297709923665
6224434915540,0.77478552,1,-1.6915034729003906,6.659471917724609,4.7022120605468745,0.16793893129770993,-5.1603053435114505,-3.9923664122137406
6224441582467,0.781452447,1,-1.6232687255859375,7.3849150207519525,5.29238276977539,7.129770992366412,4.969465648854962,-11.01526717557252
6224448248821,0.788118801,1,-1.4915876342773438,7.8733321594238275,5.774814404296874,5.541984732824427,6.977099236641221,-11.923664122137405
6224454916582,0.794786562,1,-1.820790362548828,7.942764007568359,6.057330200195312,-1.6717557251908397,-4.900763358778626,-3.6030534351145036
6224461583040,0.80145302,1,-1.838746875,7.982268334960937,5.744886883544922,6.137404580152672,-24.290076335877863,3.3282442748091605
6224468249707,0.808119687,1,-2.104503259277344,7.645883001708984,5.463568188476562,14.106870229007633,-31.610687022900763,11.114503816793894
6224474915540,0.81478552,1,-1.5658078857421873,7.495048297119141,5.055356805419922,17.15267175572519,-38.64885496183206,16.34351145038168
6224481583405,0.821453385,1,-1.3587094421386718,7.066486199951171,5.05655390625,12.908396946564885,-36.396946564885496,17.35114503816794
6224488248144,0.828118124,1,-1.5753846923828123,6.79953271484375,4.5322237426757805,6.3893129770992365,-45.87786259541985,14.259541984732824
6224494919811,0.834789791,1,-1.820790362548828,6.509834313964843,4.659116430664063,-9.801526717557252,-37.98473282442748,13.488549618320612
6224501584342,0.841454322,1,-1.820790362548828,6.666654522705078,4.9260699157714845,-13.198473282442748,-26.603053435114504,-0.5648854961832062
6224508249186,0.848119166,1,-1.6519991455078125,6.666654522705078,5.2816088623046875,-21.931297709923665,-23.709923664122137,-9.122137404580153
6224514915540,0.85478552,1,-1.5634136840820312,7.091625317382812,5.2816088623046875,-40.29770992366412,-25.389312977099237,-9.366412213740459
6224521583561,0.861453541,1,-1.714248388671875,7.315483172607421,5.609614489746093,-40.29770992366412,-25.862595419847327,-4.366412213740458
6224528248561,0.868118541,1,-1.8734627990722654,7.432799053955078,5.704185455322265,-34.0763358778626,-25.862595419847327,-1.5038167938931297
6224534914811,0.874784791,1,-1.7525556152343749,7.671022119140624,5.521029028320312,-6.3816793893129775,-27.442748091603054,-1.5038167938931297
6224541583613,0.881453593,1,-1.6735469604492186,7.657854010009765,5.280411761474609,3.4198473282442747,-31.221374045801525,5.9541984732824424
6224548248717,0.888118697,1,-1.4233528869628906,7.145494854736327,4.893748193359374,-0.07633587786259542,-38.229007633587784,10.19083969465649
6224554915905,0.894785885,1,-1.5406687683105469,6.707355950927734,4.31554849243164,2.8702290076335877,-46.31297709923664,14.709923664122137
6224561581738,0.901451718,1,-1.5322890624999999,6.640318304443359,4.080916729736328,14.786259541984732,-35.51145038167939,11.34351145038168
6224568248717,0.908118697,1,-1.2689268798828124,6.719326959228515,4.12401235961914,13.80916030534351,-20.16793893129771,4.923664122137405
6224574915540,0.91478552,1,-1.2018892333984375,7.114370233154297,4.317942694091797,2.312977099236641,-11.587786259541986,-1.1450381679389312
6224581582676,0.921452656,1,-0.7721300354003906,7.094019519042968,4.672284539794922,-5.106870229007634,-2.366412213740458,-0.26717557251908397
6224588248613,0.928118593,1,-0.9528922607421875,7.174225274658203,4.853046765136718,0.5648854961832062,-3.969465648854962,-2.3969465648854964
6224594915853,0.934785833,1,-0.9337386474609375,7.013813763427734,5.051765502929687,-5.282442748091603,-1.1145038167938932,3.954198473282443
6224601582623,0.941452603,1,-0.8499415893554687,7.105990527343749,5.014655377197266,-8.030534351145038,-1.2748091603053435,-1.900763358778626
6224608248561,0.948118541,1,-0.9217676391601562,7.048529687499999,4.8889597900390624,-21.259541984732824,-2.3587786259541983,-0.2824427480916031
6224614916009,0.954785989,1,-0.9133879333496093,7.061697796630859,4.820725042724609,-33.656488549618324,-1.251908396946565,-6.5038167938931295
6224621582884,0.961452864,1,-0.6667851623535156,7.314286071777343,4.529829541015625,-44.89312977099237,1.366412213740458,-9.923664122137405
6224628249030,0.96811901,1,-0.4165910888671875,7.5153990112304685,4.1563340820312495,-55.267175572519086,-0.7480916030534351,-13.01526717557252
6224634915071,0.974785051,1,-0.729034405517578,6.932410906982422,4.262876055908203,-56.6793893129771,8.580152671755725,-4.290076335877862
6224641581946,0.981451926,1,-0.6548141540527344,6.763619689941406,4.618415002441406,-11.01526717557252,19.068702290076335,3.8625954198473282
6224648249498,0.988119478,1,-1.4209586853027343,6.795941412353515,5.833472344970703,43.64885496183206,38.6793893129771,1.7786259541984732
6224654915071,0.994785051,1,-1.9141642272949217,6.949170318603516,5.890933184814453,46.76335877862596,52.36641221374046,-12.198473282442748
6224661582415,1.001452395,1,-0.7541735229492187,7.613561279296874,7.116764434814453,45.38931297709924,52.83206106870229,-27.14503816793893
6224668247103,1.008117083,1,0.2454056701660156,7.955932116699218,8.309076861572265,-17.14503816793893,53.80152671755725,-1.4580152671755726
6224674915748,1.014785728,1,-0.7972691528320313,7.249642626953125,8.464699969482421,-36.06106870229008,-0.916030534351145,-1.1221374045801527
6224681583821,1.021453801,1,-2.4133552734375,7.004236956787109,6.886921075439453,7.977099236641221,-52.458015267175576,8.648854961832061
6224688249394,1.028119374,1,-1.8375497741699218,6.6151791870117185,5.955576629638672,4.717557251908397,-44.82442748091603,9.099236641221374
6224694914967,1.034784947,1,-0.5279214660644531,6.318298181152343,5.238513232421875,-17.572519083969464,-42.99236641221374,-3.122137404580153
6224701581061,1.041451041,1,-1.0977414611816405,5.96275923461914,4.466383197021484,-33.30534351145038,-57.099236641221374,-1.4045801526717556
6224708248196,1.048118176,1,-1.8698714965820311,5.890933184814453,3.7612908081054686,-29.84732824427481,-57.55725190839695,-7.290076335877862
6224714916686,1.054786666,1,-1.9620482604980467,5.859808563232422,3.651157531738281,-27.34351145038168,-36.11450381679389,-16.18320610687023
6224721582623,1.061452603,1,-1.408987677001953,6.217741711425781,3.786429925537109,-13.977099236641221,-11.282442748091603,-23.717557251908396
6224728248300,1.06811828,1,-1.5346832641601562,6.675034228515624,4.084508032226562,2.885496183206107,3.519083969465649,-25.81679389312977
6224734913405,1.074783385,1,-1.5346832641601562,7.097610821533203,4.477157104492187,4.259541984732825,10.977099236641221,-24.412213740458014
6224741582988,1.081452968,1,-1.7621324218749999,7.261613635253906,4.972756848144531,2.404580152671756,19.709923664122137,-20.770992366412212
6224748249759,1.088119739,1,-2.0542250244140625,7.614758380126952,5.594052178955078,12.19083969465649,24.862595419847327,-16.53435114503817
6224754916061,1.094786041,1,-2.1679496032714844,7.747636572265624,6.229712719726562,21.50381679389313,29.755725190839694,-10.030534351145038
6224761582780,1.10145276,1,-1.7393875061035156,7.900865478515625,6.533776330566406,20.6793893129771,27.389312977099237,-7.083969465648855
6224768248300,1.10811828,1,-1.4353238952636718,7.732074261474609,6.749254479980468,3.50381679389313,18.770992366412212,-0.5954198473282443
6224774914759,1.114784739,1,-1.4700398193359374,7.461529473876952,6.514622717285156,-3.198473282442748,-2.312977099236641,8.877862595419847
6224781582988,1.121452968,1,-1.4879963317871092,7.189787585449218,5.9400143188476555,-1.2290076335877862,-13.213740458015268,13.435114503816793
6224788249082,1.128119062,1,-1.4879963317871092,6.828263134765624,5.210979913330078,-0.5877862595419847,-17.053435114503817,14.778625954198473
6224794916269,1.134786249,1,-1.1156979736328125,6.828263134765624,4.594472985839843,-1.2442748091603053,-17.580152671755727,13.977099236641221
6224801583248,1.141453228,1,-0.9421183532714843,6.591237170410156,4.594472985839843,-1.3206106870229009,-15.007633587786259,11.83969465648855
6224808249603,1.148119583,1,-1.1575965026855468,6.336254693603515,4.352658618164062,-1.3206106870229009,-6.190839694656488,5.022900763358779
6224814915644,1.154785624,1,-1.2581529724121092,6.367379315185547,4.267664459228516,-4.229007633587786,-6.190839694656488,1.1221374045801527
6224821582988,1.161452968,1,-1.6627730529785156,6.463147381591797,4.513070129394531,-5.465648854961832,2.5419847328244276,1.1221374045801527
6224828249030,1.16811901,1,-1.7034744812011717,6.696582043457031,4.944026428222656,-1.3053435114503817,9.381679389312977,-4.450381679389313
6224834915071,1.174785051,1,-1.7238251953125,6.635529901123046,5.635950708007812,1.1374045801526718,18.389312977099237,-5.244274809160306
6224841582363,1.181452343,1,-1.5753846923828123,6.853402252197265,6.191405493164062,11.16793893129771,21.885496183206108,-8.244274809160306
6224848249550,1.18811953,1,-1.4341267944335936,6.879738470458984,6.45476767578125,13.755725190839694,14.923664122137405,-5.67175572519084
6224854915540,1.19478552,1,-1.3108254089355469,7.011419561767577,6.251260534667968,8.083969465648854,4.068702290076335,-7.038167938931298
6224861582988,1.201452968,1,-1.3850456604003905,7.119158636474609,5.670666632080078,-9.580152671755725,-11.572519083969466,-10.435114503816793
6224868248978,1.208118958,1,-1.4006079711914061,6.795941412353515,5.070919116210937,-26.671755725190838,-20.358778625954198,-8.335877862595419
6224874921946,1.214791926,1,-1.3778630554199218,6.825868933105468,4.404133953857421,-16.358778625954198,-17.213740458015266,-9.526717557251908
6224881584707,1.221454687,1,-1.2378022583007813,6.861781958007812,3.9336733276367184,-6.7251908396946565,-6.564885496183206,-11.13740458015267
6224888249186,1.228119166,1,-1.1156979736328125,6.979097839355468,3.902548706054687,-7.213740458015267,5.6183206106870225,-12.587786259541986
6224894915175,1.234785155,1,-1.1468225952148436,7.0832456115722655,3.8582559753417964,-6.320610687022901,13.969465648854962,-12.427480916030534
6224901582571,1.241452551,1,-1.2234370483398436,7.161057165527343,4.216189123535156,-2.801526717557252,24.389312977099237,-11.870229007633588
6224908247832,1.248117812,1,-1.1516109985351561,7.344213592529297,4.507084625244141,-0.7633587786259542,32.89312977099237,-11.923664122137405
6224914915748,1.254785728,1,-1.073799444580078,7.425616448974609,4.796783026123046,-4.809160305343512,32.30534351145038,-9.717557251908397
6224921582415,1.261452395,1,-1.2282254516601563,7.183802081298828,4.958391638183594,-9.946564885496183,28.85496183206107,-2.763358778625954
6224928249655,1.268119635,1,-1.3156138122558594,6.885723974609375,5.227739324951171,-2.9770992366412212,32.68702290076336,3.549618320610687
6224934915227,1.274785207,1,-1.3156138122558594,6.801926916503906,5.495889910888671,13.083969465648854,36.38167938931298,4.7251908396946565
6224941582363,1.281452343,1,-1.7585411193847655,6.801926916503906,5.492298608398437,6.923664122137405,38.6793893129771,-1.3435114503816794
6224948249030,1.28811901,1,-1.697488977050781,7.115567333984375,5.951985327148437,6.175572519083969,34.20610687022901,-4.106870229007634
6224954910332,1.294780312,1,-1.5873557006835937,7.323862878417969,6.241683728027343,-17.27480916030534,33.33587786259542,-5.030534351145038
6224961582832,1.301452812,1,-1.830367169189453,7.6614453125,6.094440325927734,-27.549618320610687,19.65648854961832,-5.465648854961832
6224968248457,1.308118437,1,-1.7645266235351562,7.831433630371094,5.661089825439452,-31.076335877862597,12.030534351145038,-3.5114503816793894
6224974916165,1.314786145,1,-1.9871873779296874,7.662642413330078,5.06253941040039,-31.30534351145038,11.076335877862595,2.763358778625954
6224981582727,1.321452707,1,-1.3670891479492187,7.639897497558593,4.322731097412109,-23.236641221374047,12.725190839694656,7.221374045801527
6224988248196,1.328118176,1,-1.092953057861328,7.542932330322265,3.6715082458496093,-21.236641221374047,20.786259541984734,9.770992366412214
6224994915071,1.334785051,1,-1.197100830078125,7.293935357666015,3.417722869873047,-20.595419847328245,33.06106870229008,13.908396946564885
6225001582102,1.341452082,1,-2.0278888061523435,7.357381701660156,3.1184476623535153,-17.480916030534353,35.732824427480914,15.877862595419847
6225008249030,1.34811901,1,-2.068590234375,7.149086157226562,3.366247534179687,-28.236641221374047,54.6793893129771,18.0
6225014915852,1.354785832,1,-1.8339584716796873,7.274781744384765,3.8750153869628905,-21.48854961832061,76.05343511450381,14.80916030534351
6225021582571,1.361452551,1,-1.898601916503906,7.3466077941894525,4.641159918212891,-12.778625954198473,85.49618320610686,18.083969465648856
6225028248717,1.368118697,1,-2.175132208251953,7.351396197509765,5.17746109008789,-20.30534351145038,83.02290076335878,20.61832061068702
6225034916113,1.374786093,1,-2.530671154785156,7.03536157836914,5.72693037109375,-41.06870229007634,78.93893129770993,24.541984732824428
6225041582311,1.381452291,1,-2.501940734863281,7.710526446533203,6.702567547607422,-43.99236641221374,82.61832061068702,26.076335877862597
6225048249186,1.388119166,1,-1.6041151123046875,7.526172918701171,7.936778503417968,-52.17557251908397,106.86259541984732,9.282442748091603
6225054915175,1.394785155,1,-2.5151088439941405,7.558494641113281,7.524975817871093,-81.76335877862596,37.656488549618324,21.87786259541985
6225061582207,1.401452187,1,-4.420893365478515,7.316680273437499,7.132326745605468,-110.73282442748092,9.572519083969466,24.48854961832061
6225068248561,1.408118541,1,-4.948814831542968,7.505822204589843,6.458358978271484,-126.38931297709924,-3.732824427480916,23.15267175572519
6225074915227,1.414785207,1,-4.948814831542968,7.416039642333984,5.942408520507812,-119.46564885496183,4.091603053435114,28.870229007633586
6225081582675,1.421452655,1,-3.9803602600097654,7.416039642333984,6.283582257080078,-71.18320610687023,31.49618320610687,39.18320610687023
6225088248821,1.428118801,1,-3.0705636291503904,7.636306195068359,6.283582257080078,-25.862595419847327,32.00763358778626,55.152671755725194
6225094915280,1.43478526,1,-1.7992425476074219,7.451952667236328,5.963956335449218,-25.862595419847327,32.63358778625954,64.8473282442748
6225101581946,1.441451926,1,-1.715445489501953,7.509413507080078,5.91846650390625,-26.419847328244273,32.63358778625954,73.29007633587786
6225108248300,1.44811828,1,-1.5346832641601562,6.888118176269531,5.487510205078125,-59.11450381679389,17.435114503816795,73.29007633587786
6225114915748,1.454785728,1,-1.7657237243652342,6.375759020996093,5.002684368896484,-69.74045801526718,12.908396946564885,78.21374045801527
6225121582519,1.461452499,1,-1.8435352783203125,5.76523759765625,4.899733697509765,-50.81679389312977,19.793893129770993,85.93893129770993
6225128248248,1.468118228,1,-1.7836802368164062,5.734112976074218,4.595670086669921,-25.396946564885496,29.870229007633586,84.6030534351145
6225134915332,1.474785312,1,-1.5981296081542968,5.759252093505859,4.727351177978515,-34.70992366412214,39.93129770992366,76.54961832061069
6225141582727,1.481452707,1,-1.2222399475097656,5.218162518310547,4.714183068847656,-59.396946564885496,38.954198473282446,78.03053435114504
6225148249759,1.488119739,1,-1.4472949035644531,4.942829327392578,4.6255976074218745,-46.74809160305343,39.69465648854962,79.26717557251908
6225154914863,1.494784843,1,-0.9600748657226562,3.380612744140625,5.040991595458984,-24.33587786259542,51.80916030534351,84.56488549618321
6225161582415,1.501452395,1,-3.2620997619628906,1.954865655517578,6.093243225097656,-25.80916030534351,67.6793893129771,83.79389312977099
6225168249654,1.508119634,1,-2.826355059814453,-0.7625532287597656,8.037334973144532,47.36641221374046,134.6412213740458,121.25954198473282
6225174915384,1.514785364,1,-1.859097589111328,1.035492218017578,8.825027319335938,175.67175572519085,145.94656488549617,31.786259541984734
6225181582467,1.521452447,1,-2.262520568847656,1.4640543151855467,10.40639751586914,64.2442748091603,133.29770992366412,-0.17557251908396945
6225188247936,1.528117916,1,-1.4939818359375,1.7393875061035156,10.991779821777342,-84.12213740458016,61.06106870229008,-42.961832061068705
6225194914915,1.534784895,1,-2.3810335510253906,3.3686417358398435,10.60990465698242,-135.2290076335878,-6.702290076335878,-93.26717557251908
6225201579082,1.541449062,1,-3.380612744140625,4.3071687866210935,10.115502014160155,-122.59541984732824,-40.12213740458015,-105.14503816793894
6225208248613,1.548118593,1,-4.080916729736328,5.536591339111328,9.546879119873047,-88.07633587786259,-54.48091603053435,-115.6412213740458
6225214914446,1.554784426,1,-4.077325427246094,6.625953094482422,9.239224206542968,-74.80916030534351,-58.37404580152672,-120.45038167938931
6225221583040,1.56145302,1,-3.9240965209960934,6.58884296875,8.825027319335938,-84.7175572519084,-73.63358778625954,-124.8854961832061
6225228248509,1.568118489,1,-3.422511273193359,7.6614453125,8.875305554199219,-95.72519083969466,-97.35114503816794,-115.13740458015268
6225234915175,1.574785155,1,-3.086125939941406,8.26119282836914,8.109161022949218,-95.67175572519083,-122.45801526717557,-99.38931297709924
6225241582727,1.581452707,1,-2.986766571044922,8.683769421386717,6.99705435180664,-93.7175572519084,-122.46564885496183,-82.27480916030534
6225248249915,1.588119895,1,-3.3111808959960936,8.704120135498046,6.0884548217773435,-88.79389312977099,-124.41984732824427,-83.96946564885496
6225254915644,1.594785624,1,-3.1687258972167966,8.748412866210938,5.473144995117187,-74.02290076335878,-115.56488549618321,-64.42748091603053
6225261587832,1.601457812,1,-2.7629087158203123,8.534131817626953,5.194220501708984,-50.38931297709924,-95.83206106870229,-39.10687022900763
6225268251061,1.608121041,1,-2.4492682983398435,8.535328918457031,4.96677134399414,-25.96946564885496,-83.44274809160305,-23.786259541984734
6225274916269,1.614786249,1,-2.067393133544922,8.283937744140625,4.824316345214844,-25.50381679389313,-74.00763358778626,-4.251908396946565
6225281583300,1.62145328,1,-1.3383587280273437,8.224082702636718,4.465186096191406,-34.57251908396947,-71.01526717557252,7.7251908396946565
6225288247884,1.628117864,1,-1.2617442749023438,7.831433630371094,4.3634325256347655,-43.89312977099237,-60.587786259541986,23.236641221374047
6225294914811,1.634784791,1,-2.1356278808593747,7.11197603149414,4.8889597900390624,-39.93129770992366,-38.61068702290076,40.81679389312977
6225301582936,1.641452916,1,-1.2138602416992186,6.367379315185547,4.886565588378906,-8.709923664122137,-17.709923664122137,60.465648854961835
6225308248457,1.648118437,1,-0.63206923828125,5.720944866943359,5.027823486328125,16.19083969465649,-8.885496183206106,67.43511450381679
6225314915592,1.654785572,1,-0.28012159423828126,4.004302276611328,5.590460876464843,20.374045801526716,9.16030534351145,95.20610687022901
6225321581373,1.661451353,1,0.21308394775390624,3.2357635437011716,5.950788226318359,71.16030534351145,27.106870229007633,94.7557251908397
6225328248873,1.668118853,1,0.7805097412109374,2.4672248107910155,6.198588098144531,84.00763358778626,35.58015267175573,97.38931297709924
6225334915436,1.674785416,1,0.8930372192382812,1.608903515625,6.266822845458984,67.70992366412214,28.389312977099237,92.36641221374046
6225341582779,1.681452759,1,0.5087678527832031,0.93852705078125,6.28837066040039,57.66412213740458,21.96946564885496,84.74809160305344
6225348249029,1.688119009,1,-0.8954314208984374,1.7573440185546874,6.369773516845703,47.343511450381676,21.893129770992367,54.05343511450382
6225354915279,1.694785259,1,-0.8415618835449218,2.9281086303710935,6.9527616210937495,-1.5114503816793894,36.79389312977099,23.198473282442748
6225361583144,1.701453124,1,-0.8415618835449218,3.2620997619628906,8.160636358642577,-16.87786259541985,52.282442748091604,11.732824427480915
6225368248665,1.708118645,1,-0.7625532287597656,3.2620997619628906,8.175001568603514,18.68702290076336,32.68702290076336,-8.969465648854962
6225374914915,1.714784895,1,-1.045069024658203,5.23492192993164,8.175001568603514,-46.54961832061068,-3.984732824427481,-16.72519083969466
6225381583196,1.721453176,1,-0.41060558471679687,5.871779571533203,7.614758380126952,-46.54961832061068,-12.48091603053435,30.938931297709924
6225388248977,1.728118957,1,0.8283937744140625,3.7720647155761715,7.7033438415527336,-92.13740458015268,-12.48091603053435,96.70992366412214
6225394915488,1.734785468,1,-2.2194249389648437,-1.9105729248046874,10.60990465698242,109.74045801526718,39.87786259541985,96.70992366412214
6225401581946,1.741451926,1,0.316034619140625,11.520898388671874,3.925293621826172,195.5648854961832,-99.09923664122137,-188.21374045801528
6225408248092,1.748118072,1,-2.2601263671875,1.8267758666992187,9.41040962524414,-250.13740458015266,-38.56488549618321,-8.572519083969466
6225414916061,1.754786041,1,-2.3403321228027343,5.664681127929687,7.369352709960937,-250.13740458015266,-114.34351145038168,-113.49618320610686
6225421582779,1.761452759,1,-2.269703173828125,6.83783994140625,7.292738256835937,-128.7709923664122,-63.99236641221374,-117.54961832061069
6225428248509,1.768118489,1,-0.9732429748535155,7.174225274658203,7.020996368408203,-112.47328244274809,-42.51908396946565,-67.87022900763358
6225434914446,1.774784426,1,-1.0187328063964842,6.123170745849609,7.040149981689453,-134.14503816793894,-57.534351145038165,-44.12213740458015
6225441584498,1.781454478,1,-1.599326708984375,5.720944866943359,6.379350323486328,-134.87022900763358,-72.43511450381679,-29.977099236641223
6225448245956,1.788115936,1,-1.8650830932617186,4.7369279846191406,6.405686541748047,-114.05343511450381,-53.79389312977099,-9.549618320610687
6225454915644,1.794785624,1,-1.0235212097167967,4.1563340820312495,6.885723974609375,-79.1145038167939,-25.129770992366414,-13.908396946564885
6225461582102,1.801452082,1,0.258573779296875,3.2261867370605466,7.720103253173828,-91.80916030534351,-18.572519083969464,-16.38167938931298
6225468246998,1.808116978,1,0.34117373657226563,2.060210528564453,8.136694342041014,-136.36641221374046,-35.30534351145038,-11.122137404580153
6225474916217,1.814786197,1,-0.45010991210937495,1.4604630126953124,7.97388862915039,-146.8091603053435,-53.51908396946565,-7.7251908396946565
6225481582988,1.821452968,1,-0.5829881042480468,2.1894974182128903,8.064868292236328,-129.29007633587787,-37.908396946564885,-29.16793893129771
6225488248977,1.828118957,1,0.316034619140625,2.924517327880859,8.24203921508789,-125.50381679389314,-24.885496183206108,-42.12977099236641
6225494915123,1.834785103,1,1.1623849060058593,3.6008792968749996,8.157045056152343,-123.53435114503817,-25.763358778625953,-45.25190839694657
6225501582571,1.841452551,1,1.2222399475097656,3.9564182434082027,8.097190014648437,-112.33587786259542,-27.580152671755727,-39.465648854961835
6225508248456,1.848118436,1,0.9157821350097656,3.921702319335937,7.775169891357422,-96.26717557251908,-33.99236641221374,-29.34351145038168
6225514915748,1.854785728,1,0.4572925170898437,3.921702319335937,7.671022119140624,-92.83206106870229,-28.641221374045802,-21.33587786259542
6225521583040,1.86145302,1,1.3539210388183593,3.507505432128906,7.058106494140625,-93.0381679389313,-13.16030534351145,-12.84732824427481
6225528249029,1.868119009,1,1.2246341491699217,2.7904420349121093,7.167042669677734,-87.17557251908397,-12.374045801526718,-13.320610687022901
6225534915904,1.874785884,1,0.2597708801269531,2.443282794189453,7.26520493774414,-70.35114503816794,-8.465648854961833,-12.816793893129772
6225541582936,1.881452916,1,0.5877765075683593,1.9871873779296874,7.222109307861328,-75.58015267175573,1.3435114503816794,-16.72519083969466
6225548248925,1.888118905,1,0.5494692810058593,1.1635820068359375,7.89727417602539,-83.27480916030534,21.47328244274809,-12.816793893129772
6225554916008,1.894785988,1,-0.4429273071289062,1.1707646118164061,7.697358337402343,-40.85496183206107,9.389312977099237,-11.106870229007633
6225561582415,1.901452395,1,-0.7841010437011718,1.37906015625,7.994239343261718,-29.610687022900763,27.31297709923664,-21.48854961832061
6225568249029,1.908119009,1,-1.3431471313476562,1.782483135986328,8.688557824707031,-56.38167938931298,31.091603053435115,-34.06870229007634
6225574915540,1.91478552,1,0.11372457885742186,1.426944189453125,9.190143072509764,-104.55725190839695,35.17557251908397,-40.908396946564885
6225581583821,1.921453801,1,-1.4018050720214843,2.0183119995117185,9.05367357788086,-64.54961832061069,16.18320610687023,-37.06870229007634
6225588247883,1.928117863,1,-1.7178396911621092,2.407369769287109,8.350975390624999,-41.274809160305345,-5.755725190839694,-44.534351145038165
6225594915175,1.934785155,1,0.4333505004882812,1.7944541442871094,8.227674005126953,-91.43511450381679,18.885496183206108,-38.69465648854962
6225601582258,1.941452238,1,-0.8786720092773437,1.763329522705078,7.74404526977539,-55.99236641221374,1.6259541984732824,-37.29770992366412
6225608248821,1.948118801,1,-1.9979612854003905,1.7082628845214842,7.538143927001952,-31.541984732824428,4.198473282442748,-40.595419847328245
6225614916217,1.954786197,1,-2.788047833251953,2.5007436340332028,7.97388862915039,-67.7175572519084,7.572519083969466,-64.54961832061069
6225621583508,1.961453488,1,-1.5454571716308594,1.2473790649414063,9.393650213623046,-141.73282442748092,34.6793893129771,-56.87022900763359
6225628249186,1.968119166,1,-3.6236242126464844,1.9955670837402342,8.90044467163086,-89.77099236641222,-21.0,-59.31297709923664
6225634915592,1.974785572,1,-3.411737365722656,2.531868255615234,8.798691101074219,-84.40458015267176,-12.98473282442748,-56.274809160305345
6225641589446,1.981459426,1,-0.9181763366699218,2.0254946044921875,9.028534460449219,-111.53435114503817,3.312977099236641,-41.412213740458014
6225648250748,1.988120728,1,-0.9181763366699218,1.9895815795898437,8.494627490234375,-57.6412213740458,-26.0,-19.66412213740458
6225654915488,1.994785468,1,-1.5586252807617187,1.9895815795898437,8.292317449951172,-28.206106870229007,-17.99236641221374,-5.198473282442748
6225661582831,2.001452811,1,-1.8076222534179687,1.6723498596191406,8.292317449951172,-35.36641221374046,-5.8320610687022905,4.549618320610687
6225668249706,2.008119686,1,-1.9524714538574217,1.1228805786132812,8.495824591064453,-35.36641221374046,-6.748091603053435,9.427480916030534
6225674915488,2.014785468,1,-2.77727392578125,0.9708487731933593,8.718485345458983,-24.80916030534351,-6.748091603053435,11.541984732824428
6225681581425,2.021451405,1,-2.8467057739257813,0.7410054138183594,9.066841687011719,-16.213740458015266,4.251908396946565,11.541984732824428
6225688250123,2.028120103,1,-2.6431986328124997,0.4213794921875,9.460687860107422,-11.648854961832061,7.221374045801527,12.923664122137405
6225694915488,2.034785468,1,-2.6886884643554687,0.32920272827148434,9.460687860107422,-8.145038167938932,-0.4732824427480916,13.053435114503817
6225701582883,2.041452863,1,-2.674323254394531,0.20231004028320312,9.542090716552734,-13.488549618320612,-9.145038167938932,11.603053435114504
6225708248925,2.048118905,1,-2.6779145568847653,0.679953271484375,9.476250170898437,-24.083969465648856,-18.068702290076335,0.22900763358778625
6225714916633,2.054786613,1,-2.912546319580078,1.0773907470703123,9.612719665527344,-53.87022900763359,-29.732824427480917,-9.320610687022901
6225721586581,2.061456561,1,-3.1483751831054687,1.7788918334960937,9.70968483276367,-81.81679389312977,-46.70992366412214,-14.67175572519084
6225728250956,2.068120936,1,-3.3159692993164063,2.5522189697265625,10.182539660644531,-98.3587786259542,-46.99236641221374,-18.412213740458014
6225734916321,2.074786301,1,-2.948459344482422,3.5098996337890624,10.772710369873046,-108.12213740458016,-58.55725190839695,-16.290076335877863
6225741583404,2.081453384,1,-2.1308394775390624,3.8187516479492185,11.334150659179686,-123.09160305343511,-66.56488549618321,-2.66412213740458
6225748249758,2.088119738,1,-0.23582886352539062,3.3698388366699215,10.427945330810546,-109.58015267175573,-101.52671755725191,39.38167938931298
6225754915852,2.094785832,1,-0.6009446166992187,2.721010186767578,8.44674345703125,-24.229007633587788,-132.54198473282443,80.8854961832061
6225761584290,2.10145427,1,-0.622492431640625,0.7577648254394531,7.46272657470703,14.259541984732824,-122.76335877862596,109.41984732824427
6225768249550,2.10811953,1,-0.10414777221679687,-0.7948749511718749,6.9898717468261715,17.84732824427481,-102.27480916030534,117.93129770992367
6225774915435,2.114785415,1,0.034715924072265626,-1.407790576171875,6.645106707763672,36.18320610687023,-76.99236641221374,115.09923664122137
6225781583144,2.121453124,1,0.19512743530273435,-2.072181536865234,6.5756748596191406,37.33587786259542,-61.64885496183206,110.95419847328245
6225788248977,2.128118957,1,0.20350714111328125,-2.4875755249023435,6.685808135986328,29.870229007633586,-42.97709923664122,98.68702290076335
6225794915488,2.134785468,1,0.20350714111328125,-2.493561029052734,7.036558679199218,33.50381679389313,-19.38167938931298,86.58015267175573
6225801583925,2.141453905,1,0.5255272644042969,-2.6467899353027344,6.8976949829101555,52.76335877862596,-3.7099236641221376,65.12213740458016
6225808248873,2.148118853,1,0.2154781494140625,-1.9871873779296874,7.510610607910156,53.10687022900763,9.358778625954198,26.358778625954198
6225814915904,2.154785884,1,1.3144167114257812,-1.140837091064453,7.9475524108886715,17.931297709923665,9.34351145038168,19.396946564885496
6225821582779,2.161452759,1,1.4401122985839843,-1.1923124267578125,8.504204296874999,-35.31297709923664,7.3893129770992365,19.396946564885496
6225828249029,2.168119009,1,0.7122749938964843,-0.7733271362304687,8.664615808105468,-29.412213740458014,-8.366412213740459,5.473282442748092
6225834915071,2.174785051,1,0.34715924072265625,-0.11133037719726561,8.555679632568358,-23.099236641221374,-12.34351145038168,-5.778625954198473
6225841583977,2.181453957,1,0.2154781494140625,0.373495458984375,8.555679632568358,-45.282442748091604,-13.106870229007633,-13.709923664122137
6225848249446,2.188119426,1,0.507570751953125,0.3890577697753906,8.657433203124999,-57.541984732824424,-10.076335877862595,-12.129770992366412
6225854914758,2.194784738,1,0.07781155395507812,0.5506663818359374,8.960299713134765,-22.83969465648855,0.2748091603053435,-4.267175572519084
6225861582519,2.201452499,1,0.1867477294921875,0.34117373657226563,9.361328491210937,8.778625954198473,9.954198473282442,4.442748091603053
6225868249185,2.208119165,1,0.15203180541992187,-0.08379705810546874,9.187748870849608,17.427480916030536,3.946564885496183,17.931297709923665
6225874916008,2.214785988,1,-0.23223756103515625,-0.1867477294921875,8.932766394042968,27.938931297709924,-0.366412213740458,23.15267175572519
6225881583560,2.22145354,1,0.6548141540527344,-0.4513070129394531,8.838195428466797,29.15267175572519,2.7404580152671754,20.916030534351144
6225888253196,2.228123176,1,0.30047230834960936,-0.17956512451171874,8.914809881591797,35.01526717557252,5.305343511450381,14.145038167938932
6225894916581,2.234786561,1,0.20350714111328125,-0.11851298217773437,8.639476690673828,33.41984732824427,-3.595419847328244,14.01526717557252
6225901582571,2.241452551,1,0.044292730712890624,-0.10414777221679687,8.677783917236328,21.099236641221374,-5.480916030534351,7.923664122137405
6225908248352,2.248118332,1,-0.21308394775390624,0.2166752502441406,8.647856396484375,14.290076335877863,-9.82442748091603,1.4809160305343512
6225914916113,2.254786093,1,-0.14125789794921875,0.6212953308105469,8.429984045410155,5.4961832061068705,-15.053435114503817,-6.625954198473282
6225921582310,2.26145229,1,-0.3220201232910156,0.15083470458984374,7.715314849853515,-2.0916030534351147,-33.06106870229008,1.5877862595419847
6225928248977,2.268118957,1,0.3806780639648437,1.1647791076660157,7.704540942382812,-9.221374045801527,-17.16030534351145,-30.65648854961832
6225934915956,2.274785936,1,0.3806780639648437,1.0965443603515623,7.893682873535155,-48.35114503816794,-7.427480916030534,-29.404580152671755
6225941583040,2.28145302,1,1.4939818359375,1.0965443603515623,7.599196069335937,-38.32824427480916,-26.87786259541985,-16.87786259541985
6225948248456,2.288118436,1,0.22744915771484372,0.7553706237792969,7.599196069335937,-20.251908396946565,-19.954198473282442,-7.00763358778626
6225954915956,2.294785936,1,-0.6596025573730468,0.6141127258300781,7.5153990112304685,-20.251908396946565,14.770992366412214,5.137404580152672
6225961582935,2.301452915,1,-0.5793968017578125,0.737414111328125,7.632714892578124,22.290076335877863,14.770992366412214,5.251908396946565
6225968249498,2.308119478,1,-0.6212953308105469,0.5997475158691405,8.329427575683594,45.64885496183206,29.96946564885496,3.2977099236641223
6225974914602,2.314784582,1,-0.07302315063476562,0.2597708801269531,8.870517150878905,31.541984732824428,33.770992366412216,9.755725190839694
6225981581321,2.321451301,1,0.19871873779296872,-0.15562310791015624,9.289502441406249,40.80152671755725,37.396946564885496,12.595419847328245
6225988249498,2.328119478,1,-2.070984436035156,-0.6560112548828124,9.551667523193359,53.61068702290076,19.83969465648855,14.564885496183207
6225994916269,2.334786249,1,-2.3127988037109373,-0.7936778503417968,9.167398156738281,15.717557251908397,-7.137404580152672,3.0
6226001833612,2.341703592,1,-1.946485949707031,-0.9469067565917968,9.846154327392577,-21.31297709923664,12.534351145038167,-4.984732824427481
6226008295071,2.348165051,1,-1.465251416015625,-0.1352723937988281,10.025719451904296,2.9160305343511452,6.519083969465649,-23.27480916030534
6226014919758,2.354789738,1,-1.927332336425781,0.3387795349121094,9.974244116210937,-3.9923664122137406,-10.923664122137405,-21.641221374045802
6226021582519,2.361452499,1,-2.6898855651855467,0.49320554199218747,9.955090502929687,-26.68702290076336,-29.603053435114504,-20.38167938931298
6226028247675,2.368117655,1,-1.8088193542480469,0.737414111328125,10.15740054321289,-20.53435114503817,-14.992366412213741,-24.6793893129771
6226034916894,2.374786874,1,-2.1811177124023438,1.4532804077148436,10.462661254882812,19.87786259541985,-19.923664122137403,-24.061068702290076
6226041584133,2.381454113,1,-1.8770541015625,1.637633935546875,10.68053360595703,28.81679389312977,-26.931297709923665,-12.114503816793894
6226048249602,2.388119582,1,-1.3215993164062498,1.7980454467773437,10.802637890625,24.18320610687023,-38.847328244274806,-7.190839694656488
6226054914185,2.394784165,1,-0.9624690673828125,1.6256629272460936,10.363301885986328,19.259541984732824,-61.45038167938932,4.00763358778626
6226061582987,2.401452967,1,-0.9217676391601562,1.4185644836425781,9.957484704589843,24.862595419847327,-83.52671755725191,16.66412213740458
6226068248769,2.408118749,1,0.3124433166503906,1.4688427185058592,9.817423907470703,42.16793893129771,-73.51908396946565,16.862595419847327
6226074915592,2.414785572,1,0.42975919799804685,1.3263877197265623,9.540893615722656,57.0763358778626,-78.41221374045801,25.03053435114504
6226081582571,2.421452551,1,1.1959037292480468,1.227028350830078,8.953117108154297,56.534351145038165,-97.6793893129771,35.83969465648855
6226088249133,2.428119113,1,1.533486163330078,0.9205705383300781,9.036914166259765,43.67175572519084,-94.58015267175573,34.58015267175573
6226094914862,2.434784842,1,2.5665841796874997,0.622492431640625,8.423998541259765,44.25190839694657,-95.2442748091603,33.47328244274809
6226101583144,2.441453124,1,3.3446997192382812,0.22026655273437498,7.991845141601562,36.43511450381679,-95.2442748091603,29.572519083969464
6226108256373,2.448126353,1,3.612850305175781,0.08499415893554688,7.127538342285156,35.36641221374046,-104.33587786259542,29.572519083969464
6226114917206,2.454787186,1,3.7397429931640622,-0.17118541870117188,6.308721374511719,28.38167938931298,-98.68702290076335,23.80916030534351
6226121582935,2.461452915,1,3.9731776550292968,-0.18076222534179687,5.440823272705078,23.38167938931298,-93.79389312977099,14.618320610687023
6226128248560,2.46811854,1,4.3634325256347655,0.3184288208007812,4.823119244384765,10.0,-76.06870229007633,-4.251908396946565
6226134915487,2.474785467,1,4.151545678710937,0.842758984375,4.546588952636719,-21.0,-56.45038167938932,-18.076335877862597
6226141582883,2.481452863,1,3.3016040893554686,1.0678139404296874,4.565742565917969,-37.6412213740458,-41.83969465648855,-20.206106870229007
6226148248560,2.48811854,1,2.8191724548339843,1.3120225097656248,5.12000025024414,-11.648854961832061,-6.66412213740458,-20.80916030534351
6226154915331,2.494785311,1,2.299630694580078,2.1248539733886718,5.894524487304687,27.66412213740458,22.893129770992367,-25.34351145038168
6226161581946,2.501451926,1,2.1643583007812497,2.3211785095214843,7.004236956787109,18.564885496183205,40.274809160305345,-17.442748091603054
6226168248665,2.508118645,1,1.9752163696289062,2.2673089721679687,8.0062103515625,15.526717557251908,46.87786259541985,-5.809160305343512
6226174915852,2.514785832,1,1.47482822265625,2.493561029052734,8.616731774902343,31.862595419847327,46.541984732824424,0.29770992366412213
6226181582362,2.521452342,1,1.4353238952636718,2.422932080078125,9.30147344970703,21.80916030534351,43.3206106870229,5.824427480916031
6226188247623,2.528117603,1,1.35990654296875,2.272097375488281,9.536105212402344,5.809160305343512,30.572519083969464,14.870229007633588
6226194913300,2.53478328,1,0.8978256225585937,1.956062756347656,9.035717065429687,-14.427480916030534,7.221374045801527,21.931297709923665
6226201581685,2.541451665,1,0.6428431457519531,1.5023615417480467,8.480262280273436,-47.083969465648856,-6.549618320610687,28.732824427480917
6226208249185,2.548119165,1,0.07541735229492187,0.49320554199218747,8.700528833007812,-50.267175572519086,8.274809160305344,41.343511450381676
6226214915019,2.554784999,1,-0.9229647399902343,0.843956085205078,8.304288458251953,4.442748091603053,-0.1450381679389313,34.038167938931295
6226221581998,2.561451978,1,-0.9229647399902343,0.3220201232910156,9.641450085449218,0.10687022900763359,49.717557251908396,40.93129770992366
6226228248664,2.568118644,1,-0.1580173095703125,0.3220201232910156,11.014524737548827,33.954198473282446,51.19083969465649,35.80152671755725
6226234914289,2.574784269,1,-0.9636661682128905,0.3064578125,11.014524737548827,34.80916030534351,40.56488549618321,35.274809160305345
6226241583717,2.581453697,1,-2.114080065917969,0.5027823486328125,12.215216870117187,50.44274809160305,39.587786259541986,25.18320610687023
6226248249342,2.588119322,1,-1.0414777221679687,0.39145197143554683,13.408726397705077,24.595419847328245,37.63358778625954,24.221374045801525
6226254915175,2.594785155,1,0.015562310791015624,0.4704606262207031,13.713987109375,2.8625954198473282,-3.312977099236641,14.450381679389313
6226261582779,2.601452759,1,1.2880804931640624,0.5422866760253906,12.92270346069336,7.66412213740458,-55.267175572519086,24.396946564885496
6226268248769,2.608118749,1,1.4915876342773438,1.8650830932617186,11.675324395751952,43.19847328244275,-91.85496183206106,14.259541984732824
6226274915696,2.614785676,1,1.8363526733398436,2.009932293701172,10.026916552734374,24.206106870229007,-125.62595419847328,19.671755725190838
6226281582050,2.62145203,1,2.3139959045410157,1.70467158203125,7.799111907958984,-5.343511450381679,-166.17557251908397,23.198473282442748
6226288248560,2.62811854,1,1.9608511596679685,1.361103643798828,5.772420202636718,-10.84732824427481,-178.67175572519085,25.801526717557252
6226294914185,2.634784165,1,1.4161702819824218,0.6751648681640625,4.478354205322265,-12.954198473282442,-172.46564885496184,28.702290076335878
6226301581685,2.641451665,1,2.038662713623047,0.2920926025390625,3.900154504394531,15.419847328244275,-121.1526717557252,21.564885496183205
6226308249550,2.64811953,1,4.598064288330078,-0.2561795776367187,4.151545678710937,40.63358778625954,-67.05343511450381,16.03053435114504
6226314914550,2.65478453,1,4.595670086669921,0.2980781066894531,6.0142345703124995,67.12977099236642,-5.572519083969466,0.9694656488549618
6226321583144,2.661453124,1,4.365826727294921,0.46686932373046874,6.669048724365234,62.44274809160305,-12.282442748091603,-1.2595419847328244
6226328248456,2.668118436,1,3.3411084167480465,0.6560112548828124,7.157465863037109,27.984732824427482,-18.49618320610687,-1.9770992366412214
6226334915279,2.674785259,1,3.2309751403808593,1.0199299072265624,7.60398447265625,11.15267175572519,-9.755725190839694,-12.954198473282442
6226341583508,2.681453488,1,3.438073583984375,1.993172882080078,7.715314849853515,2.7480916030534353,-8.282442748091603,-28.389312977099237
6226348248508,2.688118488,1,3.380612744140625,2.653972540283203,7.693767034912109,-26.374045801526716,-16.297709923664122,-30.099236641221374
6226354916008,2.694785988,1,1.6723498596191406,2.546233465576172,8.391676818847655,-45.38931297709924,-16.893129770992367,-19.396946564885496
6226361583092,2.701453072,1,1.533486163330078,2.5809493896484375,8.441955053710936,-19.549618320610687,-27.908396946564885,-5.732824427480916
6226368248925,2.708118905,1,0.3076549133300781,2.492363928222656,8.789114294433594,-0.3435114503816794,-7.213740458015267,-0.8625954198473282
6226374915644,2.714785624,1,2.1224597717285154,2.185906115722656,8.789114294433594,20.885496183206108,6.343511450381679,6.343511450381679
6226381582727,2.721452707,1,2.816778253173828,2.050633721923828,9.418789331054686,20.885496183206108,-17.076335877862597,16.64885496183206
6226388248560,2.72811854,1,2.8574796813964842,1.6531962463378904,9.612719665527344,25.48854961832061,-17.076335877862597,21.938931297709924
6226394915071,2.734785051,1,2.3965958618164063,1.3922282653808593,9.625887774658203,10.740458015267176,-30.557251908396946,21.938931297709924
6226401581321,2.741451301,1,1.7645266235351562,1.24498486328125,9.504980590820312,-4.8320610687022905,-44.404580152671755,17.786259541984734
6226408248925,2.748118905,1,2.567781280517578,1.0893617553710937,8.39526812133789,-25.671755725190838,-72.58015267175573,16.27480916030534
6226414914394,2.754784374,1,3.1088708557128903,0.7517793212890624,7.600393170166015,-46.48854961832061,-75.77099236641222,10.648854961832061
6226421581998,2.761451978,1,3.393780853271484,0.7398083129882812,6.655880615234374,-41.221374045801525,-80.96946564885496,9.259541984732824
6226428248769,2.768118749,1,3.70263286743164,0.689530078125,5.929240411376953,-23.977099236641223,-66.35114503816794,5.923664122137405
6226434915279,2.774785259,1,3.833116857910156,1.1228805786132812,5.719747766113281,-18.00763358778626,-44.48091603053435,-4.595419847328245
6226441580279,2.781450259,1,3.593696691894531,1.180341418457031,5.965153436279296,-32.67175572519084,-29.27480916030534,-6.0534351145038165
6226448249341,2.788119321,1,3.0502129150390624,1.5382745666503905,6.355408306884765,-32.74045801526717,-15.916030534351146,-8.778625954198473
6226454915175,2.794785155,1,2.8610709838867185,1.6603788513183593,6.912060192871094,-19.557251908396946,1.534351145038168,-6.083969465648855
6226461580591,2.801450571,1,2.7198130859375,1.2054805358886718,7.319074475097656,-4.0,6.717557251908397,1.297709923664122
6226468249706,2.808119686,1,3.0538042175292968,1.6220716247558593,8.254010223388672,3.786259541984733,25.625954198473284,-7.763358778625954
6226474915904,2.814785884,1,3.1220389648437497,1.2880804931640624,9.271545928955078,-9.67175572519084,31.19083969465649,-1.9465648854961832
6226481582623,2.821452603,1,2.4001871643066406,1.139639990234375,9.217676391601563,-4.908396946564886,-2.015267175572519,6.938931297709924
6226488248144,2.828118124,1,3.1962592163085937,0.6452373474121094,9.470264666748045,-12.244274809160306,1.6717557251908397,9.396946564885496
6226494918196,2.834788176,1,3.5494039611816404,0.8559270935058593,9.006986645507812,-2.6946564885496183,-16.091603053435115,2.045801526717557
6226501584550,2.84145453,1,3.4249054748535155,0.612915625,8.584410052490234,-26.419847328244273,-34.954198473282446,4.687022900763359
6226508248612,2.848118592,1,3.4249054748535155,0.38187516479492184,8.152256652832031,-45.152671755725194,-36.64885496183206,1.0
6226514915487,2.854785467,1,3.614047406005859,0.38187516479492184,8.170213165283203,-32.87022900763359,-41.80152671755725,-3.7786259541984735
6226521582206,2.861452186,1,3.4069489624023435,0.565031591796875,7.710526446533203,-33.20610687022901,-36.93893129770992,-5.9465648854961835
6226528248873,2.868118853,1,3.436876483154297,0.719457598876953,7.4794859863281244,-29.297709923664122,-36.045801526717554,-9.549618320610687
6226534914862,2.874784842,1,3.754108203125,0.8415618835449218,7.387309222412109,-30.801526717557252,-30.18320610687023,-8.274809160305344
6226541583404,2.881453384,1,3.9133226135253905,0.9002198242187499,7.417236743164062,-26.580152671755727,-26.458015267175572,-10.229007633587786
6226548249498,2.888119478,1,3.756502404785156,0.8259995727539062,7.505822204589843,-17.198473282442748,-20.977099236641223,-7.801526717557252
6226554915227,2.894785207,1,4.011484881591796,0.7110778930664062,7.581239556884765,-7.221374045801527,-15.854961832061068,-6.534351145038168
6226561581685,2.901451665,1,3.9887399658203124,0.46806642456054687,7.823053924560546,0.2366412213740458,-8.320610687022901,-4.190839694656488
6226568248300,2.90811828,1,3.6260184143066403,0.3016694091796875,8.13310303955078,8.114503816793894,-0.48854961832061067,-4.580152671755725
6226574915852,2.914785832,1,4.071339923095703,0.13407529296874998,8.304288458251953,10.320610687022901,0.6793893129770993,-6.0534351145038165
6226581581946,2.921451926,1,3.901351605224609,0.04189852905273437,8.712499841308594,8.244274809160306,4.8320610687022905,-9.16030534351145
6226588248612,2.928118592,1,4.436455676269531,0.2166752502441406,8.717288244628906,4.648854961832061,-1.748091603053435,-17.221374045801525
6226594916373,2.934786353,1,4.159925384521484,0.23104046020507812,8.895656268310546,-6.938931297709924,-4.603053435114504,-21.801526717557252
6226601583612,2.941453592,1,3.289633081054687,0.7565677246093749,8.846575134277343,-11.32824427480916,-21.251908396946565,-28.068702290076335
6226608250331,2.948120311,1,3.768473413085937,0.5985504150390625,8.79150849609375,-22.328244274809162,-19.72519083969466,-31.068702290076335
6226614915852,2.954785832,1,3.812766143798828,0.9576806640625,8.166621862792969,-3.5877862595419847,-28.46564885496183,-31.52671755725191
6226621582675,2.961452655,1,3.669114044189453,1.0809820495605469,7.896077075195312,3.7709923664122136,-28.68702290076336,-30.435114503816795
6226628248404,2.968118384,1,3.891774798583984,1.1061211669921875,7.259219433593749,-5.351145038167939,-31.17557251908397,-28.106870229007633
6226634915487,2.974785467,1,3.6631285400390623,0.9864110839843749,6.710947253417968,-7.282442748091603,-33.61832061068702,-25.984732824427482
6226641583404,2.981453384,1,3.289633081054687,0.8283937744140625,6.391321331787109,-5.580152671755725,-26.580152671755727,-23.65648854961832
6226648248560,2.98811854,1,3.3686417358398435,0.8846575134277344,6.238092425537109,-1.8091603053435115,-6.916030534351145,-26.083969465648856
6226654913768,2.994783748,1,3.5218706420898434,0.9038111267089843,6.629544396972656,6.244274809160306,15.030534351145038,-25.763358778625953
6226661582831,3.001452811,1,3.7014357666015623,0.9038111267089843,6.629544396972656,17.85496183206107,27.0381679389313,-23.85496183206107
6226668248404,3.008118384,1,3.5529952636718747,0.9133879333496093,7.164648468017577,17.85496183206107,39.20610687022901,-22.48854961832061
6226674916321,3.014786301,1,3.220201232910156,0.8271966735839843,7.8733321594238275,18.549618320610687,39.20610687022901,-23.541984732824428
6226681582310,3.02145229,1,3.0454245117187497,0.8200140686035156,8.598775262451172,19.786259541984734,44.152671755725194,-23.541984732824428
6226688245539,3.028115519,1,2.9376854370117185,0.9528922607421875,9.18655177001953,20.53435114503817,45.343511450381676,-25.49618320610687
6226694914081,3.034784061,1,3.0645781249999997,0.9038111267089843,9.62109937133789,15.916030534351146,38.229007633587784,-24.31297709923664
6226701583404,3.041453384,1,3.1603461914062496,0.9732429748535155,9.69771382446289,12.786259541984732,24.458015267175572,-24.541984732824428
6226708249550,3.04811953,1,3.0526071166992184,0.9265560424804687,9.327809667968749,8.755725190839694,9.83206106870229,-24.03053435114504
6226714915383,3.054785363,1,2.7521348083496093,0.9433154541015625,8.858546142578124,1.4045801526717556,-3.7709923664122136,-24.984732824427482
6226721582258,3.061452238,1,2.6515783386230467,1.0845733520507812,8.339004382324218,-6.66412213740458,-10.099236641221374,-27.099236641221374
6226728249862,3.068119842,1,2.488772625732422,1.2150573425292968,7.849390142822265,-9.717557251908397,-11.419847328244275,-29.34351145038168
6226734914498,3.074784478,1,2.1679496032714844,1.3563152404785155,7.472303381347656,-10.83206106870229,-12.473282442748092,-30.198473282442748
6226741582779,3.081452759,1,1.8363526733398436,1.5059528442382812,7.455543969726562,-10.633587786259541,-4.694656488549619,-29.541984732824428
6226748246737,3.088116717,1,1.668758557128906,1.7334020019531249,7.4699091796875,-8.297709923664122,2.282442748091603,-28.083969465648856
6226754916268,3.094786248,1,1.5969325073242187,1.8291700683593748,7.7224974548339835,-8.763358778625955,12.0,-24.938931297709924
6226761582206,3.101452186,1,1.4125789794921875,1.9871873779296874,8.26119282836914,-1.5267175572519085,21.389312977099237,-20.938931297709924
6226768248456,3.108118436,1,1.695094775390625,2.117671368408203,8.936357696533202,6.351145038167939,30.625954198473284,-17.30534351145038
6226774915539,3.114785519,1,2.067393133544922,2.067393133544922,9.457096557617186,11.16793893129771,27.709923664122137,-8.083969465648854
6226781580487,3.121450467,1,2.213439434814453,1.8902222106933593,9.828197814941406,14.19083969465649,19.580152671755727,-0.3893129770992366
6226788249237,3.128119217,1,2.5737667846679684,1.5095441467285156,10.121487518310547,13.145038167938932,13.633587786259541,5.251908396946565
6226794914862,3.134784842,1,2.5737667846679684,1.389834063720703,10.014945544433592,18.396946564885496,-1.2213740458015268,9.67175572519084
6226801582571,3.141452551,1,2.8730419921875,1.236605157470703,9.963470208740233,15.366412213740459,-18.47328244274809,12.297709923664122
6226808249185,3.148119165,1,3.084928839111328,0.9205705383300781,9.503783489990234,14.213740458015268,-31.47328244274809,10.229007633587786
6226814915279,3.154785259,1,3.347093920898437,0.93852705078125,8.959102612304687,4.442748091603053,-33.038167938931295,11.816793893129772
6226821582727,3.161452707,1,3.573345977783203,0.47764323120117186,8.212111694335936,-5.770992366412214,-40.85496183206107,12.068702290076336
6226828248456,3.168118436,1,3.084928839111328,0.7493851196289062,7.3849150207519525,-0.6335877862595419,-50.97709923664122,4.251908396946565
6226834914966,3.174784946,1,3.496731524658203,0.6883329772949218,6.6343328002929685,-12.641221374045802,-46.847328244274806,0.25190839694656486
6226841583560,3.18145354,1,3.6535517333984373,0.70868369140625,6.137535955810547,-16.435114503816795,-38.45038167938932,-4.0458015267175576
6226848248716,3.188118696,1,3.465606903076172,0.9516951599121093,5.999869360351562,-8.458015267175572,-23.84732824427481,-10.15267175572519
6226854914289,3.194784269,1,3.4440590881347655,1.1755530151367186,6.381744525146484,-5.786259541984733,-1.3511450381679388,-14.534351145038167
6226861581633,3.201451613,1,3.5015199279785154,1.2605471740722656,7.042544183349609,1.450381679389313,17.33587786259542,-15.65648854961832
6226868248664,3.208118644,1,3.5051112304687497,1.4772224243164063,7.390900524902343,18.984732824427482,22.541984732824428,-13.732824427480915
6226874914966,3.214784946,1,3.3411084167480465,1.6352397338867186,8.12711753540039,16.106870229007633,29.52671755725191,-13.709923664122137
6226881587987,3.221457967,1,3.768473413085937,1.9812018737792967,8.329427575683594,-0.4580152671755725,27.114503816793892,-8.259541984732824
6226888250643,3.228120623,1,3.0047230834960934,1.6927005737304686,8.668207110595702,-11.206106870229007,20.900763358778626,-2.786259541984733
6226894915695,3.234785675,1,2.4480711975097655,1.4927847351074217,8.555679632568358,3.366412213740458,14.198473282442748,5.938931297709924
6226901582570,3.24145255,1,2.2649147705078123,1.3814543579101561,8.747215765380858,16.51145038167939,17.35114503816794,9.0
6226908249133,3.248119113,1,3.057395520019531,1.5849614990234373,8.73285055541992,3.7480916030534353,18.66412213740458,6.312977099236641
6226914915852,3.254785832,1,3.1471780822753903,1.4891934326171874,8.243236315917969,-18.297709923664122,3.984732824427481,10.564885496183207
6226921582779,3.261452759,1,3.0909143432617188,1.2820949890136717,7.669825018310546,-26.053435114503817,-7.068702290076335,15.267175572519085
6226928248925,3.268118905,1,3.0238766967773434,1.1875240234375,6.961141326904296,-14.595419847328245,-4.778625954198473,15.938931297709924
6226934914862,3.274784842,1,3.0238766967773434,1.0965443603515623,6.858190655517578,-4.190839694656488,9.49618320610687,15.725190839694656
6226941583195,3.281453175,1,2.920926025390625,1.0965443603515623,7.278373046874999,3.9770992366412212,28.15267175572519,10.206106870229007
6226948247675,3.288117655,1,2.9604303527832028,1.3575123413085937,7.278373046874999,5.374045801526718,39.12213740458015,9.213740458015268
6226954914654,3.294784634,1,2.901772412109375,1.438915197753906,7.967903124999999,5.374045801526718,39.786259541984734,10.16030534351145
6226961582258,3.301452238,1,2.779668127441406,1.4221557861328125,8.500612994384765,10.427480916030534,39.786259541984734,10.465648854961833
6226968249029,3.308119009,1,2.953247747802734,1.4712369201660156,8.726865051269531,14.557251908396946,35.58015267175573,10.465648854961833
6226974915643,3.314785623,1,3.151966485595703,1.2605471740722656,8.836998327636719,8.801526717557252,25.96946564885496,12.885496183206106
6226981582154,3.321452134,1,3.1543606872558594,1.0223241088867188,8.553285430908202,4.488549618320611,12.541984732824428,13.893129770992367
6226988249237,3.328119217,1,3.114856359863281,0.7757213378906249,8.137891442871092,2.4122137404580153,4.854961832061068,12.48091603053435
6226994915487,3.334785467,1,3.020285394287109,0.6440402465820312,7.888894470214844,1.5877862595419847,2.5572519083969465,9.755725190839694
6227001582102,3.341452082,1,3.373430139160156,0.5578489868164063,7.630320690917968,14.022900763358779,9.404580152671755,7.175572519083969
6227008249550,3.34811953,1,3.3315316101074215,0.9959878906249999,7.518990313720702,31.862595419847327,12.381679389312977,-0.1984732824427481
6227014915487,3.354785467,1,3.3195606018066406,1.3730746520996093,7.888894470214844,3.984732824427481,18.549618320610687,-5.679389312977099
6227021581477,3.361451457,1,3.0741549316406247,1.2210428466796874,8.244433416748047,-13.977099236641221,21.87786259541985,-2.49618320610687
6227028247987,3.368117967,1,2.5055320373535155,1.3120225097656248,8.170213165283203,6.122137404580153,16.38167938931298,-1.8473282442748091
6227034914654,3.374784634,1,2.2924480895996093,0.9361328491210937,8.36294639892578,11.473282442748092,20.50381679389313,0.26717557251908397
6227041583091,3.381453071,1,2.3977929626464842,0.729034405517578,8.756792572021483,21.587786259541986,28.83969465648855,-1.6488549618320612
6227048248768,3.388118748,1,2.797624639892578,0.8930372192382812,8.979453326416015,33.64885496183206,30.610687022900763,-8.106870229007633
6227054914706,3.394784686,1,2.932897033691406,0.8978256225585937,9.209296685791015,20.3206106870229,21.64885496183206,-11.458015267175572
6227061583248,3.401453228,1,3.0166940917968748,0.7541735229492187,9.178172064208983,5.412213740458015,7.9541984732824424,-12.83206106870229
6227068248977,3.408118957,1,3.3327287109375,1.0462661254882812,8.813056311035156,11.427480916030534,-5.694656488549619,-18.198473282442748
6227074915227,3.414785207,1,3.345896820068359,1.8088193542480469,8.936357696533202,-2.351145038167939,-5.916030534351145,-28.068702290076335
6227081581685,3.421451665,1,3.345896820068359,1.7896657409667969,8.56765064086914,-23.076335877862597,-18.061068702290076,-14.114503816793894
6227088248560,3.42811854,1,3.106476654052734,1.3299790222167969,8.560468035888672,3.2977099236641223,-30.81679389312977,-15.687022900763358
6227094915279,3.434785259,1,2.2744915771484373,1.85790048828125,7.794323504638672,2.900763358778626,-10.48091603053435,-15.49618320610687
6227101582675,3.441452655,1,2.849099975585937,2.0063409912109376,7.894879974365234,-4.916030534351145,-11.50381679389313,-10.954198473282442
6227108248612,3.448118592,1,2.8610709838867185,2.574963885498047,7.639897497558593,-3.0839694656488548,-9.549618320610687,-10.801526717557252
6227114915018,3.454784998,1,2.6623522460937497,2.2589292663574216,7.589619262695312,-5.603053435114504,-10.702290076335878,0.9236641221374046
6227121581737,3.461451717,1,2.586934893798828,2.395398760986328,7.485471490478515,1.6259541984732824,-4.641221374045801,4.015267175572519
6227128247935,3.468117915,1,2.3965958618164063,2.2062568298339844,7.463923675537109,-5.931297709923665,-4.32824427480916,10.900763358778626
6227134915331,3.474785311,1,2.938882537841797,1.707065783691406,7.784746697998046,-12.908396946564885,5.793893129770993,15.84732824427481
6227141582883,3.481452863,1,2.96881005859375,1.599326708984375,7.994239343261718,11.595419847328245,10.007633587786259,17.763358778625953
6227148248664,3.488118644,1,2.579752288818359,1.3192051147460937,8.327033374023436,19.099236641221374,9.259541984732824,21.595419847328245
6227154915122,3.494785102,1,2.3427263244628906,0.9995791931152344,8.763975177001953,10.51908396946565,10.412213740458014,20.47328244274809
6227161582154,3.501452134,1,2.1894974182128903,0.9253589416503906,8.932766394042968,11.51908396946565,6.305343511450381,15.885496183206106
6227168248560,3.50811854,1,2.403778466796875,0.9756371765136718,8.756792572021483,6.6183206106870225,-2.213740458015267,12.465648854961833
6227174915956,3.514785936,1,2.5234885498046875,1.102529864501953,8.659827404785156,-7.282442748091603,-7.488549618320611,7.564885496183206
6227181582935,3.521452915,1,2.7042507751464844,1.2880804931640624,8.294711651611328,-16.580152671755727,-13.83969465648855,5.290076335877862
6227188247258,3.528117238,1,2.7533319091796873,1.5191209533691405,7.975085729980468,-15.297709923664122,-16.198473282442748,4.511450381679389
6227194914758,3.534784738,1,2.7437551025390623,1.5442600708007812,7.556100439453124,-13.893129770992367,-18.114503816793892,5.755725190839694
6227201621320,3.5414913,1,2.849099975585937,1.4616601135253906,7.296329559326171,-16.99236641221374,-14.122137404580153,7.908396946564886
6227208261112,3.548131092,1,2.634818927001953,1.4257470886230468,7.277175946044921,-11.274809160305344,-3.8091603053435112,9.297709923664122
6227214914654,3.554784634,1,3.906140008544922,0.31962592163085934,6.301538769531249,4.465648854961832,1.0076335877862594,20.69465648854962
6227221580956,3.561450936,1,3.906140008544922,0.8295908752441405,6.019022973632812,32.70992366412214,10.816793893129772,10.061068702290076
6227228247414,3.568117394,1,2.5953145996093747,0.8295908752441405,7.219715106201171,4.587786259541985,44.00763358778626,4.099236641221374
6227234915331,3.574785311,1,2.1607669982910154,0.7302315063476562,7.219715106201171,5.748091603053435,76.70992366412214,-10.221374045801527
6227241583925,3.581453905,1,3.1471780822753903,1.388636962890625,8.534131817626953,5.748091603053435,64.16793893129771,-10.786259541984732
6227248247622,3.588117602,1,4.541800549316406,2.2445640563964844,8.767566479492187,22.755725190839694,55.50381679389313,5.068702290076335
6227254930695,3.594800675,1,1.3108254089355469,1.9009961181640624,9.97903251953125,0.5572519083969466,54.86259541984733,8.633587786259541
6227261597518,3.601467498,1,0.9373299499511718,1.6711527587890624,9.919177478027343,-8.045801526717558,15.778625954198473,3.618320610687023
6227268272570,3.60814255,1,2.81558115234375,2.003946789550781,9.944316595458984,7.122137404580153,34.06870229007634,3.618320610687023
6227274932883,3.614802863,1,2.924517327880859,1.9009961181640624,9.424774835205078,14.236641221374045,5.900763358778626,12.0
6227281595956,3.621465936,1,2.1799206115722654,0.8379705810546875,8.749609967041016,-6.656488549618321,-22.27480916030534,28.427480916030536
6227288263404,3.628133384,1,2.597708801269531,0.38786066894531246,8.25520732421875,4.282442748091603,-15.755725190839694,23.931297709923665
6227294925956,3.634795936,1,3.4572271972656248,0.15442600708007811,8.196549383544921,29.18320610687023,-1.5572519083969465,15.648854961832061
6227301598352,3.641468332,1,3.337517114257812,0.3890577697753906,8.658630303955078,34.152671755725194,7.015267175572519,4.587786259541985
6227308263977,3.648133957,1,3.2597055603027343,0.7625532287597656,8.996212738037109,13.98473282442748,-1.7557251908396947,-5.435114503816794
6227314928560,3.65479854,1,3.228580938720703,1.4161702819824218,9.06564458618164,-4.923664122137405,-9.84732824427481,-14.32824427480916
6227321594914,3.661464894,1,3.1220389648437497,1.9476830505371092,8.81664761352539,-13.412213740458014,-20.52671755725191,-17.0
6227328262727,3.668132707,1,2.5845406921386718,2.146401788330078,8.245630517578125,-13.274809160305344,-38.412213740458014,-10.938931297709924
6227334929341,3.674799321,1,2.589329095458984,2.2541408630371094,7.376535314941406,-7.816793893129771,-45.38167938931298,-6.541984732824427
6227341597362,3.681467342,1,3.3710359375,2.0925322509765625,6.762422589111328,-5.145038167938932,-37.2442748091603,-2.8244274809160306
6227348308299,3.688178279,1,3.8271313537597655,2.105700360107422,6.449979272460937,2.6717557251908395,-25.17557251908397,0.3893129770992366
6227354929654,3.694799634,1,3.6056677001953124,1.7944541442871094,6.495469104003906,6.625954198473282,-13.15267175572519,6.419847328244275
6227361595174,3.701465154,1,3.1196447631835937,1.5634136840820312,6.4834980957031245,6.923664122137405,-4.908396946564886,9.618320610687023
6227368262987,3.708132967,1,3.1196447631835937,1.2761094848632812,6.888118176269531,-2.549618320610687,6.931297709923665,10.106870229007633
6227374930174,3.714800154,1,2.935291235351562,1.2318167541503906,7.4399816589355465,-3.030534351145038,23.954198473282442,7.893129770992366
6227381595279,3.721465259,1,3.1016882507324217,1.0785878479003905,7.364564306640625,11.404580152671755,18.33587786259542,9.526717557251908
6227388262883,3.728132863,1,2.3415292236328122,1.1037269653320312,7.824251025390624,11.709923664122137,41.57251908396947,2.2061068702290076
6227394928560,3.73479854,1,2.8323405639648436,1.291671795654297,8.737638958740234,11.709923664122137,32.587786259541986,-0.22137404580152673
6227401596529,3.741466509,1,3.1567548889160153,1.5071499450683592,9.06564458618164,3.4656488549618323,31.564885496183205,3.0
6227408262727,3.748132707,1,2.6228479187011717,1.5095441467285156,8.945934503173827,-14.15267175572519,8.114503816793894,3.6412213740458017
6227414928716,3.754798696,1,3.9911341674804683,0.9277531433105468,8.348581188964843,-18.80916030534351,8.595419847328245,5.595419847328245
6227421596424,3.761466404,1,1.3467384338378905,1.5634136840820312,7.959523419189453,11.198473282442748,-11.282442748091603,4.450381679389313
6227428264914,3.768134894,1,2.2301988464355467,1.1540052001953125,8.729259252929687,-20.870229007633586,14.687022900763358,-0.9236641221374046
6227434927987,3.774797967,1,3.896563201904297,1.792059942626953,8.839392529296875,-11.206106870229007,19.206106870229007,-13.335877862595419
6227441596685,3.781466665,1,2.9843723693847655,1.9201497314453124,8.58680425415039,-2.549618320610687,-7.1679389312977095,-3.1603053435114505
6227448263299,3.788133279,1,2.6970681701660153,1.2952630981445312,8.336610180664062,-26.702290076335878,-15.84732824427481,4.541984732824427
6227454929237,3.794799217,1,3.029862200927734,1.0211270080566406,7.924807495117187,-16.47328244274809,-15.877862595419847,1.8396946564885497
6227461597102,3.801467082,1,3.1495722839355467,0.9540893615722655,7.739256866455078,-5.190839694656488,-10.48091603053435,-1.3511450381679388
6227468263560,3.80813354,1,3.688267657470703,0.7900865478515624,7.767987286376953,-12.435114503816793,-7.412213740458015,-2.145038167938931
6227474928612,3.814798592,1,3.2070331237792966,0.9253589416503906,7.967903124999999,-16.732824427480917,-0.6564885496183206,-6.809160305343512
6227481595487,3.821465467,1,2.9747955627441405,0.8918401184082031,7.8721350585937495,-19.16030534351145,-6.465648854961832,-6.6183206106870225
6227488263872,3.828133852,1,3.1747114013671873,1.150413897705078,8.055291485595703,-16.49618320610687,0.732824427480916,-13.122137404580153
6227494929862,3.834799842,1,2.091335150146484,1.16837041015625,8.473079675292968,-16.213740458015266,1.0305343511450382,-13.16793893129771
6227501596372,3.841466352,1,2.6216508178710938,1.1755530151367186,8.389282617187499,-16.564885496183205,-3.6259541984732824,-13.740458015267176
6227508262987,3.848132967,1,2.750937707519531,1.1109095703125,8.864531646728516,-22.19083969465649,8.335877862595419,-17.793893129770993
6227514928768,3.854798748,1,2.9041666137695312,1.218648645019531,8.537723120117187,-19.778625954198475,-11.664122137404581,-14.595419847328245
6227521597622,3.861467602,1,3.4536358947753905,1.0654197387695312,8.763975177001953,-9.625954198473282,2.0076335877862594,-18.30534351145038
6227528263091,3.868133071,1,3.23696064453125,1.0965443603515623,8.763975177001953,-8.580152671755725,-14.786259541984732,-17.30534351145038
6227534928404,3.874798384,1,3.0454245117187497,1.016338604736328,8.493430389404296,-9.206106870229007,-15.17557251908397,-17.893129770992367
6227541595799,3.881465779,1,3.1100679565429687,0.949300958251953,8.206126190185547,-17.022900763358777,-15.15267175572519,-21.0381679389313
6227548261945,3.888131925,1,2.883815899658203,1.1192892761230469,7.8350249328613275,-14.389312977099237,-19.061068702290076,-24.954198473282442
6227554928924,3.894798904,1,2.923320227050781,1.438915197753906,7.975085729980468,-18.259541984732824,-11.717557251908397,-24.954198473282442
6227561596268,3.901466248,1,3.219004132080078,1.3575123413085937,7.926004595947266,-17.709923664122137,-9.748091603053435,-22.770992366412212
6227568262414,3.908132394,1,2.7665000183105466,1.3718775512695311,7.813477117919922,-10.183206106870228,-14.206106870229007,-20.00763358778626
6227574929445,3.914799425,1,3.0358477050781247,1.294065997314453,7.644685900878906,-9.511450381679388,-8.816793893129772,-18.15267175572519
6227581595018,3.921464998,1,3.4165257690429685,1.1959037292480468,7.56567724609375,-6.603053435114504,-3.0229007633587788,-18.587786259541986
6227588263039,3.928133019,1,3.2070331237792966,1.2629413757324217,7.651868505859374,-4.091603053435114,0.4580152671755725,-18.80916030534351
6227594929289,3.934799269,1,2.6611551452636717,1.0773907470703123,7.851784344482422,-9.893129770992367,-1.015267175572519,-16.282442748091604
6227601594966,3.941464946,1,2.3582886352539063,1.131260284423828,8.185775476074218,-10.893129770992367,7.5038167938931295,-18.114503816793892
6227608261685,3.948131665,1,2.3642741394042965,1.4532804077148436,8.51018980102539,-10.381679389312977,10.534351145038167,-19.69465648854962
6227614928351,3.954798331,1,2.194285821533203,1.5275006591796874,8.75918677368164,-20.519083969465647,8.664122137404581,-16.69465648854962
6227621596268,3.961466248,1,1.9129671264648436,1.7214309936523438,8.877699755859375,-23.900763358778626,2.5267175572519083,-12.34351145038168
6227628261633,3.968131613,1,2.482787121582031,1.68551796875,8.608352069091797,-21.404580152671755,-2.9160305343511452,-7.1679389312977095
6227634928664,3.974798644,1,1.8758570007324218,1.8243816650390623,8.534131817626953,-13.732824427480915,-2.312977099236641,-0.4961832061068702
6227641595122,3.981465102,1,2.1787235107421874,1.5023615417480467,8.139088543701172,-9.32824427480916,-11.259541984732824,8.511450381679388
6227648262258,3.988132238,1,2.890998504638672,0.8870517150878906,8.167818963623047,-1.3511450381679388,2.7709923664122136,12.664122137404581
6227654938612,3.994808592,1,2.890998504638672,0.4896142395019531,8.249221820068358,27.702290076335878,7.480916030534351,12.618320610687023
6227661599341,4.001469321,1,3.2070331237792966,0.5434837768554687,8.553285430908202,30.48854961832061,5.572519083969466,10.80916030534351
6227668261893,4.008131873,1,3.0238766967773434,0.08379705810546874,8.517372406005858,13.412213740458014,2.381679389312977,3.0763358778625953
6227674929549,4.014799529,1,2.8227637573242186,-0.12210428466796874,8.82383021850586,1.5954198473282444,-1.8549618320610688,-8.511450381679388
6227681594862,4.021464842,1,3.1447838806152344,0.13766659545898435,8.792705596923827,1.5954198473282444,-9.587786259541986,-18.259541984732824
6227688263612,4.028133592,1,4.20062681274414,0.7936778503417968,8.48505068359375,-11.01526717557252,-9.587786259541986,-18.625954198473284
6227694931008,4.034800988,1,3.2644939636230466,0.9050082275390624,8.520963708496094,-20.328244274809162,-6.755725190839694,-18.50381679389313
6227701593560,4.04146354,1,2.5857377929687497,1.7286135986328124,7.418433843994141,-9.206106870229007,-33.68702290076336,-22.412213740458014
6227708263299,4.048133279,1,2.043451116943359,1.7884686401367187,7.175422375488281,-35.20610687022901,-19.290076335877863,-17.641221374045802
6227714929341,4.054799321,1,2.085349645996094,1.886630908203125,7.049726788330077,-30.328244274809162,-17.15267175572519,-14.816793893129772
6227721600018,4.061469998,1,2.462436407470703,2.3774422485351563,7.433996154785156,-6.152671755725191,12.885496183206106,-16.083969465648856
6227728264758,4.068134738,1,1.9668366638183592,2.3367408203125,7.933187200927734,-5.564885496183206,7.442748091603053,-2.984732824427481
6227734928924,4.074798904,1,2.318784307861328,1.9213468322753906,8.710105639648438,-11.412213740458014,19.46564885496183,8.49618320610687
6227741596216,4.081466196,1,2.5007436340332028,1.7956512451171873,9.156624249267578,14.19083969465649,22.412213740458014,15.282442748091603
6227748263664,4.088133644,1,2.586934893798828,1.4149731811523436,9.154230047607422,23.076335877862597,7.404580152671755,25.61832061068702
6227754933508,4.094803488,1,3.0214824951171875,0.7242460021972655,9.147047442626953,9.206106870229007,2.66412213740458,30.69465648854962
6227761598820,4.1014688,1,2.967612957763672,0.4177881896972656,8.665812908935546,12.908396946564885,-10.229007633587786,29.862595419847327
6227768265122,4.108135102,1,2.896984008789062,0.24181436767578124,8.081627703857421,11.129770992366412,-16.931297709923665,27.770992366412212
6227774928351,4.114798331,1,2.8036101440429686,0.19991583862304688,7.704540942382812,7.320610687022901,-12.229007633587786,20.885496183206108
6227781598820,4.1214688,1,2.7533319091796873,0.4560954162597656,7.660248211669922,11.526717557251908,-4.251908396946565,12.290076335877863
6227788264601,4.128134581,1,2.778471026611328,0.8918401184082031,7.619546783447265,13.15267175572519,2.0839694656488548,7.122137404580153
6227794932674,4.134802654,1,2.9077579162597655,1.3204022155761719,7.777564093017578,10.404580152671755,3.9923664122137406,5.702290076335878
6227801598612,4.141468592,1,2.6013001037597654,1.3084312072753905,7.9092451843261715,10.83206106870229,8.893129770992367,8.183206106870228
6227808265278,4.148135258,1,2.8526912780761715,1.3084312072753905,7.83981333618164,29.48854961832061,11.045801526717558,14.83969465648855
6227814932049,4.154802029,1,2.6898855651855467,1.4281412902832031,7.83981333618164,37.81679389312977,13.335877862595419,20.137404580152673
6227821599081,4.161469061,1,2.8203695556640622,1.332373223876953,7.83981333618164,37.954198473282446,21.12213740458015,31.702290076335878
6227828265174,4.168135154,1,2.529474053955078,1.1935095275878906,8.158242156982421,57.49618320610687,20.83969465648855,20.129770992366414
6227834932414,4.174802394,1,3.095702746582031,1.39821376953125,8.628702783203124,69.25954198473282,26.702290076335878,20.442748091603054
6227841598456,4.181468436,1,3.1974563171386716,1.1611878051757811,9.190143072509764,37.465648854961835,27.66412213740458,20.442748091603054
6227848264081,4.188134061,1,2.7581203125,0.8367734802246093,9.220070593261719,27.442748091603054,4.015267175572519,21.65648854961832
6227854931320,4.1948013,1,2.906560815429687,1.131260284423828,9.259574920654297,34.152671755725194,2.435114503816794,21.50381679389313
6227861598976,4.201468956,1,3.383006945800781,1.3299790222167969,9.04050546875,53.42748091603053,-0.7480916030534351,20.595419847328245
6227868265643,4.208135623,1,3.5817256835937497,1.01514150390625,8.72087954711914,50.02290076335878,-13.664122137404581,19.389312977099237
6227874931424,4.214801404,1,3.890577697753906,0.9756371765136718,8.037334973144532,30.374045801526716,-21.610687022900763,15.946564885496183
6227881598351,4.221468331,1,3.5972879943847653,0.9409212524414062,7.414842541503906,16.671755725190838,-27.38167938931298,13.007633587786259
6227888265695,4.228135675,1,3.1794998046874996,0.9313444458007812,7.088034014892577,9.267175572519085,-22.69465648854962,8.465648854961833
6227894932362,4.234802342,1,3.4261025756835934,1.2018892333984375,6.602011077880859,14.793893129770993,-11.977099236641221,5.1603053435114505
6227901598768,4.241468748,1,3.488351818847656,1.3623007446289062,6.6331356994628905,29.236641221374047,6.152671755725191,0.7022900763358778
6227908265331,4.248135311,1,2.9855694702148434,1.5095441467285156,6.861781958007812,34.229007633587784,15.748091603053435,1.1755725190839694
6227914931945,4.254801925,1,2.6036943054199218,1.2222399475097656,7.410054138183593,35.7557251908397,26.221374045801525,6.145038167938932
6227921599185,4.261469165,1,2.8419173706054686,1.7884686401367187,7.682993127441406,53.64885496183206,37.00763358778626,-3.1068702290076335
6227928260695,4.268130675,1,2.8574796813964842,1.7549498168945312,8.390479718017577,53.969465648854964,44.05343511450382,1.7557251908396947
6227934932310,4.27480229,1,2.7581203125,1.8004396484374998,8.49103618774414,48.01526717557252,34.45038167938932,-2.282442748091603
6227941598716,4.281468696,1,3.3710359375,1.8004396484374998,7.953537915039062,31.81679389312977,16.786259541984734,-4.435114503816794
6227948266164,4.288136144,1,3.72178648071289,1.8004396484374998,7.639897497558593,1.6259541984732824,1.4198473282442747,-5.320610687022901
6227954931372,4.294801352,1,2.948459344482422,1.408987677001953,7.641094598388672,-10.916030534351146,-1.4961832061068703,-13.633587786259541
6227961598560,4.30146854,1,2.002749688720703,1.8507178833007811,7.334636785888671,-11.488549618320612,16.18320610687023,-23.129770992366414
6227968265955,4.308135935,1,2.1344307800292968,2.2397756530761717,7.653065606689452,-13.442748091603054,26.33587786259542,-24.68702290076336
6227974931424,4.314801404,1,2.7557261108398436,2.5438392639160154,7.960720520019531,-5.6183206106870225,26.33587786259542,-13.893129770992367
6227981598612,4.321468592,1,2.920926025390625,2.408566870117187,7.960720520019531,6.473282442748092,20.076335877862597,-13.83206106870229
6227988265330,4.32813531,1,2.663549346923828,2.3355437194824216,7.746439471435546,9.740458015267176,11.396946564885496,-7.969465648854962
6227994932310,4.33480229,1,2.7449522033691403,2.2098481323242187,7.606378674316406,0.2748091603053435,18.51145038167939,-5.916030534351145
6228001599393,4.341469373,1,2.8107927490234372,2.2685060729980466,7.745242370605468,3.954198473282443,26.35114503816794,-6.183206106870229
6228008265851,4.348135831,1,2.539050860595703,2.1631611999511717,7.826645227050781,14.17557251908397,29.206106870229007,0.7251908396946565
6228014931060,4.35480104,1,2.3738509460449215,1.9500772521972656,7.857769848632812,24.229007633587788,33.56488549618321,5.641221374045801
6228021599341,4.361469321,1,2.3151930053710936,1.6819266662597656,8.116343627929687,33.786259541984734,39.49618320610687,10.801526717557252
6228028259393,4.368129373,1,2.133233679199219,2.2469582580566403,8.333018878173828,46.80152671755725,45.56488549618321,1.6870229007633588
6228034933143,4.374803123,1,2.094926452636719,2.0075380920410155,8.607154968261717,15.488549618320612,38.30534351145038,0.22900763358778625
6228041598664,4.381468644,1,2.1691467041015624,1.9632453613281249,8.519766607666016,-1.0916030534351144,26.66412213740458,-2.572519083969466
6228048264601,4.388134581,1,2.5426421630859375,2.408566870117187,8.25520732421875,5.885496183206107,25.671755725190838,-9.98473282442748
6228054947466,4.394817446,1,2.1224597717285154,2.346317626953125,8.279149340820313,1.900763358778626,25.03053435114504,-2.8702290076335877
6228061598924,4.401468904,1,2.0171148986816405,2.577358087158203,7.857769848632812,9.946564885496183,14.679389312977099,-1.9389312977099236
6228068264758,4.408134738,1,2.4061726684570313,2.3068132995605466,7.789535101318359,7.763358778625954,24.80916030534351,2.763358778625954
6228074932466,4.414802446,1,2.436100189208984,2.3977929626464842,7.959523419189453,20.427480916030536,33.52671755725191,1.4809160305343512
6228081597778,4.421467758,1,2.389413256835937,2.4193407775878906,8.13310303955078,21.412213740458014,33.82442748091603,3.3053435114503817
6228088265018,4.428134998,1,2.389413256835937,2.299630694580078,8.368931903076172,11.83969465648855,31.229007633587788,5.862595419847328
6228094932205,4.434802185,1,2.1033061584472654,2.299630694580078,8.31865366821289,18.045801526717558,29.33587786259542,8.290076335877863
6228101598560,4.44146854,1,2.1607669982910154,2.2876596862792966,8.31865366821289,21.389312977099237,31.709923664122137,6.1679389312977095
6228108265226,4.448135206,1,2.4157494750976563,2.1811177124023438,8.218097198486328,20.893129770992367,32.725190839694655,9.488549618320612
6228114942987,4.454812967,1,2.3906103576660156,1.898601916503906,8.239645013427733,18.938931297709924,32.66412213740458,5.061068702290076
6228121600539,4.461470519,1,2.094926452636719,1.9572598571777342,8.095992913818359,25.9618320610687,28.755725190839694,1.450381679389313
6228128265018,4.468134998,1,2.408566870117187,1.8411410766601561,8.265981231689453,11.877862595419847,35.12977099236641,1.450381679389313
6228134930435,4.474800415,1,2.070984436035156,1.9512743530273435,8.670601312255858,15.16793893129771,43.045801526717554,-5.061068702290076
6228141599497,4.481469477,1,1.8997990173339843,1.927332336425781,8.52335791015625,29.34351145038168,34.83206106870229,-1.6641221374045803
6228148265330,4.48813531,1,1.2725181823730467,1.8004396484374998,8.2743609375,42.51908396946565,28.893129770992367,-0.5114503816793893
6228154973924,4.494843904,1,1.5155296508789062,1.590947003173828,8.005013250732421,38.51908396946565,25.671755725190838,-3.450381679389313
6228161599289,4.501469269,1,1.7034744812011717,1.5873557006835937,7.790732202148437,40.79389312977099,29.19083969465649,-9.50381679389313
6228168265487,4.508135467,1,1.7489643127441405,1.4628572143554686,7.581239556884765,44.9236641221374,26.671755725190838,-11.534351145038167
6228174930695,4.514800675,1,1.6077064147949218,1.5023615417480467,7.547720733642578,44.717557251908396,26.946564885496183,-16.923664122137403
6228181598195,4.521468175,1,2.2589292663574216,1.6675614562988281,7.544129431152343,41.58015267175573,32.6412213740458,-22.595419847328245
6228188261268,4.528131248,1,1.7788918334960937,1.6412252380371093,7.7596075805664055,65.50381679389314,44.52671755725191,-22.366412213740457
6228194931997,4.534801977,1,1.3623007446289062,2.3714567443847656,7.517793212890624,60.76335877862596,26.458015267175572,-37.35114503816794
6228201598091,4.541468071,1,1.4963760375976562,2.5450363647460934,7.8924857727050775,-7.923664122137405,30.900763358778626,-48.11450381679389
6228208265851,4.548135831,1,1.4604630126953124,2.7808652282714843,8.476670977783202,-19.770992366412212,35.045801526717554,-56.00763358778626
6228214931632,4.554801612,1,1.4425065002441406,3.641580725097656,8.378508709716796,23.34351145038168,36.541984732824424,-54.82442748091603
6228221599080,4.56146906,1,1.3850456604003905,3.4069489624023435,8.83580122680664,22.557251908396946,39.74809160305343,-41.770992366412216
6228228264445,4.568134425,1,1.5382745666503905,4.016273284912109,8.752004168701172,37.17557251908397,37.87022900763359,-38.595419847328245
6228234932414,4.574802394,1,1.3910311645507811,4.016273284912109,9.111134417724609,25.00763358778626,34.79389312977099,-33.656488549618324
6228241598455,4.581468435,1,1.2342109558105467,3.797203833007812,9.047688073730468,29.763358778625953,37.61832061068702,-18.427480916030536
6228248265591,4.588135571,1,1.0307038146972656,3.417722869873047,9.354145886230468,30.213740458015266,24.50381679389313,-23.740458015267176
6228254968507,4.594838487,1,0.9253589416503906,4.20062681274414,8.844180932617187,69.29770992366412,28.106870229007633,-5.122137404580153
6228261600226,4.601470206,1,1.0941501586914062,3.2213983337402343,8.943540301513671,42.81679389312977,28.106870229007633,-7.015267175572519
6228268264914,4.608134894,1,1.2641384765625,2.980781066894531,8.769960681152343,54.786259541984734,21.603053435114504,-6.129770992366412
6228274932414,4.614802394,1,1.6986860778808592,2.877830395507812,8.097190014648437,73.1526717557252,11.068702290076336,1.6870229007633588
6228281597830,4.62146781,1,1.5837643981933593,2.3511060302734372,7.893682873535155,64.1526717557252,7.709923664122138,4.984732824427481
6228288265695,4.628135675,1,0.9852139831542969,2.6527754394531247,7.669825018310546,60.954198473282446,5.473282442748092,-5.625954198473282
6228294931580,4.63480156,1,0.8822633117675781,2.431311785888672,8.13310303955078,53.44274809160305,17.46564885496183,-7.7251908396946565
6228301597882,4.641467862,1,0.9193734375,2.9975404785156248,8.110358123779296,70.1526717557252,16.83206106870229,-16.931297709923665
6228308264237,4.648134217,1,1.1611878051757811,3.0693665283203124,8.305485559082031,64.62595419847328,17.458015267175572,-18.129770992366414
6228314930903,4.654800883,1,1.2437877624511717,2.8790274963378906,8.020575561523437,56.282442748091604,6.2748091603053435,-21.870229007633586
6228321598143,4.661468123,1,0.6979097839355468,3.1304186706542967,7.824251025390624,52.152671755725194,-0.5648854961832062,-25.755725190839694
6228328264914,4.668134894,1,0.604535919189453,3.1316157714843746,7.592013464355468,39.29770992366412,-2.1908396946564888,-32.93129770992366
6228334932049,4.674802029,1,0.488417138671875,3.7433342956542965,7.256825231933593,28.50381679389313,-9.732824427480915,-44.69465648854962
6228341597882,4.681467862,1,0.7410054138183594,4.065354418945312,7.48906279296875,10.282442748091603,-0.9694656488549618,-49.06870229007634
6228348265955,4.688135935,1,1.1827356201171875,4.537012145996093,7.5908163635253905,13.992366412213741,1.8015267175572518,-47.76335877862596
6228354947362,4.694817342,1,0.44891281127929683,4.838681555175781,8.147468249511718,21.541984732824428,2.8244274809160306,-42.74045801526717
6228361600018,4.701469998,1,0.55545478515625,4.991910461425781,8.206126190185547,23.0381679389313,-3.0916030534351147,-35.19847328244275
6228368264289,4.708134269,1,0.5901707092285156,5.21576831665039,8.128314636230469,21.702290076335878,-5.854961832061068,-31.46564885496183
6228374931632,4.714801612,1,0.7433996154785156,5.3019595764160155,8.124723333740233,15.67175572519084,-6.221374045801527,-24.137404580152673
6228381598091,4.721468071,1,1.2042834350585936,5.148730670166016,7.969100225830077,19.16030534351145,-14.427480916030534,-17.244274809160306
6228388265122,4.728135102,1,1.150413897705078,5.060145208740234,7.969100225830077,12.801526717557252,-24.541984732824428,-9.473282442748092
6228394931893,4.734801873,1,0.8667010009765624,4.791994622802734,7.407659936523437,11.755725190839694,-22.03053435114504,-7.4961832061068705
6228401598559,4.741468539,1,0.8224082702636718,4.523844036865234,6.983886242675781,3.9389312977099236,-22.938931297709924,-8.320610687022901
6228408264132,4.748134112,1,0.9923965881347656,4.407725256347656,6.757634185791015,3.549618320610687,-15.122137404580153,-6.740458015267175
6228414930851,4.754800831,1,1.016338604736328,4.228160131835938,6.5780690612792965,3.3053435114503817,-9.305343511450381,-6.740458015267175
6228421599237,4.761469217,1,0.8080430603027343,4.159925384521484,6.555324145507812,5.4961832061068705,-2.946564885496183,-6.030534351145038
6228428266112,4.768136092,1,0.5279214660644531,4.21978042602539,6.745663177490234,7.419847328244275,8.236641221374045,-5.419847328244275
6228434932101,4.774802081,1,0.737414111328125,3.9719805541992184,7.247248425292969,15.51908396946565,23.3206106870229,-4.129770992366412
6228441598403,4.781468383,1,0.5973533142089843,4.259284753417968,7.523778717041015,23.603053435114504,21.33587786259542,-8.854961832061068
6228448265903,4.788135883,1,0.7769184387207031,4.317942694091797,7.60398447265625,2.5419847328244276,14.045801526717558,-5.778625954198473
6228454969862,4.794839842,1,0.9421183532714843,3.9169139160156248,8.036137872314452,-2.2290076335877864,23.786259541984734,-4.190839694656488
6228461599966,4.801469946,1,1.2593500732421874,4.225765930175781,7.845798840332031,17.977099236641223,12.129770992366412,-5.1679389312977095
6228468264705,4.808134685,1,0.93852705078125,3.7421371948242186,8.084021905517577,18.404580152671755,21.419847328244273,5.656488549618321
6228474931632,4.814801612,1,1.1863269226074218,3.7624879089355465,7.976282830810546,23.61832061068702,11.007633587786259,-0.549618320610687
6228481598403,4.821468383,1,1.1360486877441405,3.508702532958984,7.74404526977539,14.687022900763358,10.274809160305344,0.6259541984732825
6228488265226,4.828135206,1,0.9205705383300781,3.517082238769531,7.429207751464843,12.709923664122137,1.6717557251908397,-2.381679389312977
6228494931580,4.83480156,1,1.083376251220703,3.3506852233886715,7.566874346923828,13.732824427480915,16.099236641221374,-4.702290076335878
6228501609966,4.841479946,1,1.2773065856933592,3.8486791687011714,7.394491827392578,27.396946564885496,16.72519083969466,-15.274809160305344
6228508262882,4.848132862,1,1.2785036865234374,3.708618371582031,7.283161450195312,14.251908396946565,13.50381679389313,-9.908396946564885
6228514933143,4.854803123,1,0.9720458740234375,3.4775779113769527,7.043741284179687,17.33587786259542,9.183206106870228,-5.854961832061068
6228521598403,4.861468383,1,0.6189011291503906,3.4775779113769527,7.157465863037109,44.47328244274809,26.244274809160306,-13.13740458015267
6228528265434,4.868135414,1,0.6344634399414062,3.725377783203125,7.090428216552734,39.458015267175576,24.702290076335878,-25.541984732824428
6228534931632,4.874801612,1,0.7457938171386719,4.248510845947266,7.243657122802734,40.732824427480914,15.900763358778626,-25.12213740458015
6228541593976,4.881463956,1,0.35194764404296874,4.256890551757812,7.293935357666015,-0.3053435114503817,8.091603053435115,-22.106870229007633
6228548264757,4.888134737,1,0.037110125732421874,4.018667486572266,7.237671618652343,-4.770992366412214,8.091603053435115,-25.786259541984734
6228554932726,4.894802706,1,0.16519991455078123,4.455609289550781,7.468712078857421,28.419847328244273,27.290076335877863,-26.35114503816794
6228561599549,4.901469529,1,0.6236895324707031,4.714183068847656,7.9295958984374995,41.36641221374046,33.67175572519084,-26.35114503816794
6228568265122,4.908135102,1,0.7433996154785156,4.972756848144531,8.117540728759765,31.12213740458015,27.31297709923664,-25.52671755725191
6228574931268,4.914801248,1,0.23223756103515625,4.8698061767578125,8.20373198852539,17.099236641221374,12.572519083969466,-19.923664122137403
6228581597987,4.921467967,1,0.44532150878906246,4.99909306640625,7.951143713378905,12.98473282442748,7.175572519083969,-19.33587786259542
6228588264705,4.928134685,1,0.7410054138183594,4.791994622802734,7.931990100097655,15.595419847328245,10.244274809160306,-14.358778625954198
6228594931528,4.934801508,1,0.5913678100585937,4.617217901611328,7.580042456054687,27.198473282442748,1.1526717557251909,-7.061068702290076
6228601598299,4.941468279,1,0.469263525390625,4.3059716857910155,7.0269818725585935,29.33587786259542,-7.030534351145038,-1.786259541984733
6228608266580,4.94813656,1,0.38187516479492184,3.9935283691406247,6.830657336425781,26.045801526717558,-1.381679389312977,-3.7709923664122136
6228614931632,4.954801612,1,0.46806642456054687,4.033032696533203,6.666654522705078,28.3206106870229,4.419847328244275,-10.580152671755725
6228621598768,4.961468748,1,0.40940848388671874,4.095281939697266,6.756437084960937,24.778625954198475,10.450381679389313,-15.877862595419847
6228628263716,4.968133696,1,0.3124433166503906,4.116829754638672,6.779182000732422,18.435114503816795,12.19083969465649,-20.633587786259543
6228634931424,4.974801404,1,0.30885201416015623,4.331110803222656,6.701370446777343,18.671755725190838,14.549618320610687,-25.076335877862597
6228641598611,4.981468591,1,0.1879448303222656,4.444835382080078,6.910863092041015,17.38167938931298,17.748091603053435,-28.221374045801525
6228648265486,4.988135466,1,0.38786066894531246,4.262876055908203,6.845022546386718,20.00763358778626,22.045801526717558,-29.96946564885496
6228654931893,4.994801873,1,0.44053310546874996,4.5585599609375,6.994660150146484,32.80152671755725,23.099236641221374,-29.671755725190838
6228661599653,5.001469633,1,-0.01915361328125,4.559757061767578,7.353790399169921,31.480916030534353,31.85496183206107,-34.45038167938932
6228668265903,5.008135883,1,0.09696516723632811,4.712985968017578,7.3286512817382805,27.480916030534353,24.022900763358777,-33.35114503816794
6228674927830,5.01479781,1,0.00239420166015625,4.8123453369140625,7.3286512817382805,24.282442748091604,17.66412213740458,-31.984732824427482
6228681598924,5.021468904,1,-0.09217676391601562,4.936843823242187,7.198167291259765,24.12213740458015,21.068702290076335,-32.74045801526717
6228688265799,5.028135779,1,0.001197100830078125,5.03740029296875,7.370549810791015,26.076335877862597,19.641221374045802,-34.465648854961835
6228694930695,5.034800675,1,0.20350714111328125,5.228936425781249,7.473500482177734,29.717557251908396,23.549618320610687,-33.99236641221374
6228701594966,5.041464946,1,0.34715924072265625,5.348646508789062,7.693767034912109,24.412213740458014,20.69465648854962,-32.038167938931295
6228708262101,5.048132081,1,0.11731588134765625,5.3019595764160155,7.613561279296874,20.045801526717558,13.045801526717558,-27.793893129770993
6228714929809,5.054799789,1,-0.13646949462890623,5.209782812499999,7.413645440673828,19.229007633587788,7.977099236641221,-24.290076335877863
6228721598195,5.061468175,1,-0.7050923889160156,5.194220501708984,7.436390356445312,21.923664122137403,7.374045801526718,-22.38167938931298
6228728264809,5.068134789,1,-0.74699091796875,5.1523219726562495,7.390900524902343,16.282442748091604,5.061068702290076,-22.106870229007633
6228734931372,5.074801352,1,-0.4429273071289062,5.3007624755859375,7.625532287597656,13.961832061068701,11.778625954198473,-23.885496183206108
6228741597622,5.081467602,1,-0.3603273498535156,5.570110162353515,7.625532287597656,20.083969465648856,12.32824427480916,-24.27480916030534
6228748264549,5.088134529,1,-0.5518634826660156,5.831078143310546,7.3669585083007805,9.198473282442748,0.25190839694656486,-24.83969465648855
6228754931476,5.094801456,1,-0.9133879333496093,6.093243225097656,7.32266577758789,-8.98473282442748,-2.099236641221374,-25.48854961832061
6228761598351,5.101468331,1,-0.8858546142578124,6.233304022216797,7.200561492919921,-7.877862595419847,-1.6946564885496183,-24.541984732824428
6228768265278,5.108135258,1,-0.8678981018066406,6.506243011474609,7.144297753906249,7.221374045801527,1.534351145038168,-18.69465648854962
6228774931111,5.114801091,1,-0.9002198242187499,6.467935784912109,7.052120989990234,11.358778625954198,-1.251908396946565,-11.603053435114504
6228781599236,5.121469216,1,-0.8966285217285156,6.432022760009765,6.964732629394531,8.717557251908397,-3.7709923664122136,-3.1374045801526718
6228788266111,5.128136091,1,-0.7817068420410156,6.268019946289062,6.888118176269531,6.66412213740458,-4.175572519083969,-1.5725190839694656
6228794932414,5.134802394,1,-0.82360537109375,5.938817218017578,7.096413720703125,3.66412213740458,0.5725190839694656,4.076335877862595
6228801600226,5.141470206,1,-0.51714755859375,5.663484027099609,7.175422375488281,11.954198473282442,-0.1297709923664122,8.534351145038167
6228808264757,5.148134737,1,-0.3687070556640625,5.663484027099609,7.157465863037109,14.893129770992367,-2.7251908396946565,12.320610687022901
6228814931268,5.154801248,1,-0.16041151123046873,5.274426257324219,7.122749938964843,9.900763358778626,-4.740458015267175,11.786259541984732
6228821598768,5.161468748,1,0.1005564697265625,4.893748193359374,7.122749938964843,11.587786259541986,-8.770992366412214,10.229007633587786
6228828259653,5.168129633,1,0.16759411621093748,4.641159918212891,7.018602166748046,1.816793893129771,-11.022900763358779,7.748091603053435
6228834932882,5.174802862,1,0.09935936889648436,4.42448466796875,6.810306622314453,-2.0916030534351147,-11.022900763358779,3.030534351145038
6228841598143,5.181468123,1,0.14125789794921875,4.377797735595703,6.667851623535156,-1.7251908396946565,-7.763358778625954,3.236641221374046
6228848265382,5.188135362,1,0.17238251953125,4.460397692871093,6.648698010253906,-3.1603053435114505,-1.7557251908396947,-2.6259541984732824
6228854931007,5.194800987,1,0.17357962036132812,4.7369279846191406,6.660669018554687,-7.152671755725191,1.748091603053435,-7.404580152671755
6228861599393,5.201469373,1,0.1005564697265625,4.958391638183594,6.854599353027344,-11.412213740458014,3.801526717557252,-10.091603053435115
6228868265434,5.208135414,1,-0.11851298217773437,5.079298822021484,6.845022546386718,-11.17557251908397,6.137404580152672,-10.854961832061068
6228874932101,5.214802081,1,-0.14125789794921875,5.203797308349609,7.023390570068359,-6.312977099236641,9.076335877862595,-8.961832061068701
6228881619184,5.221489164,1,-0.2705447875976562,5.3761798278808595,7.086836914062499,1.6488549618320612,11.091603053435115,-7.114503816793893
6228888270018,5.228139998,1,-0.4560954162597656,5.3570262145996095,7.278373046874999,2.015267175572519,10.412213740458014,-4.6183206106870225
6228894932361,5.234802341,1,-0.4740519287109375,5.416881256103515,7.261613635253906,-0.916030534351145,8.083969465648854,-3.114503816793893
6228901599184,5.241469164,1,-0.5147533569335937,5.36899722290039,7.262810736083984,-1.0534351145038168,7.114503816793893,-2.435114503816794
6228908265747,5.248135727,1,-0.3902548706054687,5.452794281005859,7.279570147705078,-0.29770992366412213,5.0534351145038165,-1.2595419847328244
6228914931320,5.2548013,1,-0.3076549133300781,5.383362432861328,7.3094976684570305,-0.8625954198473282,2.7557251908396947,-0.06870229007633588
6228921594497,5.261464477,1,-0.296881005859375,5.261258148193359,7.218518005371093,-2.0839694656488548,0.3511450381679389,1.7099236641221374
6228928265643,5.268135623,1,-0.30047230834960936,5.099649536132812,7.135918048095703,-0.20610687022900764,0.13740458015267176,3.4885496183206106
6228934931372,5.274801352,1,-0.16998831787109375,5.03740029296875,7.196970190429687,4.206106870229007,0.6793893129770993,3.9770992366412212
6228941598716,5.281468696,1,-0.16998831787109375,4.939238024902344,7.186196282958984,5.511450381679389,0.8931297709923665,4.8320610687022905
6228948264080,5.28813406,1,-0.0526724365234375,4.939238024902344,7.055712292480468,5.244274809160306,-0.9083969465648855,4.763358778625954
6228954931997,5.294801977,1,-0.12330138549804687,4.939238024902344,7.110778930664062,3.282442748091603,-0.9618320610687023,3.9160305343511452
6228961601268,5.301471248,1,-0.076614453125,4.8135424377441405,6.957550024414062,4.1679389312977095,0.5725190839694656,1.7633587786259541
6228968265486,5.308135466,1,0.040701428222656245,4.875791680908203,6.995857250976562,4.1679389312977095,1.4198473282442747,1.0687022900763359
6228974931424,5.314801404,1,-0.03591302490234375,4.977545251464844,6.980294940185546,4.7251908396946565,1.2671755725190839,0.6564885496183206
6228981597934,5.321467914,1,-0.06584054565429687,4.995501763916016,6.965929730224609,3.7709923664122136,1.2671755725190839,0.10687022900763359
6228988265278,5.328135258,1,-0.19153613281249998,5.05655390625,6.931213806152344,3.0916030534351147,0.7633587786259542,0.10687022900763359
6228994931268,5.334801248,1,-0.2154781494140625,5.1523219726562495,6.9515645202636716,2.954198473282443,2.3282442748091605,-0.35877862595419846
6229001599080,5.34146906,1,-0.2262520568847656,5.222950921630859,6.945579016113281,4.480916030534351,3.9236641221374047,-0.8549618320610687
6229008264601,5.348134581,1,-0.105344873046875,5.333084197998047,7.040149981689453,5.717557251908397,6.580152671755725,-0.45038167938931295
6229014931424,5.354801404,1,-0.17477672119140625,5.310339282226562,7.097610821533203,8.198473282442748,6.900763358778626,1.0687022900763359
6229021599341,5.361469321,1,-0.3962403747558593,5.258863946533203,7.241262921142578,9.603053435114504,4.572519083969466,4.351145038167939
6229028265018,5.368134998,1,-0.21188684692382811,5.184643695068359,7.235277416992187,10.870229007633588,4.419847328244275,4.519083969465649
6229034932466,5.374802446,1,-0.13287819213867186,5.137956762695312,7.32266577758789,15.335877862595419,5.900763358778626,5.526717557251908
6229041598195,5.381468175,1,-0.00239420166015625,5.093664031982422,7.298723760986328,14.603053435114504,3.122137404580153,5.435114503816794
6229048265643,5.388135623,1,-0.26336218261718747,4.944026428222656,7.425616448974609,9.633587786259541,2.099236641221374,6.374045801526718
6229054927361,5.394797341,1,-0.48123453369140623,5.40730444946289,7.5153990112304685,9.396946564885496,0.5954198473282443,-0.7022900763358778
6229061615486,5.401485466,1,-0.3746925598144531,5.248090039062499,7.18859048461914,-16.900763358778626,-16.053435114503817,0.366412213740458
6229068264861,5.408134841,1,-0.4513070129394531,5.153519073486327,6.749254479980468,-24.282442748091604,-18.229007633587788,-0.13740458015267176
6229074932205,5.414802185,1,-0.4333505004882812,5.1319712585449215,6.527790826416015,-5.00763358778626,-9.801526717557252,-2.068702290076336
6229081598143,5.421468123,1,-0.40940848388671874,5.193023400878906,6.49307490234375,8.381679389312977,-4.221374045801527,-0.6335877862595419
6229088265018,5.428134998,1,-0.2561795776367187,5.380968231201171,6.457161877441406,5.0,-2.2290076335877864,-2.5877862595419847
6229094931997,5.434801977,1,-0.31004911499023435,5.380968231201171,6.507440112304687,-9.80916030534351,-3.5267175572519083,-3.8931297709923665
6229101598507,5.441468487,1,-0.7864952453613281,5.412092852783203,6.564900952148437,-22.022900763358777,-0.7633587786259542,-8.854961832061068
6229108265278,5.448135258,1,-0.5147533569335937,5.434837768554687,6.718129858398437,-22.076335877862597,9.282442748091603,-6.137404580152672
6229114931372,5.454801352,1,-0.39145197143554683,5.512649322509765,7.011419561767577,-8.396946564885496,7.6183206106870225,-2.0610687022900764
6229121598247,5.461468227,1,-0.4560954162597656,5.547365246582031,7.123947039794921,12.49618320610687,7.6183206106870225,-2.053435114503817
6229128265747,5.468135727,1,-0.20829554443359374,5.383362432861328,7.24605132446289,5.6183206106870225,5.625954198473282,-3.7786259541984735
6229134931059,5.474801039,1,-0.2549824768066406,5.130774157714844,7.36097300415039,-6.198473282442748,2.687022900763359,-1.8244274809160306
6229141597986,5.481467966,1,-0.26336218261718747,5.068524914550781,6.992265948486327,-8.580152671755725,-8.358778625954198,-2.49618320610687
6229148265434,5.488135414,1,-0.2597708801269531,4.971559747314453,6.664260321044922,-13.091603053435115,-10.236641221374045,-2.2061068702290076
6229154931997,5.494801977,1,-0.03232172241210937,5.0577510070800775,6.362590911865234,-12.34351145038168,-7.885496183206107,-5.893129770992366
6229161597882,5.501467862,1,0.023942016601562498,4.981136553955078,6.337451794433593,-12.541984732824428,-3.549618320610687,-6.099236641221374
6229168260538,5.508130518,1,-0.03232172241210937,5.0960582336425775,6.271611248779297,-9.778625954198473,0.9083969465648855,-7.473282442748092
6229174931320,5.5148013,1,0.08858546142578125,5.1331683593749995,6.461950280761719,-9.13740458015267,9.022900763358779,-7.33587786259542
6229181598143,5.521468123,1,0.005985504150390624,5.2061915100097655,6.8785413696289055,-3.6717557251908395,16.34351145038168,-6.809160305343512
6229188265382,5.528135362,1,-0.1304839904785156,5.396530541992187,7.241262921142578,0.9541984732824428,20.091603053435115,-5.198473282442748
6229194933038,5.534803018,1,-0.27892449340820313,5.446808776855469,7.635109094238281,1.1221374045801527,21.328244274809162,-3.282442748091603
6229201597309,5.541467289,1,-0.2980781066894531,5.45877978515625,7.739256866455078,2.099236641221374,18.83969465648855,-1.0534351145038168
6229208264653,5.548134633,1,-0.3064578125,5.383362432861328,7.800309008789062,3.183206106870229,12.748091603053435,2.2900763358778624
6229214931215,5.554801195,1,-0.25258827514648435,5.239710333251953,7.580042456054687,3.2290076335877864,6.122137404580153,5.198473282442748
6229221598038,5.561468018,1,-0.10175357055664062,5.011064074707031,7.214926702880859,3.33587786259542,2.282442748091603,6.740458015267175
6229228264549,5.568134529,1,-0.10175357055664062,4.679467144775391,7.173028173828125,6.427480916030534,4.450381679389313,7.694656488549619
6229234931788,5.574801768,1,-0.28012159423828126,4.742913488769531,7.066486199951171,11.854961832061068,3.2748091603053435,4.2748091603053435
6229241597674,5.581467654,1,-0.5063736511230469,4.589684582519531,7.167042669677734,3.2061068702290076,1.6412213740458015,-0.2824427480916031
6229248265851,5.588135831,1,-0.5877765075683593,4.582501977539062,7.013813763427734,-6.931297709923665,-0.8091603053435115,-6.0458015267175576
6229254931893,5.594801873,1,-0.48123453369140623,4.685452648925781,7.036558679199218,-6.931297709923665,-0.5648854961832062,-11.13740458015267
6229261608872,5.601478852,1,-0.39983167724609375,4.876988781738281,7.020996368408203,-8.885496183206106,-1.8244274809160306,-13.679389312977099
6229268268038,5.608138018,1,-0.42018239135742186,5.098452435302734,7.128735443115234,-8.946564885496183,0.1297709923664122,-12.564885496183207
6229274931892,5.614801872,1,-0.45010991210937495,5.218162518310547,7.260416534423828,-9.98473282442748,-0.9083969465648855,-14.51908396946565
6229281598247,5.621468227,1,-0.853532891845703,5.42645806274414,7.275978845214843,-12.65648854961832,-3.8091603053435112,-14.236641221374045
6229288265642,5.628135622,1,-0.46686932373046874,5.418078356933593,7.098807922363281,-21.022900763358777,-10.969465648854962,-14.030534351145038
6229294930695,5.634800675,1,-0.6248866333007812,5.578489868164062,7.152677459716797,-28.81679389312977,-7.450381679389313,-17.30534351145038
6229301597049,5.641467029,1,-0.8212111694335937,5.359420416259765,7.250839727783203,-21.15267175572519,-6.488549618320611,-9.786259541984732
6229308265538,5.648135518,1,-0.6009446166992187,5.412092852783203,7.201758593749999,4.595419847328245,-3.6259541984732824,-7.5038167938931295
6229314932517,5.654802497,1,-0.12569558715820311,5.438429071044921,7.536946826171874,9.679389312977099,6.396946564885496,-7.648854961832061
6229321597934,5.661467914,1,0.15203180541992187,5.38815083618164,7.454346868896484,-1.3893129770992367,-3.7557251908396947,-5.748091603053435
6229328264965,5.668134945,1,-0.1927332336425781,5.036203192138672,7.100005023193359,-12.748091603053435,-18.022900763358777,0.0
6229334932309,5.674802289,1,-0.34835634155273437,4.677072943115234,6.890512377929687,-10.603053435114504,-20.35114503816794,3.8396946564885495
6229341598663,5.681468643,1,-0.4010287780761719,4.802768530273437,6.6714429260253905,15.374045801526718,-6.32824427480916,3.480916030534351
6229348265070,5.68813505,1,0.04189852905273437,4.929661218261718,6.733692169189453,18.53435114503817,-0.7557251908396947,-4.587786259541985
6229354931424,5.694801404,1,0.04908113403320312,4.672284539794922,7.0473325866699215,-9.045801526717558,-1.9389312977099236,-1.2595419847328244
6229361597934,5.701467914,1,0.016759411621093748,5.105635040283203,6.704961749267578,-2.7251908396946565,-6.9465648854961835,-8.961832061068701
6229368266111,5.708136091,1,0.0909796630859375,4.803965631103515,6.950367419433594,-9.67175572519084,-4.206106870229007,-4.122137404580153
6229374931059,5.714801039,1,-0.3687070556640625,4.977545251464844,6.846219647216796,-4.809160305343512,-6.816793893129771,-9.351145038167939
6229381598715,5.721468695,1,-0.2705447875976562,4.977545251464844,7.060500695800781,-4.33587786259542,0.45038167938931295,-6.603053435114504
6229388265070,5.72813505,1,-0.12808978881835936,4.898536596679687,7.173028173828125,1.3206106870229009,0.40458015267175573,-9.038167938931299
6229394930903,5.734800883,1,-0.15083470458984374,5.086481427001953,7.173028173828125,0.08396946564885496,-2.8702290076335877,-7.00763358778626
6229401597726,5.741467706,1,-0.1879448303222656,5.17746109008789,7.232883215332031,-3.8244274809160306,-3.0610687022900764,-7.984732824427481
6229408265382,5.748135362,1,-0.17477672119140625,5.31153638305664,7.174225274658203,-7.862595419847328,-3.0610687022900764,-7.015267175572519
6229414931215,5.754801195,1,-0.07900865478515624,5.310339282226562,7.258022332763671,-7.33587786259542,-1.5801526717557253,-7.458015267175573
