timestamp_ns,t_s,sensor_id,ax,ay,az
6007361128227,0.056801719,1,-0.5482721801757812,5.486313104248047,2.612074011230469
6007363087394,0.058760886,1,-0.5925649108886718,5.456385583496093,2.6384102294921874
6007365081352,0.060754844,1,-0.5997475158691405,5.428852264404297,2.583343591308594
6007367086144,0.062759636,1,-0.6296750366210937,5.392939239501953,2.5546131713867184
6007369080623,0.064754115,1,-0.6392518432617187,5.374982727050781,2.6013001037597654
6007371078800,0.066752292,1,-0.5973533142089843,5.398924743652343,2.592920397949219
6007373081821,0.068755313,1,-0.6584054565429687,5.358223315429687,2.540247961425781
6007375081404,0.070754896,1,-0.5710170959472656,5.3761798278808595,2.498349432373047
6007377081508,0.072755,1,-0.4944026428222656,5.404910247802734,2.408566870117187
6007379080310,0.074753802,1,-0.44053310546874996,5.347449407958984,2.5905261962890624
6007381080310,0.076753802,1,-0.5195417602539062,5.1894320983886715,2.8036101440429686
6007383080571,0.078754063,1,-0.604535919189453,5.222950921630859,2.798821740722656
6007385079842,0.080753334,1,-0.24301146850585936,5.359420416259765,2.7090391784667966
6007387080519,0.082754011,1,-0.354341845703125,5.511452221679687,2.8275521606445313
6007389081040,0.084754532,1,-0.5207388610839844,5.590460876464843,3.017891192626953
6007391080831,0.086754323,1,-0.5746083984375,5.6215854980468745,3.1076737548828124
6007393080258,0.08875375,1,-0.5746083984375,5.424063861083984,3.1387983764648437
6007395080831,0.090754323,1,-0.7050923889160156,5.284003063964843,3.3255461059570313
6007397080883,0.092754375,1,-0.6739677673339843,5.167884283447266,3.314772198486328
6007399080415,0.094753907,1,-0.8678981018066406,5.193023400878906,3.3482910217285156
6007401080675,0.096754167,1,-0.9576806640625,5.293579870605469,3.374627239990234
6007403081248,0.09875474,1,-1.2389993591308592,5.358223315429687,3.314772198486328
6007405081300,0.100754792,1,-1.3778630554199218,5.449202978515625,3.3602620300292965
6007407079477,0.102752969,1,-1.5502455749511719,5.592855078125,3.4715924072265625
6007409080727,0.104754219,1,-1.4963760375976562,5.746083984375,3.5386300537109374
6007411080988,0.10675448,1,-1.5023615417480467,5.9579708312988275,3.7241806823730466
6007413080779,0.108754271,1,-1.4173673828125,6.110002636718749,3.853467572021484
6007415080623,0.110754115,1,-1.2773065856933592,6.264428643798828,3.9528269409179684
6007417080467,0.112753959,1,-1.2030863342285156,6.393715533447265,4.133589166259766
6007419080623,0.114754115,1,-1.1168950744628905,6.500257507324219,4.168305090332031
6007421080883,0.116754375,1,-1.0630255371093749,6.567295153808593,4.3610383239746096
6007423080519,0.118754011,1,-1.1348515869140625,6.657077716064452,4.474762902832031
6007425081300,0.120754792,1,-1.255758770751953,6.766013891601562,4.498704919433593
6007427080831,0.122754323,1,-1.3646949462890625,6.7839704040527335,4.556165759277343
6007429079581,0.124753073,1,-1.4544775085449217,6.795941412353515,4.589684582519531
6007431080415,0.126753907,1,-1.5693991882324219,6.829460235595703,4.576516473388671
6007433080727,0.128754219,1,-1.6472107421875,6.835445739746094,4.666299035644531
6007435080206,0.130753698,1,-1.5705962890624998,6.775590698242187,4.708197564697265
6007437080363,0.132753855,1,-1.7082628845214842,6.797138513183594,4.69263525390625
6007439080206,0.134753698,1,-1.6747440612792968,6.842628344726562,4.613626599121093
6007441081092,0.136754584,1,-1.5442600708007812,6.891709478759765,4.572925170898437
6007443081040,0.138754532,1,-1.725022296142578,6.9144543945312495,4.586093280029297
6007445081144,0.140754636,1,-1.695094775390625,6.848613848876953,4.614823699951172
6007447080363,0.142753855,1,-1.7884686401367187,6.675034228515624,4.5693338684082025
6007449080831,0.144754323,1,-1.9309236389160156,6.573280657958984,4.666299035644531
6007451080519,0.146754011,1,-2.031480108642578,6.487089398193359,4.7584757995605464
6007453080675,0.148754167,1,-2.1619640991210938,6.4667386840820305,4.791994622802734
6007455080415,0.150753907,1,-2.3367408203125,6.561309649658202,4.7943888244628905
6007457081404,0.152754896,1,-2.3319524169921872,6.592434271240234,5.069722015380859
6007459080675,0.154754167,1,-2.3331495178222657,6.675034228515624,5.176263989257812
6007461080310,0.156753802,1,-2.2397756530761717,6.733692169189453,5.345055206298828
6007463079842,0.158753334,1,-2.2361843505859373,6.740874774169922,5.595249279785156
6007465080519,0.160754011,1,-2.1416133850097654,6.83783994140625,5.863399865722656
6007467080571,0.162754063,1,-2.1068974609374997,6.927622503662109,6.059724401855468
6007469080988,0.16475448,1,-2.038662713623047,7.020996368408203,6.1638721740722655
6007471078956,0.166752448,1,-2.042254016113281,7.101202124023437,6.4080807434082026
6007473081352,0.168754844,1,-2.0362685119628905,7.117961535644531,6.696582043457031
6007475080623,0.170754115,1,-2.1595698974609374,7.162254266357421,6.9527616210937495
6007477080988,0.17275448,1,-2.280477081298828,7.165845568847656,7.230489013671875
6007479080519,0.174754011,1,-2.3642741394042965,7.22689771118164,7.392097625732421
6007481080988,0.17675448,1,-2.529474053955078,7.285555651855469,7.682993127441406
6007483080519,0.178754011,1,-2.5629928771972654,7.331045483398437,8.016984259033203
6007485080623,0.180754115,1,-2.6431986328124997,7.381323718261719,8.289923248291014
6007487079894,0.182753386,1,-2.864662286376953,7.3932947265625,8.52335791015625
6007489080883,0.184754375,1,-3.1950621154785153,7.454346868896484,8.821436016845702
6007491079946,0.186753438,1,-3.3877953491210935,7.472303381347656,9.080009796142578
6007493079217,0.188752709,1,-3.0502129150390624,7.4220251464843745,9.127893829345702
6007495080779,0.190754271,1,-3.0921114440917967,7.587225061035156,9.307458953857422
6007497080571,0.192754063,1,-3.1735143005371094,7.734468463134765,9.574412438964844
6007499080571,0.194754063,1,-3.1364041748046874,7.863755352783203,9.769539874267577
6007501080467,0.196753959,1,-3.1411925781249996,8.033743670654296,9.95389340209961
6007503080363,0.198753855,1,-3.1028853515624997,8.123526232910155,10.0748005859375
6007505080727,0.200754219,1,-3.104082452392578,8.20971749267578,10.165780249023436
6007507080571,0.202754063,1,-3.2022447204589843,8.329427575683594,10.230423693847655
6007509080519,0.204754011,1,-3.1866824096679687,8.404844927978516,10.219649786376953
6007511080310,0.206753802,1,-3.465606903076172,8.487444885253906,10.168174450683592
6007513080779,0.208754271,1,-3.5589807678222654,8.61792887573242,10.133458526611328
6007515078800,0.210752292,1,-3.649960430908203,8.517372406005858,9.970652813720703
6007517080415,0.212753907,1,-3.7397429931640622,8.555679632568358,9.892841259765625
6007519080519,0.214754011,1,-3.7888241271972656,8.577227447509765,9.764751470947266
6007521080571,0.216754063,1,-3.731363287353515,8.518569506835936,9.591171850585937
6007523080675,0.218754167,1,-3.737348791503906,8.532934716796875,9.370905297851563
6007525079946,0.220753438,1,-3.6679169433593746,8.513781103515624,9.202114080810546
6007527080675,0.222754167,1,-3.594893792724609,8.445546356201172,8.968679418945312
6007529080779,0.224754271,1,-3.535038751220703,8.410830432128906,8.738836059570312
6007531080310,0.226753802,1,-3.5613749694824217,8.325836273193358,8.608352069091797
6007533079998,0.22875349,1,-3.582922784423828,8.24203921508789,8.412027532958984
6007535079998,0.23075349,1,-3.5685575744628903,8.112752325439452,8.18457837524414
6007537078696,0.232752188,1,-3.544615557861328,7.955932116699218,7.999027746582031
6007539080883,0.234754375,1,-3.660734338378906,7.8900915710449215,7.747636572265624
6007541080727,0.236754219,1,-3.544615557861328,7.739256866455078,7.5345526245117185
6007543080467,0.238753959,1,-3.4165257690429685,7.550114935302734,7.359775903320312
6007545081092,0.240754584,1,-3.3638533325195312,7.398083129882812,7.133523846435547
6007547080883,0.242754375,1,-3.162740393066406,7.190984686279297,6.962338427734375
6007549080883,0.244754375,1,-3.143586779785156,7.0090253601074215,6.828263134765624
6007551079946,0.246753438,1,-3.0645781249999997,6.894103680419922,6.737283471679687
6007553079946,0.248753438,1,-2.9508535461425778,6.6893994384765625,6.5397618347167965
6007555087237,0.250760729,1,-2.925714428710937,6.494272003173828,6.455964776611328
6007557081560,0.252755052,1,-2.9508535461425778,6.315903979492187,6.387730029296875
6007559079633,0.254753125,1,-2.896984008789062,6.241683728027343,6.308721374511719
6007561080519,0.256754011,1,-2.874239093017578,6.190208392333984,6.226121417236328
6007563080154,0.258753646,1,-2.901772412109375,6.026205578613281,6.215347509765625
6007565081196,0.260754688,1,-2.8502970764160156,5.917269403076172,6.180631585693359
6007567080623,0.262754115,1,-2.7138275817871094,5.896918688964844,6.13514175415039
6007569079894,0.264753386,1,-2.7377695983886716,5.816712933349609,6.080075115966797
6007571079946,0.266753438,1,-2.583343591308594,5.736507177734374,6.117185241699218
6007573080623,0.268754115,1,-2.47081611328125,5.6311623046875,6.205770703124999
6007575080779,0.270754271,1,-2.3834277526855465,5.61200869140625,6.179434484863281
6007577080779,0.272754271,1,-2.2828712829589843,5.616797094726562,6.186617089843749
6007579077446,0.274750938,1,-2.214636535644531,5.626373901367187,6.159083770751953
6007581080727,0.276754219,1,-2.139219183349609,5.655104321289063,6.07768091430664
6007583082081,0.278755573,1,-2.068590234375,5.6395420104980465,6.205770703124999
6007585080779,0.280754271,1,-2.048239520263672,5.652710119628906,6.228515618896484
6007587079633,0.282753125,1,-2.020706201171875,5.7125651611328125,6.259640240478515
6007589080675,0.284754167,1,-2.0661960327148434,5.645527514648437,6.360196710205078
6007591080310,0.286753802,1,-2.0937293518066404,5.682637640380859,6.361393811035156
6007593080519,0.288754011,1,-2.1452046874999997,5.749675286865234,6.4080807434082026
6007595080206,0.290753698,1,-2.272097375488281,5.780799908447265,6.477512591552734
6007597081196,0.292754688,1,-2.3223756103515623,5.844246252441406,6.5577183471679685
6007599080415,0.294753907,1,-2.3582886352539063,5.945999822998046,6.6151791870117185
6007601079946,0.296753438,1,-2.3056161987304686,6.074089611816406,6.549338641357421
6007603080779,0.298754271,1,-2.2876596862792966,6.185419989013671,6.41646044921875
6007605080415,0.300753907,1,-2.1978771240234374,6.385335827636719,6.3147068786621094
6007607080883,0.302754375,1,-2.0745757385253905,6.527790826416015,6.275202551269531
6007609081769,0.304755261,1,-2.003946789550781,6.663063220214843,6.262034442138671
6007611080519,0.306754011,1,-1.9141642272949217,6.68461103515625,6.232106921386718
6007613080779,0.308754271,1,-1.897404815673828,6.768408093261718,6.224924316406249
6007615079842,0.310753334,1,-1.867477294921875,6.831854437255859,6.208164904785156
6007617080154,0.312753646,1,-1.830367169189453,6.912060192871094,6.028599780273437
6007619080310,0.314753802,1,-1.898601916503906,6.9168485961914055,6.027402679443359
6007621081144,0.316754636,1,-1.8902222106933593,6.974309436035155,6.02022007446289
6007623079008,0.3187525,1,-1.9201497314453124,6.940790612792968,5.993883856201172
6007625080102,0.320753594,1,-1.8938135131835936,6.981492041015625,5.912480999755859
6007627080987,0.322754479,1,-1.8914193115234375,7.037755780029296,5.934028814697265
6007629081144,0.324754636,1,-1.8124106567382812,7.0269818725585935,5.938817218017578
6007631080519,0.326754011,1,-1.7776947326660155,7.029376074218749,5.895721588134765
6007633080623,0.328754115,1,-1.687912170410156,6.963535528564453,5.955576629638672
6007635080206,0.330753698,1,-1.5873557006835937,6.943184814453125,5.985504150390625
6007637080987,0.332754479,1,-1.5574281799316405,6.839037042236328,5.948394024658203
6007639080675,0.334754167,1,-1.4712369201660156,6.800729815673828,5.912480999755859
6007641081092,0.336754584,1,-1.4101847778320311,6.700173345947265,5.878962176513672
6007643080362,0.338753854,1,-1.3180080139160155,6.624755993652343,5.853823059082031
6007645081040,0.340754532,1,-1.3934253662109375,6.519411120605469,5.870582470703124
6007647080050,0.342753542,1,-1.5119383483886717,6.488286499023437,5.870582470703124
6007649080206,0.344753698,1,-1.6124948181152343,6.412869146728515,5.955576629638672
6007651080310,0.346753802,1,-1.7094599853515624,6.399701037597656,5.910086798095703
6007653081508,0.348755,1,-1.7956512451171873,6.293159063720703,5.949591125488281
6007655079842,0.350753334,1,-1.9021932189941406,6.244077929687499,6.099228729248047
6007657081040,0.352754532,1,-1.9405004455566406,6.199785198974609,6.099228729248047
6007659080831,0.354754323,1,-1.946485949707031,6.224924316406249,6.256048937988281
6007661080675,0.356754167,1,-2.01112939453125,6.305130072021484,6.238092425537109
6007663080206,0.358753698,1,-2.042254016113281,6.3901242309570305,6.37815322265625
6007665080675,0.360754167,1,-2.0638018310546875,6.438008264160156,6.376956121826171
6007667080206,0.362753698,1,-2.1224597717285154,6.526593725585937,6.622361791992187
6007669080727,0.364754219,1,-2.1152771667480468,6.629544396972656,6.619967590332031
6007671080362,0.366753854,1,-2.1511901916503904,6.774393597412109,6.707355950927734
6007673081196,0.368754688,1,-2.1356278808593747,6.854599353027344,6.839037042236328
6007675079737,0.370753229,1,-2.2278046447753903,6.884526873779296,6.880935571289062
6007677081144,0.372754636,1,-2.223016241455078,7.004236956787109,6.976703637695312
6007679080362,0.374753854,1,-2.29843359375,7.09282241821289,7.173028173828125
6007681080467,0.376753959,1,-2.365471240234375,7.228094812011718,7.212532501220703
6007683080102,0.378753594,1,-2.3918074584960936,7.308300567626953,7.331045483398437
6007685080675,0.380754167,1,-2.408566870117187,7.387309222412109,7.344213592529297
6007687079112,0.382752604,1,-2.5067291381835934,7.45075556640625,7.437587457275391
6007689080258,0.38475375,1,-2.6420015319824217,7.557297540283202,7.493851196289062
6007691080415,0.386753907,1,-2.6144682128906247,7.618349682617187,7.5142019104003905
6007693080883,0.388754375,1,-2.644395733642578,7.68658442993164,7.50821640625
6007695080206,0.390753698,1,-2.7653029174804686,7.7799582946777335,7.536946826171874
6007697080467,0.392753959,1,-2.7617116149902343,7.785943798828124,7.532158422851562
6007699079998,0.39475349,1,-2.7748797241210936,7.85896694946289,7.538143927001952
6007701080987,0.396754479,1,-2.8000188415527343,7.8912886718749995,7.435193255615234
6007703079529,0.398753021,1,-2.863465185546875,7.936778503417968,7.400477331542969
6007705080779,0.400754271,1,-2.942473840332031,7.914033587646484,7.416039642333984
6007707080779,0.402754271,1,-3.008314385986328,7.9272016967773435,7.45075556640625
6007709080206,0.404753698,1,-3.0502129150390624,7.971494427490234,7.42441934814453
6007711080415,0.406753907,1,-3.0813375366210938,7.920019091796875,7.401674432373047
6007713080258,0.40875375,1,-3.106476654052734,7.886500268554687,7.293935357666015
6007715079998,0.41075349,1,-3.0502129150390624,7.934384301757812,7.195773089599609
6007717080467,0.412753959,1,-3.015496990966797,7.921216192626953,7.1215528381347655
6007719080362,0.414753854,1,-2.942473840332031,7.8924857727050775,7.01620796508789
6007721080102,0.416753594,1,-2.881421697998047,7.911639385986327,6.9731123352050774
6007723080154,0.418753646,1,-2.913743420410156,7.886500268554687,6.945579016113281
6007725080154,0.420753646,1,-2.8024130432128906,7.837419134521484,6.836642840576172
6007727079790,0.422753282,1,-2.7617116149902343,7.765593084716796,6.781576202392578
6007729080571,0.424754063,1,-2.7365724975585937,7.748833673095703,6.679822631835937
6007731078956,0.426752448,1,-2.588131994628906,7.687781530761718,6.658274816894531
6007733080258,0.42875375,1,-2.7928362365722657,7.68059892578125,6.5601125488281244
6007735080050,0.430753542,1,-2.5917232971191404,7.621940985107422,6.323086584472656
6007737081456,0.432754948,1,-2.2565350646972653,7.503428002929687,6.155492468261718
6007739080883,0.434754375,1,-2.6791116577148437,7.36097300415039,6.175843182373047
6007741080831,0.436754323,1,-2.549824768066406,7.382520819091797,6.054935998535156
6007743080467,0.438753959,1,-2.3343466186523436,7.4699091796875,5.7891796142578125
6007745080571,0.440754063,1,-2.3056161987304686,7.449558465576171,5.683834741210937
6007747080415,0.442753907,1,-2.048239520263672,7.275978845214843,5.6383449096679685
6007749086925,0.444760417,1,-2.0254946044921875,7.116764434814453,5.661089825439452
6007751083644,0.446757136,1,-1.8567033874511718,6.955155822753905,5.606023187255859
6007753079581,0.448753073,1,-1.7226280944824217,6.853402252197265,5.49708701171875
6007755080779,0.450754271,1,-1.610100616455078,6.721721160888672,5.428852264404297
6007757080779,0.452754271,1,-1.4604630126953124,6.517016918945312,5.221753820800781
6007759079425,0.454752917,1,-1.4137760803222656,6.429628558349609,5.1511248718261715
6007761081039,0.456754531,1,-1.3287819213867187,6.362590911865234,5.019443780517578
6007763080623,0.458754115,1,-1.2605471740722656,6.285976458740234,4.791994622802734
6007765080362,0.460753854,1,-1.2198457458496093,6.1830257873535155,4.710591766357422
6007767080154,0.462753646,1,-1.2234370483398436,6.044162091064453,4.544194750976562
6007769080519,0.464754011,1,-1.2198457458496093,6.038176586914062,4.394557147216797
6007771080831,0.466754323,1,-1.2042834350585936,5.931634613037109,4.2125978210449215
6007773080519,0.468754011,1,-1.2138602416992186,5.850231756591796,4.100070343017578
6007775080467,0.470753959,1,-1.2306196533203124,5.802347723388672,3.9803602600097654
6007777080519,0.472754011,1,-1.2306196533203124,5.77122310180664,3.8845921936035155
6007779080831,0.474754323,1,-1.1875240234375,5.701791253662109,3.796006732177734
6007781080519,0.476754011,1,-1.1348515869140625,5.6778492370605465,3.6523546325683593
6007783080102,0.478753594,1,-1.092953057861328,5.700594152832031,3.6176387084960937
6007785080258,0.48075375,1,-1.071405242919922,5.6395420104980465,3.5410242553710933
6007787079998,0.48275349,1,-0.9983820922851562,5.6383449096679685,3.422511273193359
6007789080883,0.484754375,1,-1.0414777221679687,5.7137622619628905,3.441664886474609
6007791081144,0.486754636,1,-1.0211270080566406,5.810727429199218,3.379415643310547
6007793081300,0.488754792,1,-1.0869675537109373,5.768828900146484,3.303998291015625
6007795079998,0.49075349,1,-1.1755530151367186,5.835866546630859,3.3482910217285156
6007797080779,0.492754271,1,-1.1360486877441405,5.898115789794922,3.362656231689453
6007799080258,0.49475375,1,-1.1276689819335937,5.947196923828125,3.3542765258789062
6007801080675,0.496754167,1,-1.2378022583007813,5.980715747070312,3.398569256591797
6007803079789,0.498753281,1,-1.2521674682617188,6.041767889404296,3.4296938781738278
6007805080310,0.500753802,1,-1.408987677001953,6.09683452758789,3.4811692138671875
6007807078748,0.50275224,1,-1.5155296508789062,6.157886669921875,3.537432952880859
6007809079842,0.504753334,1,-1.6041151123046875,6.274005450439453,3.632003918457031
6007811080102,0.506753594,1,-1.7609353210449217,6.388927130126953,3.725377783203125
6007813081352,0.508754844,1,-1.8279729675292968,6.45476767578125,3.7672763122558592
6007815081300,0.510754792,1,-1.8806454040527343,6.591237170410156,3.909731311035156
6007817079112,0.512752604,1,-1.915361328125,6.72890376586914,4.071339923095703
6007819079894,0.514753386,1,-1.8602946899414061,6.8210805297851556,4.155136981201172
6007821079946,0.516753438,1,-1.8806454040527343,6.9731123352050774,4.267664459228516
6007823079842,0.518753334,1,-1.946485949707031,7.060500695800781,4.460397692871093
6007825080779,0.520754271,1,-1.9393033447265624,7.16943687133789,4.582501977539062
6007827079998,0.52275349,1,-1.9812018737792967,7.298723760986328,4.551377355957031
6007829080258,0.52475375,1,-2.060210528564453,7.353790399169921,4.6818613464355465
6007831080154,0.526753646,1,-2.0757728393554684,7.407659936523437,4.802768530273437
6007833080154,0.528753646,1,-2.1116858642578125,7.4794859863281244,4.918887310791015
6007835079998,0.53075349,1,-2.175132208251953,7.544129431152343,4.939238024902344
6007837080154,0.532753646,1,-2.123656872558594,7.5537062377929685,5.035006091308594
6007839079008,0.5347525,1,-2.1308394775390624,7.599196069335937,5.013458276367187
6007841080362,0.536753854,1,-2.057816326904297,7.589619262695312,5.123591552734375
6007843080467,0.538753959,1,-1.9500772521972656,7.636306195068359,5.140350964355468
6007845080414,0.540753906,1,-1.8830396057128904,7.576451153564452,5.091269830322266
6007847080519,0.542754011,1,-1.8255787658691405,7.562085943603515,5.025429284667968
6007849080675,0.544754167,1,-1.7501614135742187,7.538143927001952,4.905719201660156
6007851080258,0.54675375,1,-1.7022773803710936,7.480683087158202,5.011064074707031
6007853081039,0.548754531,1,-1.6555904479980468,7.407659936523437,4.856638067626953
6007855080050,0.550753542,1,-1.6328455322265625,7.266402038574219,4.723759875488281
6007857079112,0.552752604,1,-1.6124948181152343,7.1586629638671875,4.550180255126953
6007859079842,0.554753334,1,-1.5693991882324219,7.034164477539062,4.407725256347656
6007861078748,0.55675224,1,-1.6519991455078125,6.8976949829101555,4.207809417724609
6007863080414,0.558753906,1,-1.6711527587890624,6.797138513183594,4.107252947998047
6007865078331,0.560751823,1,-1.62805712890625,6.681019732666015,3.954024041748047
6007867078539,0.562752031,1,-1.600523809814453,6.611587884521484,3.8103719421386715
6007869080571,0.564754063,1,-1.6352397338867186,6.482300994873047,3.5589807678222654
6007871080675,0.566754167,1,-1.6029180114746093,6.4092778442382805,3.6487633300781246
6007873081248,0.56875474,1,-1.6555904479980468,6.344634399414062,3.374627239990234
6007875080571,0.570754063,1,-1.7693150268554687,6.294356164550781,3.4584242980957027
6007877080727,0.572754219,1,-1.6843208679199217,6.2392895263671875,3.0897172424316404
6007879080206,0.574753698,1,-1.2389993591308592,6.068104107666016,3.065775225830078
6007881081196,0.576754688,1,-1.6041151123046875,6.102820031738281,3.087323040771484
6007883079789,0.578753281,1,-1.399410870361328,6.136338854980468,3.019088293457031
6007885080935,0.580754427,1,-1.2054805358886718,6.276399652099609,2.6958710693359373
6007887081039,0.582754531,1,-1.2677297790527342,6.317101080322265,2.70065947265625
6007889081144,0.584754636,1,-1.2569558715820313,6.217741711425781,2.6874913635253903
6007891080675,0.586754167,1,-1.2330138549804688,6.198588098144531,2.749740606689453
6007893080310,0.588753802,1,-1.1264718811035155,6.11598814086914,2.6575638427734374
6007895079894,0.590753386,1,-1.2497732666015624,6.11598814086914,2.8790274963378906
6007897080571,0.592754063,1,-1.2629413757324217,6.212953308105468,2.6982652709960937
6007899080154,0.594753646,1,-1.2030863342285156,6.287173559570312,2.6503812377929687
6007901081404,0.596754896,1,-1.199495031738281,6.327874987792969,2.612074011230469
6007903079633,0.598753125,1,-1.177947216796875,6.332663391113281,2.886210101318359
6007905080935,0.600754427,1,-1.1336544860839843,6.4092778442382805,2.7341782958984373
6007907079998,0.60275349,1,-1.01514150390625,6.434416961669921,2.6575638427734374
6007909079998,0.60475349,1,-0.8978256225585937,6.511031414794921,2.8239608581542965
6007911079685,0.606753177,1,-0.7888894470214843,6.524199523925781,2.8945898071289062
6007913080779,0.608754271,1,-0.719457598876953,6.552929943847656,2.81558115234375
6007915080362,0.610753854,1,-0.6512228515624999,6.552929943847656,3.025073797607422
6007917080258,0.61275375,1,-0.6153098266601562,6.505045910644531,3.025073797607422
6007919079581,0.614753073,1,-0.6081272216796875,6.525396624755859,2.9795839660644527
6007921080154,0.616753646,1,-0.5781997009277343,6.530185028076171,2.925714428710937
6007923080154,0.618753646,1,-0.603338818359375,6.479906793212891,3.076549133300781
6007925079633,0.620753125,1,-0.7505822204589844,6.387730029296875,3.0933085449218747
6007927080414,0.622753906,1,-0.7146691955566405,6.336254693603515,3.0909143432617188
6007929080414,0.624753906,1,-0.6703764648437499,6.324283685302734,3.172317199707031
6007931080206,0.626753698,1,-0.6667851623535156,6.252457635498047,2.9735984619140625
6007933080258,0.62875375,1,-0.594959112548828,6.241683728027343,3.0885201416015624
6007935079842,0.630753334,1,-0.24181436767578124,6.245275030517578,3.1004911499023438
6007937080102,0.632753594,1,-0.7170633972167968,6.233304022216797,3.353079425048828
6007939079529,0.634753021,1,0.10773907470703124,5.820304235839844,3.35188232421875
6007941086196,0.636759688,1,-0.7350199096679687,5.816712933349609,3.6439749267578123
6007943081925,0.638755417,1,-0.12569558715820311,6.056133099365234,3.295618585205078
6007945080519,0.640754011,1,0.12689268798828124,6.161477972412109,3.2405519470214843
6007947079789,0.642753281,1,-0.12330138549804687,6.086060620117187,3.3770214416503905
6007949081196,0.644754688,1,-0.040701428222656245,5.838260748291015,3.564966271972656
6007951080102,0.646753594,1,0.0047884033203125,5.604826086425781,3.5517981628417967
6007953081508,0.648755,1,-0.00239420166015625,5.4887073059082025,3.527856146240234
6007955079685,0.650753177,1,-0.08020575561523437,5.392939239501953,3.4931402221679684
6007957080154,0.652753646,1,-0.14245499877929688,5.33068999633789,3.1411925781249996
6007959080831,0.654754323,1,-0.15682020874023436,5.255272644042968,3.0334535034179684
6007961081248,0.65675474,1,-0.3315969299316406,5.251681341552734,2.863465185546875
6007963080519,0.658754011,1,-0.40940848388671874,5.333084197998047,2.7533319091796873
6007965080310,0.660753802,1,-0.44053310546874996,5.547365246582031,2.4947581298828125
6007967080727,0.662754219,1,-0.4800374328613281,5.792770916748046,2.474407415771484
6007969079633,0.664753125,1,-0.36750995483398435,5.893327386474609,2.5905261962890624
6007971080050,0.666753542,1,-0.258573779296875,6.082469317626953,2.4349030883789062
6007973080206,0.668753698,1,-0.03232172241210937,6.19260259399414,2.3295582153320313
6007975080519,0.670754011,1,0.06943184814453125,6.297947467041015,2.5330653564453125
6007977081248,0.67275474,1,0.2262520568847656,6.417657550048828,2.4289175842285156
6007979080935,0.674754427,1,0.18435352783203124,6.56968935546875,2.433705987548828
6007981080831,0.676754323,1,0.11252747802734374,6.677428430175781,2.4492682983398435
6007983080623,0.678754115,1,-0.058657940673828124,6.7037646484375,2.3786393493652342
6007985081091,0.680754583,1,-0.30047230834960936,6.797138513183594,2.608482708740234
6007987081039,0.682754531,1,-0.5015852478027344,6.86297905883789,2.730586993408203
6007989080779,0.684754271,1,-0.6296750366210937,6.93959351196289,2.8981811096191405
6007991080571,0.686754063,1,-0.7972691528320313,6.9731123352050774,3.056198419189453
6007993080831,0.688754323,1,-0.8451531860351562,7.058106494140625,3.347093920898437
6007995079998,0.69075349,1,-0.9409212524414062,7.11197603149414,3.475183709716797
6007997080571,0.692754063,1,-0.9923965881347656,7.194575988769531,3.697844464111328
6007999080310,0.694753802,1,-1.0175357055664063,7.248445526123047,4.015076184082031
6008001080623,0.696754115,1,-0.8858546142578124,7.377732415771484,4.180276098632812
6008003079685,0.698753177,1,-0.928950244140625,7.495048297119141,4.486733911132812
6008005080623,0.700754115,1,-1.0498574279785156,7.556100439453124,4.786009118652344
6008007080362,0.702753854,1,-1.071405242919922,7.624335186767578,5.006275671386718
6008009081508,0.704755,1,-1.13006318359375,7.684190228271484,5.286397265624999
6008011079269,0.706752761,1,-1.1719617126464843,7.783549597167968,5.534197137451171
6008013080310,0.708753802,1,-1.2665326782226562,7.762001782226562,5.705382556152343
6008015080206,0.710753698,1,-1.2820949890136717,7.715314849853515,5.938817218017578
6008017080727,0.712754219,1,-1.3048399047851562,7.748833673095703,6.019022973632812
6008019080206,0.714753698,1,-1.3623007446289062,7.68059892578125,6.228515618896484
6008021081196,0.716754688,1,-1.456871710205078,7.726088757324218,6.270414147949219
6008023081196,0.718754688,1,-1.4532804077148436,7.684190228271484,6.319495281982421
6008025081352,0.720754844,1,-1.5933412048339843,7.649474304199218,6.368576416015625
6008027080310,0.722753802,1,-1.6065093139648436,7.587225061035156,6.434416961669921
6008029080935,0.724754427,1,-1.6077064147949218,7.528567120361328,6.404489440917969
6008031080935,0.726754427,1,-1.7525556152343749,7.490259893798828,6.291961962890625
6008033079008,0.7287525,1,-1.7393875061035156,7.490259893798828,6.278793853759765
6008035080154,0.730753646,1,-1.8052280517578123,7.3932947265625,6.130353350830077
6008037079998,0.73275349,1,-1.867477294921875,7.335833886718749,6.009446166992187
6008039080310,0.734753802,1,-1.8255787658691405,7.314286071777343,5.9017070922851556
6008041080727,0.736754219,1,-1.849520782470703,7.222109307861328,5.768828900146484
6008043080258,0.73875375,1,-1.8040309509277344,7.16943687133789,5.622782598876952
6008045080206,0.740753698,1,-1.8004396484374998,7.123947039794921,5.450400079345703
6008047079998,0.74275349,1,-1.7693150268554687,7.0078282592773435,5.355829113769531
6008049080050,0.744753542,1,-1.7788918334960937,7.031770275878906,5.220556719970703
6008051080987,0.746754479,1,-1.8339584716796873,6.994660150146484,5.068524914550781
6008053080154,0.748753646,1,-1.8854338073730468,7.017405065917968,4.977545251464844
6008055080154,0.750753646,1,-1.9704279663085937,7.018602166748046,4.872200378417968
6008057080206,0.752753698,1,-2.001552587890625,7.029376074218749,4.872200378417968
6008059079841,0.754753333,1,-2.099714855957031,7.077260107421875,4.867411975097656
6008061080519,0.756754011,1,-2.231395947265625,6.998251452636718,5.030217687988281
6008063080466,0.758753958,1,-2.1894974182128903,6.945579016113281,5.003881469726562
6008065079998,0.76075349,1,-2.1511901916503904,6.979097839355468,4.946420629882812
6008067079946,0.762753438,1,-1.9967641845703124,7.138312249755859,4.997895965576172
6008069080623,0.764754115,1,-1.9141642272949217,7.222109307861328,5.040991595458984
6008071079685,0.766753177,1,-1.8818425048828125,7.18859048461914,5.05655390625
6008073080831,0.768754323,1,-1.839943975830078,7.110778930664062,5.1511248718261715
6008075080675,0.770754167,1,-1.89620771484375,7.082048510742187,5.239710333251953
6008077080310,0.772753802,1,-1.9800047729492187,7.006631158447266,5.237316131591797
6008079080154,0.774753646,1,-2.029085906982422,7.000645654296875,5.374982727050781
6008081080779,0.776754271,1,-1.9955670837402342,7.0269818725585935,5.380968231201171
6008083079946,0.778753438,1,-1.983596075439453,7.001842755126953,5.550956549072265
6008085080623,0.780754115,1,-2.043451116943359,7.025784771728516,5.606023187255859
6008087080258,0.78275375,1,-1.9045874206542968,7.062894897460937,5.6215854980468745
6008089080883,0.784754375,1,-1.7932570434570312,7.052120989990234,5.634753607177734
6008091080727,0.786754219,1,-1.675941162109375,7.015010864257812,5.673060833740234
6008093080675,0.788754167,1,-1.5729904907226562,6.949170318603516,5.606023187255859
6008095080362,0.790753854,1,-1.6208745239257811,6.9156514953613275,5.528211633300781
6008097079373,0.792752865,1,-1.5466542724609373,6.90128628540039,5.604826086425781
6008099080675,0.794754167,1,-1.5945383056640625,6.749254479980468,5.512649322509765
6008101079998,0.79675349,1,-1.6747440612792968,6.6893994384765625,5.456385583496093
6008103080414,0.798753906,1,-1.6627730529785156,6.621164691162109,5.518634826660156
6008105080675,0.800754167,1,-1.8076222534179687,6.530185028076171,5.4779333984375
6008107080050,0.802753542,1,-1.848323681640625,6.497863305664062,5.501875415039062
6008109080102,0.804753594,1,-1.8698714965820311,6.452373474121093,5.579686968994141
6008111080154,0.806753646,1,-1.908178723144531,6.432022760009765,5.607220288085937
6008113081248,0.80875474,1,-1.9776105712890624,6.392518432617187,5.699397052001952
6008115080154,0.810753646,1,-2.100911956787109,6.406883642578125,5.889736083984375
6008117080519,0.812754011,1,-2.2254104431152344,6.418854650878906,6.0142345703124995
6008119080310,0.814753802,1,-2.3918074584960936,6.519411120605469,6.1447185607910155
6008121080414,0.816753906,1,-2.551021868896484,6.629544396972656,6.335057592773437
6008123080466,0.818753958,1,-2.8802245971679685,6.754042883300781,6.600813977050781
6008125080154,0.820753646,1,-3.2704794677734372,6.7839704040527335,6.645106707763672
6008127079946,0.822753438,1,-2.7856536315917966,7.001842755126953,6.842628344726562
6008129080883,0.824754375,1,-2.6946739685058594,7.048529687499999,7.001842755126953
6008131080206,0.826753698,1,-2.597708801269531,7.392097625732421,7.273584643554687
6008133086560,0.828760052,1,-2.3259669128417966,7.3932947265625,7.539341027832031
6008135082341,0.830755833,1,-2.385821954345703,7.657854010009765,7.673416320800781
6008137080362,0.832753854,1,-2.3116017028808593,7.557297540283202,7.829039428710937
6008139079894,0.834753386,1,-2.418143676757812,7.766790185546874,7.93558140258789
6008141079633,0.836753125,1,-2.6108769104003904,7.824251025390624,7.951143713378905
6008143080623,0.838754115,1,-2.6970681701660153,8.263587030029296,7.975085729980468
6008145080206,0.840753698,1,-3.066972326660156,8.172607366943359,7.957129217529296
6008147080206,0.842753698,1,-3.161543292236328,8.295908752441406,8.079233502197265
6008149081039,0.844754531,1,-3.2118215270996093,8.39526812133789,8.161833459472655
6008151079946,0.846753438,1,-3.0992940490722654,8.322244970703125,8.139088543701172
6008153080571,0.848754063,1,-3.0238766967773434,8.577227447509765,8.177395770263672
6008155080258,0.85075375,1,-2.7964275390625,8.403647827148436,8.188169677734374
6008157079946,0.852753438,1,-2.6575638427734374,8.425195642089843,8.116343627929687
6008159080883,0.854754375,1,-2.418143676757812,8.402450726318358,8.095992913818359
6008161081404,0.856754896,1,-2.29843359375,8.416815936279296,7.9283987976074215
6008163080519,0.858754011,1,-2.2182278381347653,8.256404425048828,7.7979148071289055
6008165080675,0.860754167,1,-2.136824981689453,8.078036401367187,7.669825018310546
6008167080362,0.862753854,1,-2.1715409057617188,7.903259680175781,7.5537062377929685
6008169080466,0.864753958,1,-2.214636535644531,7.748833673095703,7.396886029052734
6008171081039,0.866754531,1,-2.233790148925781,7.518990313720702,7.235277416992187
6008173080102,0.868753594,1,-2.3151930053710936,7.444770062255859,7.156268762207031
6008175079373,0.870752865,1,-2.2541408630371094,7.048529687499999,7.116764434814453
6008177080675,0.872754167,1,-2.2290017456054687,6.995857250976562,7.012616662597656
6008179079946,0.874753438,1,-2.1966800231933594,6.5948284729003905,6.89530078125
6008181080414,0.876753906,1,-2.120065570068359,6.701370446777343,6.775590698242187
6008183080102,0.878753594,1,-2.039859814453125,6.412869146728515,6.698976245117187
6008185081664,0.880755156,1,-2.0063409912109376,6.208164904785156,6.635529901123046
6008187080362,0.882753854,1,-2.0063409912109376,6.242880828857421,6.487089398193359
6008189081404,0.884754896,1,-2.0554221252441405,5.98191284790039,6.469132885742187
6008191080571,0.886754063,1,-1.9955670837402342,5.984307049560546,6.380547424316406
6008193080154,0.888753646,1,-1.983596075439453,5.92445200805664,6.374561920166015
6008195080987,0.890754479,1,-1.974019268798828,5.686228942871093,6.341043096923828
6008197079633,0.892753125,1,-1.9979612854003905,5.697002850341796,6.376956121826171
6008199080050,0.894753542,1,-1.8926164123535154,5.6754550354003905,6.432022760009765
6008201080206,0.896753698,1,-1.9309236389160156,5.7137622619628905,6.500257507324219
6008203080623,0.898754115,1,-1.9069816223144531,5.749675286865234,6.572083557128906
6008205079841,0.900753333,1,-1.782483135986328,5.805939025878906,6.563703851318359
6008207080258,0.90275375,1,-1.782483135986328,5.686228942871093,6.776787799072265
6008209080258,0.90475375,1,-1.6531962463378904,5.96275923461914,6.854599353027344
6008211080623,0.906754115,1,-1.7010802795410156,5.919663604736328,6.910863092041015
6008213080571,0.908754063,1,-1.678335363769531,6.013037469482422,7.107187628173827
6008215079893,0.910753385,1,-1.6615759521484375,6.226121417236328,7.105990527343749
6008217080571,0.912754063,1,-1.8315642700195311,6.169857678222656,7.281964349365234
6008219080362,0.914753854,1,-1.9572598571777342,6.385335827636719,7.429207751464843
6008221080623,0.916754115,1,-2.062604730224609,6.343437298583984,7.463923675537109
6008223080206,0.918753698,1,-2.1547814941406247,6.570886456298828,7.547720733642578
6008225080883,0.920754375,1,-2.2493524597167966,6.4846951965332025,7.5908163635253905
6008227079373,0.922752865,1,-2.39420166015625,6.694187841796874,7.706935144042968
6008229080466,0.924753958,1,-2.421734979248047,6.617573388671874,7.633911993408202
6008231080102,0.926753594,1,-2.4899697265625,6.861781958007812,7.668627917480468
6008233080414,0.928753906,1,-2.460042205810547,6.804321118164062,7.671022119140624
6008235080102,0.930753594,1,-2.479195819091797,7.041347082519531,7.687781530761718
6008237080571,0.932754063,1,-2.4492682983398435,6.994660150146484,7.625532287597656
6008239080310,0.934753802,1,-2.395398760986328,7.195773089599609,7.673416320800781
6008241079893,0.936753385,1,-2.426523382568359,7.067683300781249,7.641094598388672
6008243079789,0.938753281,1,-2.4480711975097655,7.202955694580078,7.505822204589843
6008245082133,0.940755625,1,-2.4492682983398435,7.236474517822265,7.499836700439452
6008247080623,0.942754115,1,-2.518700146484375,7.256825231933593,7.392097625732421
6008249079946,0.944753438,1,-2.568978381347656,7.247248425292969,7.426813549804687
6008251080050,0.946753542,1,-2.527079852294922,7.214926702880859,7.3837179199218745
6008253080727,0.948754219,1,-2.588131994628906,7.334636785888671,7.137115148925781
6008255080466,0.950753958,1,-2.5378537597656248,7.156268762207031,7.1586629638671875
6008257079789,0.952753281,1,-2.460042205810547,7.052120989990234,7.079654309082031
6008259079581,0.954753073,1,-2.503137835693359,7.029376074218749,6.988674645996094
6008261080571,0.956754063,1,-2.5139117431640625,7.053318090820312,6.944381915283203
6008263079946,0.958753438,1,-2.4756045166015626,7.012616662597656,6.764816790771484
6008265081352,0.960754844,1,-2.5103204406738278,6.932410906982422,6.619967590332031
6008267081300,0.962754792,1,-2.436100189208984,6.959944226074218,6.543353137207031
6008269080623,0.964754115,1,-2.5546131713867184,6.962338427734375,6.348225701904297
6008271080206,0.966753698,1,-2.3582886352539063,6.8569935546875,6.361393811035156
6008273080571,0.968754063,1,-2.3738509460449215,6.776787799072265,6.348225701904297
6008275079789,0.970753281,1,-2.393004559326172,6.720524060058593,6.34583150024414
6008277080154,0.972753646,1,-2.421734979248047,6.669048724365234,6.301538769531249
6008279079789,0.974753281,1,-2.436100189208984,6.6905965393066404,6.335057592773437
6008281080414,0.976753906,1,-2.3427263244628906,6.739677673339843,6.299144567871093
6008283080727,0.978754219,1,-2.2744915771484373,6.766013891601562,6.275202551269531
6008285080727,0.980754219,1,-2.2960393920898436,6.79953271484375,6.199785198974609
6008287080206,0.982753698,1,-2.2553379638671873,6.806715319824218,6.206967803955078
6008289081039,0.984754531,1,-2.2637176696777344,6.8569935546875,6.257246038818359
6008291080675,0.986754167,1,-2.1499930908203124,6.903680487060546,6.242880828857421
6008293080362,0.988753854,1,-2.088940948486328,6.894103680419922,6.257246038818359
6008295080310,0.990753802,1,-2.0542250244140625,6.889315277099609,6.295553265380859
6008297080623,0.992754115,1,-2.0374656127929685,6.946776116943359,6.19260259399414
6008299080571,0.994754063,1,-1.9716250671386717,6.932410906982422,6.303932971191406
6008301080310,0.996753802,1,-2.023100402832031,6.9156514953613275,6.343437298583984
6008303079998,0.99875349,1,-2.214636535644531,6.884526873779296,6.424840155029297
6008305080675,1.000754167,1,-2.2158336364746094,6.9539587219238275,6.376956121826171
6008307080258,1.00275375,1,-2.184709014892578,6.9910688476562495,6.385335827636719
6008309080154,1.004753646,1,-2.1990742248535153,7.072471704101562,6.341043096923828
6008311080466,1.006753958,1,-2.1811177124023438,7.145494854736327,6.4655415832519525
6008313080050,1.008753542,1,-2.079364141845703,7.199364392089843,6.429628558349609
6008315080050,1.010753542,1,-1.956062756347656,7.213729602050781,6.496666204833984
6008317080310,1.012753802,1,-1.8291700683593748,7.281964349365234,6.5948284729003905
6008319080050,1.014753542,1,-1.7465701110839842,7.24605132446289,6.642712506103515
6008321080831,1.016754323,1,-1.686715069580078,7.292738256835937,6.635529901123046
6008323080935,1.018754427,1,-1.6400281372070311,7.293935357666015,6.630741497802734
6008325081039,1.020754531,1,-1.6136919189453125,7.3274541809082026,6.7277066650390625
6008327084946,1.022758438,1,-1.6603788513183593,7.285555651855469,6.76721099243164
6008329081925,1.024755417,1,-1.5777788940429687,7.2915411560058585,6.845022546386718
6008331079893,1.026753385,1,-1.6065093139648436,7.205349896240234,6.860584857177734
6008333080727,1.028754219,1,-1.6053122131347655,7.192181787109375,6.836642840576172
6008335078956,1.030752448,1,-1.4891934326171874,7.141903552246093,6.831854437255859
6008337080987,1.032754479,1,-1.485602130126953,7.117961535644531,6.891709478759765
6008339079998,1.03475349,1,-1.3587094421386718,7.115567333984375,6.842628344726562
6008341080206,1.036753698,1,-1.3682862487792968,7.060500695800781,6.906074688720703
6008343079841,1.038753333,1,-1.2569558715820313,7.082048510742187,6.924031201171875
6008345077810,1.040751302,1,-1.216254443359375,7.013813763427734,6.773196496582031
6008347077550,1.042751042,1,-1.209071838378906,7.03536157836914,6.866570361328125
6008349082393,1.044755885,1,-1.1432312927246093,6.983886242675781,6.76721099243164
6008351080102,1.046753594,1,-1.1767501159667968,6.959944226074218,6.697779144287109
6008353080206,1.048753698,1,-1.1851298217773436,6.910863092041015,6.655880615234374
6008355080154,1.050753646,1,-1.2533645690917967,6.841431243896484,6.5505357421875
6008357079268,1.05275276,1,-1.35990654296875,6.750451580810546,6.475118389892578
6008359079893,1.054753385,1,-1.3814543579101561,6.793547210693359,6.376956121826171
6008361080154,1.056753646,1,-1.3766659545898436,6.718129858398437,6.205770703124999
6008363079946,1.058753438,1,-1.3934253662109375,6.68461103515625,6.11598814086914
6008365080466,1.060753958,1,-1.4245499877929686,6.657077716064452,6.025008477783203
6008367080102,1.062753594,1,-1.514332550048828,6.639121203613281,5.883750579833984
6008369080623,1.064754115,1,-1.5514426757812498,6.682216833496093,5.72693037109375
6008371080362,1.066753854,1,-1.5969325073242187,6.721721160888672,5.622782598876952
6008373080675,1.068754167,1,-1.686715069580078,6.70975015258789,5.5449710449218745
6008375080727,1.070754219,1,-1.7860744384765623,6.715735656738281,5.4779333984375
6008377078435,1.072751927,1,-1.8734627990722654,6.7839704040527335,5.280411761474609
6008379077654,1.074751146,1,-1.927332336425781,6.801926916503906,5.219359619140625
6008381080727,1.076754219,1,-1.9752163696289062,6.847416748046874,5.221753820800781
6008383079425,1.078752917,1,-2.038662713623047,6.926425402832031,5.221753820800781
6008385081039,1.080754531,1,-2.081758343505859,6.980294940185546,5.125985754394531
6008387080102,1.082753594,1,-2.114080065917969,7.060500695800781,5.046977099609375
6008389080258,1.08475375,1,-2.1739351074218747,7.113173132324218,4.921281512451172
6008391079737,1.086753229,1,-2.195482922363281,7.141903552246093,5.0182466796875
6008393081091,1.088754583,1,-2.327164013671875,7.149086157226562,5.033808990478516
6008395081143,1.090754635,1,-2.2661118713378903,7.274781744384765,4.965574243164062
6008397081248,1.09275474,1,-2.3594857360839843,7.268796240234375,4.903325
6008399080779,1.094754271,1,-2.445676995849609,7.26520493774414,4.905719201660156
6008401080935,1.096754427,1,-2.1679496032714844,7.289146954345703,4.910507604980468
6008403080414,1.098753906,1,-2.389413256835937,7.297526660156249,4.848258361816406
6008405081508,1.100755,1,-2.2002713256835937,7.289146954345703,4.778826513671874
6008407080102,1.102753594,1,-2.29843359375,7.222109307861328,4.721365673828124
6008409080310,1.104753802,1,-2.098517755126953,7.18859048461914,4.691438153076172
6008411079841,1.106753333,1,-2.129642376708984,7.167042669677734,4.57771357421875
6008413080518,1.10875401,1,-2.080561242675781,7.071274603271484,4.408922357177734
6008415080206,1.110753698,1,-2.0183119995117185,6.918045697021484,4.299986181640625
6008417079998,1.11275349,1,-2.0781670410156248,6.813897924804687,4.20062681274414
6008419080883,1.114754375,1,-2.096123553466797,6.743268975830078,4.073734124755859
6008421079685,1.116753177,1,-2.0075380920410155,6.7037646484375,3.9647979492187497
6008423080154,1.118753646,1,-2.1595698974609374,6.624755993652343,3.957615344238281
6008425080518,1.12075401,1,-2.2301988464355467,6.5014546081542965,3.7984009338378906
6008427080206,1.122753698,1,-2.175132208251953,6.4284314575195305,3.688267657470703
6008429080310,1.124753802,1,-2.1691467041015624,6.337451794433593,3.4859576171874997
6008431079477,1.126752969,1,-2.2661118713378903,6.349422802734375,3.4907460205078125
6008433080466,1.128753958,1,-2.057816326904297,6.296750366210937,3.4332851806640625
6008435080050,1.130753542,1,-2.0973206542968748,6.294356164550781,3.459621398925781
6008437080779,1.132754271,1,-2.0183119995117185,6.362590911865234,3.4584242980957027
6008439079841,1.134753333,1,-1.9943699829101562,6.341043096923828,3.4201170715332028
6008441081039,1.136754531,1,-2.1248539733886718,6.410474945068359,3.527856146240234
6008443079633,1.138753125,1,-1.9213468322753906,6.495469104003906,3.649960430908203
6008445080570,1.140754062,1,-1.9656395629882812,6.544550238037109,3.73495458984375
6008447079893,1.142753385,1,-1.935712042236328,6.660669018554687,3.785232824707031
6008449080935,1.144754427,1,-1.964442462158203,6.691793640136718,3.9923312683105467
6008451080258,1.14675375,1,-1.9141642272949217,6.87614716796875,4.019864587402344
6008453081039,1.148754531,1,-2.118868469238281,7.0078282592773435,4.13718046875
6008455080258,1.15075375,1,-1.916558428955078,7.129932543945312,4.310760089111328
6008457080831,1.152754323,1,-1.924938134765625,7.231686114501953,4.542997650146484
6008459078279,1.154751771,1,-1.8435352783203125,7.317877374267578,4.589684582519531
6008461080779,1.156754271,1,-1.8926164123535154,7.4603323730468745,4.6818613464355465
6008463080518,1.15875401,1,-1.8028338500976562,7.597998968505859,4.7584757995605464
6008465079685,1.160753177,1,-1.600523809814453,7.659051110839843,4.835090252685546
6008467080466,1.162753958,1,-1.6472107421875,7.765593084716796,5.040991595458984
6008469081091,1.164754583,1,-1.5191209533691405,7.8924857727050775,5.108029241943359
6008471080414,1.166753906,1,-1.4796166259765624,7.867346655273437,5.1511248718261715
6008473080935,1.168754427,1,-1.3838485595703125,7.8721350585937495,5.260061047363281
6008475080206,1.170753698,1,-1.6519991455078125,7.8529814453124995,5.285200164794921
6008477080883,1.172754375,1,-1.4820108276367188,7.8709379577636716,5.227739324951171
6008479080310,1.174753802,1,-1.236605157470703,7.80150610961914,5.146336468505859
6008481080623,1.176754115,1,-1.2330138549804688,7.692569934082031,5.035006091308594
6008483081300,1.178754792,1,-1.102529864501953,7.6231380859375,4.915296008300781
6008485080206,1.180753698,1,-1.054645831298828,7.48906279296875,4.910507604980468
6008487079581,1.182753073,1,-0.814028564453125,7.326257080078125,4.723759875488281
6008489080935,1.184754427,1,-0.8595183959960937,7.206546997070312,4.42448466796875
6008491080935,1.186754427,1,-0.6703764648437499,7.107187628173827,4.274847064208984
6008493080623,1.188754115,1,-0.6847416748046875,7.013813763427734,4.053383410644531
6008495080883,1.190754375,1,-0.6177040283203125,6.8031240173339835,3.746925598144531
6008497081143,1.192754635,1,-0.6847416748046875,6.694187841796874,3.5326445495605467
6008499080466,1.194753958,1,-0.6703764648437499,6.592434271240234,3.385401147460937
6008501080154,1.196753646,1,-0.6631938598632812,6.477512591552734,3.2309751403808593
6008503080154,1.198753646,1,-0.6847416748046875,6.386532928466797,3.0741549316406247
6008505081195,1.200754687,1,-0.6296750366210937,6.321889483642578,2.8526912780761715
6008507081143,1.202754635,1,-0.7398083129882812,6.198588098144531,2.7162217834472653
6008509079477,1.204752969,1,-0.5434837768554687,6.175843182373047,2.664746447753906
6008511080310,1.206753802,1,-0.5063736511230469,6.11598814086914,2.5378537597656248
6008513080206,1.208753698,1,-0.6069301208496093,6.1088055358886715,2.473210314941406
6008515080675,1.210754167,1,-0.3363853332519531,6.120776544189453,2.464830609130859
6008517080570,1.212754062,1,-0.41898529052734373,6.1842228881835934,2.558204473876953
6008519080518,1.21475401,1,-0.2980781066894531,6.180631585693359,2.536656658935547
6008521085935,1.216759427,1,-0.29927520751953124,6.199785198974609,2.483984222412109
6008523081404,1.218754896,1,-0.20231004028320312,6.1830257873535155,2.6623522460937497
6008525080675,1.220754167,1,-0.36631285400390623,6.148309863281249,2.7257985900878903
6008527081091,1.222754583,1,-0.3854664672851562,6.118382342529297,2.8383260681152342
6008529079268,1.22475276,1,-0.39145197143554683,6.150704064941406,2.906560815429687
6008531080518,1.22675401,1,-0.3112462158203125,6.141127258300781,3.0142998901367184
6008533080727,1.228754219,1,-0.47285482788085936,6.161477972412109,3.047818713378906
6008535079841,1.230753333,1,-0.5901707092285156,6.142324359130859,3.2549171569824216
6008537081143,1.232754635,1,-0.6117185241699218,6.156689569091797,3.391386651611328
6008539080466,1.234753958,1,-0.6524199523925781,6.266822845458984,3.4572271972656248
6008541081300,1.236754792,1,-0.6057330200195312,6.287173559570312,3.427299676513672
6008543080206,1.238753698,1,-0.5722141967773438,6.281188055419921,3.4907460205078125
6008545080466,1.240753958,1,-0.4955997436523437,6.212953308105468,3.4644098022460934
6008547079633,1.242753125,1,-0.40462008056640625,6.25006343383789,3.5482068603515624
6008549080987,1.244754479,1,-0.34237083740234375,6.1447185607910155,3.5577836669921874
6008551079008,1.2467525,1,-0.3028665100097656,6.117185241699218,3.5027170288085934
6008553080883,1.248754375,1,-0.2980781066894531,6.087257720947266,3.451241693115234
6008555080154,1.250753646,1,-0.10893617553710937,6.041767889404296,3.287238879394531
6008557080727,1.252754219,1,-0.16280571289062498,5.992686755371094,3.116053460693359
6008559080518,1.25475401,1,-0.15083470458984374,5.971138940429687,3.037044805908203
6008561080831,1.256754323,1,-0.21787235107421873,5.979518646240234,2.91134921875
6008563080310,1.258753802,1,-0.22026655273437498,5.908889697265625,2.8203695556640622
6008565081195,1.260754687,1,-0.31483751831054685,5.843049151611328,2.749740606689453
6008567080518,1.26275401,1,-0.29089550170898437,5.79037671508789,2.6587609436035153
6008569081352,1.264754844,1,-0.30406361083984373,5.72693037109375,2.608482708740234
6008571080675,1.266754167,1,-0.2861070983886719,5.628768103027343,2.503137835693359
6008573079789,1.268753281,1,-0.2693476867675781,5.6215854980468745,2.4109610717773435
6008575080466,1.270753958,1,-0.17118541870117188,5.553350750732421,2.2685060729980466
6008577080831,1.272754323,1,-0.22266075439453123,5.585672473144531,2.291250988769531
6008579079581,1.274753073,1,-0.19512743530273435,5.578489868164062,2.2086510314941403
6008581080154,1.276753646,1,-0.105344873046875,5.634753607177734,2.059013427734375
6008583079998,1.27875349,1,-0.06464344482421874,5.6754550354003905,2.009932293701172
6008585080779,1.280754271,1,-0.11731588134765625,5.649118817138672,1.9297265380859374
6008587080414,1.282753906,1,-0.10295067138671875,5.552153649902343,1.9536685546875
6008589081039,1.284754531,1,-0.17597382202148437,5.5090580200195305,1.9021932189941406
6008591080675,1.286754167,1,-0.2214636535644531,5.515043524169921,1.8519149841308593
6008593081143,1.288754635,1,-0.24660277099609373,5.505466717529297,1.715445489501953
6008595080154,1.290753646,1,-0.3076549133300781,5.4887073059082025,1.638831036376953
6008597081456,1.292754948,1,-0.1867477294921875,5.550956549072265,1.687912170410156
6008599080779,1.294754271,1,-0.6117185241699218,5.568913061523437,1.8052280517578123
6008601081039,1.296754531,1,0.11372457885742186,5.318718988037109,1.8064251525878905
6008603080570,1.298754062,1,-0.8547299926757812,5.325901593017578,2.3163901062011716
6008605081508,1.300755,1,-0.38187516479492184,5.448005877685547,2.1535843933105467
6008607080206,1.302753698,1,-0.2214636535644531,5.659892724609374,2.1811177124023438
6008609081039,1.304754531,1,-0.3938461730957031,5.810727429199218,2.35589443359375
6008611079737,1.306753229,1,-0.55545478515625,5.774814404296874,2.6001030029296874
6008613081508,1.308755,1,-0.6248866333007812,5.773617303466796,2.8622680847167965
6008615080675,1.310754167,1,-0.7003039855957031,5.761646295166015,3.066972326660156
6008617080623,1.312754115,1,-0.7505822204589844,5.737704278564453,3.2357635437011716
6008619079737,1.314753229,1,-0.8750807067871094,5.702988354492187,3.3686417358398435
6008621080570,1.316754062,1,-1.0989385620117187,5.659892724609374,3.4907460205078125
6008623079685,1.318753177,1,-1.1923124267578125,5.6586956237792965,3.6355952209472653
6008625080883,1.320754375,1,-1.523909356689453,5.853823059082031,3.906140008544922
6008627080102,1.322753594,1,-1.4628572143554686,6.0716954101562495,3.9240965209960934
6008629080675,1.324754167,1,-1.5921441040039062,6.3709706176757805,4.16231958618164
6008631079633,1.326753125,1,-1.5693991882324219,6.587645867919922,4.3059716857910155
6008633081664,1.328755156,1,-1.341950030517578,6.776787799072265,4.407725256347656
6008635080831,1.330754323,1,-1.1923124267578125,6.924031201171875,4.622006304931641
6008637079685,1.332753177,1,-1.061828436279297,7.078457208251953,4.764461303710937
6008639079945,1.334753437,1,-0.9876081848144531,7.167042669677734,4.914098907470703
6008641080675,1.336754167,1,-0.9313444458007812,7.230489013671875,5.009866973876953
6008643079945,1.338753437,1,-1.0271125122070313,7.325059979248047,5.068524914550781
6008645080102,1.340753594,1,-1.1264718811035155,7.345410693359375,5.21576831665039
6008647080518,1.34275401,1,-1.2641384765625,7.350199096679687,5.2444987365722655
6008649080518,1.34475401,1,-1.3922282653808593,7.343016491699219,5.218162518310547
6008651080258,1.34675375,1,-1.5382745666503905,7.350199096679687,5.295974072265625
6008653080206,1.348753698,1,-1.5873557006835937,7.382520819091797,5.321113189697265
6008655080258,1.35075375,1,-1.6172832214355468,7.349001995849609,5.2828059631347655
6008657080727,1.352754219,1,-1.6615759521484375,7.333439685058593,5.347449407958984
6008659078695,1.354752187,1,-1.5598223815917969,7.351396197509765,5.373785626220703
6008661080831,1.356754323,1,-1.533486163330078,7.321468676757812,5.384559533691406
6008663079945,1.358753437,1,-1.5346832641601562,7.311891870117187,5.2816088623046875
6008665080310,1.360753802,1,-1.5610194824218748,7.314286071777343,5.359420416259765
6008667080622,1.362754114,1,-1.6448165405273436,7.283161450195312,5.374982727050781
6008669080414,1.364753906,1,-1.5897499023437498,7.252036828613281,5.327098693847656
6008671080362,1.366753854,1,-1.6148890197753905,7.193378887939453,5.360617517089843
6008673079581,1.368753073,1,-1.7310078002929687,7.186196282958984,5.432443566894531
6008675080102,1.370753594,1,-1.6831237670898436,7.165845568847656,5.461173986816406
6008677080310,1.372753802,1,-1.629254229736328,7.151480358886718,5.422866760253906
6008679080987,1.374754479,1,-1.6795324645996093,7.122749938964843,5.479130499267578
6008681079841,1.376753333,1,-1.7357962036132812,7.133523846435547,5.567715960693359
6008683079685,1.378753177,1,-1.695094775390625,7.151480358886718,5.6012347839355465
6008685079945,1.380753437,1,-1.70467158203125,7.180210778808593,5.561730456542969
6008687079893,1.382753385,1,-1.7262193969726563,7.252036828613281,5.705382556152343
6008689080570,1.384754062,1,-1.6627730529785156,7.180210778808593,5.855020159912109
6008691080154,1.386753646,1,-1.696291876220703,7.236474517822265,5.856217260742187
6008693080466,1.388753958,1,-1.5275006591796874,7.350199096679687,5.776011505126953
6008695080831,1.390754323,1,-1.590947003173828,7.505822204589843,5.787982513427734
6008697080779,1.392754271,1,-1.5933412048339843,7.493851196289062,5.816712933349609
6008699080310,1.394753802,1,-1.5765817932128905,7.444770062255859,5.849034655761718
6008701081456,1.396754948,1,-1.6795324645996093,7.369352709960937,5.950788226318359
6008703079841,1.398753333,1,-1.7082628845214842,7.281964349365234,5.987898352050781
6008705081091,1.400754583,1,-1.7381904052734374,7.335833886718749,6.155492468261718
6008707080779,1.402754271,1,-1.8076222534179687,7.451952667236328,6.175843182373047
6008709079893,1.404753385,1,-1.8136077575683593,7.526172918701171,6.305130072021484
6008711079945,1.406753437,1,-1.8423381774902343,7.66743081665039,6.5218053222656245
6008713084841,1.408758333,1,-1.7489643127441405,7.8158713195800775,6.697779144287109
6008715082654,1.410756146,1,-1.7118541870117185,7.887697369384765,6.849810949707031
6008717080675,1.412754167,1,-1.62805712890625,7.9667060241699215,7.018602166748046
6008719080466,1.414753958,1,-1.5777788940429687,8.097190014648437,7.242460021972656
6008721080675,1.416754167,1,-1.5885528015136718,8.225279803466796,7.389703424072265
6008723079372,1.418752864,1,-1.5310919616699217,8.310273962402343,7.509413507080078
6008725080727,1.420754219,1,-1.6555904479980468,8.36294639892578,7.625532287597656
6008727079893,1.422753385,1,-1.848323681640625,8.384494213867187,7.809885815429687
6008729081039,1.424754531,1,-1.8171990600585937,8.392873919677735,7.951143713378905
6008731080362,1.426753854,1,-2.019509100341797,8.429984045410155,8.043320477294921
6008733079685,1.428753177,1,-2.146401788330078,8.447940557861328,8.151059552001952
6008735079685,1.430753177,1,-2.2780828796386716,8.474276776123046,8.20373198852539
6008737080362,1.432753854,1,-2.519897247314453,8.474276776123046,8.378508709716796
6008739080883,1.434754375,1,-2.7042507751464844,8.45991156616211,8.493430389404296
6008741080675,1.436754167,1,-2.913743420410156,8.391676818847655,8.627505682373046
6008743080518,1.43875401,1,-3.0645781249999997,8.349778289794921,8.711302740478516
6008745079529,1.440753021,1,-3.0693665283203124,8.254010223388672,8.730456353759765
6008747079945,1.442753437,1,-3.096899847412109,8.26837543334961,8.840589630126953
6008749080154,1.444753646,1,-2.9759926635742184,8.252813122558594,8.895656268310546
6008751079529,1.446753021,1,-2.953247747802734,8.275558038330077,8.996212738037109
6008753080310,1.448753802,1,-2.89219560546875,8.273163836669921,9.026140258789061
6008755079164,1.450752656,1,-2.881421697998047,8.194155181884765,9.081206896972656
6008757080050,1.452753542,1,-2.987963671875,8.240842114257813,8.978256225585938
6008759079893,1.454753385,1,-2.8993782104492185,8.155847955322265,8.975862023925782
6008761080935,1.456754427,1,-2.9077579162597655,8.013392956542969,8.926780889892578
6008763080102,1.458753594,1,-2.9460651428222655,7.926004595947266,8.839392529296875
6008765080622,1.460754114,1,-2.8526912780761715,7.824251025390624,8.75918677368164
6008767079060,1.462752552,1,-2.797624639892578,7.729680059814453,8.623914379882812
6008769080154,1.464753646,1,-2.7234043884277344,7.605181573486328,8.321047869873047
6008771080258,1.46675375,1,-2.6599580444335937,7.42441934814453,8.099584216308592
6008773079841,1.468753333,1,-2.5809493896484375,7.275978845214843,7.91642778930664
6008775080414,1.470753906,1,-2.472013214111328,7.1407064514160155,7.602787371826172
6008777080779,1.472754271,1,-2.5713725830078125,7.071274603271484,7.271190441894531
6008779080154,1.474753646,1,-2.574963885498047,6.980294940185546,7.066486199951171
6008781080675,1.476754167,1,-2.6204537170410154,6.797138513183594,6.754042883300781
6008783080414,1.478753906,1,-2.7437551025390623,6.648698010253906,6.5014546081542965
6008785080414,1.480753906,1,-2.835931866455078,6.573280657958984,6.242880828857421
6008787080831,1.482754323,1,-2.9041666137695312,6.4356140625,6.059724401855468
6008789078956,1.484752448,1,-2.935291235351562,6.325480786132812,5.786785412597656
6008791079789,1.486753281,1,-2.9604303527832028,6.265625744628906,5.680243438720702
6008793081404,1.488754896,1,-2.893392706298828,6.259640240478515,5.614402893066406
6008795080466,1.490753958,1,-2.8467057739257813,6.281188055419921,5.480327600097656
6008797080154,1.492753646,1,-2.741360900878906,6.293159063720703,5.391742138671875
6008799080414,1.494753906,1,-2.6384102294921874,6.329072088623047,5.394136340332031
6008801080518,1.49675401,1,-2.5342624572753905,6.448782171630859,5.416881256103515
6008803080831,1.498754323,1,-2.35589443359375,6.6151791870117185,5.377376928710937
6008805080727,1.500754219,1,-2.2445640563964844,6.657077716064452,5.578489868164062
6008807080727,1.502754219,1,-2.1811177124023438,6.738480572509765,5.679046337890624
6008809080727,1.504754219,1,-2.069787335205078,6.853402252197265,5.72693037109375
6008811079997,1.506753489,1,-2.0542250244140625,6.886921075439453,5.951985327148437
6008813079893,1.508753385,1,-1.9907786804199217,6.9336080078124995,6.101622930908203
6008815081300,1.510754792,1,-1.9297265380859374,6.909665991210937,6.321889483642578
6008817080102,1.512753594,1,-1.8722656982421875,6.928819604492187,6.4272343566894525
6008819079841,1.514753333,1,-1.820790362548828,6.906074688720703,6.551732843017578
6008821081091,1.516754583,1,-1.7226280944824217,7.032967376708984,6.737283471679687
6008823080258,1.51875375,1,-1.7178396911621092,7.042544183349609,6.831854437255859
6008825080727,1.520754219,1,-1.6747440612792968,7.0449383850097655,6.9336080078124995
6008827079581,1.522753073,1,-1.7082628845214842,7.108384729003906,7.077260107421875
6008829080622,1.524754114,1,-1.7190367919921874,7.088034014892577,7.088034014892577
6008831078852,1.526752344,1,-1.7764976318359373,7.074865905761718,7.157465863037109
6008833080779,1.528754271,1,-1.8459294799804686,7.03536157836914,7.220912207031249
6008835080050,1.530753542,1,-1.889025109863281,7.038952880859375,7.214926702880859
6008837081143,1.532754635,1,-1.9416975463867185,6.97790073852539,7.194575988769531
6008839080727,1.534754219,1,-2.001552587890625,6.8773442687988275,7.143100653076171
6008841080570,1.536754062,1,-2.1212626708984375,6.831854437255859,7.147889056396484
6008843080570,1.538754062,1,-2.1871032165527344,6.76721099243164,7.109581829833984
6008845080831,1.540754323,1,-2.166752502441406,6.769605194091796,7.0461354858398435
6008847080049,1.542753541,1,-2.1930887207031247,6.751648681640624,6.988674645996094
6008849080466,1.544753958,1,-2.214636535644531,6.7277066650390625,6.93959351196289
6008851080831,1.546754323,1,-2.3786393493652342,6.757634185791015,6.931213806152344
6008853079737,1.548753229,1,-2.3546973327636715,6.725312463378906,6.822277630615234
6008855080258,1.55075375,1,-2.404975567626953,6.692990740966796,6.770802294921874
6008857080258,1.55275375,1,-2.407369769287109,6.763619689941406,6.702567547607422
6008859080206,1.554753698,1,-2.5139117431640625,6.696582043457031,6.697779144287109
6008861080727,1.556754219,1,-2.626439221191406,6.696582043457031,6.562506750488281
6008863080049,1.558753541,1,-2.6886884643554687,6.6702458251953125,6.647500909423828
6008865080102,1.560753594,1,-2.7581203125,6.599616876220702,6.580463262939452
6008867079581,1.562753073,1,-2.876633294677734,6.661866119384765,6.517016918945312
6008869080310,1.564753802,1,-2.9281086303710935,6.7277066650390625,6.373364819335937
6008871079893,1.566753385,1,-3.009511486816406,6.771999395751953,6.297947467041015
6008873082289,1.568755781,1,-3.0837317382812497,6.82467183227539,6.300341668701171
6008875079685,1.570753177,1,-3.0897172424316404,6.822277630615234,6.110002636718749
6008877080310,1.572753802,1,-3.1196447631835937,6.8569935546875,6.045359191894531
6008879079945,1.574753437,1,-3.1112650573730467,6.8785413696289055,5.900509991455078
6008881080883,1.576754375,1,-3.1352070739746094,6.92043989868164,5.764040496826172
6008883079685,1.578753177,1,-3.2237925354003902,6.924031201171875,5.6574985229492185
6008885079737,1.580753229,1,-3.19865341796875,6.892906579589844,5.493495709228515
6008887079997,1.582753489,1,-3.1112650573730467,6.932410906982422,5.266046551513671
6008889078591,1.584752083,1,-3.2920272827148436,6.872555865478515,5.17746109008789
6008891077602,1.586751094,1,-3.2309751403808593,6.888118176269531,5.046977099609375
6008893080674,1.588754166,1,-3.276464971923828,6.886921075439453,4.875791680908203
6008895080258,1.59075375,1,-3.143586779785156,6.874950067138672,4.857835168457031
6008897079477,1.592752969,1,-3.0729578308105467,6.919242797851562,4.724956976318359
6008899079893,1.594753385,1,-2.9975404785156248,6.949170318603516,4.568136767578125
6008901080362,1.596753854,1,-2.849099975585937,6.963535528564453,4.611232397460937
6008903079477,1.598752969,1,-2.788047833251953,6.992265948486327,4.521449835205078
6008905080674,1.600754166,1,-2.6874913635253903,6.965929730224609,4.564545465087891
6008907084945,1.602758437,1,-2.5330653564453125,7.000645654296875,4.554968658447265
6008909082549,1.604756041,1,-2.47081611328125,7.013813763427734,4.546588952636719
6008911080362,1.606753854,1,-2.35589443359375,7.0449383850097655,4.638765716552734
6008913080727,1.608754219,1,-2.269703173828125,7.07366880493164,4.638765716552734
6008915080466,1.610753958,1,-2.157175695800781,7.056909393310547,4.806359832763672
6008917081143,1.612754635,1,-2.139219183349609,7.024587670898437,4.8123453369140625
6008919079841,1.614753333,1,-2.0925322509765625,7.038952880859375,4.934449621582031
6008921080570,1.616754062,1,-1.8770541015625,7.0832456115722655,5.1343654602050774
6008923080466,1.618753958,1,-1.8734627990722654,7.059303594970703,5.242104534912109
6008925080414,1.620753906,1,-1.7800889343261719,7.056909393310547,5.297171173095703
6008927079997,1.622753489,1,-1.66636435546875,7.048529687499999,5.359420416259765
6008929080987,1.624754479,1,-1.5155296508789062,7.05451519165039,5.518634826660156
6008931080414,1.626753906,1,-1.4209586853027343,7.048529687499999,5.685031842041015
6008933080102,1.628753594,1,-1.2485761657714842,7.017405065917968,5.719747766113281
6008935079841,1.630753333,1,-1.0797849487304687,7.024587670898437,5.947196923828125
6008937080206,1.632753698,1,-0.9708487731933593,6.965929730224609,5.950788226318359
6008939079008,1.6347525,1,-0.7841010437011718,6.924031201171875,6.060921502685546
6008941081404,1.636754896,1,-0.6284779357910156,6.8569935546875,6.0896519226074215
6008943080154,1.638753646,1,-0.5195417602539062,6.834248638916015,6.216544610595703
6008945081977,1.640755469,1,-0.430956298828125,6.770802294921874,6.241683728027343
6008947081143,1.642754635,1,-0.3651157531738281,6.707355950927734,6.210559106445312
6008949081664,1.644755156,1,-0.31962592163085934,6.629544396972656,6.270414147949219
6008951080049,1.646753541,1,-0.2813186950683594,6.5948284729003905,6.139930157470703
6008953078227,1.648751719,1,-0.2932897033691406,6.509834313964843,6.102820031738281
6008955078018,1.65075151,1,-0.2501940734863281,6.36498511352539,6.092046124267577
6008957081820,1.652755312,1,-0.3076549133300781,6.319495281982421,5.942408520507812
6008959081091,1.654754583,1,-0.30406361083984373,6.26921704711914,5.84185205078125
6008961079529,1.656753021,1,-0.39264907226562495,6.218938812255859,5.787982513427734
6008963079737,1.658753229,1,-0.47165772705078124,6.227318518066406,5.764040496826172
6008965080622,1.660754114,1,-0.3950432739257812,6.271611248779297,5.5820811706542965
6008967080727,1.662754219,1,-0.5339069702148437,6.299144567871093,5.433640667724609
6008969080935,1.664754427,1,-0.5099649536132812,6.323086584472656,5.475539196777343
6008971080883,1.666754375,1,-0.5518634826660156,6.42244595336914,5.463568188476562
6008973081404,1.668754896,1,-0.6500257507324219,6.518214019775391,5.351040710449219
6008975080258,1.67075375,1,-0.6811503723144531,6.618770489501952,5.386953735351562
6008977080570,1.672754062,1,-0.74699091796875,6.811503723144531,5.318718988037109
6008979080674,1.674754166,1,-0.8918401184082031,6.874950067138672,5.2828059631347655
6008981081039,1.676754531,1,-1.0462661254882812,7.006631158447266,5.258863946533203
6008983079216,1.678752708,1,-1.2210428466796874,7.138312249755859,5.321113189697265
6008985081299,1.680754791,1,-1.4149731811523436,7.254431030273437,5.336675500488281
6008987080049,1.682753541,1,-1.5502455749511719,7.3669585083007805,5.464765289306641
6008989080622,1.684754114,1,-1.7226280944824217,7.4591352722167965,5.4779333984375
6008991079997,1.686753489,1,-1.7585411193847655,7.6614453125,5.5832782714843745
6008993080831,1.688754323,1,-1.887828009033203,7.769184387207031,5.66946953125
6008995080049,1.690753541,1,-1.944091748046875,7.9092451843261715,5.749675286865234
6008997080570,1.692754062,1,-1.954865655517578,8.026561065673828,5.779602807617187
6008999079841,1.694753333,1,-2.003946789550781,8.13310303955078,5.843049151611328
6009001080674,1.696754166,1,-2.003946789550781,8.221688500976562,5.762843395996094
6009003080049,1.698753541,1,-2.002749688720703,8.300697155761718,5.697002850341796
6009005078695,1.700752187,1,-2.337937921142578,8.367734802246094,5.966350537109375
6009007080102,1.702753594,1,-2.3355437194824216,8.316259466552735,5.878962176513672
6009009080727,1.704754219,1,-2.445676995849609,8.39526812133789,5.744886883544922
6009011080466,1.706753958,1,-2.518700146484375,8.366537701416014,5.761646295166015
6009013080570,1.708754062,1,-2.729389892578125,8.380902911376953,5.811924530029296
6009015080362,1.710753854,1,-2.7545290100097652,8.29950005493164,5.7700260009765625
6009017081404,1.712754896,1,-2.8227637573242186,8.295908752441406,5.742492681884765
6009019079997,1.714753489,1,-2.7473464050292966,8.220491400146484,5.740098480224609
6009021080779,1.716754271,1,-2.874239093017578,8.214505895996094,5.682637640380859
6009023080570,1.718754062,1,-2.8467057739257813,8.148665350341796,5.724536169433593
6009025080935,1.720754427,1,-2.916137622070312,8.119934930419921,5.604826086425781
6009027080154,1.722753646,1,-2.9975404785156248,8.032546569824218,5.651513018798828
6009029080466,1.724753958,1,-3.114856359863281,7.952340814208984,5.692214447021484
6009031079841,1.726753333,1,-3.0921114440917967,7.917624890136718,5.697002850341796
6009033080414,1.728753906,1,-2.953247747802734,7.93558140258789,5.673060833740234
6009035080258,1.73075375,1,-2.750937707519531,7.924807495117187,5.698199951171874
6009037080674,1.732754166,1,-2.6910826660156246,7.9092451843261715,5.748478186035156
6009039080362,1.734753854,1,-2.6192566162109374,7.824251025390624,5.746083984375
6009041080414,1.736753906,1,-2.5246856506347655,7.7763669921875,5.8262897399902345
6009043080362,1.738753854,1,-2.460042205810547,7.751227874755859,5.687426043701172
6009045080727,1.740754219,1,-2.463633508300781,7.692569934082031,5.747281085205078
6009047080154,1.742753646,1,-2.479195819091797,7.669825018310546,5.725733270263672
6009049081820,1.744755312,1,-2.452859600830078,7.645883001708984,5.625176800537109
6009051081039,1.746754531,1,-2.4971523315429685,7.600393170166015,5.6958057495117185
6009053080883,1.748754375,1,-2.606088507080078,7.472303381347656,5.653907220458984
6009055080154,1.750753646,1,-2.507926239013672,7.392097625732421,5.6586956237792965
6009057080831,1.752754323,1,-2.3044190979003907,7.463923675537109,5.434837768554687
6009059080310,1.754753802,1,-2.147598889160156,7.4591352722167965,5.3570262145996095
6009061080779,1.756754271,1,-2.1152771667480468,7.394491827392578,5.261258148193359
6009063080310,1.758753802,1,-1.9907786804199217,7.283161450195312,5.237316131591797
6009065080779,1.760754271,1,-1.7992425476074219,7.261613635253906,5.1140147460937495
6009067081143,1.762754635,1,-1.7118541870117185,7.242460021972656,5.002684368896484
6009069079945,1.764753437,1,-1.6352397338867186,7.186196282958984,4.994304663085937
6009071080987,1.766754479,1,-1.6747440612792968,7.152677459716797,4.904522100830078
6009073080674,1.768754166,1,-2.068590234375,7.159860064697265,4.8123453369140625
6009075080570,1.770754062,1,-1.1252747802734375,7.055712292480468,4.544194750976562
6009077080935,1.772754427,1,-1.859097589111328,7.085639813232421,4.613626599121093
6009079079633,1.774753125,1,-1.5957354064941405,7.066486199951171,4.505887524414062
6009081080883,1.776754375,1,-1.4927847351074217,7.186196282958984,4.2329485351562495
6009083079997,1.778753489,1,-1.294065997314453,7.202955694580078,4.078522528076172
6009085080726,1.780754218,1,-1.2677297790527342,7.097610821533203,4.029441394042968
6009087080414,1.782753906,1,-1.2832920898437499,6.931213806152344,4.052186309814453
6009089081091,1.784754583,1,-1.284489190673828,6.716932757568359,4.052186309814453
6009091079685,1.786753177,1,-1.303642803955078,6.664260321044922,4.005499377441406
6009093080674,1.788754166,1,-1.2701239807128906,6.60799658203125,3.8379052612304685
6009095080310,1.790753802,1,-1.3275848205566405,6.600813977050781,3.699041564941406
6009097080466,1.792753958,1,-1.2617442749023438,6.551732843017578,3.669114044189453
6009099084945,1.794758437,1,-1.291671795654297,6.500257507324219,3.5482068603515624
6009101082185,1.796755677,1,-1.2389993591308592,6.421248852539062,3.372233038330078
6009103080622,1.798754114,1,-1.2330138549804688,6.406883642578125,3.2740707702636715
6009105080414,1.800753906,1,-1.3551181396484375,6.347028601074219,3.3351229125976563
6009107080414,1.802753906,1,-1.369483349609375,6.277596752929687,3.125630267333984
6009109079945,1.804753437,1,-1.3299790222167969,6.263231542968749,3.0514100158691404
6009111079737,1.806753229,1,-1.3766659545898436,6.190208392333984,2.9759926635742184
6009113079685,1.808753177,1,-1.485602130126953,6.104017132568359,2.835931866455078
6009115080622,1.810754114,1,-1.5346832641601562,6.093243225097656,2.7269956909179687
6009117081820,1.812755312,1,-1.6472107421875,6.114791040039062,2.6683377502441403
6009119080258,1.81475375,1,-1.5275006591796874,6.212953308105468,2.450465399169922
6009121080362,1.816753854,1,-1.6232687255859375,6.289567761230469,2.3834277526855465
6009123080206,1.818753698,1,-1.6232687255859375,6.179434484863281,2.309207501220703
6009125080987,1.820754479,1,-1.8567033874511718,6.104017132568359,2.3546973327636715
6009127079945,1.822753437,1,-1.905784521484375,6.137535955810547,2.3235727111816407
6009129080310,1.824753802,1,-1.9033903198242186,6.216544610595703,2.2266075439453124
6009131080674,1.826754166,1,-1.8567033874511718,6.299144567871093,2.139219183349609
6009133081508,1.828755,1,-1.9105729248046874,6.325480786132812,2.072181536865234
6009135079685,1.830753177,1,-1.9405004455566406,6.3901242309570305,2.086546746826172
6009137080883,1.832754375,1,-1.9668366638183592,6.4356140625,2.2481553588867187
6009139080518,1.83475401,1,-1.9943699829101562,6.524199523925781,2.262520568847656
6009141080258,1.83675375,1,-1.964442462158203,6.643909606933593,2.3259669128417966
6009143080206,1.838753698,1,-1.9105729248046874,6.706158850097656,2.412158172607422
6009145081195,1.840754687,1,-1.8734627990722654,6.7839704040527335,2.5055320373535155
6009147080049,1.842753541,1,-2.1811177124023438,6.866570361328125,2.692279766845703
6009149081456,1.844754948,1,-1.2808978881835937,6.74805737915039,2.7078420776367187
6009151081195,1.846754687,1,-1.9656395629882812,6.788758807373046,2.962824554443359
6009153080779,1.848754271,1,-1.6915034729003906,6.8210805297851556,3.0526071166992184
6009155078904,1.850752396,1,-1.6735469604492186,7.082048510742187,3.0538042175292968
6009157080362,1.852753854,1,-1.448492004394531,7.214926702880859,3.034650604248047
6009159080049,1.854753541,1,-1.380257257080078,7.086836914062499,3.1124621582031247
6009161080726,1.856754218,1,-1.467645617675781,6.986280444335937,3.2800562744140622
6009163079841,1.858753333,1,-1.3215993164062498,6.804321118164062,3.380612744140625
6009165080414,1.860753906,1,-1.3060370056152344,6.700173345947265,3.4644098022460934
6009167079633,1.862753125,1,-1.159990704345703,6.752845782470703,3.4823663146972654
6009169081247,1.864754739,1,-1.149216796875,6.755239984130859,3.373430139160156
6009171079841,1.866753333,1,-1.0199299072265624,6.737283471679687,3.266888165283203
6009173080049,1.868753541,1,-1.01514150390625,6.683413934326172,3.2034418212890623
6009175081560,1.870755052,1,-1.0283096130371092,6.625953094482422,3.199850518798828
6009177080049,1.872753541,1,-0.9193734375,6.499060406494141,3.0430303100585934
6009179080518,1.87475401,1,-0.9313444458007812,6.423643054199219,3.0645781249999997
6009181080726,1.876754218,1,-0.8212111694335937,6.342240197753906,3.068169427490234
6009183079737,1.878753229,1,-0.7685387329101562,6.285976458740234,2.972401361083984
6009185080362,1.880753854,1,-0.737414111328125,6.178237384033203,2.877830395507812
6009187080258,1.88275375,1,-0.5985504150390625,6.072892510986327,2.9508535461425778
6009189080206,1.884753698,1,-0.4752490295410156,5.9974751586914055,2.896984008789062
6009191080206,1.886753698,1,-0.21308394775390624,5.925649108886718,2.85388837890625
6009193080883,1.888754375,1,0.05985504150390625,5.84185205078125,2.740163800048828
6009195080831,1.890754323,1,0.2657563842773437,5.79037671508789,2.6384102294921874
6009197080779,1.892754271,1,0.7266402038574218,5.685031842041015,2.5007436340332028
6009199079320,1.894752812,1,0.4572925170898437,5.6586956237792965,2.4289175842285156
6009201080206,1.896753698,1,1.2234370483398436,5.398924743652343,2.3319524169921872
6009203080101,1.898753593,1,0.4896142395019531,5.367800122070312,2.318784307861328
6009205080987,1.900754479,1,0.8918401184082031,5.382165332031249,2.042254016113281
6009207079789,1.902753281,1,0.8307879760742187,5.36899722290039,1.878251202392578
6009209081768,1.90475526,1,0.6057330200195312,5.316324786376953,1.7010802795410156
6009211079268,1.90675276,1,0.3555389465332031,5.1140147460937495,1.7034744812011717
6009213080570,1.908754062,1,0.2885013000488281,4.920084411621094,1.6208745239257811
6009215079685,1.910753177,1,0.10773907470703124,4.80755693359375,1.6077064147949218
6009217080674,1.912754166,1,-0.0383072265625,4.684255548095702,1.4065934753417968
6009219081456,1.914754948,1,-0.2657563842773437,4.613626599121093,1.3718775512695311
6009221081351,1.916754843,1,-0.5063736511230469,4.5693338684082025,1.408987677001953
6009223079997,1.918753489,1,-0.8200140686035156,4.655525128173828,1.456871710205078
6009225080570,1.920754062,1,-1.0319009155273438,4.875791680908203,1.5454571716308594
6009227080310,1.922753802,1,-1.3072341064453123,5.17746109008789,1.6448165405273436
6009229080101,1.924753593,1,-1.4065934753417968,5.485116003417969,1.9991583862304687
6009231080154,1.926753646,1,-1.4963760375976562,5.875370874023437,2.2385785522460937
6009233079997,1.928753489,1,-1.2689268798828124,6.252457635498047,2.521094348144531
6009235080049,1.930753541,1,-1.3359645263671873,6.606799481201172,2.8526912780761715
6009237080154,1.932753646,1,-1.2820949890136717,6.940790612792968,3.1962592163085937
6009239080622,1.934754114,1,-1.2533645690917967,7.269993341064453,3.465606903076172
6009241081404,1.936754896,1,-1.1719617126464843,7.5345526245117185,3.782838623046875
6009243080726,1.938754218,1,-1.1707646118164061,7.767987286376953,4.017470385742187
6009245081299,1.940754791,1,-1.274912384033203,7.959523419189453,4.235342736816406
6009247080206,1.942753698,1,-1.3718775512695311,8.129511737060547,4.352658618164062
6009249080362,1.944753854,1,-1.4544775085449217,8.33182177734375,4.566939666748047
6009251080414,1.946753906,1,-1.5155296508789062,8.470685473632813,4.671087438964843
6009253080466,1.948753958,1,-1.70467158203125,8.549694128417968,4.799177227783203
6009255080049,1.950753541,1,-1.7501614135742187,8.626308581542968,4.759672900390624
6009257080049,1.952753541,1,-1.7980454467773437,8.667010009765624,4.783614916992187
6009259079633,1.954753125,1,-1.8626888916015625,8.652644799804687,4.8326960510253905
6009261081404,1.956754896,1,-1.8363526733398436,8.700528833007812,4.781220715332031
6009263079685,1.958753177,1,-1.897404815673828,8.692149127197265,4.771643908691406
6009265081404,1.960754896,1,-1.7561469177246092,8.672995513916016,4.732139581298828
6009267080414,1.962753906,1,-1.772906329345703,8.595183959960938,4.604049792480469
6009269081143,1.964754635,1,-1.7310078002929687,8.536526019287109,4.653130926513672
6009271080362,1.966753854,1,-1.744175909423828,8.443152154541016,4.657919329833984
6009273081143,1.968754635,1,-1.8375497741699218,8.295908752441406,4.667496136474609
6009275080310,1.970753802,1,-1.9069816223144531,8.206126190185547,4.7369279846191406
6009277080101,1.972753593,1,-2.023100402832031,8.084021905517577,4.742913488769531
6009279080414,1.974753906,1,-2.094926452636719,8.010998754882811,4.896142395019531
6009281080310,1.976753802,1,-2.104503259277344,7.943961108398437,4.981136553955078
6009283079997,1.978753489,1,-2.0159177978515626,7.914033587646484,5.108029241943359
6009285079164,1.980752656,1,-1.878251202392578,7.850587243652344,5.201403106689453
6009287079633,1.982753125,1,-1.898601916503906,7.89727417602539,5.351040710449219
6009289080414,1.984753906,1,-1.8291700683593748,7.845798840332031,5.439626171875
6009291083539,1.986757031,1,-1.7226280944824217,7.837419134521484,5.555744952392578
6009293082601,1.988756093,1,-1.7465701110839842,7.861361151123046,5.659892724609374
6009295080049,1.990753541,1,-1.7872715393066405,7.8541785461425775,5.807136126708984
6009297080622,1.992754114,1,-1.915361328125,7.7979148071289055,5.966350537109375
6009299079945,1.994753437,1,-1.8698714965820311,7.802703210449218,6.03937368774414
6009301080310,1.996753802,1,-1.859097589111328,7.803900311279296,6.0704983093261715
6009303080362,1.998753854,1,-1.8124106567382812,7.843404638671874,6.074089611816406
6009305081091,2.000754583,1,-1.6998831787109374,7.874529260253905,6.113593939208984
6009307078799,2.002752291,1,-1.7561469177246092,7.939172705078125,6.143521459960938
6009309081091,2.004754583,1,-1.7573440185546874,7.888894470214844,6.168660577392577
6009311078435,2.006751927,1,-1.9213468322753906,7.900865478515625,6.149506964111327
6009313080831,2.008754323,1,-2.0542250244140625,7.85896694946289,6.143521459960938
6009315079737,2.010753229,1,-2.1799206115722654,7.906850982666016,6.076483813476562
6009317080414,2.012753906,1,-2.318784307861328,7.951143713378905,5.983109948730468
6009319079841,2.014753333,1,-2.567781280517578,7.995436444091796,5.94360562133789
6009321080310,2.016753802,1,-2.6862942626953124,7.990648040771484,5.974730242919922
6009323079581,2.018753073,1,-2.770091320800781,8.060079888916015,5.917269403076172
6009325080258,2.02075375,1,-2.625242120361328,8.137891442871092,5.851428857421874
6009327080049,2.022753541,1,-2.7246014892578123,8.232462408447265,5.865794067382812
6009329080310,2.024753802,1,-2.4971523315429685,8.252813122558594,5.887341882324218
6009331080883,2.026754375,1,-2.4911668273925778,8.283937744140625,5.900509991455078
6009333081039,2.028754531,1,-2.39420166015625,8.35696089477539,5.883750579833984
6009335079945,2.030753437,1,-2.3906103576660156,8.391676818847655,5.932831713867187
6009337081403,2.032754895,1,-2.3977929626464842,8.400056524658202,5.88614478149414
6009339079581,2.034753073,1,-2.422932080078125,8.426392742919921,5.923254907226562
6009341080778,2.03675427,1,-2.424129180908203,8.403647827148436,5.916072302246094
6009343079945,2.038753437,1,-2.376245147705078,8.322244970703125,5.86699116821289
6009345081195,2.040754687,1,-2.203862628173828,8.283937744140625,5.834669445800781
6009347080674,2.042754166,1,-2.0649989318847655,8.220491400146484,5.799953521728515
6009349079893,2.044753385,1,-1.927332336425781,8.14028564453125,5.783194110107422
6009351080258,2.04675375,1,-1.7956512451171873,8.03134946899414,5.734112976074218
6009353080883,2.048754375,1,-1.637633935546875,7.97388862915039,5.589263775634765
6009355080101,2.050753593,1,-1.5705962890624998,7.803900311279296,5.586869573974609
6009357080153,2.052753645,1,-1.476025323486328,7.6470801025390625,5.452794281005859
6009359084424,2.054757916,1,-1.3431471313476562,7.466317877197265,5.364208819580078
6009361080674,2.056754166,1,-1.3467384338378905,7.271190441894531,5.379771130371093
6009363080206,2.058753698,1,-1.1552023010253905,7.053318090820312,5.2253451232910155
6009365080362,2.060753854,1,-1.054645831298828,7.017405065917968,5.110423443603516
6009367080101,2.062753593,1,-0.9612719665527343,6.937199310302734,4.905719201660156
6009369078331,2.064751823,1,-0.8319850769042968,6.851008050537109,4.783614916992187
6009371077237,2.066750729,1,-0.6787561706542968,6.657077716064452,4.653130926513672
6009373081195,2.068754687,1,-0.5602431884765625,6.574477758789062,4.657919329833984
6009375080935,2.070754427,1,-0.49679684448242184,6.445190869140625,4.531026641845703
6009377081195,2.072754687,1,-0.4740519287109375,6.299144567871093,4.525041137695312
6009379080310,2.074753802,1,-0.430956298828125,6.2213330139160155,4.514267230224609
6009381080935,2.076754427,1,-0.4465186096191406,6.208164904785156,4.516661431884765
6009383080101,2.078753593,1,-0.5458779785156249,6.179434484863281,4.661510632324219
6009385080414,2.080753906,1,-0.6332663391113281,6.217741711425781,4.6351744140625
6009387079841,2.082753333,1,-0.5027823486328125,6.2201359130859375,4.801571429443359
6009389081143,2.084754635,1,-0.45010991210937495,6.242880828857421,4.911704705810546
6009391080726,2.086754218,1,-0.4213794921875,6.259640240478515,5.074510418701172
6009393080206,2.088753698,1,-0.31004911499023435,6.263231542968749,5.204994409179688
6009395080466,2.090753958,1,-0.3064578125,6.311115576171875,5.305550878906249
6009397080518,2.09275401,1,-0.3806780639648437,6.338648895263671,5.436034869384765
6009399080101,2.094753593,1,-0.5458779785156249,6.348225701904297,5.462371087646484
6009401078435,2.096751927,1,-0.7984662536621093,6.4284314575195305,5.610811590576172
6009403077497,2.098750989,1,-1.0330980163574217,6.4643444824218745,5.519831927490234
6009405081456,2.100754948,1,-1.3575123413085937,6.457161877441406,5.614402893066406
6009407080466,2.102753958,1,-1.686715069580078,6.528987927246093,5.665878228759765
6009409080414,2.104753906,1,-1.9704279663085937,6.5756748596191406,5.704185455322265
6009411080570,2.106754062,1,-2.291250988769531,6.70975015258789,5.776011505126953
6009413081820,2.108755312,1,-2.5761609863281247,6.794744311523437,5.884947680664062
6009415080778,2.11075427,1,-2.806004345703125,6.918045697021484,6.072892510986327
6009417080570,2.112754062,1,-2.9855694702148434,7.07366880493164,6.204573602294921
6009419079997,2.114753489,1,-3.210624426269531,7.274781744384765,6.348225701904297
6009421080518,2.11675401,1,-3.421314172363281,7.491456994628906,6.5385647338867185
6009423080101,2.118753593,1,-3.6008792968749996,7.6614453125,6.695384942626953
6009425079945,2.120753437,1,-3.7924154296875,7.8362220336914055,6.88213267211914
6009427080414,2.122753906,1,-3.9647979492187497,8.001421948242188,6.987477545166016
6009429081403,2.124754895,1,-4.019864587402344,8.124723333740233,7.200561492919921
6009431080622,2.126754114,1,-4.134786267089844,8.334215979003906,7.4040686340332025
6009433081299,2.128754791,1,-4.217386224365234,8.506598498535157,7.653065606689452
6009435080518,2.13075401,1,-4.27724126586914,8.628702783203124,7.767987286376953
6009437080153,2.132753645,1,-4.3430818115234375,8.689754925537109,7.908048083496094
6009439079841,2.134753333,1,-4.256890551757812,8.75320126953125,7.959523419189453
6009441081247,2.136754739,1,-4.1192239562988275,8.79749400024414,8.010998754882811
6009443080518,2.13875401,1,-4.316745593261719,8.833407025146483,8.113949426269532
6009445080726,2.140754218,1,-4.180276098632812,8.851363537597656,8.037334973144532
6009447080049,2.142753541,1,-4.171896392822266,8.804676605224609,8.016984259033203
6009449080831,2.144754323,1,-4.080916729736328,8.611943371582031,7.8733321594238275
6009451080310,2.146753802,1,-4.035426898193359,8.508992700195313,7.704540942382812
6009453080414,2.148753906,1,-4.091690637207031,8.38329711303711,7.529764221191406
6009455080101,2.150753593,1,-4.151545678710937,8.256404425048828,7.353790399169921
6009457079372,2.152752864,1,-3.9983167724609374,8.072050897216796,7.176619476318359
6009459079633,2.154753125,1,-3.928884924316406,7.904456781005859,6.924031201171875
6009461080414,2.156753906,1,-3.821145849609375,7.75721337890625,6.548141540527343
6009463080101,2.158753593,1,-3.7229835815429686,7.614758380126952,6.241683728027343
6009465080831,2.160754323,1,-3.6284126159667967,7.523778717041015,5.97592734375
6009467079841,2.162753333,1,-3.4859576171874997,7.408857037353515,5.600037683105469
6009469080153,2.164753645,1,-3.362656231689453,7.293935357666015,5.335478399658203
6009471080101,2.166753593,1,-3.3291374084472656,7.126341241455077,5.052962603759766
6009473080987,2.168754479,1,-3.2441432495117186,7.012616662597656,4.879382983398437
6009475081195,2.170754687,1,-3.114856359863281,6.833051538085937,4.726154077148437
6009477081299,2.172754791,1,-2.924517327880859,6.701370446777343,4.716577270507813
6009479079528,2.17475302,1,-2.7928362365722657,6.706158850097656,4.592078784179687
6009481080883,2.176754375,1,-2.6671406494140624,6.610390783691406,4.612429498291015
6009483080362,2.178753854,1,-2.440888592529297,6.640318304443359,4.632780212402343
6009485081247,2.180754739,1,-2.214636535644531,6.6702458251953125,4.7381250854492185
6009487080466,2.182753958,1,-2.1739351074218747,6.809109521484374,4.9416322265625
6009489080258,2.18475375,1,-2.013523596191406,6.950367419433594,5.1140147460937495
6009491080101,2.186753593,1,-1.8555062866210936,7.043741284179687,5.382165332031249
6009493080622,2.188754114,1,-1.7645266235351562,7.167042669677734,5.704185455322265
6009495080258,2.19075375,1,-1.6675614562988281,7.2915411560058585,6.008249066162109
6009497080674,2.192754166,1,-1.5969325073242187,7.286752752685547,6.330269189453125
6009499080830,2.194754322,1,-1.5346832641601562,7.362170104980469,6.673837127685546
6009501079685,2.196753177,1,-1.4820108276367188,7.522581616210937,7.048529687499999
6009503080205,2.198753697,1,-1.5071499450683592,7.611167077636718,7.370549810791015
6009505080622,2.200754114,1,-1.4975731384277342,7.666233715820312,7.542932330322265
6009507079997,2.202753489,1,-1.4963760375976562,7.79552060546875,7.830236529541015
6009509081247,2.204754739,1,-1.533486163330078,7.846995941162109,8.048108880615233
6009511080414,2.206753906,1,-1.668758557128906,7.882908966064453,8.291120349121094
6009513080205,2.208753697,1,-1.7010802795410156,7.837419134521484,8.45272896118164
6009515079997,2.210753489,1,-1.8614917907714843,7.885303167724609,8.58680425415039
6009517080674,2.212754166,1,-2.020706201171875,7.931990100097655,8.712499841308594
6009519081247,2.214754739,1,-2.1021090576171875,7.952340814208984,8.895656268310546
6009521080726,2.216754218,1,-2.2565350646972653,7.9643118225097655,8.831012823486327
6009523080101,2.218753593,1,-2.416946575927734,8.030152368164062,8.814253411865234
6009525080362,2.220753854,1,-2.592920397949219,8.087613208007811,8.775946185302734
6009527080570,2.222754062,1,-2.730586993408203,8.117540728759765,8.699331732177734
6009529081612,2.224755104,1,-2.8143840515136715,8.12711753540039,8.542511523437499
6009531080205,2.226753697,1,-2.8036101440429686,8.110358123779296,8.29950005493164
6009533080362,2.228753854,1,-2.9173347229003905,8.190563879394531,8.167818963623047
6009535080466,2.230753958,1,-3.0035259826660154,8.244433416748047,7.967903124999999
6009537080830,2.232754322,1,-3.0921114440917967,8.325836273193358,7.712920648193359
6009539079685,2.234753177,1,-3.19865341796875,8.342595684814453,7.594407666015624
6009541081247,2.236754739,1,-3.3865982482910155,8.407239129638672,7.406462835693359
6009543080310,2.238753802,1,-3.456030096435547,8.488641986083984,7.174225274658203
6009545081091,2.240754583,1,-3.547009759521484,8.562862237548828,7.017405065917968
6009547080101,2.242753593,1,-3.375824340820312,8.54849702758789,6.756437084960937
6009549080830,2.244754322,1,-3.4668040039062498,8.626308581542968,6.616376287841796
6009551079997,2.246753489,1,-3.3698388366699215,8.59278975830078,6.399701037597656
6009553080830,2.248754322,1,-3.3123779968261715,8.64426509399414,6.381744525146484
6009555086872,2.250760364,1,-3.2716765686035156,8.724470849609375,6.175843182373047
6009557082185,2.252755677,1,-3.190273712158203,8.744821563720702,6.0716954101562495
6009559080726,2.254754218,1,-3.106476654052734,8.793902697753905,5.971138940429687
6009561080518,2.25675401,1,-2.9855694702148434,8.724470849609375,5.825092639160156
6009563080518,2.25875401,1,-2.923320227050781,8.668207110595702,5.671863732910156
6009565081039,2.260754531,1,-2.760514514160156,8.635885388183594,5.456385583496093
6009567080310,2.262753802,1,-2.6300305236816404,8.607154968261717,5.336675500488281
6009569080622,2.264754114,1,-2.6874913635253903,8.457517364501953,5.210979913330078
6009571081143,2.266754635,1,-2.615665313720703,8.38329711303711,5.124788653564453
6009573081872,2.268755364,1,-2.5761609863281247,8.301894256591796,4.969165545654296
6009575079841,2.270753333,1,-2.4109610717773435,8.158242156982421,4.819527941894531
6009577081351,2.272754843,1,-2.3139959045410157,8.057685687255859,4.7010149597167965
6009579080310,2.274753802,1,-2.212242333984375,7.911639385986327,4.551377355957031
6009581080153,2.276753645,1,-2.067393133544922,7.747636572265624,4.480748406982421
6009583080205,2.278753697,1,-1.924938134765625,7.558494641113281,4.376600634765625
6009585081039,2.280754531,1,-1.7956512451171873,7.432799053955078,4.389768743896484
6009587078539,2.282752031,1,-1.7334020019531249,7.237671618652343,4.290409374999999
6009589080518,2.28475401,1,-1.6077064147949218,7.0844427124023435,4.217386224365234
6009591080205,2.286753697,1,-1.5155296508789062,6.9515645202636716,4.149151477050781
6009593080049,2.288753541,1,-1.4281412902832031,6.888118176269531,4.112041351318359
6009595080778,2.29075427,1,-1.3754688537597655,6.795941412353515,4.147954376220703
6009597080414,2.292753906,1,-1.3000515014648437,6.6510922119140625,4.129997863769531
6009599079997,2.294753489,1,-1.2210428466796874,6.570886456298828,4.18147319946289
6009601080987,2.296754479,1,-1.1384428894042968,6.4356140625,4.164713787841797
6009603080935,2.298754427,1,-1.1360486877441405,6.330269189453125,4.235342736816406
6009605080674,2.300754166,1,-1.0678139404296874,6.282385156249999,4.235342736816406
6009607080570,2.302754062,1,-0.9816226806640624,6.247669232177734,4.261678955078125
6009609079997,2.304753489,1,-0.9361328491210937,6.262034442138671,4.264073156738281
6009611079789,2.306753281,1,-0.8499415893554687,6.2009822998046875,4.304774584960938
6009613080101,2.308753593,1,-0.7493851196289062,6.141127258300781,4.393360046386719
6009615079685,2.310753177,1,-0.70868369140625,6.1626750732421876,4.3610383239746096
6009617080258,2.31275375,1,-0.6117185241699218,6.110002636718749,4.441244079589843
6009619079372,2.314752864,1,-0.4955997436523437,6.178237384033203,4.42448466796875
6009621081039,2.316754531,1,-0.45968671875,6.227318518066406,4.417302062988281
6009623079893,2.318753385,1,-0.3651157531738281,6.233304022216797,4.375403533935547
6009625081508,2.320755,1,-0.4082113830566406,6.2021794006347655,4.367023828124999
6009627080674,2.322754166,1,-0.3746925598144531,6.240486627197265,4.298789080810547
6009629081299,2.324754791,1,-0.3435679382324219,6.2392895263671875,4.241328240966797
6009631079945,2.326753437,1,-0.36272155151367186,6.260837341308593,4.180276098632812
6009633080778,2.32875427,1,-0.23343466186523437,6.296750366210937,3.9899370666503904
6009635080205,2.330753697,1,-0.2561795776367187,6.2392895263671875,4.067748620605468
6009637080362,2.332753854,1,-0.1484405029296875,6.308721374511719,3.958812445068359
6009639080049,2.334753541,1,-0.14006079711914063,6.253654736328125,3.756502404785156
6009641080205,2.336753697,1,-0.10175357055664062,6.271611248779297,3.659537237548828
6009643079841,2.338753333,1,-0.02633621826171875,6.295553265380859,3.39018955078125
6009645080622,2.340754114,1,0.00239420166015625,6.301538769531249,3.4165257690429685
6009647080101,2.342753593,1,0.0718260498046875,6.284779357910156,3.3303345092773435
6009649080414,2.344753906,1,0.09816226806640624,6.228515618896484,2.914940521240234
6009651080205,2.346753697,1,0.13646949462890623,6.212953308105468,3.037044805908203
6009653080935,2.348754427,1,0.08738836059570312,6.177040283203125,2.6779145568847653
6009655079580,2.350753072,1,0.2537853759765625,6.063315704345703,2.511517541503906
6009657079789,2.352753281,1,0.2166752502441406,6.042964990234375,2.3427263244628906
6009659080362,2.354753854,1,0.19632453613281248,6.027402679443359,2.2936451904296873
6009661080414,2.356753906,1,0.2166752502441406,5.9950809570312495,1.9321207397460936
6009663080049,2.358753541,1,0.21308394775390624,5.9974751586914055,1.9500772521972656
6009665080153,2.360753645,1,0.16639701538085935,5.986701251220703,1.7788918334960937
6009667079841,2.362753333,1,0.1352723937988281,5.97592734375,1.649604943847656
6009669079945,2.364753437,1,0.037110125732421874,5.94360562133789,1.4999673400878906
6009671080622,2.366754114,1,0.051475335693359374,5.944802722167968,1.4449007019042968
6009673079789,2.368753281,1,-0.05985504150390625,5.925649108886718,1.399410870361328
6009675080101,2.370753593,1,-0.15682020874023436,5.9783215454101555,1.5227122558593749
6009677081195,2.372754687,1,-0.16280571289062498,5.998672259521484,1.2761094848632812
6009679080258,2.37475375,1,-0.16280571289062498,6.038176586914062,1.4736311218261717
6009681080518,2.37675401,1,-0.2765302917480469,6.068104107666016,1.4640543151855467
6009683079476,2.378752968,1,-0.32441432495117184,6.172251879882812,1.4113818786621093
6009685080258,2.38075375,1,-0.27293898925781246,6.253654736328125,1.5658078857421873
6009687080049,2.382753541,1,-0.41419688720703124,6.297947467041015,1.686715069580078
6009689080362,2.384753854,1,-0.40462008056640625,6.388927130126953,1.983596075439453
6009691080726,2.386754218,1,-0.40462008056640625,6.432022760009765,1.9776105712890624
6009693080466,2.388753958,1,-0.4381389038085937,6.458358978271484,2.133233679199219
6009695079476,2.390752968,1,-0.4836287353515625,6.568492254638672,2.2373814514160153
6009697080466,2.392753958,1,-0.4477157104492187,6.647500909423828,2.4480711975097655
6009699079476,2.394752968,1,-0.3902548706054687,6.64630380859375,2.4301146850585935
6009701079893,2.396753385,1,-0.38786066894531246,6.669048724365234,2.5713725830078125
6009703080205,2.398753697,1,-0.42975919799804685,6.663063220214843,2.618059515380859
6009705080466,2.400753958,1,-0.5374982727050781,6.672640026855468,2.7964275390625
6009707080414,2.402753906,1,-0.5087678527832031,6.649895111083984,2.893392706298828
6009709080258,2.40475375,1,-0.47884033203125,6.682216833496093,2.7246014892578123
6009711080205,2.406753697,1,-0.5363011718749999,6.673837127685546,2.7557261108398436
6009713080726,2.408754218,1,-0.5877765075683593,6.630741497802734,2.7174188842773437
6009715080153,2.410753645,1,-0.6177040283203125,6.494272003173828,2.6204537170410154
6009717079372,2.412752864,1,-0.6404489440917969,6.438008264160156,2.7246014892578123
6009719080101,2.414753593,1,-0.689530078125,6.481103894042969,2.558204473876953
6009721080935,2.416754427,1,-0.7410054138183594,6.440402465820312,2.539050860595703
6009723079893,2.418753385,1,-0.7948749511718749,6.406883642578125,2.5546131713867184
6009725080778,2.42075427,1,-0.8224082702636718,6.374561920166015,2.4097639709472656
6009727079997,2.422753489,1,-0.7745242370605468,6.369773516845703,2.318784307861328
6009729080518,2.42475401,1,-0.7003039855957031,6.37815322265625,2.3307553161621093
6009731080101,2.426753593,1,-0.7218518005371093,6.376956121826171,2.427720483398437
6009733080622,2.428754114,1,-0.6763619689941406,6.460753179931641,2.2768857788085937
6009735080778,2.43075427,1,-0.7110778930664062,6.530185028076171,2.2948422912597657
6009737080882,2.432754374,1,-0.679953271484375,6.4475850708007805,2.2086510314941403
6009739079789,2.434753281,1,-0.6943184814453125,6.507440112304687,2.281674182128906
6009741079997,2.436753489,1,-0.6883329772949218,6.491877801513671,2.176329309082031
6009743080570,2.438754062,1,-0.7278373046875,6.496666204833984,2.3834277526855465
6009745080518,2.44075401,1,-0.8319850769042968,6.5577183471679685,2.3535002319335936
6009747085205,2.442758697,1,-0.584185205078125,6.4284314575195305,2.7042507751464844
6009749081976,2.444755468,1,-1.005564697265625,6.426037255859375,2.7353753967285153
6009751079580,2.446753072,1,-0.8104372619628906,6.393715533447265,2.6467899353027344
6009753080049,2.448753541,1,-0.7625532287597656,6.472724188232421,2.7665000183105466
6009755080310,2.450753802,1,-0.9074024291992187,6.564900952148437,3.008314385986328
6009757080778,2.45275427,1,-0.9540893615722655,6.60799658203125,2.912546319580078
6009759080101,2.454753593,1,-1.0510545288085937,6.537367633056641,3.105279553222656
6009761080257,2.456753749,1,-1.2665326782226562,6.36498511352539,3.2932243835449215
6009763080466,2.458753958,1,-1.4149731811523436,6.248866333007812,3.494337322998047
6009765080882,2.460754374,1,-1.5981296081542968,6.1830257873535155,3.5290532470703124
6009767079789,2.462753281,1,-1.6807295654296874,6.234501123046875,3.5817256835937497
6009769080726,2.464754218,1,-1.8938135131835936,6.275202551269531,3.670311145019531
6009771080153,2.466753645,1,-2.013523596191406,6.337451794433593,3.708618371582031
6009773080362,2.468753854,1,-2.1583727966308595,6.4655415832519525,3.803189337158203
6009775079997,2.470753489,1,-2.212242333984375,6.669048724365234,3.7924154296875
6009777080726,2.472754218,1,-2.2194249389648437,6.825868933105468,3.8989574035644528
6009779079685,2.474753177,1,-2.175132208251953,7.013813763427734,3.939658831787109
6009781079424,2.476752916,1,-2.147598889160156,7.165845568847656,4.010287780761718
6009783080205,2.478753697,1,-2.0278888061523435,7.304709265136719,4.120421057128906
6009785079841,2.480753333,1,-2.029085906982422,7.375338214111328,4.11802685546875
6009787079685,2.482753177,1,-2.0841525451660154,7.5165961120605465,4.140771771240234
6009789080101,2.484753593,1,-2.021903302001953,7.651868505859374,4.173093493652344
6009791079997,2.486753489,1,-2.090138049316406,7.805097412109374,4.2305543334960936
6009793080830,2.488754322,1,-2.139219183349609,7.9475524108886715,4.320336895751953
6009795080101,2.490753593,1,-2.1631611999511717,8.079233502197265,4.340687609863281
6009797081403,2.492754895,1,-2.2194249389648437,8.16542476196289,4.414907861328125
6009799079945,2.494753437,1,-2.1631611999511717,8.252813122558594,4.425681768798828
6009801080674,2.496754166,1,-2.1906945190429687,8.343792785644531,4.527435339355469
6009803079216,2.498752708,1,-2.1128829650878904,8.464699969482421,4.599261389160156
6009805080466,2.500753958,1,-2.048239520263672,8.500612994384765,4.600458489990234
6009807080049,2.502753541,1,-2.024297503662109,8.595183959960938,4.745307690429687
6009809079997,2.504753489,1,-1.9823989746093749,8.614337573242187,4.839878656005859
6009811080882,2.506754374,1,-1.915361328125,8.633491186523438,4.885368487548828
6009813080882,2.508754374,1,-1.8770541015625,8.661024505615234,4.991910461425781
6009815079789,2.510753281,1,-1.7932570434570312,8.688557824707031,5.06253941040039
6009817080674,2.512754166,1,-1.7417817077636717,8.678981018066406,5.179855291748047
6009819080362,2.514753854,1,-1.7561469177246092,8.645462194824217,5.214571215820312
6009821083018,2.51675651,1,-1.878251202392578,8.601169464111328,5.2816088623046875
6009823080778,2.51875427,1,-1.867477294921875,8.525752111816406,5.364208819580078
6009825079060,2.520752552,1,-1.9285294372558592,8.463502868652343,5.4887073059082025
6009827080257,2.522753749,1,-1.908178723144531,8.365340600585936,5.540182641601562
6009829080830,2.524754322,1,-1.9021932189941406,8.262389929199218,5.616797094726562
6009831079424,2.526752916,1,-1.8028338500976562,8.173804467773436,5.685031842041015
6009833081195,2.528754687,1,-1.8136077575683593,8.13310303955078,5.697002850341796
6009835080518,2.53075401,1,-1.7226280944824217,8.07683930053711,5.777208605957031
6009837081403,2.532754895,1,-1.6328455322265625,8.005013250732421,5.801150622558594
6009839079841,2.534753333,1,-1.5646107849121094,7.89727417602539,5.759252093505859
6009841080882,2.536754374,1,-1.5981296081542968,7.773972790527344,5.761646295166015
6009843080674,2.538754166,1,-1.5873557006835937,7.659051110839843,5.724536169433593
6009845080935,2.540754427,1,-1.619677423095703,7.5153990112304685,5.634753607177734
6009847079528,2.54275302,1,-1.6124948181152343,7.382520819091797,5.622782598876952
6009849080778,2.54475427,1,-1.678335363769531,7.343016491699219,5.519831927490234
6009851080466,2.546753958,1,-1.6340426330566404,7.222109307861328,5.442020373535156
6009853080518,2.54875401,1,-1.7764976318359373,7.110778930664062,5.397727642822265
6009855080205,2.550753697,1,-1.7453730102539062,6.9707181335449215,5.163095880126953
6009857081143,2.552754635,1,-1.6795324645996093,6.885723974609375,4.996698864746094
6009859079372,2.554752864,1,-1.6412252380371093,6.8210805297851556,4.820725042724609
6009861080049,2.556753541,1,-1.6316484313964843,6.714538555908203,4.674678741455078
6009863080101,2.558753593,1,-1.571793389892578,6.641515405273437,4.594472985839843
6009865080726,2.560754218,1,-1.5646107849121094,6.527790826416015,4.611232397460937
6009867080518,2.56275401,1,-1.5442600708007812,6.455964776611328,4.531026641845703
6009869081091,2.564754583,1,-1.4903905334472656,6.391321331787109,4.368220928955078
6009871079476,2.566752968,1,-1.4700398193359374,6.362590911865234,4.453215087890625
6009873080205,2.568753697,1,-1.4281412902832031,6.301538769531249,4.404133953857421
6009875080622,2.570754114,1,-1.4173673828125,6.215347509765625,4.352658618164062
6009877080414,2.572753906,1,-1.370680450439453,6.137535955810547,4.357447021484375
6009879080622,2.574754114,1,-1.291671795654297,6.149506964111327,4.284423870849609
6009881080414,2.576753906,1,-1.199495031738281,6.189011291503906,4.259284753417968
6009883080310,2.578753802,1,-1.2629413757324217,6.180631585693359,4.297591979980469
6009885080935,2.580754427,1,-1.2054805358886718,6.105214233398437,4.388571643066406
6009887081403,2.582754895,1,-1.2485761657714842,6.113593939208984,4.4005426513671875
6009889079945,2.584753437,1,-1.1791443176269532,6.178237384033203,4.492719415283203
6009891079737,2.586753229,1,-1.2605471740722656,6.223727215576171,4.428075970458984
6009893079893,2.588753385,1,-1.3371616271972655,6.142324359130859,4.655525128173828
6009895080310,2.590753802,1,-1.4963760375976562,6.036979486083984,4.740519287109374
6009897080414,2.592753906,1,-1.6508020446777343,5.941211419677734,4.8698061767578125
6009899080466,2.594753958,1,-1.7992425476074219,5.919663604736328,5.009866973876953
6009901080362,2.596753854,1,-1.9201497314453124,5.910086798095703,5.220556719970703
6009903080466,2.598753958,1,-1.917755529785156,6.114791040039062,5.436034869384765
6009905080310,2.600753802,1,-1.9871873779296874,6.252457635498047,5.643133312988281
6009907080362,2.602753854,1,-2.0075380920410155,6.388927130126953,5.9579708312988275
6009909080726,2.604754218,1,-2.021903302001953,6.4655415832519525,6.104017132568359
6009911079216,2.606752708,1,-2.0458453186035155,6.734889270019531,6.489483599853515
6009913077966,2.608751458,1,-2.1164742675781247,6.664260321044922,6.757634185791015
6009915078018,2.61075151,1,-2.3439234252929686,6.779182000732422,6.940790612792968
6009917082549,2.612756041,1,-2.5055320373535155,6.9336080078124995,7.16943687133789
6009919080622,2.614754114,1,-2.6384102294921874,7.122749938964843,7.274781744384765
6009921080882,2.616754374,1,-2.8706477905273435,7.175422375488281,7.335833886718749
6009923080205,2.618753697,1,-3.210624426269531,7.199364392089843,7.432799053955078
6009925079997,2.620753489,1,-3.5134909362792968,7.100005023193359,7.4411787597656245
6009927079528,2.62275302,1,-3.4165257690429685,7.340622290039062,7.4232222473144525
6009929080466,2.624753958,1,-3.3770214416503905,7.316680273437499,7.4603323730468745
6009931080049,2.626753541,1,-3.171120098876953,7.4579381713867186,7.456741070556641
6009933079580,2.628753072,1,-3.1794998046874996,7.602787371826172,7.4220251464843745
6009935080257,2.630753749,1,-3.2453403503417966,7.698555438232422,7.351396197509765
6009937082497,2.632755989,1,-3.1459809814453124,7.9272016967773435,7.279570147705078
6009939085622,2.634759114,1,-3.326743206787109,7.8541785461425775,7.170633972167968
6009941081507,2.636754999,1,-3.5577836669921874,8.08881030883789,7.0078282592773435
6009943080205,2.638753697,1,-3.706224169921875,7.981071234130859,6.962338427734375
6009945080830,2.640754322,1,-3.8199487487792965,8.206126190185547,6.889315277099609
6009947079580,2.642753072,1,-3.8558617736816405,8.131905938720703,6.791153009033203
6009949080830,2.644754322,1,-3.8666356811523435,8.240842114257813,6.744466076660156
6009951080309,2.646753801,1,-3.756502404785156,8.0828248046875,6.609193682861328
6009953080778,2.64875427,1,-3.507505432128906,8.045714678955077,6.610390783691406
6009955080674,2.650754166,1,-3.383006945800781,7.997830645751953,6.507440112304687
6009957080830,2.652754322,1,-3.2537200561523436,8.060079888916015,6.5409589355468745
6009959080257,2.654753749,1,-3.123236065673828,7.8900915710449215,6.471527087402343
6009961080309,2.656753801,1,-3.143586779785156,7.868543756103515,6.402095239257812
6009963079424,2.658752916,1,-3.1675287963867187,7.773972790527344,6.38413872680664
6009965080570,2.660754062,1,-3.124433166503906,7.595604766845702,6.266822845458984
6009967080414,2.662753906,1,-2.9891607727050777,7.387309222412109,6.342240197753906
6009969080414,2.664753906,1,-3.087323040771484,7.277175946044921,6.366182214355469
6009971080622,2.666754114,1,-3.1938650146484373,6.979097839355468,6.321889483642578
6009973081195,2.668754687,1,-3.1591490905761717,6.779182000732422,6.319495281982421
6009975079320,2.670752812,1,-3.068169427490234,6.737283471679687,6.279990954589843
6009977080778,2.67275427,1,-2.916137622070312,6.476315490722656,6.242880828857421
6009979079684,2.674753176,1,-2.7257985900878903,6.5756748596191406,6.129156249999999
6009981080570,2.676754062,1,-2.6132711120605467,6.356605407714843,6.264428643798828
6009983080414,2.678753906,1,-2.6910826660156246,6.385335827636719,6.362590911865234
6009985080518,2.68075401,1,-2.655169641113281,6.232106921386718,6.323086584472656
6009987080309,2.682753801,1,-2.4289175842285156,6.132747552490234,6.290764862060547
6009989079684,2.684753176,1,-2.3403321228027343,6.161477972412109,6.279990954589843
6009991080153,2.686753645,1,-2.2290017456054687,5.980715747070312,6.396109735107421
6009993079945,2.688753437,1,-2.184709014892578,6.104017132568359,6.391321331787109
6009995080205,2.690753697,1,-2.0745757385253905,5.8262897399902345,6.429628558349609
6009997079164,2.692752656,1,-2.1260510742187497,6.086060620117187,6.495469104003906
6009999079997,2.694753489,1,-2.033874310302734,5.868188269042968,6.469132885742187
6010001218955,2.696892447,1,-2.086546746826172,6.042964990234375,6.587645867919922
6010003087549,2.698761041,1,-1.964442462158203,6.087257720947266,6.665457421875
6010005088487,2.700761979,1,-2.0266917053222655,6.130353350830077,6.732495068359374
6010007089893,2.702763385,1,-2.243366955566406,6.142324359130859,6.815095025634765
6010009081664,2.704755156,1,-2.231395947265625,6.281188055419921,6.988674645996094
6010011078434,2.706751926,1,-2.146401788330078,6.235698223876953,7.049726788330077
6010013079320,2.708752812,1,-2.118868469238281,6.376956121826171,7.152677459716797
6010015078955,2.710752447,1,-2.067393133544922,6.518214019775391,7.13112964477539
6010017078226,2.712751718,1,-2.0159177978515626,6.677428430175781,7.213729602050781
6010019078330,2.714751822,1,-1.944091748046875,6.755239984130859,7.28435855102539
6010021079945,2.716753437,1,-1.8842367065429686,7.024587670898437,7.297526660156249
6010023078278,2.71875177,1,-1.8183961608886718,6.99705435180664,7.392097625732421
6010025081664,2.720755156,1,-1.8243816650390623,7.096413720703125,7.345410693359375
6010027080153,2.722753645,1,-1.839943975830078,7.234080316162109,7.4028715332031245
6010029080830,2.724754322,1,-1.8004396484374998,7.277175946044921,7.3274541809082026
6010031080309,2.726753801,1,-1.8734627990722654,7.296329559326171,7.326257080078125
6010033081195,2.728754687,1,-1.879448303222656,7.201758593749999,7.261613635253906
6010035080257,2.730753749,1,-1.8626888916015625,7.398083129882812,7.274781744384765
6010037082132,2.732755624,1,-1.820790362548828,7.40526573486328,7.225700610351562
6010039081403,2.734754895,1,-1.7968483459472655,7.387309222412109,7.195773089599609
6010041079841,2.736753333,1,-1.6555904479980468,7.40526573486328,7.1203557373046875
6010043080257,2.738753749,1,-1.5682020874023437,7.407659936523437,6.9707181335449215
6010045081195,2.740754687,1,-1.5777788940429687,7.394491827392578,6.900089184570312
6010047080622,2.742754114,1,-1.485602130126953,7.266402038574219,6.798335614013672
6010049080726,2.744754218,1,-1.4329296936035156,7.208941198730468,6.749254479980468
6010051080309,2.746753801,1,-1.4544775085449217,7.110778930664062,6.546944439697265
6010053080674,2.748754166,1,-1.47482822265625,7.018602166748046,6.45476767578125
6010055079841,2.750753333,1,-1.4125789794921875,6.974309436035155,6.388927130126953
6010057080987,2.752754479,1,-1.4065934753417968,6.90128628540039,6.369773516845703
6010059080622,2.754754114,1,-1.426944189453125,6.822277630615234,6.228515618896484
6010061081820,2.756755312,1,-1.43652099609375,6.74805737915039,6.260837341308593
6010063080987,2.758754479,1,-1.388636962890625,6.660669018554687,6.349422802734375
6010065080518,2.76075401,1,-1.4329296936035156,6.598419775390624,6.287173559570312
6010067079789,2.762753281,1,-1.485602130126953,6.592434271240234,6.289567761230469
6010069080414,2.764753906,1,-1.5035586425781249,6.544550238037109,6.392518432617187
6010071080622,2.766754114,1,-1.5981296081542968,6.494272003173828,6.391321331787109
6010073080570,2.768754062,1,-1.6400281372070311,6.5026517089843745,6.5589154479980465
6010075080153,2.770753645,1,-1.744175909423828,6.432022760009765,6.640318304443359
6010077080466,2.772753958,1,-1.7621324218749999,6.527790826416015,6.70975015258789
6010079080414,2.774753906,1,-1.686715069580078,6.543353137207031,6.798335614013672
6010081081351,2.776754843,1,-1.687912170410156,6.592434271240234,6.993463049316406
6010083079320,2.778752812,1,-1.782483135986328,6.6702458251953125,7.050923889160156
6010085080882,2.780754374,1,-1.7872715393066405,6.769605194091796,7.137115148925781
6010087080257,2.782753749,1,-1.7465701110839842,6.853402252197265,7.195773089599609
6010089081872,2.784755364,1,-1.753752716064453,6.910863092041015,7.223306408691406
6010091080309,2.786753801,1,-1.7405846069335937,6.928819604492187,7.28435855102539
6010093080570,2.788754062,1,-1.7980454467773437,6.980294940185546,7.305906365966797
6010095080153,2.790753645,1,-1.7932570434570312,7.043741284179687,7.277175946044921
6010097080257,2.792753749,1,-1.8710685974121093,7.082048510742187,7.261613635253906
6010099080101,2.794753593,1,-1.927332336425781,7.1395093505859375,7.267599139404297
6010101080622,2.796754114,1,-2.068590234375,7.211335400390625,7.1778165771484375
6010103080674,2.798754166,1,-2.175132208251953,7.271190441894531,7.032967376708984
6010105079997,2.800753489,1,-2.2577321655273437,7.236474517822265,6.992265948486327
6010107080205,2.802753697,1,-2.346317626953125,7.34181939086914,6.873752966308594
6010109080830,2.804754322,1,-2.376245147705078,7.338228088378906,6.785167504882812
6010111080414,2.806753906,1,-2.3535002319335936,7.308300567626953,6.754042883300781
6010113080362,2.808753854,1,-2.469619012451172,7.222109307861328,6.672640026855468
6010115080309,2.810753801,1,-2.408566870117187,7.232883215332031,6.672640026855468
6010117080362,2.812753854,1,-2.4756045166015626,7.287949853515625,6.570886456298828
6010119080726,2.814754218,1,-2.3343466186523436,7.349001995849609,6.421248852539062
6010121080987,2.816754479,1,-2.262520568847656,7.344213592529297,6.424840155029297
6010123080049,2.818753541,1,-2.300827795410156,7.332242584228515,6.418854650878906
6010125081403,2.820754895,1,-2.3307553161621093,7.286752752685547,6.344634399414062
6010127079007,2.822752499,1,-2.300827795410156,7.287949853515625,6.3709706176757805
6010129081039,2.824754531,1,-2.3535002319335936,7.165845568847656,6.349422802734375
6010131079841,2.826753333,1,-2.3295582153320313,7.163451367187499,6.282385156249999
6010133086143,2.828759635,1,-2.3678654418945313,7.125144140624999,6.297947467041015
6010135081612,2.830755104,1,-2.4109610717773435,7.116764434814453,6.232106921386718
6010137080518,2.83275401,1,-2.4097639709472656,7.019799267578125,6.1650692749023435
6010139079945,2.834753437,1,-2.3906103576660156,6.90128628540039,6.117185241699218
6010141080778,2.83675427,1,-2.3439234252929686,6.864176159667968,6.066907006835937
6010143079684,2.838753176,1,-2.3487118286132813,6.818686328125,6.023811376953125
6010145081820,2.840755312,1,-2.261323468017578,6.810306622314453,5.949591125488281
6010147080622,2.842754114,1,-2.2493524597167966,6.766013891601562,5.869385369873046
6010149079684,2.844753176,1,-2.1811177124023438,6.698976245117187,5.773617303466796
6010151079893,2.846753385,1,-2.098517755126953,6.697779144287109,5.5820811706542965
6010153080153,2.848753645,1,-2.014720697021484,6.68461103515625,5.498284112548828
6010155079684,2.850753176,1,-1.9536685546875,6.579266162109374,5.438429071044921
6010157080778,2.85275427,1,-1.9309236389160156,6.5601125488281244,5.415684155273437
6010159080934,2.854754426,1,-1.9632453613281249,6.566098052978515,5.33068999633789
6010161080309,2.856753801,1,-1.897404815673828,6.5960255737304685,5.307945080566406
6010163080361,2.858753853,1,-1.9213468322753906,6.590040069580078,5.316324786376953
6010165080466,2.860753958,1,-1.8770541015625,6.609193682861328,5.219359619140625
6010167080309,2.862753801,1,-1.889025109863281,6.5780690612792965,5.294776971435547
6010169080882,2.864754374,1,-1.8363526733398436,6.6319385986328125,5.374982727050781
6010171080778,2.86675427,1,-1.8507178833007811,6.665457421875,5.421669659423828
6010173081507,2.868754999,1,-1.8519149841308593,6.677428430175781,5.495889910888671
6010175080882,2.870754374,1,-1.8040309509277344,6.771999395751953,5.597643481445312
6010177080101,2.872753593,1,-1.889025109863281,6.830657336425781,5.647921716308593
6010179080361,2.874753853,1,-1.9656395629882812,6.885723974609375,5.644330413818359
6010181080518,2.87675401,1,-1.9692308654785156,6.969521032714844,5.749675286865234
6010183079945,2.878753437,1,-1.8423381774902343,7.071274603271484,5.7700260009765625
6010185080830,2.880754322,1,-2.123656872558594,7.122749938964843,5.783194110107422
6010187079684,2.882753176,1,-1.9033903198242186,7.170633972167968,5.821501336669922
6010189081247,2.884754739,1,-2.1116858642578125,7.224503509521484,5.893327386474609
6010191078903,2.886752395,1,-2.023100402832031,7.229291912841797,5.987898352050781
6010193080778,2.88875427,1,-2.0757728393554684,7.255628131103515,5.990292553710937
6010195080518,2.89075401,1,-2.091335150146484,7.311891870117187,5.843049151611328
6010197080518,2.89275401,1,-1.993172882080078,7.37414111328125,5.827486840820312
6010199080830,2.894754322,1,-2.0302830078125,7.492654095458984,5.797559320068359
6010201080414,2.896753906,1,-2.062604730224609,7.4794859863281244,5.683834741210937
6010203080518,2.89875401,1,-2.0350714111328125,7.507019305419921,5.645527514648437
6010205080674,2.900754166,1,-2.04943662109375,7.510610607910156,5.5641246582031245
6010207081039,2.902754531,1,-2.079364141845703,7.471106280517578,5.469553692626953
6010209080882,2.904754374,1,-2.114080065917969,7.56567724609375,5.371391424560547
6010211080466,2.906753958,1,-2.0973206542968748,7.503428002929687,5.248090039062499
6010213079320,2.908752812,1,-2.1068974609374997,7.44357296142578,5.2085857116699215
6010215080101,2.910753593,1,-2.1021090576171875,7.42441934814453,5.069722015380859
6010217081091,2.912754583,1,-2.048239520263672,7.381323718261719,4.973953948974609
6010219080882,2.914754374,1,-2.080561242675781,7.352593298339843,4.853046765136718
6010221080778,2.91675427,1,-2.0745757385253905,7.345410693359375,4.770446807861328
6010223080153,2.918753645,1,-2.0566192260742184,7.340622290039062,4.808754034423828
6010225080934,2.920754426,1,-2.0649989318847655,7.296329559326171,4.707000463867187
6010227080309,2.922753801,1,-2.070984436035156,7.183802081298828,4.751293194580078
