timestamp_ns,t_s,sensor_id,ax,ay,az,gx,gy,gz
5274897735590,0.17621276,2,8.07683930053711,5.7125651611328125,0.7445967163085937,-1.816793893129771,0.22900763358778625,-1.6030534351145038
5274907558454,0.186035624,2,7.971494427490234,5.730521673583984,0.679953271484375,-1.748091603053435,0.2748091603053435,-1.5648854961832062
5274917511371,0.195988541,2,8.269572534179687,5.730521673583984,0.7146691955566405,-1.7709923664122138,0.2824427480916031,-1.5954198473282444
5274927492413,0.205969583,2,8.111555224609374,5.728127471923828,0.7158662963867187,-1.7938931297709924,0.25190839694656486,-1.5877862595419847
5274937453507,0.215930677,2,8.103175518798828,5.736507177734374,0.7864952453613281,-1.7404580152671756,0.31297709923664124,-1.5954198473282444
5274947489965,0.225967135,2,7.969100225830077,5.764040496826172,0.7254431030273437,-1.6793893129770991,0.2824427480916031,-1.6259541984732824
5274957486423,0.235963593,2,8.256404425048828,5.773617303466796,0.7314286071777343,-1.7786259541984732,0.2595419847328244,-1.6259541984732824
5274967487204,0.245964374,2,8.021772662353515,5.754463690185546,0.8044517578125,-1.7404580152671756,0.2748091603053435,-1.6106870229007633
5274977488663,0.255965833,2,8.257601525878906,5.7329158752441405,0.8295908752441405,-1.7786259541984732,0.32061068702290074,-1.5801526717557253
5274987493715,0.265970885,2,8.104372619628906,5.76523759765625,0.7398083129882812,-1.7633587786259541,0.22137404580152673,-1.549618320610687
5274997485173,0.275962343,2,8.086416107177733,5.718550665283203,0.699106884765625,-1.8015267175572518,0.2900763358778626,-1.633587786259542
5275007483663,0.285960833,2,7.988253839111327,5.756857891845703,0.6416460449218749,-1.7633587786259541,0.20610687022900764,-1.6030534351145038
5275017480642,0.295957812,2,8.134300140380859,5.724536169433593,0.7577648254394531,-1.748091603053435,0.3053435114503817,-1.6106870229007633
5275027484288,0.305961458,2,8.08881030883789,5.670666632080078,0.7038952880859375,-1.7709923664122138,0.29770992366412213,-1.5419847328244274
5275037487100,0.31596427,2,8.12711753540039,5.744886883544922,0.7062894897460937,-1.7328244274809161,0.2900763358778626,-1.633587786259542
5275047487621,0.325964791,2,8.136694342041014,5.743689782714843,0.7158662963867187,-1.7404580152671756,0.21374045801526717,-1.633587786259542
5275057486996,0.335964166,2,8.163030560302733,5.766434698486328,0.7625532287597656,-1.8702290076335877,0.29770992366412213,-1.5801526717557253
5275067484027,0.345961197,2,8.109161022949218,5.755660791015624,0.7649474304199219,-1.7633587786259541,0.24427480916030533,-1.5725190839694656
5275077487152,0.355964322,2,8.11514652709961,5.7843912109375,0.7805097412109374,-1.7633587786259541,0.2595419847328244,-1.5572519083969465
5275087486631,0.365963801,2,8.139088543701172,5.737704278564453,0.6715735656738281,-1.7404580152671756,0.2366412213740458,-1.5725190839694656
5275097486267,0.375963437,2,8.11514652709961,5.741295581054687,0.7170633972167968,-1.7633587786259541,0.3053435114503817,-1.6412213740458015
5275107488975,0.385966145,2,8.149862451171874,5.747281085205078,0.7649474304199219,-1.7404580152671756,0.19083969465648856,-1.5419847328244274
5275117489131,0.395966301,2,8.119934930419921,5.744886883544922,0.7481880187988281,-1.7786259541984732,0.29770992366412213,-1.5801526717557253
5275127485850,0.40596302,2,8.111555224609374,5.753266589355468,0.6763619689941406,-1.7251908396946565,0.13740458015267176,-1.5648854961832062
5275137499600,0.41597677,2,8.06965669555664,5.764040496826172,0.7050923889160156,-1.7328244274809161,0.2748091603053435,-1.5954198473282444
5275147483246,0.425960416,2,8.160636358642577,5.701791253662109,0.7062894897460937,-1.8015267175572518,0.25190839694656486,-1.5725190839694656
5275157485277,0.435962447,2,8.137891442871092,5.747281085205078,0.7015010864257812,-1.7557251908396947,0.29770992366412213,-1.5725190839694656
5275167493975,0.445971145,2,8.109161022949218,5.711368060302734,0.6979097839355468,-1.6870229007633588,0.19083969465648856,-1.549618320610687
5275177496944,0.455974114,2,8.0828248046875,5.728127471923828,0.7793126403808593,-1.7328244274809161,0.2748091603053435,-1.549618320610687
5275187480173,0.465957343,2,8.084021905517577,5.7125651611328125,0.709880792236328,-1.786259541984733,0.2366412213740458,-1.6030534351145038
5275197482673,0.475959843,2,8.064868292236328,5.744886883544922,0.718260498046875,-1.7404580152671756,0.31297709923664124,-1.5648854961832062
5275207486840,0.48596401,2,8.118737829589843,5.759252093505859,0.8152256652832031,-1.7328244274809161,0.26717557251908397,-1.4580152671755726
5275217483611,0.495960781,2,8.12113203125,5.747281085205078,0.7410054138183594,-1.7633587786259541,0.2900763358778626,-1.5572519083969465
5275227480434,0.505957604,2,8.136694342041014,5.723339068603515,0.7386112121582031,-1.8091603053435115,0.32061068702290074,-1.618320610687023
5275237489131,0.515966301,2,8.086416107177733,5.77122310180664,0.7146691955566405,-1.816793893129771,0.1984732824427481,-1.5954198473282444
5275247505173,0.525982343,2,8.14627114868164,5.756857891845703,0.7003039855957031,-1.8091603053435115,0.26717557251908397,-1.633587786259542
5275257485694,0.535962864,2,8.079233502197265,5.787982513427734,0.7146691955566405,-1.7557251908396947,0.26717557251908397,-1.6259541984732824
5275267480590,0.54595776,2,8.087613208007811,5.68862314453125,0.7206546997070312,-1.7557251908396947,0.31297709923664124,-1.6259541984732824
5275277479756,0.555956926,2,8.078036401367187,5.702988354492187,0.7721300354003906,-1.7251908396946565,0.32061068702290074,-1.5954198473282444
5275287486579,0.565963749,2,8.111555224609374,5.738901379394531,0.7613561279296874,-1.8015267175572518,0.26717557251908397,-1.5725190839694656
5275297483871,0.575961041,2,8.099584216308592,5.759252093505859,0.6703764648437499,-1.717557251908397,0.1984732824427481,-1.6412213740458015
5275307480746,0.585957916,2,8.087613208007811,5.723339068603515,0.7481880187988281,-1.8244274809160306,0.2748091603053435,-1.5114503816793894
5275317479652,0.595956822,2,8.129511737060547,5.7700260009765625,0.7386112121582031,-1.7786259541984732,0.22137404580152673,-1.5725190839694656
5275327507413,0.605984583,2,8.137891442871092,5.774814404296874,0.7362170104980469,-1.7251908396946565,0.24427480916030533,-1.5419847328244274
5275337486788,0.615963958,2,8.14028564453125,5.797559320068359,0.7050923889160156,-1.8015267175572518,0.24427480916030533,-1.5877862595419847
5275347482413,0.625959583,2,8.158242156982421,5.740098480224609,0.7817068420410156,-1.8549618320610688,0.3053435114503817,-1.5954198473282444
5275357454600,0.63593177,2,8.110358123779296,5.754463690185546,0.7422025146484375,-1.7633587786259541,0.22137404580152673,-1.6030534351145038
5275367489340,0.64596651,2,8.135497241210937,5.742492681884765,0.7410054138183594,-1.7709923664122138,0.24427480916030533,-1.5648854961832062
5275377483142,0.655960312,2,8.145074047851562,5.755660791015624,0.74699091796875,-1.7786259541984732,0.22137404580152673,-1.6030534351145038
5275387483350,0.66596052,2,8.137891442871092,5.720944866943359,0.7158662963867187,-1.748091603053435,0.29770992366412213,-1.5648854961832062
5275397483298,0.675960468,2,8.079233502197265,5.7137622619628905,0.6260837341308594,-1.7786259541984732,0.22137404580152673,-1.5877862595419847
5275407481163,0.685958333,2,8.157045056152343,5.756857891845703,0.6356605407714844,-1.7633587786259541,0.29770992366412213,-1.5801526717557253
5275417488506,0.695965676,2,8.086416107177733,5.7700260009765625,0.7254431030273437,-1.7251908396946565,0.22900763358778625,-1.5877862595419847
5275427483871,0.705961041,2,8.158242156982421,5.735310076904296,0.7266402038574218,-1.8473282442748091,0.3511450381679389,-1.534351145038168
5275437484652,0.715961822,2,8.0828248046875,5.772420202636718,0.6631938598632812,-1.7709923664122138,0.24427480916030533,-1.6488549618320612
5275447481163,0.725958333,2,8.116343627929687,5.77122310180664,0.6823474731445313,-1.6946564885496183,0.33587786259541985,-1.6412213740458015
5275457541631,0.736018801,2,8.064868292236328,5.778405706787109,0.6859387756347656,-1.7938931297709924,0.22137404580152673,-1.618320610687023
5275467486006,0.745963176,2,8.123526232910155,5.774814404296874,0.689530078125,-1.7709923664122138,0.3893129770992366,-1.633587786259542
5275477501267,0.755978437,2,8.12113203125,5.785588311767578,0.6751648681640625,-1.7557251908396947,0.16030534351145037,-1.6106870229007633
5275487490433,0.765967603,2,8.086416107177733,5.7520694885253905,0.6787561706542968,-1.7709923664122138,0.33587786259541985,-1.5801526717557253
5275497483558,0.775960728,2,8.142679846191406,5.724536169433593,0.6524199523925781,-1.7786259541984732,0.25190839694656486,-1.618320610687023
5275507479392,0.785956562,2,8.104372619628906,5.753266589355468,0.6308721374511719,-1.748091603053435,0.35877862595419846,-1.5725190839694656
5275517479860,0.79595703,2,8.113949426269532,5.795165118408203,0.7398083129882812,-1.7633587786259541,0.25190839694656486,-1.5725190839694656
5275527480485,0.805957655,2,8.118737829589843,5.7508723876953125,0.7350199096679687,-1.7709923664122138,0.2824427480916031,-1.6488549618320612
5275537488923,0.815966093,2,8.135497241210937,5.756857891845703,0.7984662536621093,-1.7633587786259541,0.1984732824427481,-1.6106870229007633
5275547481735,0.825958905,2,8.134300140380859,5.741295581054687,0.7493851196289062,-1.7251908396946565,0.35877862595419846,-1.6106870229007633
5275557483038,0.835960208,2,8.135497241210937,5.719747766113281,0.7326257080078125,-1.786259541984733,0.26717557251908397,-1.6488549618320612
5275567480798,0.845957968,2,8.155847955322265,5.743689782714843,0.7936778503417968,-1.748091603053435,0.2595419847328244,-1.618320610687023
5275577479704,0.855956874,2,8.123526232910155,5.774814404296874,0.6907271789550781,-1.83206106870229,0.2595419847328244,-1.633587786259542
5275587488350,0.86596552,2,8.161833459472655,5.741295581054687,0.74699091796875,-1.7404580152671756,0.3816793893129771,-1.6030534351145038
5275597477881,0.875955051,2,8.128314636230469,5.744886883544922,0.7134720947265625,-1.7786259541984732,0.1450381679389313,-1.5572519083969465
5275607442413,0.885919583,2,8.054094384765625,5.77122310180664,0.7266402038574218,-1.7251908396946565,0.2824427480916031,-1.5267175572519085
5275617481579,0.895958749,2,8.111555224609374,5.741295581054687,0.7110778930664062,-1.748091603053435,0.1984732824427481,-1.6259541984732824
5275627483819,0.905960989,2,8.137891442871092,5.7891796142578125,0.7015010864257812,-1.8091603053435115,0.29770992366412213,-1.6641221374045803
5275637487048,0.915964218,2,8.148665350341796,5.717353564453124,0.7565677246093749,-1.7557251908396947,0.20610687022900764,-1.5877862595419847
5275647482100,0.92595927,2,8.095992913818359,5.748478186035156,0.6727706665039062,-1.7328244274809161,0.32061068702290074,-1.5877862595419847
5275657481371,0.935958541,2,8.095992913818359,5.7508723876953125,0.709880792236328,-1.7251908396946565,0.15267175572519084,-1.6030534351145038
5275667481267,0.945958437,2,8.086416107177733,5.720944866943359,0.7422025146484375,-1.7633587786259541,0.2900763358778626,-1.5954198473282444
5275677481215,0.955958385,2,8.105569720458984,5.761646295166015,0.7146691955566405,-1.7709923664122138,0.2366412213740458,-1.6412213740458015
5275687482360,0.96595953,2,8.09479581298828,5.735310076904296,0.7709329345703124,-1.7557251908396947,0.31297709923664124,-1.618320610687023
5275697480173,0.975957343,2,8.17859287109375,5.753266589355468,0.7362170104980469,-1.7938931297709924,0.183206106870229,-1.5954198473282444
5275707442777,0.985919947,2,8.135497241210937,5.720944866943359,0.7505822204589844,-1.7557251908396947,0.2366412213740458,-1.534351145038168
5275717489548,0.995966718,2,8.109161022949218,5.761646295166015,0.7146691955566405,-1.7709923664122138,0.22900763358778625,-1.6564885496183206
5275727480746,1.005957916,2,8.097190014648437,5.723339068603515,0.7841010437011718,-1.8244274809160306,0.2900763358778626,-1.7099236641221374
5275737484027,1.015961197,2,8.13310303955078,5.761646295166015,0.6967126831054687,-1.7786259541984732,0.3053435114503817,-1.5801526717557253
5275747487933,1.025965103,2,8.091204510498047,5.744886883544922,0.6919242797851562,-1.748091603053435,0.29770992366412213,-1.6564885496183206
5275757485017,1.035962187,2,8.092401611328125,5.742492681884765,0.7757213378906249,-1.7251908396946565,0.26717557251908397,-1.5801526717557253
5275767480746,1.045957916,2,8.134300140380859,5.762843395996094,0.7254431030273437,-1.702290076335878,0.2900763358778626,-1.6641221374045803
5275777482412,1.055959582,2,8.129511737060547,5.7077767578125,0.7733271362304687,-1.7251908396946565,0.29770992366412213,-1.534351145038168
5275787483819,1.065960989,2,8.117540728759765,5.734112976074218,0.6835445739746093,-1.717557251908397,0.2748091603053435,-1.5725190839694656
5275797496319,1.075973489,2,8.092401611328125,5.768828900146484,0.7266402038574218,-1.7251908396946565,0.16030534351145037,-1.6106870229007633
5275807479548,1.085956718,2,8.182184173583984,5.7700260009765625,0.7038952880859375,-1.7251908396946565,0.22900763358778625,-1.6259541984732824
5275817489704,1.095966874,2,8.112752325439452,5.7137622619628905,0.7721300354003906,-1.8244274809160306,0.24427480916030533,-1.5648854961832062
5275827481840,1.10595901,2,8.091204510498047,5.758054992675781,0.7026981872558593,-1.8015267175572518,0.24427480916030533,-1.618320610687023
5275837487256,1.115964426,2,8.1594392578125,5.761646295166015,0.7302315063476562,-1.786259541984733,0.17557251908396945,-1.5648854961832062
5275847483662,1.125960832,2,8.152256652832031,5.7329158752441405,0.6847416748046875,-1.748091603053435,0.13740458015267176,-1.5954198473282444
5275857492725,1.135969895,2,8.12113203125,5.754463690185546,0.7206546997070312,-1.748091603053435,0.3053435114503817,-1.618320610687023
5275867486423,1.145963593,2,8.097190014648437,5.778405706787109,0.7074865905761718,-1.786259541984733,0.2595419847328244,-1.5877862595419847
5275877488506,1.155965676,2,8.092401611328125,5.718550665283203,0.7553706237792969,-1.7938931297709924,0.2824427480916031,-1.5419847328244274
5275887482881,1.165960051,2,8.105569720458984,5.6754550354003905,0.7230489013671875,-1.7251908396946565,0.2900763358778626,-1.5572519083969465
5275897482204,1.175959374,2,8.073247998046874,5.785588311767578,0.7493851196289062,-1.786259541984733,0.2595419847328244,-1.6259541984732824
5275907487725,1.185964895,2,8.081627703857421,5.736507177734374,0.7326257080078125,-1.8549618320610688,0.26717557251908397,-1.6030534351145038
5275917486058,1.195963228,2,8.079233502197265,5.748478186035156,0.7218518005371093,-1.8244274809160306,0.32061068702290074,-1.5572519083969465
5275927480746,1.205957916,2,8.081627703857421,5.758054992675781,0.7110778930664062,-1.7786259541984732,0.25190839694656486,-1.5725190839694656
5275937479756,1.215956926,2,8.092401611328125,5.736507177734374,0.7218518005371093,-1.7938931297709924,0.22137404580152673,-1.6106870229007633
5275947485485,1.225962655,2,8.06965669555664,5.72693037109375,0.7302315063476562,-1.7557251908396947,0.20610687022900764,-1.618320610687023
5275957480902,1.235958072,2,8.145074047851562,5.747281085205078,0.7589619262695312,-1.748091603053435,0.25190839694656486,-1.5801526717557253
5275967505277,1.245982447,2,8.081627703857421,5.743689782714843,0.7805097412109374,-1.786259541984733,0.19083969465648856,-1.6641221374045803
5275977483454,1.255960624,2,8.152256652832031,5.738901379394531,0.7649474304199219,-1.6870229007633588,0.2595419847328244,-1.5877862595419847
5275987483194,1.265960364,2,8.148665350341796,5.736507177734374,0.7613561279296874,-1.7938931297709924,0.17557251908396945,-1.6564885496183206
5275997484964,1.275962134,2,8.073247998046874,5.747281085205078,0.7673416320800781,-1.8244274809160306,0.31297709923664124,-1.6106870229007633
5276007527152,1.286004322,2,8.113949426269532,5.66946953125,0.6715735656738281,-1.748091603053435,0.22137404580152673,-1.633587786259542
5276017494860,1.29597203,2,8.129511737060547,5.795165118408203,0.7110778930664062,-1.7404580152671756,0.24427480916030533,-1.618320610687023
5276027490277,1.305967447,2,8.09479581298828,5.700594152832031,0.7613561279296874,-1.748091603053435,0.2900763358778626,-1.549618320610687
5276037493454,1.315970624,2,8.074445098876952,5.785588311767578,0.7900865478515624,-1.8015267175572518,0.2824427480916031,-1.5954198473282444
5276047499496,1.325976666,2,8.12711753540039,5.756857891845703,0.6596025573730468,-1.7557251908396947,0.20610687022900764,-1.6259541984732824
5276057484339,1.335961509,2,8.139088543701172,5.756857891845703,0.7110778930664062,-1.702290076335878,0.29770992366412213,-1.633587786259542
5276067483558,1.345960728,2,8.172607366943359,5.717353564453124,0.7565677246093749,-1.7557251908396947,0.17557251908396945,-1.5572519083969465
5276077488194,1.355965364,2,8.141482745361328,5.7891796142578125,0.7745242370605468,-1.7557251908396947,0.2366412213740458,-1.6946564885496183
5276087484756,1.365961926,2,8.050503082275391,5.791573815917968,0.7553706237792969,-1.7633587786259541,0.1297709923664122,-1.5190839694656488
5276097479339,1.375956509,2,8.129511737060547,5.744886883544922,0.7338228088378905,-1.786259541984733,0.33587786259541985,-1.6641221374045803
5276107485485,1.385962655,2,8.139088543701172,5.753266589355468,0.7158662963867187,-1.7557251908396947,0.2748091603053435,-1.633587786259542
5276117482725,1.395959895,2,8.142679846191406,5.76523759765625,0.7302315063476562,-1.7099236641221374,0.26717557251908397,-1.5648854961832062
5276127481631,1.405958801,2,8.10796392211914,5.728127471923828,0.7637503295898437,-1.7633587786259541,0.2748091603053435,-1.5725190839694656
5276137479600,1.41595677,2,8.103175518798828,5.705382556152343,0.7553706237792969,-1.7633587786259541,0.32061068702290074,-1.6030534351145038
5276147482933,1.425960103,2,8.122329132080077,5.7700260009765625,0.7769184387207031,-1.748091603053435,0.1984732824427481,-1.6488549618320612
5276157482777,1.435959947,2,8.079233502197265,5.737704278564453,0.7481880187988281,-1.7633587786259541,0.2824427480916031,-1.5877862595419847
5276167487100,1.44596427,2,8.104372619628906,5.730521673583984,0.7553706237792969,-1.786259541984733,0.2595419847328244,-1.5801526717557253
5276177482621,1.455959791,2,8.091204510498047,5.706579656982422,0.7003039855957031,-1.7328244274809161,0.2900763358778626,-1.5877862595419847
5276187443975,1.465921145,2,8.095992913818359,5.697002850341796,0.6811503723144531,-1.7557251908396947,0.22137404580152673,-1.4885496183206106
5276197492412,1.475969582,2,8.117540728759765,5.717353564453124,0.7074865905761718,-1.7633587786259541,0.2595419847328244,-1.5801526717557253
5276207487933,1.485965103,2,8.110358123779296,5.749675286865234,0.7745242370605468,-1.786259541984733,0.21374045801526717,-1.6564885496183206
5276217451110,1.49592828,2,8.1594392578125,5.766434698486328,0.737414111328125,-1.8091603053435115,0.31297709923664124,-1.6030534351145038
5276227491944,1.505969114,2,8.090007409667969,5.7520694885253905,0.689530078125,-1.7709923664122138,0.26717557251908397,-1.6030534351145038
5276237483194,1.515960364,2,8.160636358642577,5.719747766113281,0.7457938171386719,-1.7251908396946565,0.29770992366412213,-1.6259541984732824
5276247483610,1.52596078,2,8.14627114868164,5.760449194335937,0.6859387756347656,-1.7938931297709924,0.19083969465648856,-1.618320610687023
5276257482048,1.535959218,2,8.099584216308592,5.753266589355468,0.7457938171386719,-1.7251908396946565,0.20610687022900764,-1.6259541984732824
5276267480173,1.545957343,2,8.142679846191406,5.761646295166015,0.719457598876953,-1.816793893129771,0.24427480916030533,-1.6030534351145038
5276277483766,1.555960936,2,8.099584216308592,5.772420202636718,0.7206546997070312,-1.7709923664122138,0.2824427480916031,-1.549618320610687
5276287479704,1.565956874,2,8.119934930419921,5.79037671508789,0.7134720947265625,-1.7557251908396947,0.26717557251908397,-1.5419847328244274
5276297482673,1.575959843,2,8.092401611328125,5.773617303466796,0.699106884765625,-1.7633587786259541,0.2748091603053435,-1.6488549618320612
5276307479339,1.585956509,2,8.118737829589843,5.742492681884765,0.7146691955566405,-1.7404580152671756,0.25190839694656486,-1.6259541984732824
5276317494391,1.595971561,2,8.09479581298828,5.7508723876953125,0.6607996582031249,-1.7709923664122138,0.21374045801526717,-1.5877862595419847
5276327485016,1.605962186,2,8.125920434570313,5.743689782714843,0.729034405517578,-1.7938931297709924,0.2900763358778626,-1.5190839694656488
5276337484964,1.615962134,2,8.125920434570313,5.758054992675781,0.7326257080078125,-1.717557251908397,0.26717557251908397,-1.6106870229007633
5276347477829,1.625954999,2,8.154650854492187,5.780799908447265,0.7445967163085937,-1.7099236641221374,0.21374045801526717,-1.6564885496183206
5276357491683,1.635968853,2,8.111555224609374,5.7520694885253905,0.7134720947265625,-1.7709923664122138,0.2748091603053435,-1.5725190839694656
5276367484600,1.64596177,2,8.128314636230469,5.786785412597656,0.6835445739746093,-1.8015267175572518,0.2748091603053435,-1.618320610687023
5276377481787,1.655958957,2,8.12711753540039,5.792770916748046,0.7733271362304687,-1.7633587786259541,0.24427480916030533,-1.6793893129770991
5276387486006,1.665963176,2,8.131905938720703,5.736507177734374,0.7338228088378905,-1.7099236641221374,0.2824427480916031,-1.6488549618320612
5276397488923,1.675966093,2,8.112752325439452,5.744886883544922,0.7206546997070312,-1.6946564885496183,0.16030534351145037,-1.5725190839694656
5276407484704,1.685961874,2,8.154650854492187,5.7149593627929685,0.7493851196289062,-1.786259541984733,0.22900763358778625,-1.5267175572519085
5276417480589,1.695957759,2,8.087613208007811,5.753266589355468,0.6548141540527344,-1.7786259541984732,0.24427480916030533,-1.6106870229007633
5276427480225,1.705957395,2,8.10796392211914,5.754463690185546,0.7242460021972655,-1.8015267175572518,0.2824427480916031,-1.6030534351145038
5276437481527,1.715958697,2,8.093598712158203,5.79037671508789,0.7206546997070312,-1.7709923664122138,0.19083969465648856,-1.6488549618320612
5276447484287,1.725961457,2,8.109161022949218,5.716156463623046,0.7026981872558593,-1.7938931297709924,0.22137404580152673,-1.618320610687023
5276457481839,1.735959009,2,8.116343627929687,5.7508723876953125,0.7254431030273437,-1.8091603053435115,0.25190839694656486,-1.5801526717557253
5276467483089,1.745960259,2,8.122329132080077,5.785588311767578,0.709880792236328,-1.7328244274809161,0.366412213740458,-1.5725190839694656
5276477484652,1.755961822,2,8.085219006347655,5.744886883544922,0.729034405517578,-1.8473282442748091,0.20610687022900764,-1.5648854961832062
5276487484652,1.765961822,2,8.10197841796875,5.723339068603515,0.7445967163085937,-1.786259541984733,0.3053435114503817,-1.5801526717557253
5276497483714,1.775960884,2,8.12711753540039,5.8262897399902345,0.6967126831054687,-1.7557251908396947,0.31297709923664124,-1.6030534351145038
5276507439339,1.785916509,2,8.109161022949218,5.753266589355468,0.6823474731445313,-1.8244274809160306,0.31297709923664124,-1.5572519083969465
5276517486943,1.795964113,2,8.134300140380859,5.711368060302734,0.7601590270996094,-1.7099236641221374,0.1450381679389313,-1.549618320610687
5276527481943,1.805959113,2,8.14627114868164,5.7149593627929685,0.7278373046875,-1.7633587786259541,0.31297709923664124,-1.6564885496183206
5276537481527,1.815958697,2,8.142679846191406,5.723339068603515,0.7314286071777343,-1.786259541984733,0.22137404580152673,-1.6564885496183206
5276547483558,1.825960728,2,8.142679846191406,5.716156463623046,0.6907271789550781,-1.717557251908397,0.22900763358778625,-1.5877862595419847
5276557521631,1.835998801,2,8.172607366943359,5.7149593627929685,0.7661445312499999,-1.7099236641221374,0.17557251908396945,-1.6030534351145038
5276567487568,1.845964738,2,8.14627114868164,5.759252093505859,0.7781155395507812,-1.7709923664122138,0.2900763358778626,-1.6030534351145038
5276577491943,1.855969113,2,8.12113203125,5.774814404296874,0.7242460021972655,-1.7251908396946565,0.22137404580152673,-1.5801526717557253
5276587481318,1.865958488,2,8.111555224609374,5.719747766113281,0.7793126403808593,-1.7709923664122138,0.25190839694656486,-1.633587786259542
5276597460641,1.875937811,2,8.12711753540039,5.766434698486328,0.6691793640136718,-1.748091603053435,0.12213740458015267,-1.534351145038168
5276607483089,1.885960259,2,8.080430603027343,5.744886883544922,0.7278373046875,-1.7709923664122138,0.24427480916030533,-1.5648854961832062
5276617501787,1.895978957,2,8.14028564453125,5.776011505126953,0.6272808349609375,-1.7328244274809161,0.22900763358778625,-1.5877862595419847
5276627481475,1.905958645,2,8.10796392211914,5.761646295166015,0.7230489013671875,-1.702290076335878,0.3435114503816794,-1.6641221374045803
5276637481110,1.91595828,2,8.097190014648437,5.747281085205078,0.7074865905761718,-1.7633587786259541,0.20610687022900764,-1.618320610687023
5276647489704,1.925966874,2,8.103175518798828,5.754463690185546,0.7218518005371093,-1.8015267175572518,0.31297709923664124,-1.6488549618320612
5276657483975,1.935961145,2,8.131905938720703,5.753266589355468,0.6979097839355468,-1.786259541984733,0.2366412213740458,-1.633587786259542
5276667481579,1.945958749,2,8.098387115478515,5.747281085205078,0.689530078125,-1.8015267175572518,0.2900763358778626,-1.5801526717557253
5276677483662,1.955960832,2,8.12711753540039,5.795165118408203,0.7445967163085937,-1.7786259541984732,0.29770992366412213,-1.6030534351145038
5276687484495,1.965961665,2,8.085219006347655,5.722141967773437,0.8092401611328125,-1.786259541984733,0.29770992366412213,-1.5954198473282444
5276697480173,1.975957343,2,8.125920434570313,5.728127471923828,0.7314286071777343,-1.7633587786259541,0.2595419847328244,-1.5877862595419847
5276707485745,1.985962915,2,8.087613208007811,5.711368060302734,0.737414111328125,-1.7633587786259541,0.33587786259541985,-1.5267175572519085
5276717478923,1.995956093,2,8.116343627929687,5.748478186035156,0.7338228088378905,-1.7557251908396947,0.15267175572519084,-1.5114503816793894
5276727479235,2.005956405,2,8.135497241210937,5.736507177734374,0.6955155822753906,-1.7709923664122138,0.2595419847328244,-1.7404580152671756
5276737492204,2.015969374,2,8.090007409667969,5.7149593627929685,0.6907271789550781,-1.7328244274809161,0.24427480916030533,-1.5725190839694656
5276747490068,2.025967238,2,8.139088543701172,5.747281085205078,0.7769184387207031,-1.702290076335878,0.29770992366412213,-1.618320610687023
5276757482412,2.035959582,2,8.109161022949218,5.76523759765625,0.7697358337402344,-1.748091603053435,0.17557251908396945,-1.5801526717557253
5276767485485,2.045962655,2,8.097190014648437,5.761646295166015,0.7601590270996094,-1.7328244274809161,0.2824427480916031,-1.5725190839694656
5276777485693,2.055962863,2,8.139088543701172,5.777208605957031,0.7637503295898437,-1.7557251908396947,0.1984732824427481,-1.633587786259542
5276787494339,2.065971509,2,8.106766821289062,5.766434698486328,0.7445967163085937,-1.7633587786259541,0.3511450381679389,-1.5877862595419847
5276797479287,2.075956457,2,8.11514652709961,5.791573815917968,0.6691793640136718,-1.7251908396946565,0.24427480916030533,-1.5877862595419847
5276807486527,2.085963697,2,8.129511737060547,5.729324572753906,0.7266402038574218,-1.7633587786259541,0.29770992366412213,-1.6412213740458015
5276817484756,2.095961926,2,8.164227661132813,5.719747766113281,0.7218518005371093,-1.702290076335878,0.19083969465648856,-1.6564885496183206
5276827480745,2.105957915,2,8.10197841796875,5.7520694885253905,0.7062894897460937,-1.7557251908396947,0.33587786259541985,-1.6717557251908397
5276837499495,2.115976665,2,8.062474090576172,5.736507177734374,0.6823474731445313,-1.786259541984733,0.2595419847328244,-1.5572519083969465
5276847445850,2.12592302,2,8.062474090576172,5.7329158752441405,0.6979097839355468,-1.7786259541984732,0.2748091603053435,-1.5954198473282444
5276857488089,2.135965259,2,8.166621862792969,5.761646295166015,0.7050923889160156,-1.8244274809160306,0.2748091603053435,-1.5572519083969465
5276867485902,2.145963072,2,8.155847955322265,5.701791253662109,0.7134720947265625,-1.7251908396946565,0.32061068702290074,-1.633587786259542
5276877482881,2.155960051,2,8.08881030883789,5.755660791015624,0.7589619262695312,-1.816793893129771,0.1984732824427481,-1.6259541984732824
5276887487152,2.165964322,2,8.073247998046874,5.738901379394531,0.6967126831054687,-1.702290076335878,0.2366412213740458,-1.5038167938931297
5276897516579,2.175993749,2,8.143876947021484,5.691017346191406,0.679953271484375,-1.7251908396946565,0.25190839694656486,-1.5725190839694656
5276907489235,2.185966405,2,8.152256652832031,5.759252093505859,0.6715735656738281,-1.7328244274809161,0.24427480916030533,-1.618320610687023
5276917484027,2.195961197,2,8.12711753540039,5.767631799316406,0.7062894897460937,-1.717557251908397,0.26717557251908397,-1.5801526717557253
5276927484495,2.205961665,2,8.072050897216796,5.754463690185546,0.7637503295898437,-1.7251908396946565,0.1984732824427481,-1.618320610687023
5276937484391,2.215961561,2,8.167818963623047,5.773617303466796,0.719457598876953,-1.7633587786259541,0.33587786259541985,-1.6030534351145038
5276947483297,2.225960467,2,8.152256652832031,5.76523759765625,0.7170633972167968,-1.7404580152671756,0.2824427480916031,-1.549618320610687
5276957480745,2.235957915,2,8.100781317138672,5.756857891845703,0.7326257080078125,-1.7328244274809161,0.29770992366412213,-1.6106870229007633
5276967481735,2.245958905,2,8.180987072753906,5.747281085205078,0.7302315063476562,-1.8015267175572518,0.25190839694656486,-1.549618320610687
5276977484600,2.25596177,2,8.11514652709961,5.717353564453124,0.7146691955566405,-1.7099236641221374,0.26717557251908397,-1.6793893129770991
5276987442985,2.265920155,2,8.145074047851562,5.692214447021484,0.7445967163085937,-1.786259541984733,0.33587786259541985,-1.5725190839694656
5276997496787,2.275973957,2,8.137891442871092,5.720944866943359,0.7074865905761718,-1.748091603053435,0.2748091603053435,-1.6106870229007633
5277007482412,2.285959582,2,8.105569720458984,5.736507177734374,0.7038952880859375,-1.6946564885496183,0.2748091603053435,-1.5725190839694656
5277017479756,2.295956926,2,8.116343627929687,5.778405706787109,0.7266402038574218,-1.7709923664122138,0.3053435114503817,-1.5648854961832062
5277027489547,2.305966717,2,8.147468249511718,5.777208605957031,0.7146691955566405,-1.7404580152671756,0.21374045801526717,-1.5038167938931297
5277037482464,2.315959634,2,8.087613208007811,5.7329158752441405,0.74699091796875,-1.7251908396946565,0.2900763358778626,-1.633587786259542
5277047481058,2.325958228,2,8.139088543701172,5.7149593627929685,0.7314286071777343,-1.7328244274809161,0.24427480916030533,-1.5725190839694656
5277057481370,2.33595854,2,8.10197841796875,5.816712933349609,0.6763619689941406,-1.7404580152671756,0.32061068702290074,-1.618320610687023
5277067484443,2.345961613,2,8.104372619628906,5.725733270263672,0.7206546997070312,-1.786259541984733,0.21374045801526717,-1.6030534351145038
5277077485589,2.355962759,2,8.134300140380859,5.780799908447265,0.7350199096679687,-1.8091603053435115,0.32061068702290074,-1.5725190839694656
5277087483245,2.365960415,2,8.110358123779296,5.7843912109375,0.709880792236328,-1.8091603053435115,0.22900763358778625,-1.549618320610687
5277097484808,2.375961978,2,8.1594392578125,5.761646295166015,0.7254431030273437,-1.8473282442748091,0.31297709923664124,-1.5954198473282444
5277107482985,2.385960155,2,8.105569720458984,5.791573815917968,0.7170633972167968,-1.83206106870229,0.19083969465648856,-1.5801526717557253
5277117483141,2.395960311,2,8.11514652709961,5.767631799316406,0.7757213378906249,-1.8015267175572518,0.2824427480916031,-1.5954198473282444
5277127484808,2.405961978,2,8.16542476196289,5.716156463623046,0.6943184814453125,-1.8396946564885497,0.1984732824427481,-1.5725190839694656
5277137485068,2.415962238,2,8.074445098876952,5.754463690185546,0.7709329345703124,-1.7633587786259541,0.3053435114503817,-1.6488549618320612
5277147444183,2.425921353,2,8.109161022949218,5.749675286865234,0.7565677246093749,-1.7557251908396947,0.19083969465648856,-1.5572519083969465
5277157498297,2.435975467,2,8.14028564453125,5.792770916748046,0.7338228088378905,-1.7709923664122138,0.26717557251908397,-1.618320610687023
5277167498297,2.445975467,2,8.103175518798828,5.748478186035156,0.679953271484375,-1.7633587786259541,0.25190839694656486,-1.5725190839694656
5277177486058,2.455963228,2,8.091204510498047,5.7149593627929685,0.7888894470214843,-1.7633587786259541,0.2595419847328244,-1.549618320610687
5277187492672,2.465969842,2,8.07683930053711,5.758054992675781,0.7697358337402344,-1.8015267175572518,0.19083969465648856,-1.618320610687023
5277197488766,2.475965936,2,8.087613208007811,5.7329158752441405,0.7158662963867187,-1.702290076335878,0.3053435114503817,-1.633587786259542
5277207486735,2.485963905,2,8.105569720458984,5.759252093505859,0.6727706665039062,-1.8091603053435115,0.22900763358778625,-1.6412213740458015
5277217493662,2.495970832,2,8.10796392211914,5.7329158752441405,0.7122749938964843,-1.8549618320610688,0.1984732824427481,-1.5725190839694656
5277227489495,2.505966665,2,8.109161022949218,5.748478186035156,0.7050923889160156,-1.7251908396946565,0.2366412213740458,-1.4961832061068703
5277237485277,2.515962447,2,8.10197841796875,5.738901379394531,0.6703764648437499,-1.7709923664122138,0.32061068702290074,-1.5572519083969465
5277247491058,2.525968228,2,8.090007409667969,5.76523759765625,0.7769184387207031,-1.7709923664122138,0.20610687022900764,-1.618320610687023
5277257485016,2.535962186,2,8.099584216308592,5.7508723876953125,0.70868369140625,-1.8015267175572518,0.26717557251908397,-1.618320610687023
5277267487151,2.545964321,2,8.080430603027343,5.7077767578125,0.6835445739746093,-1.717557251908397,0.19083969465648856,-1.5725190839694656
5277277484183,2.555961353,2,8.117540728759765,5.785588311767578,0.7709329345703124,-1.7404580152671756,0.31297709923664124,-1.5801526717557253
5277287485068,2.565962238,2,8.137891442871092,5.740098480224609,0.7242460021972655,-1.748091603053435,0.21374045801526717,-1.618320610687023
5277297484808,2.575961978,2,8.097190014648437,5.767631799316406,0.6596025573730468,-1.7709923664122138,0.2366412213740458,-1.618320610687023
5277307488349,2.585965519,2,8.14028564453125,5.772420202636718,0.6667851623535156,-1.7404580152671756,0.22137404580152673,-1.6030534351145038
5277317487256,2.595964426,2,8.103175518798828,5.740098480224609,0.7350199096679687,-1.7557251908396947,0.25190839694656486,-1.5801526717557253
5277327488349,2.605965519,2,8.11514652709961,5.77122310180664,0.7170633972167968,-1.7938931297709924,0.2366412213740458,-1.5419847328244274
5277337480693,2.615957863,2,8.139088543701172,5.746083984375,0.7218518005371093,-1.7099236641221374,0.31297709923664124,-1.5801526717557253
5277347495641,2.625972811,2,8.137891442871092,5.710170959472656,0.6847416748046875,-1.6564885496183206,0.29770992366412213,-1.5877862595419847
5277357494860,2.63597203,2,8.176198669433592,5.689820245361328,0.7733271362304687,-1.7328244274809161,0.2595419847328244,-1.5038167938931297
5277367486943,2.645964113,2,8.142679846191406,5.76523759765625,0.6524199523925781,-1.7557251908396947,0.20610687022900764,-1.5954198473282444
5277377478922,2.655956092,2,8.141482745361328,5.754463690185546,0.6847416748046875,-1.8625954198473282,0.2366412213740458,-1.6106870229007633
5277387489026,2.665966196,2,8.163030560302733,5.76523759765625,0.7003039855957031,-1.786259541984733,0.2595419847328244,-1.5419847328244274
5277397481422,2.675958592,2,8.084021905517577,5.740098480224609,0.7362170104980469,-1.7633587786259541,0.24427480916030533,-1.5877862595419847
5277407480120,2.68595729,2,8.151059552001952,5.786785412597656,0.6823474731445313,-1.717557251908397,0.2366412213740458,-1.5648854961832062
5277417504131,2.695981301,2,8.100781317138672,5.796362219238281,0.7685387329101562,-1.7938931297709924,0.12213740458015267,-1.5954198473282444
5277427488558,2.705965728,2,8.068459594726562,5.736507177734374,0.6943184814453125,-1.8549618320610688,0.24427480916030533,-1.5954198473282444
5277437485849,2.715963019,2,8.072050897216796,5.7700260009765625,0.7003039855957031,-1.717557251908397,0.16030534351145037,-1.7099236641221374
5277447486631,2.725963801,2,8.086416107177733,5.748478186035156,0.6727706665039062,-1.7938931297709924,0.22900763358778625,-1.549618320610687
5277457530433,2.736007603,2,8.128314636230469,5.755660791015624,0.6787561706542968,-1.7557251908396947,0.24427480916030533,-1.5877862595419847
5277467488558,2.745965728,2,8.13310303955078,5.759252093505859,0.7362170104980469,-1.717557251908397,0.22900763358778625,-1.5725190839694656
5277477494651,2.755971821,2,8.087613208007811,5.758054992675781,0.7110778930664062,-1.7709923664122138,0.15267175572519084,-1.5954198473282444
5277487489651,2.765966821,2,8.0828248046875,5.758054992675781,0.7266402038574218,-1.7099236641221374,0.3053435114503817,-1.534351145038168
5277497456370,2.77593354,2,8.090007409667969,5.746083984375,0.679953271484375,-1.7709923664122138,0.2595419847328244,-1.6030534351145038
5277507492516,2.785969686,2,8.157045056152343,5.764040496826172,0.6404489440917969,-1.7557251908396947,0.31297709923664124,-1.5877862595419847
5277517486474,2.795963644,2,8.14627114868164,5.7508723876953125,0.7589619262695312,-1.8015267175572518,0.26717557251908397,-1.5419847328244274
5277527486162,2.805963332,2,8.122329132080077,5.779602807617187,0.7062894897460937,-1.8015267175572518,0.24427480916030533,-1.5419847328244274
5277537490901,2.815968071,2,8.070853796386718,5.787982513427734,0.7697358337402344,-1.7557251908396947,0.25190839694656486,-1.6412213740458015
5277547487724,2.825964894,2,8.155847955322265,5.7508723876953125,0.7805097412109374,-1.7557251908396947,0.32061068702290074,-1.6946564885496183
5277557481006,2.835958176,2,8.12113203125,5.778405706787109,0.6667851623535156,-1.7099236641221374,0.20610687022900764,-1.5954198473282444
5277567486006,2.845963176,2,8.042123376464843,5.760449194335937,0.689530078125,-1.7328244274809161,0.31297709923664124,-1.618320610687023
5277577485589,2.855962759,2,8.163030560302733,5.767631799316406,0.7254431030273437,-1.7938931297709924,0.16030534351145037,-1.6412213740458015
5277587495276,2.865972446,2,8.11514652709961,5.760449194335937,0.7242460021972655,-1.7328244274809161,0.33587786259541985,-1.5877862595419847
5277597501735,2.875978905,2,8.141482745361328,5.760449194335937,0.718260498046875,-1.7328244274809161,0.16030534351145037,-1.5572519083969465
5277607493401,2.885970571,2,8.12711753540039,5.728127471923828,0.7314286071777343,-1.7938931297709924,0.29770992366412213,-1.5801526717557253
5277617484651,2.895961821,2,8.157045056152343,5.736507177734374,0.7673416320800781,-1.7404580152671756,0.29770992366412213,-1.6870229007633588
5277627486006,2.905963176,2,8.15345375366211,5.7843912109375,0.70868369140625,-1.8244274809160306,0.29770992366412213,-1.618320610687023
5277637490068,2.915967238,2,8.14627114868164,5.734112976074218,0.6967126831054687,-1.8015267175572518,0.1984732824427481,-1.618320610687023
5277647487568,2.925964738,2,8.117540728759765,5.723339068603515,0.7122749938964843,-1.717557251908397,0.3435114503816794,-1.6106870229007633
5277657485901,2.935963071,2,8.117540728759765,5.793968017578124,0.6907271789550781,-1.7557251908396947,0.183206106870229,-1.5419847328244274
5277667490224,2.945967394,2,8.119934930419921,5.728127471923828,0.7625532287597656,-1.7786259541984732,0.2595419847328244,-1.5877862595419847
5277677485537,2.955962707,2,8.079233502197265,5.691017346191406,0.6572083557128906,-1.8473282442748091,0.183206106870229,-1.5877862595419847
5277687482412,2.965959582,2,8.081627703857421,5.734112976074218,0.6979097839355468,-1.786259541984733,0.3053435114503817,-1.6488549618320612
5277697486943,2.975964113,2,8.130708837890625,5.7125651611328125,0.7062894897460937,-1.8244274809160306,0.2366412213740458,-1.5648854961832062
5277707484443,2.985961613,2,8.123526232910155,5.764040496826172,0.7733271362304687,-1.702290076335878,0.31297709923664124,-1.5648854961832062
5277717489130,2.9959663,2,8.062474090576172,5.719747766113281,0.7422025146484375,-1.7786259541984732,0.1984732824427481,-1.5801526717557253
5277727488037,3.005965207,2,8.105569720458984,5.7329158752441405,0.7481880187988281,-1.7099236641221374,0.31297709923664124,-1.6870229007633588
5277737492099,3.015969269,2,8.103175518798828,5.7329158752441405,0.7577648254394531,-1.786259541984733,0.22900763358778625,-1.5648854961832062
5277747485901,3.025963071,2,8.111555224609374,5.717353564453124,0.6572083557128906,-1.7404580152671756,0.31297709923664124,-1.5648854961832062
5277757486943,3.035964113,2,8.067262493896484,5.786785412597656,0.7517793212890624,-1.7328244274809161,0.2595419847328244,-1.5954198473282444
5277767492985,3.045970155,2,8.092401611328125,5.7508723876953125,0.7589619262695312,-1.7404580152671756,0.26717557251908397,-1.6641221374045803
5277777485276,3.055962446,2,8.129511737060547,5.799953521728515,0.7338228088378905,-1.7404580152671756,0.22137404580152673,-1.6412213740458015
5277787483245,3.065960415,2,8.097190014648437,5.738901379394531,0.709880792236328,-1.702290076335878,0.33587786259541985,-1.5114503816793894
5277797490120,3.07596729,2,8.112752325439452,5.7508723876953125,0.7553706237792969,-1.748091603053435,0.22900763358778625,-1.5954198473282444
5277807487568,3.085964738,2,8.151059552001952,5.722141967773437,0.7110778930664062,-1.7557251908396947,0.2824427480916031,-1.5572519083969465
5277817484703,3.095961873,2,8.129511737060547,5.79037671508789,0.7110778930664062,-1.717557251908397,0.1984732824427481,-1.6030534351145038
5277827489287,3.105966457,2,8.14028564453125,5.7508723876953125,0.7721300354003906,-1.7557251908396947,0.2748091603053435,-1.5801526717557253
5277837454964,3.115932134,2,8.129511737060547,5.730521673583984,0.6691793640136718,-1.7328244274809161,0.19083969465648856,-1.5725190839694656
5277847500693,3.125977863,2,8.116343627929687,5.785588311767578,0.8271966735839843,-1.7938931297709924,0.32061068702290074,-1.5648854961832062
5277857486735,3.135963905,2,8.086416107177733,5.736507177734374,0.7218518005371093,-1.7709923664122138,0.24427480916030533,-1.6106870229007633
5277867486578,3.145963748,2,8.11514652709961,5.764040496826172,0.7254431030273437,-1.717557251908397,0.37404580152671757,-1.618320610687023
5277877484287,3.155961457,2,8.093598712158203,5.77122310180664,0.7266402038574218,-1.7328244274809161,0.22900763358778625,-1.5877862595419847
5277887483714,3.165960884,2,8.142679846191406,5.738901379394531,0.6596025573730468,-1.8015267175572518,0.26717557251908397,-1.5877862595419847
5277897491266,3.175968436,2,8.103175518798828,5.738901379394531,0.7266402038574218,-1.8015267175572518,0.21374045801526717,-1.549618320610687
5277907485849,3.185963019,2,8.091204510498047,5.7508723876953125,0.737414111328125,-1.7633587786259541,0.3282442748091603,-1.6641221374045803
5277917493922,3.195971092,2,8.112752325439452,5.77122310180664,0.6584054565429687,-1.7709923664122138,0.1450381679389313,-1.5725190839694656
5277927492151,3.205969321,2,8.131905938720703,5.724536169433593,0.7625532287597656,-1.786259541984733,0.21374045801526717,-1.534351145038168
5277937486422,3.215963592,2,8.12711753540039,5.7700260009765625,0.7302315063476562,-1.7938931297709924,0.22137404580152673,-1.6030534351145038
5277947482099,3.225959269,2,8.119934930419921,5.76523759765625,0.7422025146484375,-1.6870229007633588,0.2748091603053435,-1.6106870229007633
5277957488141,3.235965311,2,8.161833459472655,5.747281085205078,0.7038952880859375,-1.7251908396946565,0.1297709923664122,-1.5877862595419847
5277967485641,3.245962811,2,8.14627114868164,5.780799908447265,0.7326257080078125,-1.7557251908396947,0.2595419847328244,-1.633587786259542
5277977487828,3.255964998,2,8.197746484375,5.777208605957031,0.6919242797851562,-1.7938931297709924,0.26717557251908397,-1.5801526717557253
5277987507985,3.265985155,2,8.106766821289062,5.7317187744140625,0.7577648254394531,-1.7557251908396947,0.2595419847328244,-1.549618320610687
5277997490120,3.27596729,2,8.161833459472655,5.749675286865234,0.7254431030273437,-1.786259541984733,0.2595419847328244,-1.6106870229007633
5278007795589,3.286272759,2,8.12711753540039,5.72693037109375,0.6979097839355468,-1.816793893129771,0.2595419847328244,-1.6106870229007633
5278017538401,3.296015571,2,8.104372619628906,5.759252093505859,0.8020575561523438,-1.8015267175572518,0.3053435114503817,-1.5725190839694656
5278027498766,3.305975936,2,8.090007409667969,5.722141967773437,0.7158662963867187,-1.7557251908396947,0.22900763358778625,-1.6030534351145038
5278037533193,3.316010363,2,8.064868292236328,5.699397052001952,0.6512228515624999,-1.7633587786259541,0.19083969465648856,-1.5419847328244274
5278047491214,3.325968384,2,8.130708837890625,5.776011505126953,0.7254431030273437,-1.7633587786259541,0.24427480916030533,-1.6106870229007633
5278057486005,3.335963175,2,8.139088543701172,5.742492681884765,0.7242460021972655,-1.7251908396946565,0.21374045801526717,-1.633587786259542
5278067487568,3.345964738,2,8.172607366943359,5.738901379394531,0.718260498046875,-1.7786259541984732,0.19083969465648856,-1.5572519083969465
5278077486526,3.355963696,2,8.111555224609374,5.736507177734374,0.7110778930664062,-1.7786259541984732,0.2824427480916031,-1.5190839694656488
5278087450224,3.365927394,2,8.109161022949218,5.801150622558594,0.6679822631835937,-1.7786259541984732,0.16030534351145037,-1.5954198473282444
5278097493922,3.375971092,2,8.091204510498047,5.7891796142578125,0.7314286071777343,-1.7557251908396947,0.2824427480916031,-1.5725190839694656
5278107490745,3.385967915,2,8.14028564453125,5.778405706787109,0.7685387329101562,-1.7251908396946565,0.2366412213740458,-1.5801526717557253
5278117481787,3.395958957,2,8.12711753540039,5.764040496826172,0.7003039855957031,-1.702290076335878,0.2824427480916031,-1.5954198473282444
5278127489339,3.405966509,2,8.087613208007811,5.711368060302734,0.7003039855957031,-1.7557251908396947,0.2748091603053435,-1.549618320610687
5278137493609,3.415970779,2,8.141482745361328,5.753266589355468,0.7613561279296874,-1.8015267175572518,0.25190839694656486,-1.5725190839694656
5278147485328,3.425962498,2,8.183381274414062,5.729324572753906,0.6847416748046875,-1.7633587786259541,0.22137404580152673,-1.633587786259542
5278157479339,3.435956509,2,8.139088543701172,5.748478186035156,0.7038952880859375,-1.7404580152671756,0.25190839694656486,-1.6106870229007633
5278167491891,3.445969061,2,8.139088543701172,5.747281085205078,0.7565677246093749,-1.83206106870229,0.1984732824427481,-1.549618320610687
5278177486057,3.455963227,2,8.15345375366211,5.748478186035156,0.709880792236328,-1.8091603053435115,0.2748091603053435,-1.618320610687023
5278187484234,3.465961404,2,8.03853207397461,5.743689782714843,0.7589619262695312,-1.7404580152671756,0.22137404580152673,-1.6030534351145038
5278197481370,3.47595854,2,8.105569720458984,5.725733270263672,0.7433996154785156,-1.748091603053435,0.32061068702290074,-1.5801526717557253
5278207486162,3.485963332,2,8.092401611328125,5.7700260009765625,0.7026981872558593,-1.717557251908397,0.2366412213740458,-1.5954198473282444
5278217485901,3.495963071,2,8.111555224609374,5.764040496826172,0.7266402038574218,-1.7709923664122138,0.26717557251908397,-1.5801526717557253
5278227485380,3.50596255,2,8.134300140380859,5.767631799316406,0.6715735656738281,-1.7709923664122138,0.24427480916030533,-1.5801526717557253
5278237496630,3.5159738,2,8.134300140380859,5.736507177734374,0.7781155395507812,-1.7709923664122138,0.2748091603053435,-1.6030534351145038
5278247488662,3.525965832,2,8.103175518798828,5.768828900146484,0.7445967163085937,-1.7633587786259541,0.183206106870229,-1.618320610687023
5278257488141,3.535965311,2,8.117540728759765,5.754463690185546,0.6739677673339843,-1.7251908396946565,0.22137404580152673,-1.5572519083969465
5278267453453,3.545930623,2,8.074445098876952,5.744886883544922,0.6811503723144531,-1.6870229007633588,0.20610687022900764,-1.633587786259542
5278278128557,3.556605727,2,8.128314636230469,5.724536169433593,0.7637503295898437,-1.786259541984733,0.2595419847328244,-1.5954198473282444
5278288314912,3.566792082,2,8.11514652709961,5.744886883544922,0.7146691955566405,-1.8015267175572518,0.24427480916030533,-1.6106870229007633
5278298307672,3.576784842,2,8.141482745361328,5.754463690185546,0.7769184387207031,-1.7709923664122138,0.3435114503816794,-1.6412213740458015
5278308323245,3.586800415,2,8.141482745361328,5.737704278564453,0.6548141540527344,-1.702290076335878,0.16030534351145037,-1.6030534351145038
5278318276266,3.596753436,2,8.123526232910155,5.7149593627929685,0.699106884765625,-1.7786259541984732,0.2366412213740458,-1.5038167938931297
5278328318766,3.606795936,2,8.14627114868164,5.722141967773437,0.719457598876953,-1.717557251908397,0.21374045801526717,-1.618320610687023
5278338310745,3.616787915,2,8.117540728759765,5.718550665283203,0.6560112548828124,-1.8015267175572518,0.2748091603053435,-1.5572519083969465
5278348313297,3.626790467,2,8.099584216308592,5.744886883544922,0.7170633972167968,-1.7404580152671756,0.20610687022900764,-1.6259541984732824
5278358275536,3.636752706,2,8.104372619628906,5.708973858642578,0.6368576416015624,-1.7557251908396947,0.32061068702290074,-1.5801526717557253
5278368321266,3.646798436,2,8.117540728759765,5.7700260009765625,0.7386112121582031,-1.748091603053435,0.22900763358778625,-1.5725190839694656
5278378329911,3.656807081,2,8.095992913818359,5.730521673583984,0.7134720947265625,-1.7099236641221374,0.33587786259541985,-1.5877862595419847
5278388312984,3.666790154,2,8.087613208007811,5.744886883544922,0.6775590698242188,-1.717557251908397,0.25190839694656486,-1.633587786259542
5278398283349,3.676760519,2,8.134300140380859,5.747281085205078,0.74699091796875,-1.816793893129771,0.2366412213740458,-1.6412213740458015
5278408317672,3.686794842,2,8.099584216308592,5.72693037109375,0.7278373046875,-1.8244274809160306,0.15267175572519084,-1.4885496183206106
5278418280328,3.696757498,2,8.10197841796875,5.766434698486328,0.7673416320800781,-1.7099236641221374,0.2748091603053435,-1.5419847328244274
5278428244026,3.706721196,2,8.097190014648437,5.767631799316406,0.7697358337402344,-1.7328244274809161,0.22900763358778625,-1.5954198473282444
5278438282411,3.716759581,2,8.136694342041014,5.749675286865234,0.7362170104980469,-1.7557251908396947,0.25190839694656486,-1.6412213740458015
5278448312151,3.726789321,2,8.142679846191406,5.722141967773437,0.7445967163085937,-1.7557251908396947,0.2366412213740458,-1.5954198473282444
5278458284547,3.736761717,2,8.092401611328125,5.753266589355468,0.7745242370605468,-1.748091603053435,0.19083969465648856,-1.5954198473282444
5278468312828,3.746789998,2,8.14028564453125,5.791573815917968,0.6488286499023437,-1.748091603053435,0.2900763358778626,-1.5801526717557253
5278478346057,3.756823227,2,8.119934930419921,5.778405706787109,0.7613561279296874,-1.7633587786259541,0.22137404580152673,-1.633587786259542
5278488308297,3.766785467,2,8.106766821289062,5.797559320068359,0.7410054138183594,-1.8091603053435115,0.2900763358778626,-1.6259541984732824
5278498284339,3.776761509,2,8.124723333740233,5.781997009277344,0.689530078125,-1.7633587786259541,0.25190839694656486,-1.5419847328244274
5278508322411,3.786799581,2,8.099584216308592,5.730521673583984,0.7757213378906249,-1.8015267175572518,0.2824427480916031,-1.6030534351145038
5278518278714,3.796755884,2,8.081627703857421,5.776011505126953,0.7015010864257812,-1.7404580152671756,0.24427480916030533,-1.6946564885496183
5278528320068,3.806797238,2,8.10796392211914,5.756857891845703,0.7601590270996094,-1.7557251908396947,0.3053435114503817,-1.618320610687023
5278538280641,3.816757811,2,8.112752325439452,5.742492681884765,0.6500257507324219,-1.7099236641221374,0.1984732824427481,-1.702290076335878
5278548311214,3.826788384,2,8.14028564453125,5.747281085205078,0.7338228088378905,-1.6946564885496183,0.26717557251908397,-1.5954198473282444
5278558369859,3.836847029,2,8.099584216308592,5.753266589355468,0.6835445739746093,-1.786259541984733,0.19083969465648856,-1.5801526717557253
5278568318401,3.846795571,2,8.147468249511718,5.807136126708984,0.70868369140625,-1.8244274809160306,0.3282442748091603,-1.6259541984732824
5278578335432,3.856812602,2,8.158242156982421,5.820304235839844,0.7230489013671875,-1.7557251908396947,0.12213740458015267,-1.5954198473282444
5278588329182,3.866806352,2,8.128314636230469,5.766434698486328,0.7003039855957031,-1.7251908396946565,0.2900763358778626,-1.6030534351145038
5278598291370,3.87676854,2,8.143876947021484,5.738901379394531,0.70868369140625,-1.717557251908397,0.16793893129770993,-1.5419847328244274
5278608320224,3.886797394,2,8.158242156982421,5.773617303466796,0.6979097839355468,-1.8244274809160306,0.29770992366412213,-1.6259541984732824
5278618277776,3.896754946,2,8.098387115478515,5.76523759765625,0.7026981872558593,-1.7404580152671756,0.29770992366412213,-1.534351145038168
5278628316578,3.906793748,2,8.11514652709961,5.736507177734374,0.7170633972167968,-1.7404580152671756,0.3053435114503817,-1.6488549618320612
5278638275849,3.916753019,2,8.100781317138672,5.774814404296874,0.7613561279296874,-1.8396946564885497,0.2748091603053435,-1.618320610687023
5278648316422,3.926793592,2,8.05648858642578,5.758054992675781,0.7362170104980469,-1.7557251908396947,0.35877862595419846,-1.5954198473282444
5278658286266,3.936763436,2,8.081627703857421,5.729324572753906,0.7146691955566405,-1.816793893129771,0.2366412213740458,-1.6412213740458015
5278668311266,3.946788436,2,8.119934930419921,5.729324572753906,0.7218518005371093,-1.702290076335878,0.29770992366412213,-1.5877862595419847
5278678331630,3.9568088,2,8.106766821289062,5.736507177734374,0.7386112121582031,-1.786259541984733,0.31297709923664124,-1.5648854961832062
5278688313036,3.966790206,2,8.080430603027343,5.780799908447265,0.7876923461914062,-1.702290076335878,0.22900763358778625,-1.5648854961832062
5278698282047,3.976759217,2,8.07683930053711,5.6946086486816405,0.7697358337402344,-1.7786259541984732,0.3053435114503817,-1.549618320610687
5278708324443,3.986801613,2,8.122329132080077,5.7149593627929685,0.718260498046875,-1.717557251908397,0.1984732824427481,-1.6106870229007633
5278718275797,3.996752967,2,8.163030560302733,5.756857891845703,0.7685387329101562,-1.7251908396946565,0.3282442748091603,-1.6717557251908397
5278728318870,4.00679604,2,8.07683930053711,5.795165118408203,0.7003039855957031,-1.786259541984733,0.26717557251908397,-1.5954198473282444
5278738276734,4.016753904,2,8.050503082275391,5.689820245361328,0.7960720520019531,-1.7938931297709924,0.3282442748091603,-1.5648854961832062
5278748309286,4.026786456,2,8.116343627929687,5.77122310180664,0.7493851196289062,-1.7938931297709924,0.1450381679389313,-1.5725190839694656
5278758284078,4.036761248,2,8.131905938720703,5.728127471923828,0.6667851623535156,-1.7557251908396947,0.2900763358778626,-1.6564885496183206
5278768307411,4.046784581,2,8.147468249511718,5.7700260009765625,0.7829039428710937,-1.6946564885496183,0.2595419847328244,-1.5877862595419847
5278778282307,4.056759477,2,8.131905938720703,5.743689782714843,0.7805097412109374,-1.786259541984733,0.2824427480916031,-1.5954198473282444
5278788319390,4.06679656,2,8.128314636230469,5.720944866943359,0.7936778503417968,-1.7786259541984732,0.24427480916030533,-1.5572519083969465
5278798276109,4.076753279,2,8.105569720458984,5.729324572753906,0.7302315063476562,-1.7786259541984732,0.31297709923664124,-1.6564885496183206
5278808315953,4.086793123,2,8.113949426269532,5.755660791015624,0.6739677673339843,-1.717557251908397,0.1450381679389313,-1.6106870229007633
5278818277828,4.096754998,2,8.064868292236328,5.793968017578124,0.70868369140625,-1.7557251908396947,0.3282442748091603,-1.6030534351145038
5278828333245,4.106810415,2,8.084021905517577,5.761646295166015,0.7541735229492187,-1.8091603053435115,0.19083969465648856,-1.5038167938931297
5278838294859,4.116772029,2,8.09479581298828,5.735310076904296,0.7972691528320313,-1.7557251908396947,0.25190839694656486,-1.5038167938931297
5278848314599,4.126791769,2,8.111555224609374,5.778405706787109,0.6548141540527344,-1.7709923664122138,0.183206106870229,-1.6717557251908397
5278858276422,4.136753592,2,8.110358123779296,5.76523759765625,0.6619967590332031,-1.7709923664122138,0.31297709923664124,-1.6641221374045803
5278868352724,4.146829894,2,8.119934930419921,5.76523759765625,0.7757213378906249,-1.8396946564885497,0.16030534351145037,-1.6488549618320612
5278878347099,4.156824269,2,8.119934930419921,5.80354482421875,0.7266402038574218,-1.786259541984733,0.33587786259541985,-1.5954198473282444
5278888309130,4.1667863,2,8.158242156982421,5.7520694885253905,0.6811503723144531,-1.8091603053435115,0.21374045801526717,-1.6106870229007633
5278898315901,4.176793071,2,8.123526232910155,5.693411547851563,0.6907271789550781,-1.786259541984733,0.2366412213740458,-1.6106870229007633
5278908321786,4.186798956,2,8.103175518798828,5.702988354492187,0.7110778930664062,-1.786259541984733,0.2366412213740458,-1.6030534351145038
5278918276682,4.196753852,2,8.093598712158203,5.749675286865234,0.718260498046875,-1.7404580152671756,0.22900763358778625,-1.5801526717557253
5278928317984,4.206795154,2,8.112752325439452,5.766434698486328,0.6787561706542968,-1.8015267175572518,0.22137404580152673,-1.5954198473282444
5278938274911,4.216752081,2,8.10796392211914,5.774814404296874,0.7733271362304687,-1.7251908396946565,0.22137404580152673,-1.5954198473282444
5278948324755,4.226801925,2,8.111555224609374,5.719747766113281,0.6739677673339843,-1.8091603053435115,0.26717557251908397,-1.6106870229007633
5278958279130,4.2367563,2,8.145074047851562,5.766434698486328,0.7649474304199219,-1.7633587786259541,0.29770992366412213,-1.6717557251908397
5278968318349,4.246795519,2,8.112752325439452,5.772420202636718,0.7661445312499999,-1.8015267175572518,0.2595419847328244,-1.5801526717557253
5278978277359,4.256754529,2,8.110358123779296,5.785588311767578,0.7218518005371093,-1.8244274809160306,0.25190839694656486,-1.6412213740458015
5278988322203,4.266799373,2,8.134300140380859,5.740098480224609,0.6823474731445313,-1.717557251908397,0.1984732824427481,-1.5267175572519085
5278998279234,4.276756404,2,8.093598712158203,5.798756420898437,0.6368576416015624,-1.7786259541984732,0.26717557251908397,-1.5954198473282444
5279008314859,4.286792029,2,8.152256652832031,5.687426043701172,0.7637503295898437,-1.7251908396946565,0.21374045801526717,-1.5648854961832062
5279018272776,4.296749946,2,8.104372619628906,5.758054992675781,0.6751648681640625,-1.6870229007633588,0.3053435114503817,-1.5572519083969465
5279028313453,4.306790623,2,8.118737829589843,5.741295581054687,0.7074865905761718,-1.7328244274809161,0.2366412213740458,-1.5038167938931297
5279038303036,4.316780206,2,8.11514652709961,5.7149593627929685,0.6596025573730468,-1.7557251908396947,0.24427480916030533,-1.5954198473282444
5279048304911,4.326782081,2,8.13310303955078,5.744886883544922,0.70868369140625,-1.702290076335878,0.2366412213740458,-1.6564885496183206
5279058284442,4.336761612,2,8.135497241210937,5.7891796142578125,0.689530078125,-1.7633587786259541,0.19083969465648856,-1.5419847328244274
5279068308192,4.346785362,2,8.093598712158203,5.730521673583984,0.7003039855957031,-1.83206106870229,0.25190839694656486,-1.6488549618320612
5279078226890,4.35670406,2,8.104372619628906,5.756857891845703,0.7026981872558593,-1.816793893129771,0.1984732824427481,-1.6488549618320612
5279088323245,4.366800415,2,8.12711753540039,5.704185455322265,0.7158662963867187,-1.8396946564885497,0.1984732824427481,-1.633587786259542
5279098277151,4.376754321,2,8.125920434570313,5.72693037109375,0.7266402038574218,-1.717557251908397,0.20610687022900764,-1.633587786259542
5279108319703,4.386796873,2,8.098387115478515,5.7317187744140625,0.6476315490722656,-1.7709923664122138,0.2824427480916031,-1.6488549618320612
5279118277307,4.396754477,2,8.075642199707032,5.772420202636718,0.7900865478515624,-1.717557251908397,0.2748091603053435,-1.5572519083969465
5279128318453,4.406795623,2,8.139088543701172,5.7329158752441405,0.7577648254394531,-1.7938931297709924,0.29770992366412213,-1.6030534351145038
5279138274130,4.4167513,2,8.11514652709961,5.728127471923828,0.7350199096679687,-1.7633587786259541,0.2824427480916031,-1.6030534351145038
5279148309547,4.426786717,2,8.149862451171874,5.7700260009765625,0.5662286926269531,-1.748091603053435,0.24427480916030533,-1.618320610687023
5279158282828,4.436759998,2,8.10796392211914,5.755660791015624,0.7110778930664062,-1.6641221374045803,0.19083969465648856,-1.5954198473282444
5279168323505,4.446800675,2,8.123526232910155,5.734112976074218,0.6284779357910156,-1.8015267175572518,0.2595419847328244,-1.6488549618320612
5279178272880,4.45675005,2,8.142679846191406,5.720944866943359,0.8379705810546875,-1.7557251908396947,0.25190839694656486,-1.6488549618320612
5279188315120,4.46679229,2,8.155847955322265,5.776011505126953,0.7278373046875,-1.786259541984733,0.20610687022900764,-1.618320610687023
5279198331526,4.476808696,2,8.130708837890625,5.744886883544922,0.7541735229492187,-1.7786259541984732,0.22137404580152673,-1.6717557251908397
5279208305328,4.486782498,2,8.103175518798828,5.758054992675781,0.7625532287597656,-1.7404580152671756,0.31297709923664124,-1.6106870229007633
5279218271005,4.496748175,2,8.116343627929687,5.781997009277344,0.7122749938964843,-1.748091603053435,0.20610687022900764,-1.5954198473282444
5279228312984,4.506790154,2,8.073247998046874,5.778405706787109,0.709880792236328,-1.717557251908397,0.3053435114503817,-1.6259541984732824
5279238271942,4.516749112,2,8.109161022949218,5.780799908447265,0.6631938598632812,-1.633587786259542,0.2595419847328244,-1.6641221374045803
5279248313869,4.526791039,2,8.098387115478515,5.7700260009765625,0.7146691955566405,-1.8396946564885497,0.2595419847328244,-1.7099236641221374
5279258227567,4.536704737,2,8.136694342041014,5.748478186035156,0.7218518005371093,-1.7633587786259541,0.22137404580152673,-1.5419847328244274
5279268310901,4.546788071,2,8.06367119140625,5.759252093505859,0.6536170532226562,-1.7099236641221374,0.3282442748091603,-1.5419847328244274
5279278264390,4.55674156,2,8.105569720458984,5.747281085205078,0.7302315063476562,-1.7633587786259541,0.17557251908396945,-1.6259541984732824
5279288307828,4.566784998,2,8.10796392211914,5.761646295166015,0.6871358764648438,-1.786259541984733,0.31297709923664124,-1.618320610687023
5279298281265,4.576758435,2,8.081627703857421,5.7137622619628905,0.7122749938964843,-1.748091603053435,0.15267175572519084,-1.5648854961832062
5279308308349,4.586785519,2,8.099584216308592,5.734112976074218,0.7362170104980469,-1.786259541984733,0.29770992366412213,-1.6641221374045803
5279318281578,4.596758748,2,8.141482745361328,5.766434698486328,0.6943184814453125,-1.7938931297709924,0.0916030534351145,-1.5725190839694656
5279328225276,4.606702446,2,8.100781317138672,5.717353564453124,0.6811503723144531,-1.7557251908396947,0.22900763358778625,-1.5954198473282444
5279338268609,4.616745779,2,8.157045056152343,5.766434698486328,0.7314286071777343,-1.748091603053435,0.2595419847328244,-1.6106870229007633
5279348311838,4.626789008,2,8.143876947021484,5.748478186035156,0.6751648681640625,-1.7786259541984732,0.31297709923664124,-1.5725190839694656
5279358281369,4.636758539,2,8.091204510498047,5.817910034179687,0.7122749938964843,-1.7786259541984732,0.20610687022900764,-1.6564885496183206
5279368311942,4.646789112,2,8.123526232910155,5.772420202636718,0.7074865905761718,-1.8015267175572518,0.2900763358778626,-1.5801526717557253
5279378281109,4.656758279,2,8.123526232910155,5.761646295166015,0.7817068420410156,-1.7557251908396947,0.21374045801526717,-1.6030534351145038
5279388322203,4.666799373,2,8.135497241210937,5.743689782714843,0.7003039855957031,-1.717557251908397,0.25190839694656486,-1.6030534351145038
5279398275224,4.676752394,2,8.147468249511718,5.742492681884765,0.7146691955566405,-1.717557251908397,0.20610687022900764,-1.5725190839694656
5279408317151,4.686794321,2,8.110358123779296,5.735310076904296,0.7709329345703124,-1.7709923664122138,0.29770992366412213,-1.549618320610687
5279418291057,4.696768227,2,8.130708837890625,5.719747766113281,0.6811503723144531,-1.748091603053435,0.2748091603053435,-1.6030534351145038
5279428310536,4.706787706,2,8.145074047851562,5.758054992675781,0.7541735229492187,-1.7709923664122138,0.2824427480916031,-1.6106870229007633
5279438286474,4.716763644,2,8.118737829589843,5.786785412597656,0.6883329772949218,-1.7633587786259541,0.2595419847328244,-1.5725190839694656
5279448324078,4.726801248,2,8.10796392211914,5.798756420898437,0.6979097839355468,-1.7633587786259541,0.26717557251908397,-1.4580152671755726
5279458315953,4.736793123,2,8.113949426269532,5.781997009277344,0.719457598876953,-1.7938931297709924,0.25190839694656486,-1.5877862595419847
5279468309911,4.746787081,2,8.0828248046875,5.760449194335937,0.6619967590332031,-1.7938931297709924,0.26717557251908397,-1.6030534351145038
5279478268869,4.756746039,2,8.111555224609374,5.755660791015624,0.6751648681640625,-1.7633587786259541,0.22137404580152673,-1.5877862595419847
5279488310588,4.766787758,2,8.166621862792969,5.746083984375,0.7553706237792969,-1.717557251908397,0.26717557251908397,-1.5419847328244274
5279498273921,4.776751091,2,8.067262493896484,5.7508723876953125,0.7481880187988281,-1.786259541984733,0.16793893129770993,-1.5648854961832062
5279508327932,4.786805102,2,8.134300140380859,5.774814404296874,0.7122749938964843,-1.7938931297709924,0.3053435114503817,-1.6488549618320612
5279518280432,4.796757602,2,8.078036401367187,5.719747766113281,0.6404489440917969,-1.8244274809160306,0.22137404580152673,-1.633587786259542
5279528306734,4.806783904,2,8.148665350341796,5.783194110107422,0.7493851196289062,-1.6946564885496183,0.2824427480916031,-1.5725190839694656
5279538273401,4.816750571,2,8.0828248046875,5.711368060302734,0.6727706665039062,-1.7557251908396947,0.29770992366412213,-1.5572519083969465
5279548389286,4.826866456,2,8.200140686035155,5.717353564453124,0.7984662536621093,-1.7633587786259541,0.3435114503816794,-1.5877862595419847
5279558459234,4.836936404,2,8.117540728759765,5.761646295166015,0.7003039855957031,-1.7938931297709924,0.2595419847328244,-1.549618320610687
5279568344338,4.846821508,2,7.9858596374511714,5.741295581054687,0.6703764648437499,-1.8015267175572518,0.3282442748091603,-1.6488549618320612
5279578247151,4.856724321,2,8.232462408447265,5.7149593627929685,0.7589619262695312,-1.7328244274809161,0.29770992366412213,-1.6030534351145038
5279587972203,4.866449373,2,8.079233502197265,5.7700260009765625,0.7122749938964843,-1.8091603053435115,0.2595419847328244,-1.5801526717557253
5279597985901,4.876463071,2,8.124723333740233,5.723339068603515,0.7769184387207031,-1.7557251908396947,0.2595419847328244,-1.6412213740458015
5279607947567,4.886424737,2,8.098387115478515,5.781997009277344,0.6847416748046875,-1.816793893129771,0.16030534351145037,-1.5725190839694656
5279617978817,4.896455987,2,8.081627703857421,5.735310076904296,0.7996633544921875,-1.7328244274809161,0.2824427480916031,-1.5801526717557253
5279627951317,4.906428487,2,8.092401611328125,5.772420202636718,0.7038952880859375,-1.7251908396946565,0.29770992366412213,-1.5572519083969465
5279637979651,4.916456821,2,8.119934930419921,5.777208605957031,0.7050923889160156,-1.7786259541984732,0.32061068702290074,-1.5954198473282444
5279647950640,4.92642781,2,8.1594392578125,5.799953521728515,0.6596025573730468,-1.786259541984733,0.29770992366412213,-1.5954198473282444
5279657988192,4.936465362,2,8.124723333740233,5.838260748291015,0.7410054138183594,-1.7557251908396947,0.24427480916030533,-1.5877862595419847
5279667947203,4.946424373,2,8.110358123779296,5.746083984375,0.709880792236328,-1.7099236641221374,0.2900763358778626,-1.6106870229007633
5279677981265,4.956458435,2,8.081627703857421,5.7520694885253905,0.612915625,-1.717557251908397,0.21374045801526717,-1.534351145038168
5279688331994,4.966809164,2,8.142679846191406,5.738901379394531,0.7541735229492187,-1.7709923664122138,0.20610687022900764,-1.5648854961832062
5279698272567,4.976749737,2,8.12113203125,5.723339068603515,0.7015010864257812,-1.7099236641221374,0.25190839694656486,-1.5877862595419847
5279708335171,4.986812341,2,8.10197841796875,5.716156463623046,0.7924807495117187,-1.748091603053435,0.22900763358778625,-1.4885496183206106
5279718273973,4.996751143,2,8.080430603027343,5.704185455322265,0.7206546997070312,-1.6870229007633588,0.3053435114503817,-1.5801526717557253
5279728322098,5.006799268,2,8.112752325439452,5.728127471923828,0.7481880187988281,-1.816793893129771,0.1450381679389313,-1.549618320610687
5279738275067,5.016752237,2,8.110358123779296,5.7520694885253905,0.7553706237792969,-1.7709923664122138,0.26717557251908397,-1.5877862595419847
5279748311057,5.026788227,2,8.105569720458984,5.776011505126953,0.6763619689941406,-1.8396946564885497,0.22137404580152673,-1.6641221374045803
5279758279390,5.03675656,2,8.151059552001952,5.7520694885253905,0.7445967163085937,-1.7404580152671756,0.2595419847328244,-1.549618320610687
5279768310380,5.04678755,2,8.091204510498047,5.753266589355468,0.7733271362304687,-1.7633587786259541,0.19083969465648856,-1.5648854961832062
5279778271317,5.056748487,2,8.066065393066406,5.682637640380859,0.7613561279296874,-1.7557251908396947,0.2900763358778626,-1.5190839694656488
5279788313661,5.066790831,2,8.11514652709961,5.743689782714843,0.70868369140625,-1.786259541984733,0.24427480916030533,-1.6259541984732824
5279798274078,5.076751248,2,8.078036401367187,5.720944866943359,0.7709329345703124,-1.816793893129771,0.26717557251908397,-1.633587786259542
5279808341786,5.086818956,2,8.1594392578125,5.761646295166015,0.8152256652832031,-1.7709923664122138,0.2366412213740458,-1.6106870229007633
5279818278348,5.096755518,2,8.131905938720703,5.708973858642578,0.7218518005371093,-1.7099236641221374,0.31297709923664124,-1.6259541984732824
5279828308348,5.106785518,2,8.14627114868164,5.773617303466796,0.7242460021972655,-1.7938931297709924,0.22900763358778625,-1.5648854961832062
5279838275484,5.116752654,2,8.12711753540039,5.778405706787109,0.7661445312499999,-1.7633587786259541,0.32061068702290074,-1.5954198473282444
5279848307046,5.126784216,2,8.118737829589843,5.805939025878906,0.7601590270996094,-1.7404580152671756,0.17557251908396945,-1.6259541984732824
5279858278088,5.136755258,2,8.137891442871092,5.754463690185546,0.7493851196289062,-1.786259541984733,0.2366412213740458,-1.633587786259542
5279868317723,5.146794893,2,8.090007409667969,5.760449194335937,0.6763619689941406,-1.7633587786259541,0.21374045801526717,-1.5648854961832062
5279878268453,5.156745623,2,8.111555224609374,5.741295581054687,0.7445967163085937,-1.7557251908396947,0.366412213740458,-1.5954198473282444
5279888310796,5.166787966,2,8.112752325439452,5.780799908447265,0.7015010864257812,-1.7557251908396947,0.21374045801526717,-1.618320610687023
5279898278036,5.176755206,2,8.1594392578125,5.729324572753906,0.6739677673339843,-1.7404580152671756,0.37404580152671757,-1.6030534351145038
5279908308557,5.186785727,2,8.116343627929687,5.753266589355468,0.7386112121582031,-1.7786259541984732,0.20610687022900764,-1.5954198473282444
5279918319494,5.196796664,2,8.147468249511718,5.717353564453124,0.719457598876953,-1.748091603053435,0.35877862595419846,-1.5267175572519085
5279928316109,5.206793279,2,8.167818963623047,5.7700260009765625,0.7876923461914062,-1.7786259541984732,0.1297709923664122,-1.5801526717557253
5279938286109,5.216763279,2,8.092401611328125,5.744886883544922,0.7433996154785156,-1.8625954198473282,0.2595419847328244,-1.6106870229007633
5279948310432,5.226787602,2,8.137891442871092,5.749675286865234,0.70868369140625,-1.8015267175572518,0.1450381679389313,-1.633587786259542
5279958276630,5.2367538,2,8.070853796386718,5.740098480224609,0.6955155822753906,-1.7786259541984732,0.2900763358778626,-1.5877862595419847
5279968309025,5.246786195,2,8.14028564453125,5.737704278564453,0.699106884765625,-1.7557251908396947,0.21374045801526717,-1.534351145038168
5279978273348,5.256750518,2,8.131905938720703,5.744886883544922,0.6584054565429687,-1.7786259541984732,0.29770992366412213,-1.6030534351145038
5279988315328,5.266792498,2,8.188169677734374,5.7508723876953125,0.6883329772949218,-1.8778625954198473,0.19083969465648856,-1.633587786259542
5279998267098,5.276744268,2,8.152256652832031,5.777208605957031,0.7541735229492187,-1.7328244274809161,0.2748091603053435,-1.6259541984732824
5280008335432,5.286812602,2,8.0828248046875,5.785588311767578,0.709880792236328,-1.6946564885496183,0.1450381679389313,-1.5954198473282444
5280018278296,5.296755466,2,8.128314636230469,5.687426043701172,0.7493851196289062,-1.6488549618320612,0.20610687022900764,-1.5190839694656488
5280028322046,5.306799216,2,8.129511737060547,5.700594152832031,0.7362170104980469,-1.7328244274809161,0.20610687022900764,-1.5190839694656488
5280038272671,5.316749841,2,8.160636358642577,5.779602807617187,0.7110778930664062,-1.7404580152671756,0.24427480916030533,-1.6488549618320612
5280048318921,5.326796091,2,8.12113203125,5.785588311767578,0.6919242797851562,-1.786259541984733,0.25190839694656486,-1.5877862595419847
5280058226578,5.336703748,2,8.106766821289062,5.7317187744140625,0.7613561279296874,-1.7709923664122138,0.2900763358778626,-1.6106870229007633
5280068308400,5.34678557,2,8.152256652832031,5.735310076904296,0.7314286071777343,-1.7404580152671756,0.25190839694656486,-1.5419847328244274
5280078283817,5.356760987,2,8.070853796386718,5.77122310180664,0.6272808349609375,-1.7251908396946565,0.21374045801526717,-1.6030534351145038
5280088316317,5.366793487,2,8.14028564453125,5.760449194335937,0.7015010864257812,-1.7786259541984732,0.2366412213740458,-1.6259541984732824
5280098279234,5.376756404,2,8.13310303955078,5.781997009277344,0.689530078125,-1.6946564885496183,0.15267175572519084,-1.5954198473282444
5280108313036,5.386790206,2,8.116343627929687,5.736507177734374,0.6859387756347656,-1.748091603053435,0.22900763358778625,-1.5954198473282444
5280118277880,5.39675505,2,8.124723333740233,5.760449194335937,0.737414111328125,-1.7633587786259541,0.2595419847328244,-1.549618320610687
5280128310744,5.406787914,2,8.14627114868164,5.761646295166015,0.689530078125,-1.7633587786259541,0.20610687022900764,-1.7099236641221374
5280138278765,5.416755935,2,8.116343627929687,5.724536169433593,0.6931213806152343,-1.786259541984733,0.22137404580152673,-1.5648854961832062
5280148308036,5.426785206,2,8.078036401367187,5.737704278564453,0.8092401611328125,-1.7251908396946565,0.2824427480916031,-1.5648854961832062
5280158288557,5.436765727,2,8.078036401367187,5.749675286865234,0.7733271362304687,-1.748091603053435,0.22900763358778625,-1.6259541984732824
5280168311890,5.44678906,2,8.085219006347655,5.742492681884765,0.7278373046875,-1.8244274809160306,0.29770992366412213,-1.6106870229007633
5280178275848,5.456753018,2,8.087613208007811,5.744886883544922,0.7613561279296874,-1.8091603053435115,0.20610687022900764,-1.6641221374045803
5280188333921,5.466811091,2,8.118737829589843,5.760449194335937,0.689530078125,-1.7786259541984732,0.22900763358778625,-1.618320610687023
5280198275327,5.476752497,2,8.149862451171874,5.724536169433593,0.7158662963867187,-1.7328244274809161,0.19083969465648856,-1.5725190839694656
5280208325067,5.486802237,2,8.123526232910155,5.748478186035156,0.7003039855957031,-1.6946564885496183,0.2824427480916031,-1.6412213740458015
5280218280796,5.496757966,2,8.125920434570313,5.747281085205078,0.7733271362304687,-1.786259541984733,0.22137404580152673,-1.618320610687023
5280228318452,5.506795622,2,8.093598712158203,5.76523759765625,0.7888894470214843,-1.7404580152671756,0.22900763358778625,-1.5801526717557253
5280238276994,5.516754164,2,8.095992913818359,5.722141967773437,0.7003039855957031,-1.7709923664122138,0.20610687022900764,-1.6030534351145038
5280248310327,5.526787497,2,8.117540728759765,5.718550665283203,0.6500257507324219,-1.7633587786259541,0.3435114503816794,-1.618320610687023
5280258272046,5.536749216,2,8.090007409667969,5.7508723876953125,0.6679822631835937,-1.7709923664122138,0.2900763358778626,-1.549618320610687
5280268312255,5.546789425,2,8.099584216308592,5.708973858642578,0.74699091796875,-1.748091603053435,0.2824427480916031,-1.5725190839694656
5280278271057,5.556748227,2,8.158242156982421,5.80354482421875,0.7769184387207031,-1.786259541984733,0.26717557251908397,-1.618320610687023
5280288335275,5.566812445,2,8.139088543701172,5.7329158752441405,0.7050923889160156,-1.7404580152671756,0.2595419847328244,-1.5954198473282444
5280298280067,5.576757237,2,8.134300140380859,5.737704278564453,0.6703764648437499,-1.7938931297709924,0.15267175572519084,-1.5114503816793894
5280308308400,5.58678557,2,8.043320477294921,5.77122310180664,0.7529764221191406,-1.717557251908397,0.2366412213740458,-1.5954198473282444
5280318249598,5.596726768,2,8.074445098876952,5.764040496826172,0.7326257080078125,-1.6870229007633588,0.26717557251908397,-1.5801526717557253
5280328324494,5.606801664,2,8.116343627929687,5.755660791015624,0.7553706237792969,-1.8015267175572518,0.20610687022900764,-1.6106870229007633
5280338276629,5.616753799,2,8.164227661132813,5.738901379394531,0.7876923461914062,-1.717557251908397,0.19083969465648856,-1.6030534351145038
5280348313296,5.626790466,2,8.1594392578125,5.725733270263672,0.7398083129882812,-1.7404580152671756,0.3053435114503817,-1.6564885496183206
5280358273661,5.636750831,2,8.141482745361328,5.742492681884765,0.7685387329101562,-1.7709923664122138,0.16793893129770993,-1.5572519083969465
5280368323921,5.646801091,2,8.129511737060547,5.744886883544922,0.7433996154785156,-1.7404580152671756,0.31297709923664124,-1.6564885496183206
5280378271942,5.656749112,2,8.182184173583984,5.748478186035156,0.7433996154785156,-1.7557251908396947,0.25190839694656486,-1.6030534351145038
5280388324754,5.666801924,2,8.117540728759765,5.738901379394531,0.8259995727539062,-1.8091603053435115,0.2748091603053435,-1.6106870229007633
5280398277723,5.676754893,2,8.116343627929687,5.720944866943359,0.6536170532226562,-1.702290076335878,0.15267175572519084,-1.5572519083969465
5280408308348,5.686785518,2,8.086416107177733,5.746083984375,0.7158662963867187,-1.6717557251908397,0.3282442748091603,-1.5572519083969465
5280418277411,5.696754581,2,8.139088543701172,5.7508723876953125,0.7026981872558593,-1.7633587786259541,0.16793893129770993,-1.6641221374045803
5280428317098,5.706794268,2,8.0828248046875,5.725733270263672,0.7781155395507812,-1.7557251908396947,0.2595419847328244,-1.5954198473282444
5280438277254,5.716754424,2,8.103175518798828,5.736507177734374,0.6619967590332031,-1.7786259541984732,0.19083969465648856,-1.549618320610687
5280448319598,5.726796768,2,8.12711753540039,5.68862314453125,0.7817068420410156,-1.7328244274809161,0.19083969465648856,-1.6030534351145038
5280458275536,5.736752706,2,8.151059552001952,5.785588311767578,0.6560112548828124,-1.786259541984733,0.22900763358778625,-1.6259541984732824
5280468300484,5.746777654,2,8.087613208007811,5.755660791015624,0.7350199096679687,-1.748091603053435,0.32061068702290074,-1.5572519083969465
5280478314234,5.756791404,2,8.111555224609374,5.729324572753906,0.74699091796875,-1.8473282442748091,0.1450381679389313,-1.5877862595419847
5280488336369,5.766813539,2,8.105569720458984,5.77122310180664,0.7984662536621093,-1.8015267175572518,0.2900763358778626,-1.6030534351145038
5280498274286,5.776751456,2,8.091204510498047,5.693411547851563,0.70868369140625,-1.7786259541984732,0.1984732824427481,-1.6259541984732824
5280508315171,5.786792341,2,8.079233502197265,5.762843395996094,0.7134720947265625,-1.7557251908396947,0.20610687022900764,-1.618320610687023
5280518280171,5.796757341,2,8.130708837890625,5.793968017578124,0.7972691528320313,-1.7557251908396947,0.25190839694656486,-1.5877862595419847
5280528322567,5.806799737,2,8.097190014648437,5.748478186035156,0.6811503723144531,-1.7328244274809161,0.24427480916030533,-1.5877862595419847
5280538264181,5.816741351,2,8.079233502197265,5.759252093505859,0.6859387756347656,-1.786259541984733,0.22900763358778625,-1.5954198473282444
5280548307567,5.826784737,2,8.139088543701172,5.691017346191406,0.7841010437011718,-1.6793893129770991,0.31297709923664124,-1.5877862595419847
5280558324025,5.836801195,2,8.097190014648437,5.7508723876953125,0.7278373046875,-1.7786259541984732,0.29770992366412213,-1.5572519083969465
5280568224754,5.846701924,2,8.145074047851562,5.766434698486328,0.7266402038574218,-1.702290076335878,0.2900763358778626,-1.5725190839694656
5280578285171,5.856762341,2,8.090007409667969,5.8083332275390624,0.7302315063476562,-1.702290076335878,0.24427480916030533,-1.618320610687023
5280588364806,5.866841976,2,8.104372619628906,5.749675286865234,0.74699091796875,-1.7633587786259541,0.26717557251908397,-1.5954198473282444
5280598272567,5.876749737,2,8.125920434570313,5.720944866943359,0.6883329772949218,-1.748091603053435,0.24427480916030533,-1.5801526717557253
5280608312046,5.886789216,2,8.100781317138672,5.783194110107422,0.7661445312499999,-1.7404580152671756,0.24427480916030533,-1.549618320610687
5280618268192,5.896745362,2,8.110358123779296,5.744886883544922,0.7433996154785156,-1.8015267175572518,0.22137404580152673,-1.6259541984732824
5280628309390,5.90678656,2,8.145074047851562,5.786785412597656,0.7577648254394531,-1.816793893129771,0.3435114503816794,-1.6564885496183206
5280638273973,5.916751143,2,8.103175518798828,5.776011505126953,0.6763619689941406,-1.7633587786259541,0.183206106870229,-1.5725190839694656
5280648313556,5.926790726,2,8.128314636230469,5.7149593627929685,0.7410054138183594,-1.786259541984733,0.21374045801526717,-1.6412213740458015
5280658285900,5.93676307,2,8.087613208007811,5.719747766113281,0.7457938171386719,-1.8244274809160306,0.16030534351145037,-1.6030534351145038
5280668305744,5.946782914,2,8.100781317138672,5.76523759765625,0.7206546997070312,-1.8091603053435115,0.2748091603053435,-1.5954198473282444
5280678271161,5.956748331,2,8.14627114868164,5.759252093505859,0.7493851196289062,-1.8091603053435115,0.2900763358778626,-1.5954198473282444
5280688342463,5.966819633,2,8.143876947021484,5.735310076904296,0.7553706237792969,-1.7709923664122138,0.22900763358778625,-1.6106870229007633
5280698281890,5.97675906,2,8.130708837890625,5.776011505126953,0.6751648681640625,-1.7099236641221374,0.2595419847328244,-1.633587786259542
5280708308765,5.986785935,2,8.103175518798828,5.747281085205078,0.7362170104980469,-1.7251908396946565,0.20610687022900764,-1.5648854961832062
5280718278765,5.996755935,2,8.122329132080077,5.718550665283203,0.689530078125,-1.7404580152671756,0.32061068702290074,-1.5725190839694656
5280728332931,6.006810101,2,8.081627703857421,5.756857891845703,0.7888894470214843,-1.8549618320610688,0.29770992366412213,-1.5038167938931297
5280738274181,6.016751351,2,8.097190014648437,5.720944866943359,0.6907271789550781,-1.6717557251908397,0.32061068702290074,-1.618320610687023
5280748312306,6.026789476,2,8.068459594726562,5.772420202636718,0.6619967590332031,-1.8015267175572518,0.22900763358778625,-1.6030534351145038
5280758278244,6.036755414,2,8.109161022949218,5.753266589355468,0.6835445739746093,-1.8091603053435115,0.2900763358778626,-1.6641221374045803
5280768311369,6.046788539,2,8.106766821289062,5.772420202636718,0.679953271484375,-1.702290076335878,0.15267175572519084,-1.618320610687023
5280778273192,6.056750362,2,8.086416107177733,5.810727429199218,0.7026981872558593,-1.748091603053435,0.33587786259541985,-1.549618320610687
5280788311577,6.066788747,2,8.091204510498047,5.768828900146484,0.7326257080078125,-1.7709923664122138,0.20610687022900764,-1.5419847328244274
5280798277983,6.076755153,2,8.105569720458984,5.768828900146484,0.6763619689941406,-1.7786259541984732,0.2366412213740458,-1.6259541984732824
5280808377931,6.086855101,2,8.106766821289062,5.740098480224609,0.7278373046875,-1.7557251908396947,0.183206106870229,-1.5419847328244274
5280818305952,6.096783122,2,8.110358123779296,5.7700260009765625,0.6284779357910156,-1.7786259541984732,0.2748091603053435,-1.549618320610687
5280828239390,6.10671656,2,8.166621862792969,5.743689782714843,0.7338228088378905,-1.7786259541984732,0.25190839694656486,-1.618320610687023
5280838277567,6.116754737,2,8.141482745361328,5.785588311767578,0.7589619262695312,-1.7328244274809161,0.2366412213740458,-1.6030534351145038
5280848331421,6.126808591,2,8.085219006347655,5.730521673583984,0.7242460021972655,-1.748091603053435,0.2595419847328244,-1.5877862595419847
5280858277983,6.136755153,2,8.100781317138672,5.753266589355468,0.689530078125,-1.7404580152671756,0.3282442748091603,-1.6793893129770991
5280868314390,6.14679156,2,8.087613208007811,5.754463690185546,0.6847416748046875,-1.7938931297709924,0.25190839694656486,-1.5801526717557253
5280878285171,6.156762341,2,8.117540728759765,5.743689782714843,0.7517793212890624,-1.7328244274809161,0.32061068702290074,-1.549618320610687
5280888309598,6.166786768,2,8.11514652709961,5.79037671508789,0.699106884765625,-1.717557251908397,0.1450381679389313,-1.5954198473282444
5280898309494,6.176786664,2,8.099584216308592,5.749675286865234,0.6763619689941406,-1.7709923664122138,0.3282442748091603,-1.633587786259542
5280908302775,6.186779945,2,8.124723333740233,5.728127471923828,0.7170633972167968,-1.748091603053435,0.16030534351145037,-1.5572519083969465
5280918273817,6.196750987,2,8.080430603027343,5.76523759765625,0.7601590270996094,-1.748091603053435,0.32061068702290074,-1.6259541984732824
5280928309806,6.206786976,2,8.13310303955078,5.725733270263672,0.7242460021972655,-1.7786259541984732,0.1450381679389313,-1.5572519083969465
5280938276786,6.216753956,2,8.090007409667969,5.748478186035156,0.8200140686035156,-1.7709923664122138,0.31297709923664124,-1.633587786259542
5280948314181,6.226791351,2,8.093598712158203,5.766434698486328,0.7350199096679687,-1.748091603053435,0.19083969465648856,-1.5801526717557253
5280958279650,6.23675682,2,8.135497241210937,5.7329158752441405,0.7613561279296874,-1.7328244274809161,0.2824427480916031,-1.5954198473282444
5280968311577,6.246788747,2,8.169016064453125,5.6946086486816405,0.7062894897460937,-1.816793893129771,0.19083969465648856,-1.5801526717557253
5280978270588,6.256747758,2,8.141482745361328,5.735310076904296,0.7350199096679687,-1.748091603053435,0.29770992366412213,-1.6030534351145038
5280988316890,6.26679406,2,8.14028564453125,5.741295581054687,0.6931213806152343,-1.8015267175572518,0.22900763358778625,-1.633587786259542
5280998276317,6.276753487,2,8.099584216308592,5.7125651611328125,0.679953271484375,-1.6870229007633588,0.32061068702290074,-1.633587786259542
5281008307671,6.286784841,2,8.129511737060547,5.7843912109375,0.7350199096679687,-1.7938931297709924,0.16793893129770993,-1.5877862595419847
5281018272098,6.296749268,2,8.07683930053711,5.723339068603515,0.6679822631835937,-1.7404580152671756,0.2900763358778626,-1.6259541984732824
5281028310119,6.306787289,2,8.075642199707032,5.772420202636718,0.7541735229492187,-1.7709923664122138,0.2595419847328244,-1.5648854961832062
5281038274702,6.316751872,2,8.100781317138672,5.827486840820312,0.7972691528320313,-1.7938931297709924,0.2595419847328244,-1.6259541984732824
5281048307931,6.326785101,2,8.119934930419921,5.767631799316406,0.6883329772949218,-1.7786259541984732,0.3282442748091603,-1.6641221374045803
5281058280744,6.336757914,2,8.142679846191406,5.744886883544922,0.6967126831054687,-1.7709923664122138,0.24427480916030533,-1.5725190839694656
5281068310067,6.346787237,2,8.137891442871092,5.734112976074218,0.679953271484375,-1.7099236641221374,0.2366412213740458,-1.4885496183206106
5281078270119,6.356747289,2,8.149862451171874,5.742492681884765,0.6919242797851562,-1.7938931297709924,0.33587786259541985,-1.5801526717557253
5281088338504,6.366815674,2,8.111555224609374,5.735310076904296,0.6931213806152343,-1.8015267175572518,0.16793893129770993,-1.6793893129770991
5281098275744,6.376752914,2,8.119934930419921,5.774814404296874,0.7230489013671875,-1.6717557251908397,0.2824427480916031,-1.6641221374045803
5281108307202,6.386784372,2,8.11514652709961,5.737704278564453,0.7517793212890624,-1.8091603053435115,0.22137404580152673,-1.6106870229007633
5281118272827,6.396749997,2,8.139088543701172,5.716156463623046,0.719457598876953,-1.8091603053435115,0.2900763358778626,-1.618320610687023
5281128313973,6.406791143,2,8.155847955322265,5.764040496826172,0.7433996154785156,-1.748091603053435,0.22900763358778625,-1.5725190839694656
5281138267983,6.416745153,2,8.139088543701172,5.76523759765625,0.7422025146484375,-1.7709923664122138,0.1984732824427481,-1.5877862595419847
5281148311108,6.426788278,2,8.10197841796875,5.781997009277344,0.7541735229492187,-1.7328244274809161,0.20610687022900764,-1.5725190839694656
5281158282931,6.436760101,2,8.095992913818359,5.729324572753906,0.7218518005371093,-1.8015267175572518,0.24427480916030533,-1.5725190839694656
5281168311213,6.446788383,2,8.135497241210937,5.762843395996094,0.6691793640136718,-1.7938931297709924,0.2366412213740458,-1.6106870229007633
5281178228765,6.456705935,2,8.087613208007811,5.7125651611328125,0.7230489013671875,-1.816793893129771,0.22900763358778625,-1.5572519083969465
5281188313765,6.466790935,2,8.091204510498047,5.7891796142578125,0.6572083557128906,-1.7251908396946565,0.21374045801526717,-1.618320610687023
5281198275900,6.47675307,2,8.103175518798828,5.736507177734374,0.7134720947265625,-1.6870229007633588,0.21374045801526717,-1.5801526717557253
5281208305952,6.486783122,2,8.051700183105469,5.742492681884765,0.7864952453613281,-1.7557251908396947,0.22900763358778625,-1.5038167938931297
5281218277931,6.496755101,2,8.08881030883789,5.756857891845703,0.7649474304199219,-1.7404580152671756,0.13740458015267176,-1.5114503816793894
5281228310171,6.506787341,2,8.147468249511718,5.758054992675781,0.6859387756347656,-1.7938931297709924,0.2366412213740458,-1.5954198473282444
5281238268869,6.516746039,2,8.110358123779296,5.76523759765625,0.7697358337402344,-1.786259541984733,0.2748091603053435,-1.6564885496183206
5281248308869,6.526786039,2,8.131905938720703,5.749675286865234,0.709880792236328,-1.7709923664122138,0.37404580152671757,-1.5190839694656488
5281258270587,6.536747757,2,8.104372619628906,5.758054992675781,0.7003039855957031,-1.702290076335878,0.12213740458015267,-1.5877862595419847
5281268308921,6.546786091,2,8.15345375366211,5.736507177734374,0.699106884765625,-1.7709923664122138,0.3511450381679389,-1.5801526717557253
5281278270587,6.556747757,2,8.12113203125,5.7149593627929685,0.70868369140625,-1.7709923664122138,0.21374045801526717,-1.5572519083969465
5281288310692,6.566787862,2,8.092401611328125,5.799953521728515,0.7122749938964843,-1.702290076335878,0.3053435114503817,-1.6106870229007633
5281298270744,6.576747914,2,8.095992913818359,5.7317187744140625,0.7278373046875,-1.702290076335878,0.2824427480916031,-1.6412213740458015
5281308224233,6.586701403,2,8.134300140380859,5.730521673583984,0.7697358337402344,-1.7786259541984732,0.3282442748091603,-1.618320610687023
5281318281525,6.596758695,2,8.128314636230469,5.758054992675781,0.74699091796875,-1.7633587786259541,0.21374045801526717,-1.5877862595419847
5281328313660,6.60679083,2,8.098387115478515,5.796362219238281,0.6823474731445313,-1.7938931297709924,0.25190839694656486,-1.6641221374045803
5281338228608,6.616705778,2,8.104372619628906,5.6754550354003905,0.6512228515624999,-1.702290076335878,0.22900763358778625,-1.5725190839694656
5281348307931,6.626785101,2,8.147468249511718,5.697002850341796,0.7505822204589844,-1.7633587786259541,0.2595419847328244,-1.549618320610687
5281358269181,6.636746351,2,8.111555224609374,5.749675286865234,0.7003039855957031,-1.702290076335878,0.19083969465648856,-1.6030534351145038
5281368309962,6.646787132,2,8.123526232910155,5.699397052001952,0.6500257507324219,-1.748091603053435,0.29770992366412213,-1.5877862595419847
5281378279181,6.656756351,2,8.098387115478515,5.706579656982422,0.7206546997070312,-1.702290076335878,0.2595419847328244,-1.6641221374045803
5281388306942,6.666784112,2,8.093598712158203,5.780799908447265,0.7553706237792969,-1.702290076335878,0.31297709923664124,-1.618320610687023
5281398266837,6.676744007,2,8.08881030883789,5.756857891845703,0.7110778930664062,-1.786259541984733,0.3053435114503817,-1.6030534351145038
5281408309129,6.686786299,2,8.092401611328125,5.723339068603515,0.7254431030273437,-1.7557251908396947,0.2595419847328244,-1.6259541984732824
5281418272931,6.696750101,2,8.087613208007811,5.756857891845703,0.6344634399414062,-1.7251908396946565,0.08396946564885496,-1.6030534351145038
5281428314077,6.706791247,2,8.100781317138672,5.759252093505859,0.7457938171386719,-1.7328244274809161,0.32061068702290074,-1.5801526717557253
5281438274389,6.716751559,2,8.139088543701172,5.735310076904296,0.6919242797851562,-1.83206106870229,0.16793893129770993,-1.6259541984732824
5281448319181,6.726796351,2,8.14627114868164,5.720944866943359,0.7302315063476562,-1.786259541984733,0.3282442748091603,-1.5190839694656488
5281458317306,6.736794476,2,8.11514652709961,5.719747766113281,0.6823474731445313,-1.7786259541984732,0.22137404580152673,-1.6259541984732824
5281468308504,6.746785674,2,8.151059552001952,5.793968017578124,0.6596025573730468,-1.7633587786259541,0.2595419847328244,-1.5877862595419847
5281478272931,6.756750101,2,8.097190014648437,5.7520694885253905,0.6177040283203125,-1.7709923664122138,0.2748091603053435,-1.5877862595419847
5281488303869,6.766781039,2,8.106766821289062,5.710170959472656,0.7769184387207031,-1.7709923664122138,0.26717557251908397,-1.5572519083969465
5281498270431,6.776747601,2,8.10197841796875,5.772420202636718,0.729034405517578,-1.748091603053435,0.22900763358778625,-1.5648854961832062
5281508302254,6.786779424,2,8.080430603027343,5.768828900146484,0.7003039855957031,-1.7709923664122138,0.2900763358778626,-1.534351145038168
5281518279077,6.796756247,2,8.15345375366211,5.734112976074218,0.7422025146484375,-1.7709923664122138,0.15267175572519084,-1.5877862595419847
5281528314337,6.806791507,2,8.129511737060547,5.724536169433593,0.7170633972167968,-1.717557251908397,0.32061068702290074,-1.5648854961832062
5281538268660,6.81674583,2,8.058882788085937,5.759252093505859,0.7230489013671875,-1.7633587786259541,0.31297709923664124,-1.5190839694656488
5281548302358,6.826779528,2,8.095992913818359,5.76523759765625,0.7326257080078125,-1.717557251908397,0.26717557251908397,-1.5572519083969465
5281558232671,6.836709841,2,8.128314636230469,5.7700260009765625,0.7362170104980469,-1.748091603053435,0.1984732824427481,-1.5648854961832062
5281568310587,6.846787757,2,8.134300140380859,5.7149593627929685,0.7110778930664062,-1.8091603053435115,0.2900763358778626,-1.5801526717557253
5281578270483,6.856747653,2,8.109161022949218,5.72693037109375,0.6931213806152343,-1.7633587786259541,0.16030534351145037,-1.5725190839694656
5281588303087,6.866780257,2,8.090007409667969,5.792770916748046,0.7673416320800781,-1.6870229007633588,0.26717557251908397,-1.6106870229007633
5281598281160,6.87675833,2,8.128314636230469,5.762843395996094,0.7553706237792969,-1.7786259541984732,0.19083969465648856,-1.5954198473282444
5281608309546,6.886786716,2,8.085219006347655,5.746083984375,0.6775590698242188,-1.7633587786259541,0.3053435114503817,-1.6412213740458015
5281618274598,6.896751768,2,8.109161022949218,5.791573815917968,0.7314286071777343,-1.7633587786259541,0.24427480916030533,-1.5648854961832062
5281628226525,6.906703695,2,8.161833459472655,5.762843395996094,0.729034405517578,-1.717557251908397,0.22137404580152673,-1.6030534351145038
5281638266421,6.916743591,2,8.100781317138672,5.754463690185546,0.8152256652832031,-1.7557251908396947,0.20610687022900764,-1.5190839694656488
5281648315587,6.926792757,2,8.113949426269532,5.718550665283203,0.7302315063476562,-1.7633587786259541,0.26717557251908397,-1.5267175572519085
5281658269910,6.93674708,2,8.080430603027343,5.692214447021484,0.699106884765625,-1.7786259541984732,0.22137404580152673,-1.6641221374045803
5281668315848,6.946793018,2,8.079233502197265,5.719747766113281,0.6907271789550781,-1.8091603053435115,0.2748091603053435,-1.5572519083969465
5281678265796,6.956742966,2,8.177395770263672,5.6958057495117185,0.7015010864257812,-1.7938931297709924,0.24427480916030533,-1.5954198473282444
5281688309077,6.966786247,2,8.085219006347655,5.723339068603515,0.6979097839355468,-1.7633587786259541,0.24427480916030533,-1.549618320610687
5281698275639,6.976752809,2,8.147468249511718,5.748478186035156,0.7206546997070312,-1.748091603053435,0.21374045801526717,-1.6030534351145038
5281708303556,6.986780726,2,8.169016064453125,5.708973858642578,0.7422025146484375,-1.7251908396946565,0.22137404580152673,-1.6106870229007633
5281718297671,6.996774841,2,8.058882788085937,5.7520694885253905,0.8056488586425781,-1.8396946564885497,0.22900763358778625,-1.5801526717557253
5281728312306,7.006789476,2,8.08881030883789,5.755660791015624,0.7062894897460937,-1.7709923664122138,0.20610687022900764,-1.534351145038168
5281738270119,7.016747289,2,8.130708837890625,5.728127471923828,0.7158662963867187,-1.8015267175572518,0.2748091603053435,-1.534351145038168
5281748309702,7.026786872,2,8.173804467773436,5.716156463623046,0.718260498046875,-1.748091603053435,0.22137404580152673,-1.5648854961832062
5281758272514,7.036749684,2,8.128314636230469,5.755660791015624,0.7386112121582031,-1.7786259541984732,0.24427480916030533,-1.6641221374045803
5281768304389,7.046781559,2,8.11514652709961,5.7317187744140625,0.7637503295898437,-1.7633587786259541,0.21374045801526717,-1.6488549618320612
5281778268869,7.056746039,2,8.060079888916015,5.76523759765625,0.7505822204589844,-1.7938931297709924,0.2900763358778626,-1.5877862595419847
5281788312671,7.066789841,2,8.154650854492187,5.719747766113281,0.6631938598632812,-1.7557251908396947,0.2824427480916031,-1.5725190839694656
5281798276994,7.076754164,2,8.105569720458984,5.754463690185546,0.7326257080078125,-1.7709923664122138,0.2900763358778626,-1.6259541984732824
5281808226160,7.08670333,2,8.09479581298828,5.753266589355468,0.6452373474121094,-1.748091603053435,0.2366412213740458,-1.6793893129770991
5281818278087,7.096755257,2,8.098387115478515,5.744886883544922,0.7529764221191406,-1.7328244274809161,0.2748091603053435,-1.5877862595419847
5281828320848,7.106798018,2,8.143876947021484,5.762843395996094,0.6691793640136718,-1.7099236641221374,0.16793893129770993,-1.5648854961832062
5281838269025,7.116746195,2,8.10796392211914,5.77122310180664,0.7038952880859375,-1.7633587786259541,0.3435114503816794,-1.5954198473282444
5281848305327,7.126782497,2,8.081627703857421,5.741295581054687,0.8200140686035156,-1.8244274809160306,0.25190839694656486,-1.5954198473282444
5281858271785,7.136748955,2,8.151059552001952,5.697002850341796,0.6727706665039062,-1.748091603053435,0.22900763358778625,-1.5954198473282444
5281868302150,7.14677932,2,8.142679846191406,5.773617303466796,0.7134720947265625,-1.7709923664122138,0.15267175572519084,-1.6793893129770991
5281878276785,7.156753955,2,8.10197841796875,5.738901379394531,0.7781155395507812,-1.748091603053435,0.2900763358778626,-1.6488549618320612
5281888309129,7.166786299,2,8.116343627929687,5.743689782714843,0.7314286071777343,-1.6946564885496183,0.24427480916030533,-1.5725190839694656
5281898265171,7.176742341,2,8.104372619628906,5.746083984375,0.6667851623535156,-1.7633587786259541,0.24427480916030533,-1.5877862595419847
5281908296785,7.186773955,2,8.090007409667969,5.747281085205078,0.6787561706542968,-1.816793893129771,0.22137404580152673,-1.6030534351145038
5281918269806,7.196746976,2,8.075642199707032,5.760449194335937,0.7158662963867187,-1.8015267175572518,0.2900763358778626,-1.5725190839694656
5281928308243,7.206785413,2,8.058882788085937,5.785588311767578,0.7074865905761718,-1.7328244274809161,0.1984732824427481,-1.549618320610687
5281938269389,7.216746559,2,8.105569720458984,5.753266589355468,0.7218518005371093,-1.7099236641221374,0.2900763358778626,-1.6412213740458015
5281948319025,7.226796195,2,8.148665350341796,5.756857891845703,0.6859387756347656,-1.8015267175572518,0.20610687022900764,-1.618320610687023
5281958267150,7.23674432,2,8.105569720458984,5.759252093505859,0.7146691955566405,-1.7404580152671756,0.26717557251908397,-1.6106870229007633
5281968307462,7.246784632,2,8.147468249511718,5.748478186035156,0.6823474731445313,-1.7404580152671756,0.20610687022900764,-1.549618320610687
5281978266212,7.256743382,2,8.103175518798828,5.753266589355468,0.7781155395507812,-1.7633587786259541,0.2366412213740458,-1.5572519083969465
5281988302983,7.266780153,2,8.143876947021484,5.774814404296874,0.7697358337402344,-1.6793893129770991,0.2366412213740458,-1.5572519083969465
5281998285118,7.276762288,2,8.164227661132813,5.767631799316406,0.6356605407714844,-1.786259541984733,0.3282442748091603,-1.6412213740458015
5282008366421,7.286843591,2,8.084021905517577,5.725733270263672,0.7481880187988281,-1.7633587786259541,0.16793893129770993,-1.5801526717557253
5282018286785,7.296763955,2,8.130708837890625,5.737704278564453,0.6165069274902344,-1.8015267175572518,0.2595419847328244,-1.5267175572519085
5282028313816,7.306790986,2,8.099584216308592,5.776011505126953,0.7841010437011718,-1.702290076335878,0.22900763358778625,-1.549618320610687
5282038273452,7.316750622,2,8.064868292236328,5.741295581054687,0.718260498046875,-1.7557251908396947,0.2900763358778626,-1.5801526717557253
5282048309077,7.326786247,2,8.119934930419921,5.719747766113281,0.6679822631835937,-1.748091603053435,0.21374045801526717,-1.6259541984732824
5282058274337,7.336751507,2,8.12113203125,5.772420202636718,0.7062894897460937,-1.7099236641221374,0.26717557251908397,-1.534351145038168
5282068300535,7.346777705,2,8.116343627929687,5.768828900146484,0.7350199096679687,-1.6793893129770991,0.1984732824427481,-1.5954198473282444
5282078269702,7.356746872,2,8.1594392578125,5.741295581054687,0.6955155822753906,-1.7938931297709924,0.31297709923664124,-1.6259541984732824
5282088300952,7.366778122,2,8.086416107177733,5.746083984375,0.7769184387207031,-1.7709923664122138,0.24427480916030533,-1.5648854961832062
5282098275691,7.376752861,2,8.142679846191406,5.77122310180664,0.7422025146484375,-1.702290076335878,0.25190839694656486,-1.6488549618320612
5282108229077,7.386706247,2,8.18457837524414,5.746083984375,0.6631938598632812,-1.7251908396946565,0.24427480916030533,-1.5648854961832062
5282118272254,7.396749424,2,8.129511737060547,5.740098480224609,0.7433996154785156,-1.6946564885496183,0.33587786259541985,-1.4732824427480915
5282128306941,7.406784111,2,8.093598712158203,5.7329158752441405,0.7493851196289062,-1.748091603053435,0.20610687022900764,-1.5877862595419847
5282138266212,7.416743382,2,8.10796392211914,5.742492681884765,0.7062894897460937,-1.717557251908397,0.21374045801526717,-1.618320610687023
5282148304493,7.426781663,2,8.067262493896484,5.738901379394531,0.7230489013671875,-1.7404580152671756,0.2748091603053435,-1.549618320610687
5282158268452,7.436745622,2,8.064868292236328,5.728127471923828,0.7326257080078125,-1.7557251908396947,0.3282442748091603,-1.6106870229007633
5282168309858,7.446787028,2,8.084021905517577,5.730521673583984,0.6823474731445313,-1.7557251908396947,0.2595419847328244,-1.549618320610687
5282178262566,7.456739736,2,8.105569720458984,5.7125651611328125,0.6811503723144531,-1.8396946564885497,0.2748091603053435,-1.5267175572519085
5282188307827,7.466784997,2,8.112752325439452,5.7520694885253905,0.7852981445312499,-1.7557251908396947,0.31297709923664124,-1.5572519083969465
5282198271368,7.476748538,2,8.092401611328125,5.759252093505859,0.7134720947265625,-1.7938931297709924,0.2824427480916031,-1.618320610687023
5282208302410,7.48677958,2,8.12113203125,5.802347723388672,0.7529764221191406,-1.8625954198473282,0.25190839694656486,-1.5648854961832062
5282218265743,7.496742913,2,8.11514652709961,5.738901379394531,0.7876923461914062,-1.7328244274809161,0.22137404580152673,-1.618320610687023
5282228303920,7.50678109,2,8.134300140380859,5.764040496826172,0.6943184814453125,-1.8625954198473282,0.26717557251908397,-1.6030534351145038
5282238270639,7.516747809,2,8.143876947021484,5.768828900146484,0.7146691955566405,-1.7328244274809161,0.29770992366412213,-1.633587786259542
5282248311056,7.526788226,2,8.105569720458984,5.724536169433593,0.7445967163085937,-1.8091603053435115,0.24427480916030533,-1.6564885496183206
5282258269702,7.536746872,2,8.117540728759765,5.718550665283203,0.7589619262695312,-1.7404580152671756,0.2900763358778626,-1.5801526717557253
5282268303660,7.54678083,2,8.098387115478515,5.742492681884765,0.7505822204589844,-1.7709923664122138,0.22900763358778625,-1.549618320610687
5282278260639,7.556737809,2,8.14028564453125,5.749675286865234,0.6823474731445313,-1.7786259541984732,0.25190839694656486,-1.5648854961832062
5282288298191,7.566775361,2,8.111555224609374,5.744886883544922,0.7565677246093749,-1.7328244274809161,0.2595419847328244,-1.633587786259542
5282298278243,7.576755413,2,8.054094384765625,5.734112976074218,0.6835445739746093,-1.786259541984733,0.2366412213740458,-1.5954198473282444
5282308301212,7.586778382,2,8.097190014648437,5.755660791015624,0.7266402038574218,-1.702290076335878,0.25190839694656486,-1.5572519083969465
5282318272514,7.596749684,2,8.117540728759765,5.756857891845703,0.7625532287597656,-1.7786259541984732,0.21374045801526717,-1.549618320610687
5282328297670,7.60677484,2,8.097190014648437,5.738901379394531,0.7625532287597656,-1.7328244274809161,0.3282442748091603,-1.534351145038168
5282338267306,7.616744476,2,8.158242156982421,5.756857891845703,0.7805097412109374,-1.7328244274809161,0.19083969465648856,-1.6488549618320612
5282348311264,7.626788434,2,8.116343627929687,5.754463690185546,0.6871358764648438,-1.7404580152671756,0.25190839694656486,-1.5648854961832062
5282358269285,7.636746455,2,8.060079888916015,5.743689782714843,0.6536170532226562,-1.7938931297709924,0.15267175572519084,-1.5725190839694656
5282368303504,7.646780674,2,8.149862451171874,5.7508723876953125,0.7003039855957031,-1.7557251908396947,0.42748091603053434,-1.618320610687023
5282378270952,7.656748122,2,8.095992913818359,5.693411547851563,0.7589619262695312,-1.7633587786259541,0.21374045801526717,-1.633587786259542
5282388306056,7.666783226,2,8.098387115478515,5.710170959472656,0.7026981872558593,-1.7251908396946565,0.26717557251908397,-1.5419847328244274
5282398276577,7.676753747,2,8.160636358642577,5.814318731689453,0.679953271484375,-1.7938931297709924,0.24427480916030533,-1.5572519083969465
5282408313243,7.686790413,2,8.112752325439452,5.7317187744140625,0.7481880187988281,-1.7938931297709924,0.2824427480916031,-1.5190839694656488
5282418270327,7.696747497,2,8.122329132080077,5.734112976074218,0.7445967163085937,-1.748091603053435,0.16030534351145037,-1.5114503816793894
5282428306993,7.706784163,2,8.145074047851562,5.716156463623046,0.7398083129882812,-1.8091603053435115,0.3435114503816794,-1.5648854961832062
5282438266212,7.716743382,2,8.14627114868164,5.761646295166015,0.7386112121582031,-1.7633587786259541,0.22137404580152673,-1.618320610687023
5282448312306,7.726789476,2,8.099584216308592,5.741295581054687,0.6967126831054687,-1.786259541984733,0.2595419847328244,-1.5954198473282444
5282458269493,7.736746663,2,8.161833459472655,5.729324572753906,0.6955155822753906,-1.7786259541984732,0.21374045801526717,-1.5954198473282444
5282468299806,7.746776976,2,8.11514652709961,5.762843395996094,0.709880792236328,-1.7633587786259541,0.2748091603053435,-1.5572519083969465
5282478265431,7.756742601,2,8.111555224609374,5.725733270263672,0.6811503723144531,-1.7786259541984732,0.16030534351145037,-1.6106870229007633
5282488312097,7.766789267,2,8.085219006347655,5.728127471923828,0.6943184814453125,-1.748091603053435,0.3053435114503817,-1.5419847328244274
5282498274441,7.776751611,2,8.105569720458984,5.773617303466796,0.6883329772949218,-1.7709923664122138,0.061068702290076333,-1.5419847328244274
5282508306212,7.786783382,2,8.085219006347655,5.737704278564453,0.7553706237792969,-1.748091603053435,0.3053435114503817,-1.6488549618320612
5282518272566,7.796749736,2,8.080430603027343,5.754463690185546,0.7050923889160156,-1.7328244274809161,0.25190839694656486,-1.5648854961832062
5282528305639,7.806782809,2,8.119934930419921,5.779602807617187,0.7218518005371093,-1.717557251908397,0.26717557251908397,-1.618320610687023
5282538269493,7.816746663,2,8.086416107177733,5.796362219238281,0.7134720947265625,-1.7251908396946565,0.19083969465648856,-1.5267175572519085
5282548300847,7.826778017,2,8.151059552001952,5.7077767578125,0.6847416748046875,-1.7786259541984732,0.2900763358778626,-1.5419847328244274
5282558322462,7.836799632,2,8.106766821289062,5.7520694885253905,0.6344634399414062,-1.786259541984733,0.26717557251908397,-1.5801526717557253
5282568319337,7.846796507,2,8.090007409667969,5.720944866943359,0.7661445312499999,-1.7633587786259541,0.3053435114503817,-1.6488549618320612
5282578276889,7.856754059,2,8.10197841796875,5.7843912109375,0.6811503723144531,-1.7633587786259541,0.183206106870229,-1.5190839694656488
5282588305691,7.866782861,2,8.074445098876952,5.755660791015624,0.7445967163085937,-1.7557251908396947,0.24427480916030533,-1.618320610687023
5282598272514,7.876749684,2,8.11514652709961,5.7149593627929685,0.7015010864257812,-1.7786259541984732,0.22900763358778625,-1.5572519083969465
5282608305379,7.886782549,2,8.157045056152343,5.7317187744140625,0.8355763793945312,-1.7557251908396947,0.26717557251908397,-1.5419847328244274
5282618229649,7.896706819,2,8.122329132080077,5.787982513427734,0.719457598876953,-1.7633587786259541,0.1984732824427481,-1.633587786259542
5282628297931,7.906775101,2,8.130708837890625,5.725733270263672,0.6691793640136718,-1.7557251908396947,0.3435114503816794,-1.5419847328244274
5282638271681,7.916748851,2,8.119934930419921,5.766434698486328,0.6955155822753906,-1.8015267175572518,0.32061068702290074,-1.5801526717557253
5282648308139,7.926785309,2,8.10796392211914,5.724536169433593,0.7541735229492187,-1.717557251908397,0.32061068702290074,-1.5419847328244274
5282658266212,7.936743382,2,8.148665350341796,5.76523759765625,0.6691793640136718,-1.7251908396946565,0.24427480916030533,-1.6106870229007633
5282668306420,7.94678359,2,8.131905938720703,5.793968017578124,0.6524199523925781,-1.7404580152671756,0.32061068702290074,-1.5801526717557253
5282678263347,7.956740517,2,8.110358123779296,5.776011505126953,0.7110778930664062,-1.7328244274809161,0.24427480916030533,-1.5877862595419847
5282688300899,7.966778069,2,8.136694342041014,5.759252093505859,0.7457938171386719,-1.7938931297709924,0.2748091603053435,-1.5419847328244274
5282698314285,7.976791455,2,8.148665350341796,5.719747766113281,0.7613561279296874,-1.7328244274809161,0.16793893129770993,-1.5954198473282444
5282708300483,7.986777653,2,8.128314636230469,5.7137622619628905,0.6835445739746093,-1.8091603053435115,0.2900763358778626,-1.6259541984732824
5282718264910,7.99674208,2,8.106766821289062,5.735310076904296,0.7278373046875,-1.8473282442748091,0.21374045801526717,-1.5572519083969465
5282728304024,8.006781194,2,8.143876947021484,5.753266589355468,0.7445967163085937,-1.7328244274809161,0.2748091603053435,-1.6106870229007633
5282738266733,8.016743903,2,8.080430603027343,5.759252093505859,0.6727706665039062,-1.7938931297709924,0.3053435114503817,-1.5648854961832062
5282748307097,8.026784267,2,8.105569720458984,5.724536169433593,0.6823474731445313,-1.6870229007633588,0.31297709923664124,-1.5877862595419847
5282758262618,8.036739788,2,8.119934930419921,5.7843912109375,0.6452373474121094,-1.7709923664122138,0.22137404580152673,-1.6412213740458015
5282768306316,8.046783486,2,8.106766821289062,5.759252093505859,0.7697358337402344,-1.7633587786259541,0.2824427480916031,-1.5419847328244274
5282778263972,8.056741142,2,8.11514652709961,5.702988354492187,0.7960720520019531,-1.7633587786259541,0.20610687022900764,-1.5877862595419847
5282788308608,8.066785778,2,8.104372619628906,5.7508723876953125,0.7230489013671875,-1.7099236641221374,0.19083969465648856,-1.5572519083969465
5282798274076,8.076751246,2,8.066065393066406,5.764040496826172,0.7422025146484375,-1.83206106870229,0.31297709923664124,-1.6259541984732824
5282808310899,8.086788069,2,8.106766821289062,5.683834741210937,0.7661445312499999,-1.8396946564885497,0.29770992366412213,-1.6259541984732824
5282818266733,8.096743903,2,8.118737829589843,5.7317187744140625,0.7517793212890624,-1.7633587786259541,0.3282442748091603,-1.6106870229007633
5282828305483,8.106782653,2,8.09479581298828,5.706579656982422,0.6428431457519531,-1.7328244274809161,0.2824427480916031,-1.5801526717557253
5282838266629,8.116743799,2,8.097190014648437,5.728127471923828,0.6679822631835937,-1.7786259541984732,0.29770992366412213,-1.534351145038168
5282848307774,8.126784944,2,8.14028564453125,5.758054992675781,0.7278373046875,-1.7633587786259541,0.2366412213740458,-1.6030534351145038
5282858310691,8.136787861,2,8.06367119140625,5.722141967773437,0.7805097412109374,-1.7557251908396947,0.2900763358778626,-1.618320610687023
5282868300899,8.146778069,2,8.12113203125,5.758054992675781,0.729034405517578,-1.7251908396946565,0.1297709923664122,-1.5725190839694656
5282878274962,8.156752132,2,8.149862451171874,5.691017346191406,0.7541735229492187,-1.7709923664122138,0.2748091603053435,-1.6641221374045803
5282888308451,8.166785621,2,8.220491400146484,5.6958057495117185,0.6643909606933593,-1.702290076335878,0.17557251908396945,-1.5725190839694656
5282898322826,8.176799996,2,8.109161022949218,5.779602807617187,0.7350199096679687,-1.7404580152671756,0.25190839694656486,-1.6717557251908397
5282908336733,8.186813903,2,8.0828248046875,5.746083984375,0.6260837341308594,-1.7099236641221374,0.22900763358778625,-1.5801526717557253
5282918271576,8.196748746,2,8.152256652832031,5.781997009277344,0.7038952880859375,-1.8091603053435115,0.2824427480916031,-1.6488549618320612
5282928306108,8.206783278,2,8.106766821289062,5.792770916748046,0.7386112121582031,-1.7786259541984732,0.1984732824427481,-1.5725190839694656
5282938260274,8.216737444,2,8.087613208007811,5.761646295166015,0.6643909606933593,-1.7557251908396947,0.2900763358778626,-1.6488549618320612
5282948316160,8.22679333,2,8.129511737060547,5.717353564453124,0.7254431030273437,-1.8396946564885497,0.22137404580152673,-1.5954198473282444
5282958271316,8.236748486,2,8.1594392578125,5.762843395996094,0.6847416748046875,-1.7404580152671756,0.3282442748091603,-1.618320610687023
5282968302410,8.24677958,2,8.084021905517577,5.758054992675781,0.7386112121582031,-1.8015267175572518,0.20610687022900764,-1.549618320610687
5282978263712,8.256740882,2,8.109161022949218,5.728127471923828,0.7218518005371093,-1.8396946564885497,0.3053435114503817,-1.5954198473282444
5282988316628,8.266793798,2,8.155847955322265,5.768828900146484,0.7326257080078125,-1.7557251908396947,0.22900763358778625,-1.5725190839694656
5282998318399,8.276795569,2,8.135497241210937,5.691017346191406,0.7793126403808593,-1.7786259541984732,0.2366412213740458,-1.6488549618320612
5283008302722,8.286779892,2,8.080430603027343,5.77122310180664,0.7685387329101562,-1.7557251908396947,0.22900763358778625,-1.5877862595419847
5283018266108,8.296743278,2,8.085219006347655,5.780799908447265,0.6919242797851562,-1.7938931297709924,0.2824427480916031,-1.633587786259542
5283028308868,8.306786038,2,8.106766821289062,5.791573815917968,0.699106884765625,-1.7557251908396947,0.15267175572519084,-1.618320610687023
5283038261056,8.316738226,2,8.075642199707032,5.719747766113281,0.7793126403808593,-1.8015267175572518,0.2748091603053435,-1.618320610687023
5283048228816,8.326705986,2,8.09479581298828,5.729324572753906,0.7709329345703124,-1.7633587786259541,0.17557251908396945,-1.5190839694656488
5283058268035,8.336745205,2,8.090007409667969,5.697002850341796,0.7242460021972655,-1.7404580152671756,0.2748091603053435,-1.633587786259542
5283068308660,8.34678583,2,8.148665350341796,5.805939025878906,0.6919242797851562,-1.7404580152671756,0.17557251908396945,-1.633587786259542
5283078266160,8.35674333,2,8.119934930419921,5.756857891845703,0.7517793212890624,-1.7251908396946565,0.35877862595419846,-1.633587786259542
5283088303503,8.366780673,2,8.058882788085937,5.760449194335937,0.7709329345703124,-1.7938931297709924,0.1450381679389313,-1.5725190839694656
5283098312358,8.376789528,2,8.078036401367187,5.746083984375,0.8152256652832031,-1.7786259541984732,0.31297709923664124,-1.717557251908397
5283108303608,8.386780778,2,8.149862451171874,5.762843395996094,0.7242460021972655,-1.816793893129771,0.22900763358778625,-1.6793893129770991
5283118271524,8.396748694,2,8.155847955322265,5.740098480224609,0.6739677673339843,-1.7709923664122138,0.29770992366412213,-1.5572519083969465
5283128298556,8.406775726,2,8.14627114868164,5.741295581054687,0.7146691955566405,-1.7557251908396947,0.2748091603053435,-1.5954198473282444
5283138268503,8.416745673,2,8.104372619628906,5.728127471923828,0.6584054565429687,-1.748091603053435,0.3511450381679389,-1.618320610687023
5283148306941,8.426784111,2,8.148665350341796,5.747281085205078,0.7565677246093749,-1.7099236641221374,0.21374045801526717,-1.5954198473282444
5283158264493,8.436741663,2,8.095992913818359,5.778405706787109,0.6763619689941406,-1.748091603053435,0.25190839694656486,-1.6030534351145038
5283168307462,8.446784632,2,8.15345375366211,5.730521673583984,0.6703764648437499,-1.748091603053435,0.22900763358778625,-1.6488549618320612
5283178267566,8.456744736,2,8.078036401367187,5.740098480224609,0.7422025146484375,-1.7328244274809161,0.2900763358778626,-1.5954198473282444
5283188305743,8.466782913,2,8.134300140380859,5.700594152832031,0.6536170532226562,-1.7709923664122138,0.2748091603053435,-1.6106870229007633
5283198270222,8.476747392,2,8.110358123779296,5.730521673583984,0.6524199523925781,-1.7099236641221374,0.33587786259541985,-1.6488549618320612
5283208311160,8.48678833,2,8.11514652709961,5.734112976074218,0.6679822631835937,-1.8091603053435115,0.183206106870229,-1.5801526717557253
5283218274701,8.496751871,2,8.090007409667969,5.762843395996094,0.7314286071777343,-1.7938931297709924,0.2900763358778626,-1.5954198473282444
5283228311680,8.50678885,2,8.160636358642577,5.747281085205078,0.709880792236328,-1.7099236641221374,0.17557251908396945,-1.618320610687023
5283238272410,8.51674958,2,8.128314636230469,5.756857891845703,0.6907271789550781,-1.6717557251908397,0.2900763358778626,-1.6106870229007633
5283248309701,8.526786871,2,8.086416107177733,5.758054992675781,0.7505822204589844,-1.7786259541984732,0.26717557251908397,-1.6641221374045803
5283258271993,8.536749163,2,8.14627114868164,5.729324572753906,0.7062894897460937,-1.748091603053435,0.22137404580152673,-1.5725190839694656
5283268310066,8.546787236,2,8.123526232910155,5.774814404296874,0.709880792236328,-1.83206106870229,0.2748091603053435,-1.5877862595419847
5283278270378,8.556747548,2,8.098387115478515,5.716156463623046,0.74699091796875,-1.7404580152671756,0.2900763358778626,-1.618320610687023
5283288309805,8.566786975,2,8.12711753540039,5.737704278564453,0.7517793212890624,-1.786259541984733,0.26717557251908397,-1.5648854961832062
5283298297253,8.576774423,2,8.109161022949218,5.738901379394531,0.719457598876953,-1.7633587786259541,0.25190839694656486,-1.6030534351145038
5283308310951,8.586788121,2,8.12113203125,5.764040496826172,0.6596025573730468,-1.7709923664122138,0.3053435114503817,-1.5801526717557253
5283318273243,8.596750413,2,8.122329132080077,5.738901379394531,0.7158662963867187,-1.7404580152671756,0.22137404580152673,-1.5114503816793894
5283328308764,8.606785934,2,8.139088543701172,5.7149593627929685,0.7146691955566405,-1.7633587786259541,0.25190839694656486,-1.6259541984732824
5283338273035,8.616750205,2,8.113949426269532,5.722141967773437,0.737414111328125,-1.7938931297709924,0.1297709923664122,-1.5648854961832062
5283348306472,8.626783642,2,8.155847955322265,5.759252093505859,0.7781155395507812,-1.7938931297709924,0.3053435114503817,-1.549618320610687
5283358279337,8.636756507,2,8.087613208007811,5.7329158752441405,0.7146691955566405,-1.748091603053435,0.19083969465648856,-1.534351145038168
