timestamp_ns,t_s,sensor_id,ax,ay,az,gx,gy,gz
5274895611371,0.174088541,1,0.22744915771484372,1.7214309936523438,-11.2240173828125,-0.8091603053435115,0.5648854961832062,-1.450381679389313
5274905568454,0.184045624,1,0.24899697265624998,1.7525556152343749,-11.212046374511718,-0.8396946564885496,0.6030534351145038,-1.3206106870229009
5274915564496,0.194041666,1,0.21308394775390624,1.7717092285156248,-11.231199987792968,-0.7709923664122137,0.5725190839694656,-1.3129770992366412
5274925562465,0.204039635,1,0.21308394775390624,1.7262193969726563,-11.19887826538086,-0.8091603053435115,0.5648854961832062,-1.2366412213740459
5274935555798,0.214032968,1,0.25139117431640623,1.707065783691406,-11.183315954589844,-0.7862595419847328,0.5954198473282443,-1.2900763358778626
5274945559392,0.224036562,1,0.2645592834472656,1.705868682861328,-11.143811627197264,-0.8778625954198473,0.6183206106870229,-1.3282442748091603
5274955559861,0.234037031,1,0.22266075439453123,1.7764976318359373,-11.156979736328124,-0.7633587786259542,0.5725190839694656,-1.3053435114503817
5274965560538,0.244037708,1,0.22385785522460935,1.7405846069335937,-11.256339105224608,-0.8244274809160306,0.5267175572519084,-1.2595419847328244
5274975561423,0.254038593,1,0.22744915771484372,1.6819266662597656,-11.050437762451171,-0.7862595419847328,0.5114503816793893,-1.3358778625954197
5274985561267,0.264038437,1,0.1867477294921875,1.715445489501953,-11.200075366210937,-0.8549618320610687,0.5648854961832062,-1.2748091603053435
5274995560329,0.274037499,1,0.19632453613281248,1.7262193969726563,-11.177330450439452,-0.8396946564885496,0.5954198473282443,-1.3053435114503817
5275005559704,0.284036874,1,0.2609679809570312,1.7334020019531249,-11.16057103881836,-0.7786259541984732,0.5648854961832062,-1.3053435114503817
5275015556163,0.294033333,1,0.16280571289062498,1.7010802795410156,-11.238382592773437,-0.7404580152671756,0.48854961832061067,-1.3435114503816794
5275025560694,0.304037864,1,0.21787235107421873,1.7178396911621092,-11.183315954589844,-0.8015267175572519,0.5877862595419847,-1.3129770992366412
5275035556267,0.314033437,1,0.18435352783203124,1.6998831787109374,-11.239579693603515,-0.8015267175572519,0.5954198473282443,-1.251908396946565
5275045561319,0.324038489,1,0.2561795776367187,1.734599102783203,-11.155782635498046,-0.7862595419847328,0.5419847328244275,-1.297709923664122
5275055559965,0.334037135,1,0.21428104858398436,1.6603788513183593,-11.212046374511718,-0.7557251908396947,0.6030534351145038,-1.3511450381679388
5275065560225,0.344037395,1,0.21428104858398436,1.7118541870117185,-11.131840618896483,-0.8015267175572519,0.5801526717557252,-1.3435114503816794
5275075560538,0.354037708,1,0.2166752502441406,1.7178396911621092,-11.161768139648437,-0.7786259541984732,0.5954198473282443,-1.3358778625954197
5275085559236,0.364036406,1,0.1879448303222656,1.7417817077636717,-11.222820281982422,-0.8625954198473282,0.5419847328244275,-1.3282442748091603
5275095561579,0.374038749,1,0.17357962036132812,1.7118541870117185,-11.207257971191405,-0.816793893129771,0.5114503816793893,-1.3358778625954197
5275105560173,0.384037343,1,0.2657563842773437,1.7908628417968748,-11.197681164550781,-0.7862595419847328,0.5572519083969466,-1.3358778625954197
5275115557777,0.394034947,1,0.21308394775390624,1.7453730102539062,-11.195286962890624,-0.816793893129771,0.5190839694656488,-1.3053435114503817
5275125559809,0.404036979,1,0.20470424194335937,1.7298106994628906,-11.086350787353515,-0.8625954198473282,0.549618320610687,-1.3206106870229009
5275135558402,0.414035572,1,0.2825157958984375,1.7022773803710936,-11.247959399414063,-0.7786259541984732,0.5648854961832062,-1.3969465648854962
5275145560642,0.424037812,1,0.22266075439453123,1.715445489501953,-11.201272467041015,-0.816793893129771,0.5190839694656488,-1.3282442748091603
5275155562152,0.434039322,1,0.2537853759765625,1.7298106994628906,-11.182118853759764,-0.8854961832061069,0.5801526717557252,-1.3129770992366412
5275165559704,0.444036874,1,0.20470424194335937,1.7393875061035156,-11.128249316406249,-0.8015267175572519,0.549618320610687,-1.2671755725190839
5275175558506,0.454035676,1,0.24301146850585936,1.7106570861816406,-11.18571015625,-0.7862595419847328,0.5038167938931297,-1.3587786259541985
5275185560225,0.464037395,1,0.17597382202148437,1.7705121276855467,-11.165359442138671,-0.8015267175572519,0.5343511450381679,-1.3358778625954197
5275195559392,0.474036562,1,0.2262520568847656,1.7561469177246092,-11.232397088623046,-0.8015267175572519,0.6030534351145038,-1.297709923664122
5275205561267,0.484038437,1,0.2346317626953125,1.6998831787109374,-11.149797131347656,-0.8473282442748091,0.5954198473282443,-1.3053435114503817
5275215559236,0.494036406,1,0.2765302917480469,1.6986860778808592,-11.171344946289063,-0.8320610687022901,0.5419847328244275,-1.3206106870229009
5275225558871,0.504036041,1,0.1927332336425781,1.7369933044433592,-11.148600030517578,-0.7786259541984732,0.5343511450381679,-1.3587786259541985
5275235559131,0.514036301,1,0.2561795776367187,1.7274164978027342,-11.188104357910156,-0.7938931297709924,0.6259541984732825,-1.3358778625954197
5275245559444,0.524036614,1,0.22026655273437498,1.7381904052734374,-11.130643518066405,-0.8931297709923665,0.5725190839694656,-1.3282442748091603
5275255560850,0.53403802,1,0.2346317626953125,1.763329522705078,-11.173739147949219,-0.7938931297709924,0.6335877862595419,-1.3358778625954197
5275265558871,0.544036041,1,0.24061726684570311,1.7405846069335937,-11.243170996093749,-0.8091603053435115,0.5648854961832062,-1.366412213740458
5275275556892,0.554034062,1,0.23343466186523437,1.7202338928222656,-11.192892761230468,-0.8091603053435115,0.5725190839694656,-1.282442748091603
5275285559340,0.56403651,1,0.21787235107421873,1.7657237243652342,-11.21084927368164,-0.7633587786259542,0.4961832061068702,-1.3358778625954197
5275295559861,0.574037031,1,0.2346317626953125,1.7202338928222656,-11.119869610595703,-0.8244274809160306,0.6030534351145038,-1.3740458015267176
5275305560329,0.584037499,1,0.18914193115234373,1.6807295654296874,-11.192892761230468,-0.732824427480916,0.5801526717557252,-1.3511450381679388
5275315559652,0.594036822,1,0.26336218261718747,1.7202338928222656,-11.188104357910156,-0.8244274809160306,0.6183206106870229,-1.3129770992366412
5275325558298,0.604035468,1,0.22266075439453123,1.7310078002929687,-11.235988391113281,-0.7938931297709924,0.5648854961832062,-1.2595419847328244
5275335561163,0.614038333,1,0.239420166015625,1.7489643127441405,-11.19169566040039,-0.8091603053435115,0.6641221374045801,-1.3129770992366412
5275345560017,0.624037187,1,0.2262520568847656,1.7226280944824217,-11.15338843383789,-0.8091603053435115,0.5877862595419847,-1.3893129770992367
5275355559183,0.634036353,1,0.18435352783203124,1.714248388671875,-11.186907257080078,-0.8396946564885496,0.6793893129770993,-1.3358778625954197
5275365561736,0.644038906,1,0.2166752502441406,1.7669208251953124,-11.190498559570312,-0.7862595419847328,0.5190839694656488,-1.366412213740458
5275375559704,0.654036874,1,0.229843359375,1.7764976318359373,-11.221623181152344,-0.8091603053435115,0.5954198473282443,-1.3358778625954197
5275385559652,0.664036822,1,0.2346317626953125,1.7393875061035156,-11.200075366210937,-0.7786259541984732,0.5954198473282443,-1.3358778625954197
5275395559444,0.674036614,1,0.20709844360351562,1.714248388671875,-11.129446417236327,-0.8015267175572519,0.6106870229007634,-1.3587786259541985
5275405559496,0.684036666,1,0.2262520568847656,1.7310078002929687,-11.136629022216797,-0.7480916030534351,0.6030534351145038,-1.366412213740458
5275415560902,0.694038072,1,0.26216508178710934,1.6986860778808592,-11.154585534667968,-0.8473282442748091,0.5038167938931297,-1.2900763358778626
5275425559652,0.704036822,1,0.17238251953125,1.725022296142578,-11.168950744628905,-0.7480916030534351,0.5572519083969466,-1.3587786259541985
5275435557100,0.71403427,1,0.23582886352539062,1.7226280944824217,-11.176133349609374,-0.9236641221374046,0.5801526717557252,-1.3282442748091603
5275445560017,0.724037187,1,0.19033903198242186,1.7262193969726563,-11.212046374511718,-0.8396946564885496,0.6106870229007634,-1.297709923664122
5275455567100,0.73404427,1,0.26695348510742184,1.7357962036132812,-11.202469567871093,-0.8549618320610687,0.5725190839694656,-1.3053435114503817
5275465563350,0.74404052,1,0.17238251953125,1.6986860778808592,-11.201272467041015,-0.8091603053435115,0.5877862595419847,-1.282442748091603
5275475568246,0.754045416,1,0.22266075439453123,1.7334020019531249,-11.188104357910156,-0.8854961832061069,0.6641221374045801,-1.282442748091603
5275485558871,0.764036041,1,0.2442085693359375,1.7310078002929687,-11.204863769531249,-0.8091603053435115,0.5419847328244275,-1.282442748091603
5275495560485,0.774037655,1,0.2537853759765625,1.7322049011230467,-11.245565197753905,-0.8931297709923665,0.6030534351145038,-1.3053435114503817
5275505559340,0.78403651,1,0.21068974609375,1.7238251953125,-11.174936248779296,-0.7480916030534351,0.5877862595419847,-1.2900763358778626
5275515559965,0.794037135,1,0.20949264526367187,1.7334020019531249,-11.212046374511718,-0.8931297709923665,0.648854961832061,-1.366412213740458
5275525560277,0.804037447,1,0.19033903198242186,1.70467158203125,-11.164162341308593,-0.7862595419847328,0.5954198473282443,-1.3435114503816794
5275535560538,0.814037708,1,0.239420166015625,1.7477672119140624,-11.174936248779296,-0.7786259541984732,0.5343511450381679,-1.3358778625954197
5275545559600,0.82403677,1,0.24899697265624998,1.7322049011230467,-11.142614526367186,-0.8244274809160306,0.5114503816793893,-1.3206106870229009
5275555559965,0.834037135,1,0.2059013427734375,1.6986860778808592,-11.168950744628905,-0.8854961832061069,0.5419847328244275,-1.2900763358778626
5275565560746,0.844037916,1,0.20709844360351562,1.7369933044433592,-11.24915650024414,-0.8015267175572519,0.4961832061068702,-1.3358778625954197
5275575559027,0.854036197,1,0.22385785522460935,1.7298106994628906,-11.235988391113281,-0.816793893129771,0.5801526717557252,-1.3435114503816794
5275585559652,0.864036822,1,0.21068974609375,1.7274164978027342,-11.170147845458983,-0.7633587786259542,0.5419847328244275,-1.3053435114503817
5275595556267,0.874033437,1,0.21906945190429686,1.7429788085937499,-11.196484063720703,-0.8244274809160306,0.5419847328244275,-1.3053435114503817
5275605559288,0.884036458,1,0.2454056701660156,1.744175909423828,-11.194089862060546,-0.7480916030534351,0.5038167938931297,-1.3206106870229009
5275615561215,0.894038385,1,0.19153613281249998,1.7106570861816406,-11.152191333007812,-0.8549618320610687,0.5648854961832062,-1.3206106870229009
5275625561163,0.904038333,1,0.2813186950683594,1.7705121276855467,-11.21683477783203,-0.7938931297709924,0.6259541984732825,-1.3511450381679388
5275635560329,0.914037499,1,0.2166752502441406,1.7334020019531249,-11.164162341308593,-0.8015267175572519,0.5267175572519084,-1.3206106870229009
5275645560069,0.924037239,1,0.22505495605468748,1.7094599853515624,-11.176133349609374,-0.7709923664122137,0.5877862595419847,-1.3358778625954197
5275655559652,0.934036822,1,0.24301146850585936,1.7202338928222656,-11.24915650024414,-0.8549618320610687,0.6183206106870229,-1.3282442748091603
5275665559235,0.944036405,1,0.22864625854492185,1.7561469177246092,-11.168950744628905,-0.8396946564885496,0.5038167938931297,-1.3587786259541985
5275675559965,0.954037135,1,0.18435352783203124,1.7202338928222656,-11.184513055419922,-0.7709923664122137,0.5725190839694656,-1.3358778625954197
5275685560850,0.96403802,1,0.201112939453125,1.7621324218749999,-11.171344946289063,-0.8473282442748091,0.5343511450381679,-1.282442748091603
5275695559131,0.974036301,1,0.20231004028320312,1.7501614135742187,-11.215637677001952,-0.8091603053435115,0.5419847328244275,-1.3282442748091603
5275705558506,0.984035676,1,0.24779987182617186,1.7417817077636717,-11.10191309814453,-0.9007633587786259,0.5343511450381679,-1.3358778625954197
5275715561527,0.994038697,1,0.23822306518554687,1.7669208251953124,-11.220426080322264,-0.8244274809160306,0.5801526717557252,-1.3282442748091603
5275725562048,1.004039218,1,0.23702596435546874,1.7214309936523438,-11.130643518066405,-0.8015267175572519,0.6030534351145038,-1.381679389312977
5275735560329,1.014037499,1,0.229843359375,1.7764976318359373,-11.161768139648437,-0.8320610687022901,0.5114503816793893,-1.3206106870229009
5275745557829,1.024034999,1,0.22266075439453123,1.6735469604492186,-11.166556542968749,-0.7480916030534351,0.6259541984732825,-1.3053435114503817
5275755560277,1.034037447,1,0.19991583862304688,1.7010802795410156,-11.12226381225586,-0.7938931297709924,0.5572519083969466,-1.3435114503816794
5275765559860,1.04403703,1,0.2537853759765625,1.7190367919921874,-11.252747802734374,-0.7938931297709924,0.6030534351145038,-1.3893129770992367
5275775561162,1.054038332,1,0.17357962036132812,1.7669208251953124,-11.233594189453123,-0.8015267175572519,0.6106870229007634,-1.3435114503816794
5275785560381,1.064037551,1,0.2346317626953125,1.7286135986328124,-11.23000288696289,-0.8396946564885496,0.5801526717557252,-1.366412213740458
5275795560173,1.074037343,1,0.22385785522460935,1.7609353210449217,-11.206060870361327,-0.8091603053435115,0.5801526717557252,-1.2900763358778626
5275805560433,1.084037603,1,0.24301146850585936,1.707065783691406,-11.17254204711914,-0.8244274809160306,0.5877862595419847,-1.3053435114503817
5275815561579,1.094038749,1,0.239420166015625,1.70467158203125,-11.222820281982422,-0.7862595419847328,0.5572519083969466,-1.3129770992366412
5275825559235,1.104036405,1,0.28969840087890625,1.7298106994628906,-11.190498559570312,-0.7938931297709924,0.5725190839694656,-1.3129770992366412
5275835558975,1.114036145,1,0.24899697265624998,1.7094599853515624,-11.131840618896483,-0.7404580152671756,0.6106870229007634,-1.381679389312977
5275845560590,1.12403776,1,0.229843359375,1.6927005737304686,-11.245565197753905,-0.8244274809160306,0.5801526717557252,-1.3282442748091603
5275855559912,1.134037082,1,0.2262520568847656,1.7178396911621092,-11.213243475341796,-0.816793893129771,0.46564885496183206,-1.3206106870229009
5275865560590,1.14403776,1,0.20829554443359374,1.744175909423828,-11.261127508544922,-0.8396946564885496,0.6335877862595419,-1.297709923664122
5275875559600,1.15403677,1,0.2442085693359375,1.7453730102539062,-11.232397088623046,-0.7099236641221374,0.4961832061068702,-1.2366412213740459
5275885560746,1.164037916,1,0.19512743530273435,1.7286135986328124,-11.131840618896483,-0.8549618320610687,0.5267175572519084,-1.3435114503816794
5275895560173,1.174037343,1,0.2597708801269531,1.7238251953125,-11.17254204711914,-0.7557251908396947,0.5343511450381679,-1.3587786259541985
5275905558767,1.184035937,1,0.25737667846679685,1.7405846069335937,-11.143811627197264,-0.8702290076335878,0.5877862595419847,-1.3206106870229009
5275915559912,1.194037082,1,0.21068974609375,1.7453730102539062,-11.159373937988281,-0.7862595419847328,0.549618320610687,-1.3282442748091603
5275925559704,1.204036874,1,0.2753331909179687,1.753752716064453,-11.231199987792968,-0.8244274809160306,0.5725190839694656,-1.3587786259541985
5275935559183,1.214036353,1,0.24181436767578124,1.7298106994628906,-11.209652172851563,-0.7633587786259542,0.5190839694656488,-1.3511450381679388
5275945560069,1.224037239,1,0.23223756103515625,1.7118541870117185,-11.232397088623046,-0.8625954198473282,0.46564885496183206,-1.3206106870229009
5275955555902,1.234033072,1,0.23223756103515625,1.7322049011230467,-11.232397088623046,-0.7786259541984732,0.5648854961832062,-1.366412213740458
5275965560746,1.244037916,1,0.22744915771484372,1.763329522705078,-11.131840618896483,-0.7938931297709924,0.5572519083969466,-1.3282442748091603
5275975561006,1.254038176,1,0.201112939453125,1.7956512451171873,-11.258733306884764,-0.8473282442748091,0.5267175572519084,-1.3511450381679388
5275985559444,1.264036614,1,0.19871873779296872,1.6938976745605467,-11.162965240478515,-0.8854961832061069,0.5114503816793893,-1.2900763358778626
5275995560017,1.274037187,1,0.23343466186523437,1.687912170410156,-11.202469567871093,-0.8396946564885496,0.5572519083969466,-1.2595419847328244
5276005567881,1.284045051,1,0.2693476867675781,1.7226280944824217,-11.209652172851563,-0.8625954198473282,0.6183206106870229,-1.3511450381679388
5276015565589,1.294042759,1,0.19033903198242186,1.697488977050781,-11.197681164550781,-0.8396946564885496,0.549618320610687,-1.251908396946565
5276025557569,1.304034739,1,0.24779987182617186,1.7477672119140624,-11.182118853759764,-0.8473282442748091,0.5954198473282443,-1.3053435114503817
5276035560798,1.314037968,1,0.229843359375,1.7034744812011717,-11.219228979492186,-0.7557251908396947,0.5572519083969466,-1.3053435114503817
5276045565642,1.324042812,1,0.19991583862304688,1.686715069580078,-11.170147845458983,-0.8702290076335878,0.5877862595419847,-1.3511450381679388
5276055560069,1.334037239,1,0.23343466186523437,1.6986860778808592,-11.19169566040039,-0.8015267175572519,0.5038167938931297,-1.3206106870229009
5276065559548,1.344036718,1,0.20231004028320312,1.7381904052734374,-11.204863769531249,-0.8396946564885496,0.6106870229007634,-1.3511450381679388
5276075560694,1.354037864,1,0.24181436767578124,1.7513585144042967,-11.263521710205078,-0.732824427480916,0.5114503816793893,-1.366412213740458
5276085561110,1.36403828,1,0.23702596435546874,1.7429788085937499,-11.220426080322264,-0.7633587786259542,0.5725190839694656,-1.3129770992366412
5276095559444,1.374036614,1,0.2885013000488281,1.7034744812011717,-11.1474029296875,-0.7862595419847328,0.5572519083969466,-1.3053435114503817
5276105557256,1.384034426,1,0.14125789794921875,1.7525556152343749,-11.164162341308593,-0.8320610687022901,0.5190839694656488,-1.3435114503816794
5276115557152,1.394034322,1,0.24061726684570311,1.7262193969726563,-11.15338843383789,-0.8015267175572519,0.5954198473282443,-1.3511450381679388
5276125559860,1.40403703,1,0.22744915771484372,1.744175909423828,-11.152191333007812,-0.8854961832061069,0.5648854961832062,-1.3587786259541985
5276135561214,1.414038384,1,0.21188684692382811,1.7429788085937499,-11.184513055419922,-0.8320610687022901,0.5572519083969466,-1.3435114503816794
5276145560017,1.424037187,1,0.18076222534179687,1.7274164978027342,-11.189301458740234,-0.816793893129771,0.5801526717557252,-1.297709923664122
5276155559131,1.434036301,1,0.23702596435546874,1.696291876220703,-11.148600030517578,-0.7938931297709924,0.5877862595419847,-1.366412213740458
5276165560798,1.444037968,1,0.20231004028320312,1.7322049011230467,-11.220426080322264,-0.7938931297709924,0.549618320610687,-1.3282442748091603
5276175560902,1.454038072,1,0.23343466186523437,1.697488977050781,-11.148600030517578,-0.7786259541984732,0.5648854961832062,-1.282442748091603
5276185559600,1.46403677,1,0.20470424194335937,1.7298106994628906,-11.232397088623046,-0.8320610687022901,0.549618320610687,-1.3511450381679388
5276195561944,1.474039114,1,0.23104046020507812,1.7166425903320313,-11.195286962890624,-0.8091603053435115,0.549618320610687,-1.3053435114503817
5276205559860,1.48403703,1,0.1975216369628906,1.7429788085937499,-11.174936248779296,-0.8549618320610687,0.5648854961832062,-1.3206106870229009
5276215559704,1.494036874,1,0.21188684692382811,1.7322049011230467,-11.123460913085937,-0.8396946564885496,0.5954198473282443,-1.3129770992366412
5276225562464,1.504039634,1,0.19393033447265623,1.7405846069335937,-11.1474029296875,-0.8473282442748091,0.5648854961832062,-1.3435114503816794
5276235560537,1.514037707,1,0.20470424194335937,1.7214309936523438,-11.252747802734374,-0.7480916030534351,0.549618320610687,-1.282442748091603
5276245558819,1.524035989,1,0.20470424194335937,1.695094775390625,-11.161768139648437,-0.8244274809160306,0.5801526717557252,-1.3053435114503817
5276255559496,1.534036666,1,0.27892449340820313,1.6915034729003906,-11.170147845458983,-0.7938931297709924,0.5877862595419847,-1.3740458015267176
5276265560589,1.544037759,1,0.22864625854492185,1.7274164978027342,-11.162965240478515,-0.8244274809160306,0.6030534351145038,-1.282442748091603
5276275556214,1.554033384,1,0.2549824768066406,1.725022296142578,-11.238382592773437,-0.816793893129771,0.5419847328244275,-1.2671755725190839
5276285559704,1.564036874,1,0.17477672119140625,1.7262193969726563,-11.19887826538086,-0.8320610687022901,0.5648854961832062,-1.3053435114503817
5276295559964,1.574037134,1,0.23822306518554687,1.7274164978027342,-11.182118853759764,-0.7938931297709924,0.5801526717557252,-1.3587786259541985
5276305559548,1.584036718,1,0.19393033447265623,1.705868682861328,-11.127052215576171,-0.8549618320610687,0.5190839694656488,-1.297709923664122
5276315558350,1.59403552,1,0.2154781494140625,1.7322049011230467,-11.162965240478515,-0.8091603053435115,0.6870229007633588,-1.2900763358778626
5276325561110,1.60403828,1,0.1879448303222656,1.6915034729003906,-11.220426080322264,-0.7786259541984732,0.5725190839694656,-1.2595419847328244
5276335561006,1.614038176,1,0.24660277099609373,1.7369933044433592,-11.14022032470703,-0.8015267175572519,0.5038167938931297,-1.366412213740458
5276345559808,1.624036978,1,0.2549824768066406,1.7573440185546874,-11.112687005615234,-0.816793893129771,0.5267175572519084,-1.3206106870229009
5276355557464,1.634034634,1,0.229843359375,1.7645266235351562,-11.204863769531249,-0.7862595419847328,0.6183206106870229,-1.3435114503816794
5276365560694,1.644037864,1,0.2597708801269531,1.7094599853515624,-11.129446417236327,-0.816793893129771,0.5877862595419847,-1.3129770992366412
5276375559131,1.654036301,1,0.2693476867675781,1.7609353210449217,-11.238382592773437,-0.8244274809160306,0.549618320610687,-1.2748091603053435
5276385560225,1.664037395,1,0.22864625854492185,1.7214309936523438,-11.167753643798827,-0.8091603053435115,0.549618320610687,-1.2595419847328244
5276395560485,1.674037655,1,0.20231004028320312,1.7489643127441405,-11.161768139648437,-0.8549618320610687,0.5954198473282443,-1.3053435114503817
5276405560277,1.684037447,1,0.17118541870117188,1.7489643127441405,-11.086350787353515,-0.816793893129771,0.549618320610687,-1.3358778625954197
5276415558714,1.694035884,1,0.2609679809570312,1.7381904052734374,-11.106701501464842,-0.8778625954198473,0.6106870229007634,-1.3053435114503817
5276425559235,1.704036405,1,0.19871873779296872,1.6891092712402342,-11.184513055419922,-0.8091603053435115,0.5190839694656488,-1.3129770992366412
5276435555902,1.714033072,1,0.25258827514648435,1.696291876220703,-11.195286962890624,-0.8244274809160306,0.6106870229007634,-1.3129770992366412
5276445559339,1.724036509,1,0.2561795776367187,1.6986860778808592,-11.18571015625,-0.8244274809160306,0.5114503816793893,-1.3206106870229009
5276455560433,1.734037603,1,0.2609679809570312,1.7190367919921874,-11.195286962890624,-0.8244274809160306,0.5877862595419847,-1.3129770992366412
5276465560433,1.744037603,1,0.24779987182617186,1.7561469177246092,-11.184513055419922,-0.7709923664122137,0.5877862595419847,-1.3740458015267176
5276475560277,1.754037447,1,0.2537853759765625,1.7322049011230467,-11.159373937988281,-0.8549618320610687,0.549618320610687,-1.3282442748091603
5276485560277,1.764037447,1,0.19991583862304688,1.7298106994628906,-11.087547888183593,-0.6946564885496184,0.5038167938931297,-1.2748091603053435
5276495560121,1.774037291,1,0.20709844360351562,1.7429788085937499,-11.136629022216797,-0.8396946564885496,0.5648854961832062,-1.3206106870229009
5276505560693,1.784037863,1,0.24061726684570311,1.697488977050781,-11.214440576171874,-0.7557251908396947,0.5725190839694656,-1.3740458015267176
5276515561058,1.794038228,1,0.21308394775390624,1.7214309936523438,-11.184513055419922,-0.9007633587786259,0.6412213740458015,-1.282442748091603
5276525560485,1.804037655,1,0.19991583862304688,1.697488977050781,-11.197681164550781,-0.7709923664122137,0.6106870229007634,-1.282442748091603
5276535558766,1.814035936,1,0.17477672119140625,1.7429788085937499,-11.221623181152344,-0.8549618320610687,0.5877862595419847,-1.297709923664122
5276545560016,1.824037186,1,0.23582886352539062,1.7884686401367187,-11.149797131347656,-0.8015267175572519,0.5954198473282443,-1.2900763358778626
5276555567256,1.834044426,1,0.22864625854492185,1.7800889343261719,-11.265915911865234,-0.8091603053435115,0.5954198473282443,-1.2748091603053435
5276565561423,1.844038593,1,0.23223756103515625,1.696291876220703,-11.17852755126953,-0.7862595419847328,0.5648854961832062,-1.297709923664122
5276575559443,1.854036613,1,0.17956512451171874,1.7501614135742187,-11.184513055419922,-0.8778625954198473,0.5954198473282443,-1.3435114503816794
5276585560902,1.864038072,1,0.20231004028320312,1.7262193969726563,-11.176133349609374,-0.7938931297709924,0.5343511450381679,-1.3282442748091603
5276595557308,1.874034478,1,0.23223756103515625,1.7741034301757812,-11.161768139648437,-0.8854961832061069,0.549618320610687,-1.3435114503816794
5276605560173,1.884037343,1,0.22026655273437498,1.7226280944824217,-11.170147845458983,-0.8244274809160306,0.549618320610687,-1.3740458015267176
5276615567204,1.894044374,1,0.2705447875976562,1.744175909423828,-11.117475408935546,-0.8549618320610687,0.5114503816793893,-1.3282442748091603
5276625560120,1.90403729,1,0.20949264526367187,1.7322049011230467,-11.168950744628905,-0.7709923664122137,0.6106870229007634,-1.2900763358778626
5276635561214,1.914038384,1,0.23343466186523437,1.7753005310058592,-11.24915650024414,-0.8244274809160306,0.6030534351145038,-1.3053435114503817
5276645560954,1.924038124,1,0.17836802368164062,1.7453730102539062,-11.184513055419922,-0.7709923664122137,0.6030534351145038,-1.3435114503816794
5276655560850,1.93403802,1,0.2166752502441406,1.7489643127441405,-11.231199987792968,-0.8244274809160306,0.6030534351145038,-1.3053435114503817
5276665559548,1.944036718,1,0.18076222534179687,1.7274164978027342,-11.176133349609374,-0.8244274809160306,0.5343511450381679,-1.3129770992366412
5276675560120,1.95403729,1,0.20231004028320312,1.7214309936523438,-11.225214483642578,-0.8473282442748091,0.6183206106870229,-1.3129770992366412
5276685560225,1.964037395,1,0.21428104858398436,1.6998831787109374,-11.195286962890624,-0.816793893129771,0.5419847328244275,-1.3206106870229009
5276695556162,1.974033332,1,0.19871873779296872,1.7417817077636717,-11.179724652099608,-0.7862595419847328,0.5648854961832062,-1.297709923664122
5276705560016,1.984037186,1,0.2166752502441406,1.7405846069335937,-11.158176837158203,-0.816793893129771,0.5801526717557252,-1.3511450381679388
5276715560329,1.994037499,1,0.22026655273437498,1.7322049011230467,-11.167753643798827,-0.8091603053435115,0.5648854961832062,-1.3587786259541985
5276725559808,2.004036978,1,0.2561795776367187,1.7369933044433592,-11.246762298583985,-0.8244274809160306,0.5572519083969466,-1.3206106870229009
5276735558714,2.014035884,1,0.27174188842773433,1.744175909423828,-11.180921752929686,-0.816793893129771,0.5114503816793893,-1.366412213740458
5276745561475,2.024038645,1,0.23582886352539062,1.7322049011230467,-11.1474029296875,-0.8015267175572519,0.5190839694656488,-1.2748091603053435
5276755560589,2.034037759,1,0.19033903198242186,1.715445489501953,-11.173739147949219,-0.8320610687022901,0.5725190839694656,-1.3053435114503817
5276765561006,2.044038176,1,0.17238251953125,1.7190367919921874,-11.207257971191405,-0.7633587786259542,0.5190839694656488,-1.381679389312977
5276775560225,2.054037395,1,0.23104046020507812,1.6986860778808592,-11.17852755126953,-0.8320610687022901,0.5419847328244275,-1.3129770992366412
5276785562725,2.064039895,1,0.17597382202148437,1.7429788085937499,-11.19169566040039,-0.7862595419847328,0.6106870229007634,-1.3587786259541985
5276795558037,2.074035207,1,0.2501940734863281,1.725022296142578,-11.179724652099608,-0.8625954198473282,0.5801526717557252,-1.3053435114503817
5276805559912,2.084037082,1,0.2442085693359375,1.7369933044433592,-11.204863769531249,-0.8473282442748091,0.5954198473282443,-1.297709923664122
5276815560850,2.09403802,1,0.2454056701660156,1.7525556152343749,-11.183315954589844,-0.7938931297709924,0.5877862595419847,-1.381679389312977
5276825559339,2.104036509,1,0.22505495605468748,1.7082628845214842,-11.171344946289063,-0.8396946564885496,0.5038167938931297,-1.3206106870229009
5276835565329,2.114042499,1,0.17357962036132812,1.7082628845214842,-11.219228979492186,-0.7862595419847328,0.5954198473282443,-1.3206106870229009
5276845561318,2.124038488,1,0.24301146850585936,1.7585411193847655,-11.149797131347656,-0.8396946564885496,0.5877862595419847,-1.3053435114503817
5276855561631,2.134038801,1,0.229843359375,1.7286135986328124,-11.21084927368164,-0.8091603053435115,0.5267175572519084,-1.3282442748091603
5276865559495,2.144036665,1,0.3028665100097656,1.7393875061035156,-11.15338843383789,-0.8625954198473282,0.6870229007633588,-1.3053435114503817
5276875561214,2.154038384,1,0.21428104858398436,1.714248388671875,-11.173739147949219,-0.8473282442748091,0.5343511450381679,-1.3435114503816794
5276885557933,2.164035103,1,0.23104046020507812,1.705868682861328,-11.220426080322264,-0.8244274809160306,0.6412213740458015,-1.3129770992366412
5276895567829,2.174044999,1,0.2154781494140625,1.7310078002929687,-11.221623181152344,-0.7709923664122137,0.5190839694656488,-1.3587786259541985
5276905561995,2.184039165,1,0.21428104858398436,1.6998831787109374,-11.2240173828125,-0.7938931297709924,0.5877862595419847,-1.3206106870229009
5276915559183,2.194036353,1,0.21068974609375,1.7381904052734374,-11.195286962890624,-0.8244274809160306,0.5343511450381679,-1.3282442748091603
5276925560277,2.204037447,1,0.2537853759765625,1.734599102783203,-11.150994232177734,-0.8396946564885496,0.6183206106870229,-1.3206106870229009
5276935560433,2.214037603,1,0.24660277099609373,1.772906329345703,-11.190498559570312,-0.8778625954198473,0.6030534351145038,-1.3435114503816794
5276945559495,2.224036665,1,0.258573779296875,1.7513585144042967,-11.196484063720703,-0.8854961832061069,0.6106870229007634,-1.3435114503816794
5276955556318,2.234033488,1,0.2214636535644531,1.7693150268554687,-11.164162341308593,-0.8854961832061069,0.5190839694656488,-1.297709923664122
5276965560641,2.244037811,1,0.19393033447265623,1.744175909423828,-11.146205828857422,-0.7938931297709924,0.549618320610687,-1.3206106870229009
5276975559339,2.254036509,1,0.1927332336425781,1.7812860351562498,-11.231199987792968,-0.7709923664122137,0.5419847328244275,-1.2748091603053435
5276985558766,2.264035936,1,0.19393033447265623,1.7405846069335937,-11.13423482055664,-0.8320610687022901,0.6030534351145038,-1.381679389312977
5276995564495,2.274041665,1,0.1867477294921875,1.7166425903320313,-11.14022032470703,-0.8015267175572519,0.6335877862595419,-1.366412213740458
5277005560745,2.284037915,1,0.22864625854492185,1.7286135986328124,-11.206060870361327,-0.7938931297709924,0.5648854961832062,-1.3129770992366412
5277015560016,2.294037186,1,0.22026655273437498,1.7585411193847655,-11.21084927368164,-0.8091603053435115,0.549618320610687,-1.2900763358778626
5277025559495,2.304036665,1,0.16759411621093748,1.7357962036132812,-11.166556542968749,-0.8549618320610687,0.6412213740458015,-1.3206106870229009
5277035559443,2.314036613,1,0.2549824768066406,1.772906329345703,-11.219228979492186,-0.7709923664122137,0.5267175572519084,-1.381679389312977
5277045559599,2.324036769,1,0.2346317626953125,1.7609353210449217,-11.11508120727539,-0.8015267175572519,0.549618320610687,-1.2900763358778626
5277055559860,2.33403703,1,0.2597708801269531,1.6795324645996093,-11.23718549194336,-0.7557251908396947,0.5038167938931297,-1.3435114503816794
5277065560902,2.344038072,1,0.21068974609375,1.7310078002929687,-11.143811627197264,-0.8931297709923665,0.5801526717557252,-1.297709923664122
5277075560849,2.354038019,1,0.22744915771484372,1.7166425903320313,-11.154585534667968,-0.7557251908396947,0.48854961832061067,-1.282442748091603
5277085559287,2.364036457,1,0.19871873779296872,1.7417817077636717,-11.21683477783203,-0.8625954198473282,0.6106870229007634,-1.297709923664122
5277095558922,2.374036092,1,0.19991583862304688,1.7357962036132812,-11.214440576171874,-0.7404580152671756,0.48091603053435117,-1.3358778625954197
5277105560172,2.384037342,1,0.2442085693359375,1.70467158203125,-11.209652172851563,-0.8473282442748091,0.5801526717557252,-1.2900763358778626
5277115560068,2.394037238,1,0.25737667846679685,1.725022296142578,-11.15338843383789,-0.8396946564885496,0.5725190839694656,-1.2595419847328244
5277125560433,2.404037603,1,0.229843359375,1.7405846069335937,-11.201272467041015,-0.8625954198473282,0.5648854961832062,-1.3511450381679388
5277135559652,2.414036822,1,0.26216508178710934,1.7393875061035156,-11.203666668701171,-0.7709923664122137,0.5954198473282443,-1.3435114503816794
5277145559652,2.424036822,1,0.20231004028320312,1.7357962036132812,-11.179724652099608,-0.9083969465648855,0.5877862595419847,-1.3206106870229009
5277155561370,2.43403854,1,0.2214636535644531,1.7106570861816406,-11.146205828857422,-0.7862595419847328,0.5267175572519084,-1.366412213740458
5277165557620,2.44403479,1,0.22385785522460935,1.7393875061035156,-11.136629022216797,-0.8625954198473282,0.6106870229007634,-1.3206106870229009
5277175561006,2.454038176,1,0.2346317626953125,1.715445489501953,-11.243170996093749,-0.7709923664122137,0.6106870229007634,-1.3206106870229009
5277185560329,2.464037499,1,0.1975216369628906,1.7381904052734374,-11.184513055419922,-0.8320610687022901,0.5801526717557252,-1.366412213740458
5277195560172,2.474037342,1,0.24301146850585936,1.744175909423828,-11.165359442138671,-0.8244274809160306,0.5954198473282443,-1.3206106870229009
5277205560068,2.484037238,1,0.22385785522460935,1.7597382202148437,-11.24915650024414,-0.8473282442748091,0.5877862595419847,-1.4045801526717556
5277215557464,2.494034634,1,0.26216508178710934,1.725022296142578,-11.177330450439452,-0.7633587786259542,0.5725190839694656,-1.3587786259541985
5277225561683,2.504038853,1,0.25258827514648435,1.7429788085937499,-11.194089862060546,-0.8244274809160306,0.6030534351145038,-1.3206106870229009
5277235559183,2.514036353,1,0.25737667846679685,1.6723498596191406,-11.161768139648437,-0.8091603053435115,0.4961832061068702,-1.381679389312977
5277245557620,2.52403479,1,0.21906945190429686,1.7357962036132812,-11.291055029296874,-0.7938931297709924,0.4961832061068702,-1.3358778625954197
5277255560901,2.534038071,1,0.25139117431640623,1.7561469177246092,-11.183315954589844,-0.7938931297709924,0.6106870229007634,-1.3129770992366412
5277265559079,2.544036249,1,0.18555062866210936,1.7322049011230467,-11.168950744628905,-0.7938931297709924,0.5267175572519084,-1.3053435114503817
5277275560068,2.554037238,1,0.239420166015625,1.7357962036132812,-11.269507214355468,-0.8396946564885496,0.5190839694656488,-1.3587786259541985
5277285560172,2.564037342,1,0.22385785522460935,1.7094599853515624,-11.142614526367186,-0.8549618320610687,0.5114503816793893,-1.2900763358778626
5277295560016,2.574037186,1,0.18555062866210936,1.744175909423828,-11.19887826538086,-0.7633587786259542,0.5572519083969466,-1.3206106870229009
5277305560329,2.584037499,1,0.24301146850585936,1.7405846069335937,-11.176133349609374,-0.8015267175572519,0.5572519083969466,-1.3206106870229009
5277315560381,2.594037551,1,0.1927332336425781,1.7585411193847655,-11.166556542968749,-0.8244274809160306,0.5572519083969466,-1.3587786259541985
5277325560485,2.604037655,1,0.2825157958984375,1.7178396911621092,-11.228805786132812,-0.8778625954198473,0.5648854961832062,-1.3129770992366412
5277335560224,2.614037394,1,0.1927332336425781,1.7681179260253905,-11.107898602294922,-0.7938931297709924,0.5877862595419847,-1.3129770992366412
5277345557412,2.624034582,1,0.2059013427734375,1.7082628845214842,-11.197681164550781,-0.8625954198473282,0.5343511450381679,-1.3740458015267176
5277355559443,2.634036613,1,0.21787235107421873,1.705868682861328,-11.256339105224608,-0.8015267175572519,0.6106870229007634,-1.297709923664122
5277365560537,2.644037707,1,0.239420166015625,1.7130512878417967,-11.186907257080078,-0.8244274809160306,0.5267175572519084,-1.3053435114503817
5277375556006,2.654033176,1,0.22505495605468748,1.7477672119140624,-11.204863769531249,-0.816793893129771,0.5801526717557252,-1.3435114503816794
5277385559860,2.66403703,1,0.21787235107421873,1.7477672119140624,-11.170147845458983,-0.7786259541984732,0.5801526717557252,-1.3435114503816794
5277395558818,2.674035988,1,0.2214636535644531,1.7082628845214842,-11.156979736328124,-0.8091603053435115,0.5343511450381679,-1.366412213740458
5277405558610,2.68403578,1,0.17477672119140625,1.7082628845214842,-11.173739147949219,-0.8854961832061069,0.6412213740458015,-1.3435114503816794
5277415566370,2.69404354,1,0.23223756103515625,1.7298106994628906,-11.189301458740234,-0.8473282442748091,0.6106870229007634,-1.3511450381679388
5277425561787,2.704038957,1,0.229843359375,1.7298106994628906,-11.139023223876952,-0.8320610687022901,0.6030534351145038,-1.282442748091603
5277435560016,2.714037186,1,0.1771709228515625,1.753752716064453,-11.23718549194336,-0.7862595419847328,0.6335877862595419,-1.3282442748091603
5277445560849,2.724038019,1,0.20829554443359374,1.7429788085937499,-11.192892761230468,-0.7862595419847328,0.5419847328244275,-1.282442748091603
5277455562881,2.734040051,1,0.2166752502441406,1.7669208251953124,-11.171344946289063,-0.8931297709923665,0.5190839694656488,-1.3053435114503817
5277465562881,2.744040051,1,0.24181436767578124,1.7082628845214842,-11.150994232177734,-0.7938931297709924,0.5954198473282443,-1.3435114503816794
5277475560537,2.754037707,1,0.239420166015625,1.7226280944824217,-11.21683477783203,-0.8549618320610687,0.5648854961832062,-1.3587786259541985
5277485560224,2.764037394,1,0.2166752502441406,1.7585411193847655,-11.174936248779296,-0.8320610687022901,0.5954198473282443,-1.3282442748091603
5277495559495,2.774036665,1,0.19871873779296872,1.7310078002929687,-11.150994232177734,-0.8625954198473282,0.5877862595419847,-1.3053435114503817
5277505561422,2.784038592,1,0.24301146850585936,1.7226280944824217,-11.146205828857422,-0.7938931297709924,0.4961832061068702,-1.3206106870229009
5277515561266,2.794038436,1,0.24301146850585936,1.7513585144042967,-11.186907257080078,-0.8244274809160306,0.5419847328244275,-1.3358778625954197
5277525559026,2.804036196,1,0.22505495605468748,1.7477672119140624,-11.228805786132812,-0.7938931297709924,0.5114503816793893,-1.282442748091603
5277535556995,2.814034165,1,0.201112939453125,1.6938976745605467,-11.125855114746093,-0.8015267175572519,0.5648854961832062,-1.2900763358778626
5277545561162,2.824038332,1,0.2597708801269531,1.7381904052734374,-11.274295617675781,-0.7633587786259542,0.5114503816793893,-1.2442748091603053
5277555559443,2.834036613,1,0.17836802368164062,1.7621324218749999,-11.281478222656249,-0.7557251908396947,0.5648854961832062,-1.3206106870229009
5277565559756,2.844036926,1,0.22266075439453123,1.7477672119140624,-11.190498559570312,-0.7786259541984732,0.5267175572519084,-1.282442748091603
5277575559912,2.854037082,1,0.21906945190429686,1.7262193969726563,-11.200075366210937,-0.8473282442748091,0.5343511450381679,-1.3435114503816794
5277585560433,2.864037603,1,0.22505495605468748,1.7621324218749999,-11.257536206054686,-0.8244274809160306,0.549618320610687,-1.3511450381679388
5277595558453,2.874035623,1,0.20709844360351562,1.7214309936523438,-11.208455072021483,-0.8778625954198473,0.5877862595419847,-1.3129770992366412
5277605560016,2.884037186,1,0.21188684692382811,1.697488977050781,-11.119869610595703,-0.7480916030534351,0.5114503816793893,-1.297709923664122
5277615560224,2.894037394,1,0.22266075439453123,1.7298106994628906,-11.179724652099608,-0.8778625954198473,0.6412213740458015,-1.3206106870229009
5277625560224,2.904037394,1,0.21188684692382811,1.707065783691406,-11.165359442138671,-0.7557251908396947,0.5419847328244275,-1.251908396946565
5277635557256,2.914034426,1,0.2442085693359375,1.7501614135742187,-11.142614526367186,-0.8549618320610687,0.6106870229007634,-1.3282442748091603
5277645560328,2.924037498,1,0.21068974609375,1.7645266235351562,-11.167753643798827,-0.8244274809160306,0.48091603053435117,-1.282442748091603
5277655560381,2.934037551,1,0.24301146850585936,1.7238251953125,-11.18571015625,-0.8396946564885496,0.5877862595419847,-1.3053435114503817
5277665559912,2.944037082,1,0.2537853759765625,1.7896657409667969,-11.203666668701171,-0.7633587786259542,0.6106870229007634,-1.3511450381679388
5277675560328,2.954037498,1,0.24181436767578124,1.7381904052734374,-11.208455072021483,-0.8244274809160306,0.5648854961832062,-1.2595419847328244
5277685558922,2.964036092,1,0.2442085693359375,1.7286135986328124,-11.129446417236327,-0.8473282442748091,0.5114503816793893,-1.3129770992366412
5277695559026,2.974036196,1,0.20231004028320312,1.7477672119140624,-11.168950744628905,-0.8396946564885496,0.5572519083969466,-1.282442748091603
5277705560433,2.984037603,1,0.2166752502441406,1.7334020019531249,-11.21084927368164,-0.732824427480916,0.549618320610687,-1.3282442748091603
5277715561058,2.994038228,1,0.20470424194335937,1.6938976745605467,-11.183315954589844,-0.8778625954198473,0.6564885496183206,-1.3358778625954197
5277725560641,3.004037811,1,0.20949264526367187,1.7298106994628906,-11.121066711425781,-0.8244274809160306,0.6106870229007634,-1.3435114503816794
5277735557360,3.01403453,1,0.20709844360351562,1.7082628845214842,-11.19887826538086,-0.8396946564885496,0.5954198473282443,-1.3587786259541985
5277745559912,3.024037082,1,0.20829554443359374,1.744175909423828,-11.17852755126953,-0.7786259541984732,0.5648854961832062,-1.3206106870229009
5277755559443,3.034036613,1,0.20350714111328125,1.715445489501953,-11.146205828857422,-0.8549618320610687,0.5954198473282443,-1.366412213740458
5277765561005,3.044038175,1,0.2501940734863281,1.7561469177246092,-11.186907257080078,-0.8549618320610687,0.6335877862595419,-1.381679389312977
5277775558818,3.054035988,1,0.22864625854492185,1.7310078002929687,-11.165359442138671,-0.8473282442748091,0.5954198473282443,-1.3969465648854962
5277785560068,3.064037238,1,0.2561795776367187,1.7477672119140624,-11.171344946289063,-0.7251908396946565,0.5801526717557252,-1.282442748091603
5277795556735,3.074033905,1,0.2753331909179687,1.7465701110839842,-11.194089862060546,-0.7786259541984732,0.5954198473282443,-1.3587786259541985
5277805559808,3.084036978,1,0.24301146850585936,1.7693150268554687,-11.086350787353515,-0.8244274809160306,0.5877862595419847,-1.3053435114503817
5277815559755,3.094036925,1,0.19632453613281248,1.7286135986328124,-11.150994232177734,-0.8244274809160306,0.6412213740458015,-1.297709923664122
5277825559755,3.104036925,1,0.23343466186523437,1.7214309936523438,-11.1474029296875,-0.8091603053435115,0.5877862595419847,-1.3129770992366412
5277835559547,3.114036717,1,0.21308394775390624,1.7429788085937499,-11.269507214355468,-0.7709923664122137,0.5572519083969466,-1.3053435114503817
5277845562360,3.12403953,1,0.229843359375,1.7465701110839842,-11.18571015625,-0.816793893129771,0.549618320610687,-1.3587786259541985
5277855560901,3.134038071,1,0.23582886352539062,1.7453730102539062,-11.21084927368164,-0.8396946564885496,0.5648854961832062,-1.3358778625954197
5277865561630,3.1440388,1,0.1975216369628906,1.678335363769531,-11.17254204711914,-0.8015267175572519,0.6412213740458015,-1.3282442748091603
5277875560276,3.154037446,1,0.2609679809570312,1.7094599853515624,-11.196484063720703,-0.8625954198473282,0.5954198473282443,-1.2900763358778626
5277885559755,3.164036925,1,0.2166752502441406,1.7310078002929687,-11.227608685302734,-0.7633587786259542,0.5343511450381679,-1.3053435114503817
5277895560016,3.174037186,1,0.15203180541992187,1.7645266235351562,-11.204863769531249,-0.7938931297709924,0.5114503816793893,-1.3435114503816794
5277905559964,3.184037134,1,0.22266075439453123,1.70467158203125,-11.206060870361327,-0.8015267175572519,0.5877862595419847,-1.297709923664122
5277915562880,3.19404005,1,0.27174188842773433,1.7214309936523438,-11.194089862060546,-0.8549618320610687,0.5190839694656488,-1.3740458015267176
5277925560849,3.204038019,1,0.229843359375,1.6986860778808592,-11.219228979492186,-0.8091603053435115,0.549618320610687,-1.3129770992366412
5277935560745,3.214037915,1,0.1927332336425781,1.7369933044433592,-11.170147845458983,-0.8473282442748091,0.4732824427480916,-1.3358778625954197
5277945559651,3.224036821,1,0.23702596435546874,1.7166425903320313,-11.182118853759764,-0.8091603053435115,0.6106870229007634,-1.3893129770992367
5277955556370,3.23403354,1,0.21188684692382811,1.7214309936523438,-11.19169566040039,-0.8091603053435115,0.5190839694656488,-1.3206106870229009
5277965560328,3.244037498,1,0.20829554443359374,1.70467158203125,-11.111489904785156,-0.8549618320610687,0.6030534351145038,-1.3129770992366412
5277975559547,3.254036717,1,0.201112939453125,1.7357962036132812,-11.16057103881836,-0.8473282442748091,0.5572519083969466,-1.2900763358778626
5277985564703,3.264041873,1,0.24181436767578124,1.7453730102539062,-11.159373937988281,-0.7938931297709924,0.6030534351145038,-1.3282442748091603
5277995562151,3.274039321,1,0.22266075439453123,1.7274164978027342,-11.200075366210937,-0.7480916030534351,0.5725190839694656,-1.3511450381679388
5278005598297,3.284075467,1,0.22864625854492185,1.7274164978027342,-11.176133349609374,-0.8473282442748091,0.6183206106870229,-1.3206106870229009
5278015565224,3.294042394,1,0.27293898925781246,1.763329522705078,-11.222820281982422,-0.7404580152671756,0.5343511450381679,-1.297709923664122
5278025563557,3.304040727,1,0.23822306518554687,1.714248388671875,-11.146205828857422,-0.8549618320610687,0.48091603053435117,-1.3053435114503817
5278035560537,3.314037707,1,0.19512743530273435,1.7525556152343749,-11.129446417236327,-0.7938931297709924,0.5648854961832062,-1.3511450381679388
5278045561474,3.324038644,1,0.24061726684570311,1.7561469177246092,-11.173739147949219,-0.8091603053435115,0.5267175572519084,-1.3282442748091603
5278055556839,3.334034009,1,0.24181436767578124,1.7800889343261719,-11.189301458740234,-0.8091603053435115,0.549618320610687,-1.3206106870229009
5278065559912,3.344037082,1,0.258573779296875,1.705868682861328,-11.215637677001952,-0.8778625954198473,0.6030534351145038,-1.3282442748091603
5278075560380,3.35403755,1,0.1927332336425781,1.7357962036132812,-11.13423482055664,-0.8549618320610687,0.5648854961832062,-1.297709923664122
5278085560276,3.364037446,1,0.229843359375,1.7489643127441405,-11.218031878662108,-0.8320610687022901,0.5801526717557252,-1.3206106870229009
5278095560693,3.374037863,1,0.22505495605468748,1.7477672119140624,-11.180921752929686,-0.8091603053435115,0.5572519083969466,-1.3587786259541985
5278105560953,3.384038123,1,0.1975216369628906,1.7094599853515624,-11.145008728027342,-0.8702290076335878,0.5725190839694656,-1.3206106870229009
5278115561422,3.394038592,1,0.16519991455078123,1.7549498168945312,-11.164162341308593,-0.7709923664122137,0.5114503816793893,-1.3053435114503817
5278125559130,3.4040363,1,0.2561795776367187,1.7405846069335937,-11.1474029296875,-0.8702290076335878,0.648854961832061,-1.3435114503816794
5278135559287,3.414036457,1,0.2454056701660156,1.7226280944824217,-11.235988391113281,-0.7633587786259542,0.5801526717557252,-1.282442748091603
5278145559391,3.424036561,1,0.21188684692382811,1.6986860778808592,-11.146205828857422,-0.9694656488549618,0.6106870229007634,-1.3129770992366412
5278155559339,3.434036509,1,0.258573779296875,1.725022296142578,-11.188104357910156,-0.7862595419847328,0.4580152671755725,-1.3358778625954197
5278165560276,3.444037446,1,0.2154781494140625,1.687912170410156,-11.176133349609374,-0.8473282442748091,0.5877862595419847,-1.3206106870229009
5278175558974,3.454036144,1,0.2166752502441406,1.7465701110839842,-11.262324609375,-0.8244274809160306,0.48854961832061067,-1.366412213740458
5278185558609,3.464035779,1,0.25737667846679685,1.7489643127441405,-11.201272467041015,-0.8931297709923665,0.5267175572519084,-1.2900763358778626
5278195559495,3.474036665,1,0.2442085693359375,1.7274164978027342,-11.208455072021483,-0.6870229007633588,0.6030534351145038,-1.2900763358778626
5278205560120,3.48403729,1,0.21428104858398436,1.7561469177246092,-11.245565197753905,-0.8549618320610687,0.5954198473282443,-1.3435114503816794
5278215556266,3.494033436,1,0.2454056701660156,1.7178396911621092,-11.161768139648437,-0.7480916030534351,0.5648854961832062,-1.3282442748091603
5278225559391,3.504036561,1,0.2561795776367187,1.7788918334960937,-11.213243475341796,-0.8091603053435115,0.5572519083969466,-1.282442748091603
5278235561630,3.5140388,1,0.24301146850585936,1.707065783691406,-11.177330450439452,-0.8091603053435115,0.5343511450381679,-1.3587786259541985
5278245561526,3.524038696,1,0.2166752502441406,1.7178396911621092,-11.17254204711914,-0.8473282442748091,0.6259541984732825,-1.2671755725190839
5278255561630,3.5340388,1,0.21308394775390624,1.7310078002929687,-11.124658013916015,-0.7557251908396947,0.6259541984732825,-1.3511450381679388
5278265560693,3.544037863,1,0.2059013427734375,1.6795324645996093,-11.221623181152344,-0.8549618320610687,0.6412213740458015,-1.2900763358778626
5278275637047,3.554114217,1,0.21906945190429686,1.7214309936523438,-11.203666668701171,-0.7633587786259542,0.48854961832061067,-1.3206106870229009
5278285578453,3.564055623,1,0.2166752502441406,1.7202338928222656,-11.156979736328124,-0.8854961832061069,0.5877862595419847,-1.251908396946565
5278295568505,3.574045675,1,0.2549824768066406,1.744175909423828,-11.139023223876952,-0.7022900763358778,0.5801526717557252,-1.3053435114503817
5278305572776,3.584049946,1,0.229843359375,1.7393875061035156,-11.159373937988281,-0.8473282442748091,0.6106870229007634,-1.366412213740458
5278315572255,3.594049425,1,0.21308394775390624,1.7310078002929687,-11.18571015625,-0.7633587786259542,0.5648854961832062,-1.3053435114503817
5278325576995,3.604054165,1,0.2214636535644531,1.7501614135742187,-11.192892761230468,-0.8244274809160306,0.5725190839694656,-1.2671755725190839
5278335567307,3.614044477,1,0.2537853759765625,1.707065783691406,-11.143811627197264,-0.7251908396946565,0.5725190839694656,-1.3435114503816794
5278345572411,3.624049581,1,0.24899697265624998,1.7274164978027342,-11.184513055419922,-0.8244274809160306,0.6564885496183206,-1.3282442748091603
5278355571891,3.634049061,1,0.19632453613281248,1.7238251953125,-11.225214483642578,-0.7480916030534351,0.5954198473282443,-1.3206106870229009
5278365576682,3.644053852,1,0.22026655273437498,1.7465701110839842,-11.14022032470703,-0.8702290076335878,0.5572519083969466,-1.3358778625954197
5278375616005,3.654093175,1,0.22864625854492185,1.7130512878417967,-11.1474029296875,-0.7862595419847328,0.5114503816793893,-1.2671755725190839
5278385571422,3.664048592,1,0.23702596435546874,1.7034744812011717,-11.204863769531249,-0.8473282442748091,0.6183206106870229,-1.3053435114503817
5278395572880,3.67405005,1,0.22744915771484372,1.7573440185546874,-11.148600030517578,-0.7557251908396947,0.5801526717557252,-1.3206106870229009
5278405573245,3.684050415,1,0.2214636535644531,1.7573440185546874,-11.221623181152344,-0.8625954198473282,0.5419847328244275,-1.3053435114503817
5278415570432,3.694047602,1,0.23582886352539062,1.7393875061035156,-11.21683477783203,-0.8015267175572519,0.6183206106870229,-1.3740458015267176
5278425571109,3.704048279,1,0.22266075439453123,1.7776947326660155,-11.117475408935546,-0.7938931297709924,0.48854961832061067,-1.3435114503816794
5278435573141,3.714050311,1,0.20350714111328125,1.7417817077636717,-11.233594189453123,-0.8015267175572519,0.5190839694656488,-1.3129770992366412
5278445570849,3.724048019,1,0.2214636535644531,1.7513585144042967,-11.204863769531249,-0.7786259541984732,0.5343511450381679,-1.3358778625954197
5278455572359,3.734049529,1,0.2262520568847656,1.7477672119140624,-11.150994232177734,-0.7633587786259542,0.5877862595419847,-1.3053435114503817
5278465572203,3.744049373,1,0.201112939453125,1.6998831787109374,-11.213243475341796,-0.7557251908396947,0.5725190839694656,-1.297709923664122
5278475622464,3.754099634,1,0.18555062866210936,1.715445489501953,-11.17852755126953,-0.8320610687022901,0.6030534351145038,-1.3511450381679388
5278485572828,3.764049998,1,0.23104046020507812,1.7262193969726563,-11.221623181152344,-0.7938931297709924,0.5572519083969466,-1.2900763358778626
5278495571786,3.774048956,1,0.19871873779296872,1.7130512878417967,-11.209652172851563,-0.8244274809160306,0.5572519083969466,-1.3129770992366412
5278505572099,3.784049269,1,0.19033903198242186,1.7561469177246092,-11.208455072021483,-0.7862595419847328,0.5572519083969466,-1.3282442748091603
5278515571734,3.794048904,1,0.20350714111328125,1.772906329345703,-11.161768139648437,-0.8091603053435115,0.6335877862595419,-1.3053435114503817
5278525572516,3.804049686,1,0.1975216369628906,1.6915034729003906,-11.204863769531249,-0.816793893129771,0.5419847328244275,-1.2900763358778626
5278535571526,3.814048696,1,0.2442085693359375,1.7357962036132812,-11.130643518066405,-0.7633587786259542,0.6106870229007634,-1.297709923664122
5278545576005,3.824053175,1,0.2214636535644531,1.7573440185546874,-11.280281121826171,-0.7633587786259542,0.5419847328244275,-1.3587786259541985
5278555578088,3.834055258,1,0.23822306518554687,1.753752716064453,-11.202469567871093,-0.9007633587786259,0.5267175572519084,-1.3053435114503817
5278565574130,3.8440513,1,0.23104046020507812,1.6807295654296874,-11.188104357910156,-0.7938931297709924,0.4732824427480916,-1.3129770992366412
5278575570641,3.854047811,1,0.2609679809570312,1.7262193969726563,-11.156979736328124,-0.816793893129771,0.5419847328244275,-1.2900763358778626
5278585573609,3.864050779,1,0.21068974609375,1.7501614135742187,-11.207257971191405,-0.8091603053435115,0.5954198473282443,-1.2748091603053435
5278595572203,3.874049373,1,0.2657563842773437,1.7453730102539062,-11.16057103881836,-0.8244274809160306,0.5801526717557252,-1.3282442748091603
5278605571109,3.884048279,1,0.2442085693359375,1.7238251953125,-11.164162341308593,-0.8015267175572519,0.4580152671755725,-1.3587786259541985
5278615571891,3.894049061,1,0.24061726684570311,1.7513585144042967,-11.204863769531249,-0.8625954198473282,0.5648854961832062,-1.3129770992366412
5278625576161,3.904053331,1,0.24779987182617186,1.7513585144042967,-11.179724652099608,-0.8244274809160306,0.4732824427480916,-1.297709923664122
5278635572359,3.914049529,1,0.2765302917480469,1.7669208251953124,-11.143811627197264,-0.7938931297709924,0.5419847328244275,-1.3358778625954197
5278645575901,3.924053071,1,0.19632453613281248,1.6843208679199217,-11.194089862060546,-0.7557251908396947,0.5267175572519084,-1.251908396946565
5278655570901,3.934048071,1,0.2262520568847656,1.7334020019531249,-11.21683477783203,-0.7938931297709924,0.5419847328244275,-1.3358778625954197
5278665571422,3.944048592,1,0.24301146850585936,1.744175909423828,-11.182118853759764,-0.7862595419847328,0.5267175572519084,-1.3893129770992367
5278675571630,3.9540488,1,0.2346317626953125,1.7561469177246092,-11.13423482055664,-0.7938931297709924,0.5343511450381679,-1.3129770992366412
5278685573453,3.964050623,1,0.23223756103515625,1.7130512878417967,-11.05762036743164,-0.8473282442748091,0.5725190839694656,-1.3358778625954197
5278695571943,3.974049113,1,0.18914193115234373,1.7585411193847655,-11.137826123046874,-0.8854961832061069,0.6259541984732825,-1.3282442748091603
5278705572880,3.98405005,1,0.22505495605468748,1.7381904052734374,-11.180921752929686,-0.7099236641221374,0.5877862595419847,-1.3435114503816794
5278715571943,3.994049113,1,0.23343466186523437,1.763329522705078,-11.110292803955078,-0.8320610687022901,0.6106870229007634,-1.297709923664122
5278725575641,4.004052811,1,0.21068974609375,1.7489643127441405,-11.168950744628905,-0.7786259541984732,0.5801526717557252,-1.282442748091603
5278735571318,4.014048488,1,0.21787235107421873,1.7226280944824217,-11.19169566040039,-0.9312977099236641,0.5419847328244275,-1.3740458015267176
5278745571370,4.02404854,1,0.2262520568847656,1.7405846069335937,-11.14022032470703,-0.7175572519083969,0.5267175572519084,-1.297709923664122
5278755571578,4.034048748,1,0.22505495605468748,1.7381904052734374,-11.253944903564452,-0.7938931297709924,0.5954198473282443,-1.3053435114503817
5278765573088,4.044050258,1,0.22864625854492185,1.7381904052734374,-11.167753643798827,-0.7938931297709924,0.4961832061068702,-1.3282442748091603
5278775572047,4.054049217,1,0.2741360900878906,1.7106570861816406,-11.180921752929686,-0.8396946564885496,0.5725190839694656,-1.3206106870229009
5278785575068,4.064052238,1,0.20231004028320312,1.7776947326660155,-11.15338843383789,-0.8320610687022901,0.6564885496183206,-1.3282442748091603
5278795574130,4.0740513,1,0.26815058593749996,1.725022296142578,-11.177330450439452,-0.9083969465648855,0.5801526717557252,-1.3893129770992367
5278805571474,4.084048644,1,0.2154781494140625,1.7034744812011717,-11.186907257080078,-0.7404580152671756,0.5877862595419847,-1.3358778625954197
5278815571630,4.0940488,1,0.19393033447265623,1.725022296142578,-11.189301458740234,-0.8396946564885496,0.6183206106870229,-1.297709923664122
5278825573818,4.104050988,1,0.277727392578125,1.7381904052734374,-11.240776794433593,-0.8473282442748091,0.5114503816793893,-1.297709923664122
5278835575693,4.114052863,1,0.27174188842773433,1.7286135986328124,-11.269507214355468,-0.8473282442748091,0.5954198473282443,-1.3129770992366412
5278845572724,4.124049894,1,0.24301146850585936,1.7513585144042967,-11.14022032470703,-0.7709923664122137,0.549618320610687,-1.3129770992366412
5278855572515,4.134049685,1,0.26216508178710934,1.7381904052734374,-11.127052215576171,-0.8244274809160306,0.6106870229007634,-1.282442748091603
5278865580015,4.144057185,1,0.24779987182617186,1.6819266662597656,-11.202469567871093,-0.7938931297709924,0.6030534351145038,-1.3587786259541985
5278875573922,4.154051092,1,0.19991583862304688,1.6795324645996093,-11.148600030517578,-0.8854961832061069,0.5648854961832062,-1.3206106870229009
5278885571995,4.164049165,1,0.20709844360351562,1.714248388671875,-11.235988391113281,-0.7862595419847328,0.5877862595419847,-1.3358778625954197
5278895576943,4.174054113,1,0.20709844360351562,1.7585411193847655,-11.106701501464842,-0.9312977099236641,0.5648854961832062,-1.3206106870229009
5278905573661,4.184050831,1,0.18315642700195311,1.7776947326660155,-11.190498559570312,-0.7404580152671756,0.5877862595419847,-1.3740458015267176
5278915571318,4.194048488,1,0.20350714111328125,1.7465701110839842,-11.221623181152344,-0.8625954198473282,0.48854961832061067,-1.3435114503816794
5278925577359,4.204054529,1,0.21906945190429686,1.7621324218749999,-11.135431921386719,-0.7557251908396947,0.5725190839694656,-1.3282442748091603
5278935571370,4.21404854,1,0.2501940734863281,1.734599102783203,-11.159373937988281,-0.8625954198473282,0.6335877862595419,-1.282442748091603
5278945575745,4.224052915,1,0.201112939453125,1.7322049011230467,-11.141417425537108,-0.8015267175572519,0.5190839694656488,-1.297709923664122
5278955572099,4.234049269,1,0.2549824768066406,1.715445489501953,-11.146205828857422,-0.8396946564885496,0.5954198473282443,-1.3282442748091603
5278965575849,4.244053019,1,0.2442085693359375,1.7022773803710936,-11.203666668701171,-0.8244274809160306,0.6106870229007634,-1.297709923664122
5278975572099,4.254049269,1,0.2561795776367187,1.7214309936523438,-11.183315954589844,-0.816793893129771,0.5267175572519084,-1.3893129770992367
5278985572359,4.264049529,1,0.17597382202148437,1.7190367919921874,-11.21683477783203,-0.8320610687022901,0.5725190839694656,-1.366412213740458
5278995574703,4.274051873,1,0.23104046020507812,1.7094599853515624,-11.146205828857422,-0.8091603053435115,0.5572519083969466,-1.3358778625954197
5279005575797,4.284052967,1,0.23582886352539062,1.7226280944824217,-11.127052215576171,-0.8320610687022901,0.6335877862595419,-1.3435114503816794
5279015568036,4.294045206,1,0.26336218261718747,1.7118541870117185,-11.182118853759764,-0.7862595419847328,0.5572519083969466,-1.2900763358778626
5279025575380,4.30405255,1,0.2825157958984375,1.7322049011230467,-11.162965240478515,-0.8473282442748091,0.6030534351145038,-1.282442748091603
5279035571734,4.314048904,1,0.22505495605468748,1.7010802795410156,-11.184513055419922,-0.8473282442748091,0.5801526717557252,-1.3053435114503817
5279045570797,4.324047967,1,0.23104046020507812,1.7118541870117185,-11.17254204711914,-0.8320610687022901,0.6030534351145038,-1.2900763358778626
5279055572776,4.334049946,1,0.18076222534179687,1.7645266235351562,-11.19169566040039,-0.7938931297709924,0.5801526717557252,-1.3740458015267176
5279065571109,4.344048279,1,0.24899697265624998,1.695094775390625,-11.16057103881836,-0.7557251908396947,0.5648854961832062,-1.2671755725190839
5279075570380,4.35404755,1,0.23104046020507812,1.7513585144042967,-11.263521710205078,-0.7709923664122137,0.5725190839694656,-1.366412213740458
5279085576161,4.364053331,1,0.26336218261718747,1.7417817077636717,-11.244368096923827,-0.8549618320610687,0.6106870229007634,-1.3206106870229009
5279095571942,4.374049112,1,0.19393033447265623,1.7214309936523438,-11.107898602294922,-0.8473282442748091,0.5954198473282443,-1.3053435114503817
5279105574442,4.384051612,1,0.2813186950683594,1.763329522705078,-11.222820281982422,-0.816793893129771,0.6030534351145038,-1.3587786259541985
5279115571005,4.394048175,1,0.24181436767578124,1.7166425903320313,-11.131840618896483,-0.7709923664122137,0.5572519083969466,-1.3282442748091603
5279125576526,4.404053696,1,0.2262520568847656,1.7860744384765623,-11.139023223876952,-0.7709923664122137,0.6106870229007634,-1.3435114503816794
5279135570328,4.414047498,1,0.17597382202148437,1.7034744812011717,-11.167753643798827,-0.8091603053435115,0.5267175572519084,-1.3129770992366412
5279145572828,4.424049998,1,0.17836802368164062,1.7573440185546874,-11.262324609375,-0.8015267175572519,0.5343511450381679,-1.3358778625954197
5279155572411,4.434049581,1,0.20350714111328125,1.7010802795410156,-11.220426080322264,-0.7786259541984732,0.4961832061068702,-1.2900763358778626
5279165572828,4.444049998,1,0.20350714111328125,1.744175909423828,-11.143811627197264,-0.7938931297709924,0.5725190839694656,-1.3206106870229009
5279175570745,4.454047915,1,0.2154781494140625,1.686715069580078,-11.180921752929686,-0.7099236641221374,0.5801526717557252,-1.3358778625954197
5279185574442,4.464051612,1,0.23104046020507812,1.7741034301757812,-11.234791290283203,-0.8778625954198473,0.6106870229007634,-1.366412213740458
5279195568036,4.474045206,1,0.2549824768066406,1.6795324645996093,-11.212046374511718,-0.8015267175572519,0.5267175572519084,-1.3129770992366412
5279205571786,4.484048956,1,0.24301146850585936,1.7477672119140624,-11.257536206054686,-0.8702290076335878,0.549618320610687,-1.2900763358778626
5279215571317,4.494048487,1,0.23223756103515625,1.696291876220703,-11.189301458740234,-0.6870229007633588,0.549618320610687,-1.251908396946565
5279225576005,4.504053175,1,0.24779987182617186,1.7082628845214842,-11.218031878662108,-0.8320610687022901,0.6030534351145038,-1.3893129770992367
5279235571890,4.51404906,1,0.1975216369628906,1.7357962036132812,-11.139023223876952,-0.8473282442748091,0.5648854961832062,-1.2900763358778626
5279245575380,4.52405255,1,0.277727392578125,1.7190367919921874,-11.231199987792968,-0.8702290076335878,0.6641221374045801,-1.3053435114503817
5279255570588,4.534047758,1,0.19153613281249998,1.7202338928222656,-11.170147845458983,-0.7862595419847328,0.5190839694656488,-1.3206106870229009
5279265577880,4.54405505,1,0.29448680419921874,1.7669208251953124,-11.125855114746093,-0.8091603053435115,0.5343511450381679,-1.2671755725190839
5279275571838,4.554049008,1,0.258573779296875,1.7417817077636717,-11.148600030517578,-0.732824427480916,0.5801526717557252,-1.3358778625954197
5279285577203,4.564054373,1,0.2214636535644531,1.7609353210449217,-11.174936248779296,-0.8625954198473282,0.5954198473282443,-1.3587786259541985
5279295572515,4.574049685,1,0.19153613281249998,1.763329522705078,-11.17852755126953,-0.8091603053435115,0.5572519083969466,-1.2595419847328244
5279305570276,4.584047446,1,0.1867477294921875,1.7405846069335937,-11.171344946289063,-0.7709923664122137,0.5801526717557252,-1.3282442748091603
5279315572099,4.594049269,1,0.20949264526367187,1.7681179260253905,-11.17852755126953,-0.7938931297709924,0.549618320610687,-1.3206106870229009
5279325575588,4.604052758,1,0.25139117431640623,1.7178396911621092,-11.179724652099608,-0.816793893129771,0.5877862595419847,-1.2900763358778626
5279335571265,4.614048435,1,0.2059013427734375,1.7812860351562498,-11.219228979492186,-0.7938931297709924,0.549618320610687,-1.3435114503816794
5279345574547,4.624051717,1,0.2262520568847656,1.7753005310058592,-11.219228979492186,-0.8244274809160306,0.6106870229007634,-1.3587786259541985
5279355577672,4.634054842,1,0.2609679809570312,1.7513585144042967,-11.190498559570312,-0.7862595419847328,0.46564885496183206,-1.3053435114503817
5279365576265,4.644053435,1,0.21428104858398436,1.7669208251953124,-11.11508120727539,-0.8931297709923665,0.6106870229007634,-1.3206106870229009
5279375570640,4.65404781,1,0.20470424194335937,1.7429788085937499,-11.130643518066405,-0.7404580152671756,0.5114503816793893,-1.3511450381679388
5279385576994,4.664054164,1,0.2262520568847656,1.6998831787109374,-11.2240173828125,-0.8625954198473282,0.6259541984732825,-1.3053435114503817
5279395572047,4.674049217,1,0.1975216369628906,1.7549498168945312,-11.218031878662108,-0.7404580152671756,0.5267175572519084,-1.3587786259541985
5279405576786,4.684053956,1,0.2059013427734375,1.7286135986328124,-11.243170996093749,-0.8015267175572519,0.5877862595419847,-1.3053435114503817
5279415576161,4.694053331,1,0.24301146850585936,1.7800889343261719,-11.136629022216797,-0.7862595419847328,0.5801526717557252,-1.3129770992366412
5279425572463,4.704049633,1,0.24061726684570311,1.7585411193847655,-11.197681164550781,-0.8778625954198473,0.6335877862595419,-1.3206106870229009
5279435567255,4.714044425,1,0.22864625854492185,1.7645266235351562,-11.154585534667968,-0.7480916030534351,0.5114503816793893,-1.3511450381679388
5279445576109,4.724053279,1,0.24301146850585936,1.678335363769531,-11.197681164550781,-0.8778625954198473,0.5419847328244275,-1.3435114503816794
5279455576838,4.734054008,1,0.18555062866210936,1.6831237670898436,-11.155782635498046,-0.732824427480916,0.5725190839694656,-1.3435114503816794
5279465573349,4.744050519,1,0.2537853759765625,1.7322049011230467,-11.209652172851563,-0.8396946564885496,0.5877862595419847,-1.297709923664122
5279475570744,4.754047914,1,0.24660277099609373,1.734599102783203,-11.196484063720703,-0.8244274809160306,0.5190839694656488,-1.3435114503816794
5279485573036,4.764050206,1,0.2501940734863281,1.7322049011230467,-11.165359442138671,-0.8091603053435115,0.6106870229007634,-1.3053435114503817
5279495571578,4.774048748,1,0.2861070983886719,1.744175909423828,-11.219228979492186,-0.8091603053435115,0.5954198473282443,-1.3129770992366412
5279505575536,4.784052706,1,0.20949264526367187,1.6819266662597656,-11.148600030517578,-0.8396946564885496,0.6030534351145038,-1.381679389312977
5279515572671,4.794049841,1,0.2657563842773437,1.7417817077636717,-11.186907257080078,-0.7633587786259542,0.648854961832061,-1.3435114503816794
5279525575276,4.804052446,1,0.16879121704101563,1.7286135986328124,-11.176133349609374,-0.8244274809160306,0.5725190839694656,-1.3587786259541985
5279535571369,4.814048539,1,0.23822306518554687,1.7034744812011717,-11.21683477783203,-0.7175572519083969,0.5419847328244275,-1.3206106870229009
5279545574859,4.824052029,1,0.23582886352539062,1.7489643127441405,-11.177330450439452,-0.8702290076335878,0.4961832061068702,-1.3206106870229009
5279555607255,4.834084425,1,0.25737667846679685,1.7334020019531249,-11.159373937988281,-0.8473282442748091,0.5877862595419847,-1.3053435114503817
5279565577619,4.844054789,1,0.1771709228515625,1.7860744384765623,-11.208455072021483,-0.7862595419847328,0.549618320610687,-1.3206106870229009
5279575568349,4.854045519,1,0.23582886352539062,1.7357962036132812,-11.155782635498046,-0.7709923664122137,0.5190839694656488,-1.3206106870229009
5279585570276,4.864047446,1,0.21428104858398436,1.7274164978027342,-11.156979736328124,-0.8625954198473282,0.6030534351145038,-1.3206106870229009
5279595567515,4.874044685,1,0.22505495605468748,1.7549498168945312,-11.145008728027342,-0.8244274809160306,0.5267175572519084,-1.3129770992366412
5279605569182,4.884046352,1,0.19991583862304688,1.7286135986328124,-11.17852755126953,-0.8091603053435115,0.5267175572519084,-1.3053435114503817
5279615565588,4.894042758,1,0.22505495605468748,1.7262193969726563,-11.182118853759764,-0.8244274809160306,0.5343511450381679,-1.3358778625954197
5279625569338,4.904046508,1,0.19153613281249998,1.7465701110839842,-11.192892761230468,-0.8015267175572519,0.5114503816793893,-1.2671755725190839
5279635565067,4.914042237,1,0.2501940734863281,1.7334020019531249,-11.162965240478515,-0.8549618320610687,0.5267175572519084,-1.3435114503816794
5279645568973,4.924046143,1,0.23223756103515625,1.715445489501953,-11.189301458740234,-0.8396946564885496,0.5954198473282443,-1.282442748091603
5279655565328,4.934042498,1,0.25139117431640623,1.7513585144042967,-11.09592759399414,-0.8015267175572519,0.5648854961832062,-1.3358778625954197
5279665569234,4.944046404,1,0.17357962036132812,1.7178396911621092,-11.212046374511718,-0.7862595419847328,0.6259541984732825,-1.3358778625954197
5279675564911,4.954042081,1,0.22505495605468748,1.7477672119140624,-11.228805786132812,-0.8015267175572519,0.5725190839694656,-1.381679389312977
5279685578557,4.964055727,1,0.2597708801269531,1.7262193969726563,-11.238382592773437,-0.8091603053435115,0.5954198473282443,-1.3358778625954197
5279695571473,4.974048643,1,0.24301146850585936,1.7094599853515624,-11.214440576171874,-0.8473282442748091,0.6717557251908397,-1.3969465648854962
5279705574182,4.984051352,1,0.21787235107421873,1.705868682861328,-11.204863769531249,-0.7557251908396947,0.5725190839694656,-1.3435114503816794
5279715571630,4.9940488,1,0.2561795776367187,1.7525556152343749,-11.170147845458983,-0.8244274809160306,0.6717557251908397,-1.3511450381679388
5279725572151,5.004049321,1,0.24061726684570311,1.7453730102539062,-11.184513055419922,-0.8320610687022901,0.5267175572519084,-1.3358778625954197
5279735571578,5.014048748,1,0.23343466186523437,1.753752716064453,-11.207257971191405,-0.7862595419847328,0.5114503816793893,-1.3129770992366412
5279745569078,5.024046248,1,0.21428104858398436,1.7238251953125,-11.159373937988281,-0.8549618320610687,0.5648854961832062,-1.3587786259541985
5279755571369,5.034048539,1,0.23104046020507812,1.7357962036132812,-11.179724652099608,-0.816793893129771,0.5877862595419847,-1.3511450381679388
5279765573713,5.044050883,1,0.23702596435546874,1.7453730102539062,-11.137826123046874,-0.7099236641221374,0.6106870229007634,-1.3129770992366412
5279775569703,5.054046873,1,0.22266075439453123,1.7764976318359373,-11.200075366210937,-0.7633587786259542,0.6259541984732825,-1.3206106870229009
5279785572932,5.064050102,1,0.21068974609375,1.7501614135742187,-11.179724652099608,-0.7938931297709924,0.5190839694656488,-1.3282442748091603
5279795570536,5.074047706,1,0.23104046020507812,1.7190367919921874,-11.142614526367186,-0.8625954198473282,0.5801526717557252,-1.3358778625954197
5279805571994,5.084049164,1,0.2501940734863281,1.744175909423828,-11.186907257080078,-0.7709923664122137,0.5343511450381679,-1.381679389312977
5279815572984,5.094050154,1,0.2741360900878906,1.7190367919921874,-11.238382592773437,-0.8015267175572519,0.6106870229007634,-1.282442748091603
5279825570901,5.104048071,1,0.19871873779296872,1.7501614135742187,-11.152191333007812,-0.8015267175572519,0.6106870229007634,-1.2671755725190839
5279835571421,5.114048591,1,0.19033903198242186,1.7369933044433592,-11.146205828857422,-0.8625954198473282,0.5954198473282443,-1.3206106870229009
5279845569703,5.124046873,1,0.21906945190429686,1.7010802795410156,-11.23718549194336,-0.7633587786259542,0.6106870229007634,-1.3206106870229009
5279855571473,5.134048643,1,0.2166752502441406,1.7465701110839842,-11.155782635498046,-0.8396946564885496,0.6183206106870229,-1.3435114503816794
5279865574078,5.144051248,1,0.20350714111328125,1.7405846069335937,-11.133037719726563,-0.8396946564885496,0.45038167938931295,-1.3129770992366412
5279875570119,5.154047289,1,0.20709844360351562,1.705868682861328,-11.136629022216797,-0.8854961832061069,0.5343511450381679,-1.3282442748091603
5279885572307,5.164049477,1,0.2597708801269531,1.7082628845214842,-11.159373937988281,-0.8015267175572519,0.5954198473282443,-1.3511450381679388
5279895571473,5.174048643,1,0.21308394775390624,1.7357962036132812,-11.166556542968749,-0.8473282442748091,0.6259541984732825,-1.2748091603053435
5279905569807,5.184046977,1,0.2705447875976562,1.7190367919921874,-11.194089862060546,-0.7938931297709924,0.6641221374045801,-1.2595419847328244
5279915579911,5.194057081,1,0.2214636535644531,1.7393875061035156,-11.197681164550781,-0.7786259541984732,0.5725190839694656,-1.297709923664122
5279925573713,5.204050883,1,0.2454056701660156,1.7405846069335937,-11.203666668701171,-0.7557251908396947,0.5190839694656488,-1.3358778625954197
5279935570953,5.214048123,1,0.17836802368164062,1.7202338928222656,-11.142614526367186,-0.8320610687022901,0.48091603053435117,-1.3053435114503817
5279945572098,5.224049268,1,0.24899697265624998,1.6986860778808592,-11.222820281982422,-0.7557251908396947,0.5954198473282443,-1.3587786259541985
5279955572307,5.234049477,1,0.229843359375,1.7262193969726563,-11.11508120727539,-0.8244274809160306,0.5190839694656488,-1.2900763358778626
5279965576213,5.244053383,1,0.26216508178710934,1.7597382202148437,-11.19887826538086,-0.7633587786259542,0.5190839694656488,-1.3129770992366412
5279975571473,5.254048643,1,0.17956512451171874,1.7465701110839842,-11.109095703125,-0.8625954198473282,0.5419847328244275,-1.3435114503816794
5279985578140,5.26405531,1,0.20829554443359374,1.7405846069335937,-11.165359442138671,-0.7099236641221374,0.5572519083969466,-1.297709923664122
5279995572098,5.274049268,1,0.28371289672851563,1.7130512878417967,-11.212046374511718,-0.8625954198473282,0.5801526717557252,-1.3053435114503817
5280005580171,5.284057341,1,0.26695348510742184,1.70467158203125,-11.162965240478515,-0.7480916030534351,0.5648854961832062,-1.3053435114503817
5280015572307,5.294049477,1,0.1927332336425781,1.7417817077636717,-11.080365283203124,-0.8396946564885496,0.549618320610687,-1.3511450381679388
5280025574911,5.304052081,1,0.1927332336425781,1.7501614135742187,-11.233594189453123,-0.8396946564885496,0.4580152671755725,-1.3587786259541985
5280035570900,5.31404807,1,0.20470424194335937,1.695094775390625,-11.121066711425781,-0.8091603053435115,0.5419847328244275,-1.3435114503816794
5280045576369,5.324053539,1,0.258573779296875,1.7429788085937499,-11.167753643798827,-0.7633587786259542,0.5190839694656488,-1.3587786259541985
5280055571525,5.334048695,1,0.2501940734863281,1.7034744812011717,-11.16057103881836,-0.8625954198473282,0.5648854961832062,-1.2900763358778626
5280065571786,5.344048956,1,0.21068974609375,1.7477672119140624,-11.145008728027342,-0.8320610687022901,0.5343511450381679,-1.3587786259541985
5280075572046,5.354049216,1,0.2154781494140625,1.734599102783203,-11.23000288696289,-0.8625954198473282,0.549618320610687,-1.3358778625954197
5280085572307,5.364049477,1,0.19632453613281248,1.7298106994628906,-11.204863769531249,-0.8244274809160306,0.5801526717557252,-1.297709923664122
5280095572932,5.374050102,1,0.22266075439453123,1.7298106994628906,-11.21084927368164,-0.8015267175572519,0.5648854961832062,-1.3206106870229009
5280105575744,5.384052914,1,0.2980781066894531,1.7573440185546874,-11.152191333007812,-0.8473282442748091,0.5954198473282443,-1.3053435114503817
5280115570848,5.394048018,1,0.26815058593749996,1.7477672119140624,-11.100715997314452,-0.8778625954198473,0.549618320610687,-1.3587786259541985
5280125571161,5.404048331,1,0.21906945190429686,1.7190367919921874,-11.194089862060546,-0.8320610687022901,0.6412213740458015,-1.282442748091603
5280135570223,5.414047393,1,0.21188684692382811,1.7393875061035156,-11.214440576171874,-0.8549618320610687,0.5190839694656488,-1.3358778625954197
5280145571109,5.424048279,1,0.25139117431640623,1.734599102783203,-11.162965240478515,-0.8473282442748091,0.5725190839694656,-1.3129770992366412
5280155570692,5.434047862,1,0.21308394775390624,1.7262193969726563,-11.18571015625,-0.8473282442748091,0.6564885496183206,-1.366412213740458
5280165570275,5.444047445,1,0.25258827514648435,1.6938976745605467,-11.128249316406249,-0.8015267175572519,0.5725190839694656,-1.366412213740458
5280175570171,5.454047341,1,0.22864625854492185,1.7405846069335937,-11.204863769531249,-0.7862595419847328,0.648854961832061,-1.3358778625954197
5280185620952,5.464098122,1,0.17597382202148437,1.7621324218749999,-11.129446417236327,-0.8702290076335878,0.5648854961832062,-1.297709923664122
5280195570484,5.474047654,1,0.201112939453125,1.7453730102539062,-11.222820281982422,-0.8091603053435115,0.5877862595419847,-1.3893129770992367
5280205574234,5.484051404,1,0.1975216369628906,1.705868682861328,-11.141417425537108,-0.8244274809160306,0.5038167938931297,-1.3358778625954197
5280215571421,5.494048591,1,0.1927332336425781,1.7178396911621092,-11.129446417236327,-0.8473282442748091,0.6030534351145038,-1.3358778625954197
5280225571057,5.504048227,1,0.1975216369628906,1.7214309936523438,-11.23718549194336,-0.7938931297709924,0.5725190839694656,-1.3053435114503817
5280235571057,5.514048227,1,0.22266075439453123,1.772906329345703,-11.133037719726563,-0.732824427480916,0.6106870229007634,-1.3282442748091603
5280245574702,5.524051872,1,0.22744915771484372,1.7597382202148437,-11.263521710205078,-0.8854961832061069,0.6106870229007634,-1.282442748091603
5280255571265,5.534048435,1,0.27892449340820313,1.7405846069335937,-11.209652172851563,-0.7862595419847328,0.5725190839694656,-1.2900763358778626
5280265574286,5.544051456,1,0.19991583862304688,1.7357962036132812,-11.166556542968749,-0.8549618320610687,0.5267175572519084,-1.2900763358778626
5280275569911,5.554047081,1,0.2154781494140625,1.7405846069335937,-11.218031878662108,-0.8091603053435115,0.5648854961832062,-1.3435114503816794
5280285572098,5.564049268,1,0.1879448303222656,1.772906329345703,-11.204863769531249,-0.7938931297709924,0.5648854961832062,-1.3358778625954197
5280295572255,5.574049425,1,0.21787235107421873,1.7381904052734374,-11.152191333007812,-0.7709923664122137,0.5038167938931297,-1.282442748091603
5280305569911,5.584047081,1,0.25737667846679685,1.7274164978027342,-11.174936248779296,-0.7862595419847328,0.48091603053435117,-1.3358778625954197
5280315571629,5.594048799,1,0.20470424194335937,1.725022296142578,-11.158176837158203,-0.8778625954198473,0.5190839694656488,-1.3282442748091603
5280325577046,5.604054216,1,0.23582886352539062,1.6938976745605467,-11.16057103881836,-0.8396946564885496,0.5419847328244275,-1.366412213740458
5280335571734,5.614048904,1,0.24301146850585936,1.705868682861328,-11.215637677001952,-0.8549618320610687,0.5648854961832062,-1.3206106870229009
5280345575275,5.624052445,1,0.25258827514648435,1.725022296142578,-11.174936248779296,-0.7251908396946565,0.5114503816793893,-1.3358778625954197
5280355570744,5.634047914,1,0.20709844360351562,1.697488977050781,-11.148600030517578,-0.8091603053435115,0.5419847328244275,-1.297709923664122
5280365575171,5.644052341,1,0.24779987182617186,1.734599102783203,-11.19169566040039,-0.8091603053435115,0.5343511450381679,-1.366412213740458
5280375570900,5.65404807,1,0.23582886352539062,1.734599102783203,-11.225214483642578,-0.8931297709923665,0.5419847328244275,-1.3358778625954197
5280385570744,5.664047914,1,0.2154781494140625,1.7166425903320313,-11.227608685302734,-0.8625954198473282,0.5114503816793893,-1.2900763358778626
5280395570796,5.674047966,1,0.22744915771484372,1.7262193969726563,-11.107898602294922,-0.8702290076335878,0.5801526717557252,-1.3053435114503817
5280405575275,5.684052445,1,0.2262520568847656,1.7226280944824217,-11.220426080322264,-0.8091603053435115,0.5572519083969466,-1.3053435114503817
5280415570900,5.69404807,1,0.19153613281249998,1.7298106994628906,-11.171344946289063,-0.8549618320610687,0.6259541984732825,-1.3358778625954197
5280425576057,5.704053227,1,0.26815058593749996,1.7202338928222656,-11.150994232177734,-0.8473282442748091,0.5648854961832062,-1.3282442748091603
5280435571369,5.714048539,1,0.30526071166992186,1.744175909423828,-11.203666668701171,-0.8396946564885496,0.5954198473282443,-1.3511450381679388
5280445574859,5.724052029,1,0.22266075439453123,1.7573440185546874,-11.203666668701171,-0.8244274809160306,0.5954198473282443,-1.3053435114503817
5280455570848,5.734048018,1,0.28012159423828126,1.7453730102539062,-11.239579693603515,-0.8473282442748091,0.5725190839694656,-1.3282442748091603
5280465569650,5.74404682,1,0.239420166015625,1.7082628845214842,-11.159373937988281,-0.7938931297709924,0.5114503816793893,-1.2900763358778626
5280475573400,5.75405057,1,0.19512743530273435,1.7082628845214842,-11.18571015625,-0.8854961832061069,0.5648854961832062,-1.282442748091603
5280485574859,5.764052029,1,0.24181436767578124,1.7453730102539062,-11.188104357910156,-0.7404580152671756,0.5801526717557252,-1.3587786259541985
5280495573869,5.774051039,1,0.18315642700195311,1.6998831787109374,-11.192892761230468,-0.8320610687022901,0.648854961832061,-1.3740458015267176
5280505576421,5.784053591,1,0.2154781494140625,1.6603788513183593,-11.183315954589844,-0.7786259541984732,0.549618320610687,-1.3358778625954197
5280515572827,5.794049997,1,0.229843359375,1.7405846069335937,-11.166556542968749,-0.8625954198473282,0.5801526717557252,-1.3893129770992367
5280525575223,5.804052393,1,0.2346317626953125,1.7429788085937499,-11.09592759399414,-0.7633587786259542,0.5801526717557252,-1.3969465648854962
5280535570431,5.814047601,1,0.20470424194335937,1.734599102783203,-11.209652172851563,-0.8320610687022901,0.5648854961832062,-1.3511450381679388
5280545569546,5.824046716,1,0.23343466186523437,1.6927005737304686,-11.166556542968749,-0.7938931297709924,0.5801526717557252,-1.251908396946565
5280555579911,5.834057081,1,0.19871873779296872,1.744175909423828,-11.15338843383789,-0.8015267175572519,0.5343511450381679,-1.3358778625954197
5280565574702,5.844051872,1,0.2442085693359375,1.734599102783203,-11.21084927368164,-0.7633587786259542,0.549618320610687,-1.3282442748091603
5280575571942,5.854049112,1,0.1771709228515625,1.734599102783203,-11.15338843383789,-0.9083969465648855,0.6106870229007634,-1.282442748091603
5280585572202,5.864049372,1,0.2765302917480469,1.7657237243652342,-11.152191333007812,-0.7862595419847328,0.5725190839694656,-1.3358778625954197
5280595572775,5.874049945,1,0.23582886352539062,1.7465701110839842,-11.221623181152344,-0.7709923664122137,0.5114503816793893,-1.3129770992366412
5280605571734,5.884048904,1,0.2501940734863281,1.7800889343261719,-11.204863769531249,-0.7404580152671756,0.5648854961832062,-1.3282442748091603
5280615570171,5.894047341,1,0.258573779296875,1.715445489501953,-11.262324609375,-0.8015267175572519,0.5419847328244275,-1.3587786259541985
5280625570640,5.90404781,1,0.1975216369628906,1.7082628845214842,-11.190498559570312,-0.7709923664122137,0.5954198473282443,-1.3435114503816794
5280635570900,5.91404807,1,0.21308394775390624,1.7489643127441405,-11.231199987792968,-0.8320610687022901,0.4732824427480916,-1.3282442748091603
5280645574546,5.924051716,1,0.2442085693359375,1.7118541870117185,-11.159373937988281,-0.7938931297709924,0.5725190839694656,-1.3435114503816794
5280655571369,5.934048539,1,0.22864625854492185,1.7489643127441405,-11.19169566040039,-0.8244274809160306,0.5648854961832062,-1.3206106870229009
5280665571161,5.944048331,1,0.21188684692382811,1.7405846069335937,-11.304223138427734,-0.8473282442748091,0.6183206106870229,-1.3511450381679388
5280675571942,5.954049112,1,0.19512743530273435,1.7405846069335937,-11.066000073242186,-0.7862595419847328,0.549618320610687,-1.3206106870229009
5280685576681,5.964053851,1,0.14245499877929688,1.7501614135742187,-11.238382592773437,-0.7786259541984732,0.5648854961832062,-1.3511450381679388
5280695572879,5.974050049,1,0.1771709228515625,1.7202338928222656,-11.188104357910156,-0.8091603053435115,0.5190839694656488,-1.3587786259541985
5280705571056,5.984048226,1,0.23822306518554687,1.753752716064453,-11.189301458740234,-0.732824427480916,0.5801526717557252,-1.3893129770992367
5280715571056,5.994048226,1,0.18076222534179687,1.7561469177246092,-11.19169566040039,-0.8015267175572519,0.5801526717557252,-1.2442748091603053
5280725576473,6.004053643,1,0.2454056701660156,1.7429788085937499,-11.19169566040039,-0.8625954198473282,0.6335877862595419,-1.3053435114503817
5280735571786,6.014048956,1,0.2262520568847656,1.7226280944824217,-11.250353601074218,-0.816793893129771,0.5267175572519084,-1.3053435114503817
5280745575067,6.024052237,1,0.1927332336425781,1.7381904052734374,-11.156979736328124,-0.8549618320610687,0.5801526717557252,-1.3129770992366412
5280755571473,6.034048643,1,0.23343466186523437,1.7334020019531249,-11.110292803955078,-0.8396946564885496,0.549618320610687,-1.3053435114503817
5280765576004,6.044053174,1,0.27293898925781246,1.7453730102539062,-11.323376751708985,-0.7786259541984732,0.6259541984732825,-1.3053435114503817
5280775571629,6.054048799,1,0.23822306518554687,1.7298106994628906,-11.054029064941405,-0.7862595419847328,0.5190839694656488,-1.3129770992366412
5280785570952,6.064048122,1,0.2346317626953125,1.7274164978027342,-11.292252130126952,-0.8244274809160306,0.5954198473282443,-1.3129770992366412
5280795573036,6.074050206,1,0.2537853759765625,1.7310078002929687,-11.09592759399414,-0.7557251908396947,0.5419847328244275,-1.3435114503816794
5280805574129,6.084051299,1,0.19512743530273435,1.7034744812011717,-11.30661734008789,-0.8015267175572519,0.5267175572519084,-1.2213740458015268
5280815568713,6.094045883,1,0.21068974609375,1.7226280944824217,-11.241973895263671,-0.8244274809160306,0.4961832061068702,-1.366412213740458
5280825573088,6.104050258,1,0.23822306518554687,1.6915034729003906,-11.195286962890624,-0.8625954198473282,0.6335877862595419,-1.3893129770992367
5280835571942,6.114049112,1,0.23104046020507812,1.687912170410156,-11.29344923095703,-0.7251908396946565,0.5801526717557252,-1.3435114503816794
5280845575744,6.124052914,1,0.21428104858398436,1.7585411193847655,-11.19169566040039,-0.8625954198473282,0.5572519083969466,-1.3893129770992367
5280855572879,6.134050049,1,0.21308394775390624,1.7357962036132812,-11.127052215576171,-0.7633587786259542,0.5572519083969466,-1.2442748091603053
5280865571577,6.144048747,1,0.22744915771484372,1.714248388671875,-11.159373937988281,-0.8396946564885496,0.5725190839694656,-1.3740458015267176
5280875571265,6.154048435,1,0.21068974609375,1.6938976745605467,-11.180921752929686,-0.816793893129771,0.4961832061068702,-1.2366412213740459
5280885571681,6.164048851,1,0.17118541870117188,1.707065783691406,-11.212046374511718,-0.8625954198473282,0.5419847328244275,-1.3511450381679388
5280895576890,6.17405406,1,0.20231004028320312,1.7525556152343749,-11.171344946289063,-0.7709923664122137,0.5648854961832062,-1.3206106870229009
5280905572463,6.184049633,1,0.2059013427734375,1.7489643127441405,-11.150994232177734,-0.8396946564885496,0.5877862595419847,-1.2900763358778626
5280915570536,6.194047706,1,0.19871873779296872,1.7489643127441405,-11.131840618896483,-0.7938931297709924,0.5725190839694656,-1.3358778625954197
5280925576265,6.204053435,1,0.2214636535644531,1.7298106994628906,-11.177330450439452,-0.8854961832061069,0.6183206106870229,-1.3511450381679388
5280935571473,6.214048643,1,0.21188684692382811,1.715445489501953,-11.176133349609374,-0.816793893129771,0.549618320610687,-1.297709923664122
5280945570848,6.224048018,1,0.21308394775390624,1.744175909423828,-11.184513055419922,-0.9007633587786259,0.5725190839694656,-1.3129770992366412
5280955571004,6.234048174,1,0.22026655273437498,1.7393875061035156,-11.161768139648437,-0.8320610687022901,0.5725190839694656,-1.297709923664122
5280965573556,6.244050726,1,0.28012159423828126,1.7381904052734374,-11.227608685302734,-0.8702290076335878,0.5877862595419847,-1.3435114503816794
5280975571213,6.254048383,1,0.23582886352539062,1.6723498596191406,-11.212046374511718,-0.7938931297709924,0.549618320610687,-1.3282442748091603
5280985575067,6.264052237,1,0.2214636535644531,1.7226280944824217,-11.170147845458983,-0.8320610687022901,0.6259541984732825,-1.297709923664122
5280995571629,6.274048799,1,0.25258827514648435,1.7609353210449217,-11.208455072021483,-0.7557251908396947,0.549618320610687,-1.3282442748091603
5281005575275,6.284052445,1,0.21068974609375,1.7453730102539062,-11.174936248779296,-0.8778625954198473,0.5419847328244275,-1.3053435114503817
5281015569963,6.294047133,1,0.20709844360351562,1.7286135986328124,-11.18571015625,-0.7862595419847328,0.5267175572519084,-1.3053435114503817
5281025571629,6.304048799,1,0.24181436767578124,1.7226280944824217,-11.176133349609374,-0.916030534351145,0.6335877862595419,-1.3129770992366412
5281035570535,6.314047705,1,0.25139117431640623,1.7022773803710936,-11.209652172851563,-0.8473282442748091,0.5190839694656488,-1.3053435114503817
5281045575483,6.324052653,1,0.20470424194335937,1.7298106994628906,-11.177330450439452,-0.8854961832061069,0.6030534351145038,-1.3053435114503817
5281055572306,6.334049476,1,0.23582886352539062,1.7393875061035156,-11.214440576171874,-0.816793893129771,0.5267175572519084,-1.3206106870229009
5281065571577,6.344048747,1,0.22744915771484372,1.6938976745605467,-11.174936248779296,-0.8549618320610687,0.5877862595419847,-1.3053435114503817
5281075571785,6.354048955,1,0.239420166015625,1.7010802795410156,-11.155782635498046,-0.7557251908396947,0.549618320610687,-1.3206106870229009
5281085573660,6.36405083,1,0.20949264526367187,1.7669208251953124,-11.13423482055664,-0.7862595419847328,0.5801526717557252,-1.3129770992366412
5281095571369,6.374048539,1,0.2262520568847656,1.7130512878417967,-11.146205828857422,-0.8091603053435115,0.5267175572519084,-1.3129770992366412
5281105569806,6.384046976,1,0.23582886352539062,1.7453730102539062,-11.161768139648437,-0.8015267175572519,0.5954198473282443,-1.3893129770992367
5281115570275,6.394047445,1,0.22505495605468748,1.7286135986328124,-11.234791290283203,-0.7557251908396947,0.5114503816793893,-1.3358778625954197
5281125576942,6.404054112,1,0.19871873779296872,1.7489643127441405,-11.162965240478515,-0.8473282442748091,0.5725190839694656,-1.2671755725190839
5281135570640,6.41404781,1,0.2813186950683594,1.7561469177246092,-11.2240173828125,-0.8473282442748091,0.6030534351145038,-1.3206106870229009
5281145572671,6.424049841,1,0.22864625854492185,1.7573440185546874,-11.253944903564452,-0.7862595419847328,0.6641221374045801,-1.3358778625954197
5281155571577,6.434048747,1,0.24899697265624998,1.7489643127441405,-11.171344946289063,-0.8396946564885496,0.5954198473282443,-1.3587786259541985
5281165574806,6.444051976,1,0.2214636535644531,1.725022296142578,-11.167753643798827,-0.7786259541984732,0.4961832061068702,-1.3435114503816794
5281175570692,6.454047862,1,0.2705447875976562,1.7573440185546874,-11.125855114746093,-0.7480916030534351,0.5038167938931297,-1.3053435114503817
5281185572931,6.464050101,1,0.23343466186523437,1.7190367919921874,-11.173739147949219,-0.8549618320610687,0.5572519083969466,-1.3511450381679388
5281195572879,6.474050049,1,0.2154781494140625,1.7082628845214842,-11.143811627197264,-0.7938931297709924,0.5648854961832062,-1.3206106870229009
5281205575067,6.484052237,1,0.24660277099609373,1.7489643127441405,-11.161768139648437,-0.8320610687022901,0.5114503816793893,-1.3740458015267176
5281215572046,6.494049216,1,0.22505495605468748,1.7609353210449217,-11.184513055419922,-0.7938931297709924,0.6641221374045801,-1.3282442748091603
5281225576004,6.504053174,1,0.2442085693359375,1.7202338928222656,-11.142614526367186,-0.7709923664122137,0.5419847328244275,-1.2748091603053435
5281235569337,6.514046507,1,0.2059013427734375,1.7286135986328124,-11.141417425537108,-0.8015267175572519,0.5801526717557252,-1.2748091603053435
5281245574233,6.524051403,1,0.2442085693359375,1.7130512878417967,-11.119869610595703,-0.8473282442748091,0.5954198473282443,-1.3129770992366412
5281255571942,6.534049112,1,0.25139117431640623,1.7118541870117185,-11.154585534667968,-0.8015267175572519,0.5419847328244275,-1.3511450381679388
5281265570067,6.544047237,1,0.23343466186523437,1.7477672119140624,-11.149797131347656,-0.8091603053435115,0.5419847328244275,-1.3206106870229009
5281275569858,6.554047028,1,0.22744915771484372,1.7848773376464844,-11.207257971191405,-0.816793893129771,0.549618320610687,-1.3511450381679388
5281285576681,6.564053851,1,0.2609679809570312,1.7262193969726563,-11.171344946289063,-0.8625954198473282,0.5190839694656488,-1.3053435114503817
5281295571681,6.574048851,1,0.21428104858398436,1.7513585144042967,-11.171344946289063,-0.7938931297709924,0.549618320610687,-1.3358778625954197
5281305575483,6.584052653,1,0.1867477294921875,1.714248388671875,-11.17852755126953,-0.816793893129771,0.5419847328244275,-1.3129770992366412
5281315572931,6.594050101,1,0.21188684692382811,1.7369933044433592,-11.167753643798827,-0.816793893129771,0.48091603053435117,-1.3129770992366412
5281325576837,6.604054007,1,0.21428104858398436,1.7788918334960937,-11.162965240478515,-0.7938931297709924,0.5038167938931297,-1.3129770992366412
5281335571785,6.614048955,1,0.28012159423828126,1.7417817077636717,-11.221623181152344,-0.7938931297709924,0.6030534351145038,-1.3740458015267176
5281345571994,6.624049164,1,0.23822306518554687,1.7334020019531249,-11.183315954589844,-0.8244274809160306,0.5801526717557252,-1.3969465648854962
5281355572098,6.634049268,1,0.239420166015625,1.772906329345703,-11.141417425537108,-0.8244274809160306,0.5648854961832062,-1.3435114503816794
5281365574806,6.644051976,1,0.21906945190429686,1.7417817077636717,-11.130643518066405,-0.7557251908396947,0.6412213740458015,-1.3282442748091603
5281375571160,6.65404833,1,0.24779987182617186,1.725022296142578,-11.188104357910156,-0.8625954198473282,0.5954198473282443,-1.282442748091603
5281385576160,6.66405333,1,0.2693476867675781,1.7741034301757812,-11.173739147949219,-0.8320610687022901,0.5648854961832062,-1.2748091603053435
5281395571004,6.674048174,1,0.21906945190429686,1.7274164978027342,-11.227608685302734,-0.7938931297709924,0.6030534351145038,-1.3587786259541985
5281405575327,6.684052497,1,0.22026655273437498,1.7393875061035156,-11.215637677001952,-0.8244274809160306,0.5877862595419847,-1.251908396946565
5281415571473,6.694048643,1,0.2825157958984375,1.7753005310058592,-11.240776794433593,-0.8778625954198473,0.6335877862595419,-1.3435114503816794
5281425574650,6.70405182,1,0.2609679809570312,1.7118541870117185,-11.154585534667968,-0.8473282442748091,0.5648854961832062,-1.3435114503816794
5281435572775,6.714049945,1,0.2537853759765625,1.7381904052734374,-11.174936248779296,-0.9312977099236641,0.6183206106870229,-1.3206106870229009
5281445574389,6.724051559,1,0.1580173095703125,1.7585411193847655,-11.17852755126953,-0.7404580152671756,0.5267175572519084,-1.3129770992366412
5281455579285,6.734056455,1,0.21428104858398436,1.7525556152343749,-11.182118853759764,-0.8396946564885496,0.6030534351145038,-1.3358778625954197
5281465573139,6.744050309,1,0.1879448303222656,1.7501614135742187,-11.21084927368164,-0.7404580152671756,0.5572519083969466,-1.297709923664122
5281475570535,6.754047705,1,0.22744915771484372,1.734599102783203,-11.137826123046874,-0.8702290076335878,0.6030534351145038,-1.297709923664122
5281485576317,6.764053487,1,0.2262520568847656,1.6998831787109374,-11.2240173828125,-0.7709923664122137,0.6183206106870229,-1.3053435114503817
5281495572723,6.774049893,1,0.23343466186523437,1.7274164978027342,-11.209652172851563,-0.9236641221374046,0.5801526717557252,-1.2748091603053435
5281505570223,6.784047393,1,0.1879448303222656,1.7417817077636717,-11.209652172851563,-0.8625954198473282,0.4732824427480916,-1.3206106870229009
5281515571421,6.794048591,1,0.25258827514648435,1.7405846069335937,-11.190498559570312,-0.8396946564885496,0.6183206106870229,-1.3511450381679388
5281525575379,6.804052549,1,0.2166752502441406,1.7561469177246092,-11.195286962890624,-0.7938931297709924,0.549618320610687,-1.3358778625954197
5281535570431,6.814047601,1,0.258573779296875,1.70467158203125,-11.184513055419922,-0.8244274809160306,0.648854961832061,-1.3435114503816794
5281545576056,6.824053226,1,0.20709844360351562,1.7274164978027342,-11.184513055419922,-0.8396946564885496,0.4580152671755725,-1.3358778625954197
5281555571994,6.834049164,1,0.19512743530273435,1.734599102783203,-11.166556542968749,-0.8549618320610687,0.5419847328244275,-1.2442748091603053
5281565577567,6.844054737,1,0.24181436767578124,1.7274164978027342,-11.14022032470703,-0.7251908396946565,0.6106870229007634,-1.3358778625954197
5281575571160,6.85404833,1,0.18435352783203124,1.7573440185546874,-11.204863769531249,-0.9007633587786259,0.5572519083969466,-1.3893129770992367
5281585571942,6.864049112,1,0.201112939453125,1.6891092712402342,-11.186907257080078,-0.8015267175572519,0.549618320610687,-1.3587786259541985
5281595570327,6.874047497,1,0.2537853759765625,1.7369933044433592,-11.23000288696289,-0.8702290076335878,0.5648854961832062,-1.3206106870229009
5281605576108,6.884053278,1,0.2214636535644531,1.6927005737304686,-11.167753643798827,-0.7786259541984732,0.5572519083969466,-1.3511450381679388
5281615572358,6.894049528,1,0.24301146850585936,1.7417817077636717,-11.171344946289063,-0.8473282442748091,0.6106870229007634,-1.3435114503816794
5281625574337,6.904051507,1,0.20231004028320312,1.7369933044433592,-11.206060870361327,-0.732824427480916,0.5190839694656488,-1.3358778625954197
5281635572410,6.91404958,1,0.24181436767578124,1.7645266235351562,-11.17254204711914,-0.8702290076335878,0.5725190839694656,-1.297709923664122
5281645574910,6.92405208,1,0.23223756103515625,1.7322049011230467,-11.159373937988281,-0.7480916030534351,0.5572519083969466,-1.3435114503816794
5281655571837,6.934049007,1,0.18315642700195311,1.7286135986328124,-11.166556542968749,-0.8549618320610687,0.5572519083969466,-1.3129770992366412
5281665570900,6.94404807,1,0.1927332336425781,1.7573440185546874,-11.177330450439452,-0.7633587786259542,0.5267175572519084,-1.366412213740458
5281675571316,6.954048486,1,0.2645592834472656,1.7393875061035156,-11.173739147949219,-0.8015267175572519,0.5725190839694656,-1.3435114503816794
5281685576733,6.964053903,1,0.18555062866210936,1.7286135986328124,-11.177330450439452,-0.8244274809160306,0.5038167938931297,-1.2748091603053435
5281695573712,6.974050882,1,0.2059013427734375,1.68551796875,-11.166556542968749,-0.8091603053435115,0.549618320610687,-1.282442748091603
5281705575379,6.984052549,1,0.2454056701660156,1.734599102783203,-11.241973895263671,-0.816793893129771,0.549618320610687,-1.2900763358778626
5281715567619,6.994044789,1,0.20709844360351562,1.7130512878417967,-11.190498559570312,-0.8320610687022901,0.5954198473282443,-1.381679389312977
5281725576629,7.004053799,1,0.24181436767578124,1.6986860778808592,-11.159373937988281,-0.8091603053435115,0.5114503816793893,-1.2748091603053435
5281735570014,7.014047184,1,0.21068974609375,1.7094599853515624,-11.215637677001952,-0.8244274809160306,0.5648854961832062,-1.2366412213740459
5281745569962,7.024047132,1,0.22385785522460935,1.7681179260253905,-11.183315954589844,-0.7786259541984732,0.6106870229007634,-1.3282442748091603
5281755571525,7.034048695,1,0.229843359375,1.7202338928222656,-11.167753643798827,-0.8702290076335878,0.5343511450381679,-1.3053435114503817
5281765575535,7.044052705,1,0.14724340209960937,1.7022773803710936,-11.173739147949219,-0.8549618320610687,0.5648854961832062,-1.3893129770992367
5281775570327,7.054047497,1,0.3280056274414062,1.7453730102539062,-11.081562384033202,-0.8854961832061069,0.5572519083969466,-1.2900763358778626
5281785576525,7.064053695,1,0.23104046020507812,1.714248388671875,-11.201272467041015,-0.7938931297709924,0.5954198473282443,-1.3587786259541985
5281795572619,7.074049789,1,0.23343466186523437,1.7501614135742187,-11.221623181152344,-0.8702290076335878,0.5419847328244275,-1.3053435114503817
5281805575171,7.084052341,1,0.2454056701660156,1.6807295654296874,-11.245565197753905,-0.7633587786259542,0.6106870229007634,-1.3435114503816794
5281815573191,7.094050361,1,0.2442085693359375,1.7573440185546874,-11.233594189453123,-0.8702290076335878,0.549618320610687,-1.3206106870229009
5281825570223,7.104047393,1,0.2442085693359375,1.7202338928222656,-11.188104357910156,-0.7862595419847328,0.6259541984732825,-1.3282442748091603
5281835570431,7.114047601,1,0.201112939453125,1.7621324218749999,-11.180921752929686,-0.7938931297709924,0.6106870229007634,-1.3053435114503817
5281845574441,7.124051611,1,0.19393033447265623,1.7573440185546874,-11.139023223876952,-0.8015267175572519,0.6412213740458015,-1.3358778625954197
5281855571629,7.134048799,1,0.2442085693359375,1.7381904052734374,-11.137826123046874,-0.8015267175572519,0.5725190839694656,-1.3358778625954197
5281865574910,7.14405208,1,0.23822306518554687,1.782483135986328,-11.231199987792968,-0.8244274809160306,0.5954198473282443,-1.3358778625954197
5281875571004,7.154048174,1,0.20350714111328125,1.7489643127441405,-11.16057103881836,-0.8320610687022901,0.5267175572519084,-1.3511450381679388
5281885576108,7.164053278,1,0.23343466186523437,1.714248388671875,-11.188104357910156,-0.8244274809160306,0.5877862595419847,-1.3053435114503817
5281895571421,7.174048591,1,0.21906945190429686,1.7202338928222656,-11.19169566040039,-0.8015267175572519,0.5954198473282443,-1.3740458015267176
5281905570171,7.184047341,1,0.23822306518554687,1.7573440185546874,-11.18571015625,-0.8244274809160306,0.648854961832061,-1.3587786259541985
5281915571421,7.194048591,1,0.2166752502441406,1.7429788085937499,-11.166556542968749,-0.8625954198473282,0.5114503816793893,-1.3053435114503817
5281925574598,7.204051768,1,0.24181436767578124,1.753752716064453,-11.155782635498046,-0.8244274809160306,0.5725190839694656,-1.3511450381679388
5281935572514,7.214049684,1,0.23702596435546874,1.7585411193847655,-11.225214483642578,-0.8015267175572519,0.5725190839694656,-1.3053435114503817
5281945576368,7.224053538,1,0.19153613281249998,1.6986860778808592,-11.23000288696289,-0.8549618320610687,0.6030534351145038,-1.3740458015267176
5281955572514,7.234049684,1,0.20231004028320312,1.7717092285156248,-11.148600030517578,-0.7862595419847328,0.4961832061068702,-1.3358778625954197
5281965575066,7.244052236,1,0.24181436767578124,1.744175909423828,-11.194089862060546,-0.8320610687022901,0.549618320610687,-1.2900763358778626
5281975570275,7.254047445,1,0.21428104858398436,1.7393875061035156,-11.228805786132812,-0.8320610687022901,0.5343511450381679,-1.3587786259541985
5281985571316,7.264048486,1,0.21428104858398436,1.753752716064453,-11.264718811035156,-0.7709923664122137,0.5648854961832062,-1.3282442748091603
5281995575379,7.274052549,1,0.25139117431640623,1.7178396911621092,-11.129446417236327,-0.8091603053435115,0.5343511450381679,-1.3435114503816794
5282005581993,7.284059163,1,0.22864625854492185,1.696291876220703,-11.165359442138671,-0.8549618320610687,0.6259541984732825,-1.3435114503816794
5282015574233,7.294051403,1,0.23343466186523437,1.7357962036132812,-11.204863769531249,-0.8702290076335878,0.5114503816793893,-1.297709923664122
5282025573764,7.304050934,1,0.239420166015625,1.7609353210449217,-11.200075366210937,-0.8244274809160306,0.5877862595419847,-1.297709923664122
5282035573243,7.314050413,1,0.17357962036132812,1.734599102783203,-11.227608685302734,-0.816793893129771,0.5343511450381679,-1.3053435114503817
5282045575691,7.324052861,1,0.20470424194335937,1.7405846069335937,-11.202469567871093,-0.8396946564885496,0.5648854961832062,-1.3053435114503817
5282055567358,7.334044528,1,0.2214636535644531,1.6639701538085936,-11.273098516845703,-0.7557251908396947,0.5648854961832062,-1.2671755725190839
5282065571316,7.344048486,1,0.17357962036132812,1.7513585144042967,-11.179724652099608,-0.8091603053435115,0.5954198473282443,-1.2900763358778626
5282075570327,7.354047497,1,0.20231004028320312,1.707065783691406,-11.228805786132812,-0.7633587786259542,0.549618320610687,-1.297709923664122
5282085576160,7.36405333,1,0.24899697265624998,1.7417817077636717,-11.154585534667968,-0.8320610687022901,0.648854961832061,-1.282442748091603
5282095573348,7.374050518,1,0.239420166015625,1.7513585144042967,-11.17852755126953,-0.7480916030534351,0.5419847328244275,-1.3282442748091603
5282105576681,7.384053851,1,0.2346317626953125,1.763329522705078,-11.197681164550781,-0.9007633587786259,0.5801526717557252,-1.3206106870229009
5282115572827,7.394049997,1,0.21906945190429686,1.7286135986328124,-11.226411584472656,-0.7404580152671756,0.5954198473282443,-1.2748091603053435
5282125576108,7.404053278,1,0.22505495605468748,1.7178396911621092,-11.23718549194336,-0.8396946564885496,0.6183206106870229,-1.3053435114503817
5282135570952,7.414048122,1,0.2609679809570312,1.687912170410156,-11.195286962890624,-0.7786259541984732,0.5725190839694656,-1.297709923664122
5282145571577,7.424048747,1,0.24301146850585936,1.7417817077636717,-11.164162341308593,-0.7709923664122137,0.5877862595419847,-1.3129770992366412
5282155571368,7.434048538,1,0.22505495605468748,1.734599102783203,-11.189301458740234,-0.6793893129770993,0.5725190839694656,-1.2671755725190839
5282165574233,7.444051403,1,0.258573779296875,1.7561469177246092,-11.197681164550781,-0.8702290076335878,0.4580152671755725,-1.3206106870229009
5282175570170,7.45404734,1,0.24779987182617186,1.7082628845214842,-11.154585534667968,-0.7862595419847328,0.4580152671755725,-1.3206106870229009
5282185576264,7.464053434,1,0.22385785522460935,1.7489643127441405,-11.184513055419922,-0.7633587786259542,0.6030534351145038,-1.3435114503816794
5282195571733,7.474048903,1,0.18555062866210936,1.7357962036132812,-11.225214483642578,-0.7862595419847328,0.6106870229007634,-1.3358778625954197
5282205575170,7.48405234,1,0.24660277099609373,1.7788918334960937,-11.190498559570312,-0.816793893129771,0.5954198473282443,-1.3206106870229009
5282215572462,7.494049632,1,0.22505495605468748,1.7226280944824217,-11.164162341308593,-0.7938931297709924,0.5419847328244275,-1.2748091603053435
5282225570170,7.50404734,1,0.22026655273437498,1.7082628845214842,-11.253944903564452,-0.8015267175572519,0.5877862595419847,-1.3053435114503817
5282235571160,7.51404833,1,0.26815058593749996,1.763329522705078,-11.124658013916015,-0.7557251908396947,0.5877862595419847,-1.3282442748091603
5282245574598,7.524051768,1,0.25258827514648435,1.7274164978027342,-11.158176837158203,-0.8931297709923665,0.5954198473282443,-1.2900763358778626
5282255570691,7.534047861,1,0.22505495605468748,1.725022296142578,-11.201272467041015,-0.8625954198473282,0.5877862595419847,-1.3129770992366412
5282265575795,7.544052965,1,0.2609679809570312,1.7501614135742187,-11.245565197753905,-0.8244274809160306,0.6412213740458015,-1.366412213740458
5282275571004,7.554048174,1,0.2059013427734375,1.7094599853515624,-11.218031878662108,-0.7938931297709924,0.5801526717557252,-1.3053435114503817
5282285571681,7.564048851,1,0.23582886352539062,1.7274164978027342,-11.222820281982422,-0.8854961832061069,0.5648854961832062,-1.251908396946565
5282295572670,7.57404984,1,0.21068974609375,1.7298106994628906,-11.238382592773437,-0.8473282442748091,0.5725190839694656,-1.3358778625954197
5282305571889,7.584049059,1,0.19632453613281248,1.7334020019531249,-11.19887826538086,-0.8320610687022901,0.5038167938931297,-1.3053435114503817
5282315571629,7.594048799,1,0.23702596435546874,1.707065783691406,-11.128249316406249,-0.8549618320610687,0.5572519083969466,-1.3587786259541985
5282325574389,7.604051559,1,0.25139117431640623,1.7465701110839842,-11.250353601074218,-0.8473282442748091,0.5572519083969466,-1.2900763358778626
5282335573868,7.614051038,1,0.21906945190429686,1.744175909423828,-11.166556542968749,-0.7404580152671756,0.6259541984732825,-1.3129770992366412
5282345575847,7.624053017,1,0.2549824768066406,1.7286135986328124,-11.162965240478515,-0.8015267175572519,0.6106870229007634,-1.3893129770992367
5282355571420,7.63404859,1,0.2166752502441406,1.7298106994628906,-11.19169566040039,-0.8473282442748091,0.5648854961832062,-1.2900763358778626
5282365572045,7.644049215,1,0.2693476867675781,1.7238251953125,-11.128249316406249,-0.8015267175572519,0.549618320610687,-1.3358778625954197
5282375572775,7.654049945,1,0.2166752502441406,1.6831237670898436,-11.174936248779296,-0.8091603053435115,0.549618320610687,-1.3358778625954197
5282385571525,7.664048695,1,0.24660277099609373,1.7298106994628906,-11.171344946289063,-0.8625954198473282,0.5725190839694656,-1.3282442748091603
5282395572358,7.674049528,1,0.19632453613281248,1.7597382202148437,-11.258733306884764,-0.732824427480916,0.5954198473282443,-1.282442748091603
5282405575847,7.684053017,1,0.2154781494140625,1.7501614135742187,-11.218031878662108,-0.8702290076335878,0.5648854961832062,-1.3358778625954197
5282415571993,7.694049163,1,0.22266075439453123,1.7393875061035156,-11.16057103881836,-0.8244274809160306,0.5877862595419847,-1.3969465648854962
5282425576889,7.704054059,1,0.2262520568847656,1.6891092712402342,-11.117475408935546,-0.7938931297709924,0.5267175572519084,-1.381679389312977
5282435571368,7.714048538,1,0.20829554443359374,1.6938976745605467,-11.135431921386719,-0.7938931297709924,0.5877862595419847,-1.3587786259541985
5282445574493,7.724051663,1,0.21906945190429686,1.734599102783203,-11.189301458740234,-0.8549618320610687,0.5572519083969466,-1.3511450381679388
5282455570847,7.734048017,1,0.24301146850585936,1.7369933044433592,-11.177330450439452,-0.8702290076335878,0.6641221374045801,-1.3740458015267176
5282465569806,7.744046976,1,0.19512743530273435,1.715445489501953,-11.203666668701171,-0.8396946564885496,0.5801526717557252,-1.297709923664122
5282475569129,7.754046299,1,0.2166752502441406,1.7525556152343749,-11.093533392333983,-0.816793893129771,0.5877862595419847,-1.2748091603053435
5282485575847,7.764053017,1,0.258573779296875,1.7262193969726563,-11.215637677001952,-0.7862595419847328,0.5877862595419847,-1.3358778625954197
5282495573764,7.774050934,1,0.201112939453125,1.7178396911621092,-11.150994232177734,-0.8702290076335878,0.648854961832061,-1.3969465648854962
5282505575639,7.784052809,1,0.18076222534179687,1.7130512878417967,-11.149797131347656,-0.7404580152671756,0.5419847328244275,-1.3511450381679388
5282515572670,7.79404984,1,0.2214636535644531,1.744175909423828,-11.131840618896483,-0.8473282442748091,0.4961832061068702,-1.3053435114503817
5282525574962,7.804052132,1,0.22266075439453123,1.7226280944824217,-11.256339105224608,-0.7480916030534351,0.5572519083969466,-1.2595419847328244
5282535572202,7.814049372,1,0.17597382202148437,1.7453730102539062,-11.241973895263671,-0.7709923664122137,0.6335877862595419,-1.3282442748091603
5282545570952,7.824048122,1,0.2657563842773437,1.7393875061035156,-11.194089862060546,-0.7557251908396947,0.5343511450381679,-1.3435114503816794
5282555578868,7.834056038,1,0.24779987182617186,1.7693150268554687,-11.148600030517578,-0.8702290076335878,0.5801526717557252,-1.3893129770992367
5282565577774,7.844054944,1,0.2262520568847656,1.7681179260253905,-11.188104357910156,-0.8396946564885496,0.5267175572519084,-1.3282442748091603
5282575573139,7.854050309,1,0.21906945190429686,1.7202338928222656,-11.152191333007812,-0.8778625954198473,0.5648854961832062,-1.3206106870229009
5282585577045,7.864054215,1,0.22744915771484372,1.7322049011230467,-11.202469567871093,-0.8396946564885496,0.5801526717557252,-1.3053435114503817
5282595571577,7.874048747,1,0.21906945190429686,1.7310078002929687,-11.203666668701171,-0.8702290076335878,0.5648854961832062,-1.3206106870229009
5282605576004,7.884053174,1,0.22266075439453123,1.6986860778808592,-11.15338843383789,-0.7786259541984732,0.5190839694656488,-1.3206106870229009
5282615572045,7.894049215,1,0.21906945190429686,1.7106570861816406,-11.219228979492186,-0.9083969465648855,0.5877862595419847,-1.3282442748091603
5282625572983,7.904050153,1,0.21906945190429686,1.7848773376464844,-11.150994232177734,-0.9083969465648855,0.5038167938931297,-1.381679389312977
5282635571524,7.914048694,1,0.19871873779296872,1.7214309936523438,-11.183315954589844,-0.8625954198473282,0.5877862595419847,-1.2748091603053435
5282645575743,7.924052913,1,0.2501940734863281,1.7190367919921874,-11.164162341308593,-0.7938931297709924,0.549618320610687,-1.3358778625954197
5282655572358,7.934049528,1,0.20470424194335937,1.772906329345703,-11.186907257080078,-0.916030534351145,0.5419847328244275,-1.3358778625954197
5282665574129,7.944051299,1,0.2741360900878906,1.707065783691406,-11.19169566040039,-0.7557251908396947,0.5801526717557252,-1.3969465648854962
5282675569441,7.954046611,1,0.22385785522460935,1.7477672119140624,-11.227608685302734,-0.916030534351145,0.6183206106870229,-1.3206106870229009
5282685575587,7.964052757,1,0.21906945190429686,1.7106570861816406,-11.17852755126953,-0.7633587786259542,0.5419847328244275,-1.2748091603053435
5282695612306,7.974089476,1,0.24301146850585936,1.7334020019531249,-11.171344946289063,-0.8549618320610687,0.5725190839694656,-1.2900763358778626
5282705570222,7.984047392,1,0.2741360900878906,1.6579846496582031,-11.21084927368164,-0.732824427480916,0.5114503816793893,-1.3587786259541985
5282715571316,7.994048486,1,0.22385785522460935,1.7190367919921874,-11.162965240478515,-0.8625954198473282,0.549618320610687,-1.381679389312977
5282725573920,8.00405109,1,0.2645592834472656,1.7286135986328124,-11.196484063720703,-0.816793893129771,0.549618320610687,-1.3358778625954197
5282735570326,8.014047496,1,0.2861070983886719,1.7322049011230467,-11.204863769531249,-0.916030534351145,0.6030534351145038,-1.3206106870229009
5282745576004,8.024053174,1,0.20709844360351562,1.7178396911621092,-11.133037719726563,-0.7404580152671756,0.549618320610687,-1.3740458015267176
5282755570951,8.034048121,1,0.27293898925781246,1.7693150268554687,-11.188104357910156,-0.9236641221374046,0.5648854961832062,-1.3358778625954197
5282765573920,8.04405109,1,0.22505495605468748,1.6927005737304686,-11.218031878662108,-0.7251908396946565,0.5954198473282443,-1.3358778625954197
5282775569962,8.054047132,1,0.20709844360351562,1.715445489501953,-11.18571015625,-0.7709923664122137,0.5419847328244275,-1.3435114503816794
5282785570431,8.064047601,1,0.229843359375,1.7681179260253905,-11.194089862060546,-0.8320610687022901,0.5419847328244275,-1.3282442748091603
5282795570847,8.074048017,1,0.21906945190429686,1.744175909423828,-11.239579693603515,-0.8473282442748091,0.5114503816793893,-1.2748091603053435
5282805574962,8.084052132,1,0.20231004028320312,1.68551796875,-11.165359442138671,-0.7633587786259542,0.48854961832061067,-1.3282442748091603
5282815571160,8.09404833,1,0.20949264526367187,1.7178396911621092,-11.123460913085937,-0.7862595419847328,0.5648854961832062,-1.3358778625954197
5282825575483,8.104052653,1,0.22864625854492185,1.7621324218749999,-11.15338843383789,-0.8778625954198473,0.549618320610687,-1.251908396946565
5282835570483,8.114047653,1,0.23223756103515625,1.7202338928222656,-11.256339105224608,-0.816793893129771,0.5801526717557252,-1.381679389312977
5282845573972,8.124051142,1,0.25737667846679685,1.7741034301757812,-11.15338843383789,-0.7938931297709924,0.6183206106870229,-1.2748091603053435
5282855571212,8.134048382,1,0.19153613281249998,1.7238251953125,-11.226411584472656,-0.8015267175572519,0.5038167938931297,-1.366412213740458
5282865573191,8.144050361,1,0.22385785522460935,1.7130512878417967,-11.220426080322264,-0.7786259541984732,0.6412213740458015,-1.3282442748091603
5282875570899,8.154048069,1,0.19632453613281248,1.7190367919921874,-11.195286962890624,-0.8473282442748091,0.6259541984732825,-1.3053435114503817
5282885576889,8.164054059,1,0.21428104858398436,1.7585411193847655,-11.15338843383789,-0.7862595419847328,0.5648854961832062,-1.3435114503816794
5282895570066,8.174047236,1,0.22864625854492185,1.7489643127441405,-11.179724652099608,-0.816793893129771,0.5572519083969466,-1.3053435114503817
5282905578972,8.184056142,1,0.23822306518554687,1.7214309936523438,-11.225214483642578,-0.8244274809160306,0.5190839694656488,-1.366412213740458
5282915572618,8.194049788,1,0.1927332336425781,1.7010802795410156,-11.17852755126953,-0.7404580152671756,0.5343511450381679,-1.3358778625954197
5282925575639,8.204052809,1,0.25258827514648435,1.7453730102539062,-11.209652172851563,-0.7862595419847328,0.5419847328244275,-1.3511450381679388
5282935570118,8.214047288,1,0.20949264526367187,1.7130512878417967,-11.19169566040039,-0.816793893129771,0.5419847328244275,-1.3282442748091603
5282945576264,8.224053434,1,0.23702596435546874,1.734599102783203,-11.183315954589844,-0.8549618320610687,0.6793893129770993,-1.3206106870229009
5282955570378,8.234047548,1,0.2693476867675781,1.7417817077636717,-11.149797131347656,-0.8091603053435115,0.5114503816793893,-1.282442748091603
5282965575951,8.244053121,1,0.27892449340820313,1.744175909423828,-11.228805786132812,-0.8931297709923665,0.5648854961832062,-1.366412213740458
5282975570743,8.254047913,1,0.201112939453125,1.7322049011230467,-11.089942089843749,-0.7633587786259542,0.549618320610687,-1.3358778625954197
5282985575014,8.264052184,1,0.16879121704101563,1.7178396911621092,-11.152191333007812,-0.7633587786259542,0.6335877862595419,-1.3053435114503817
5282995570014,8.274047184,1,0.239420166015625,1.715445489501953,-11.15338843383789,-0.7862595419847328,0.5572519083969466,-1.3129770992366412
5283005571108,8.284048278,1,0.239420166015625,1.7705121276855467,-11.17254204711914,-0.8702290076335878,0.5572519083969466,-1.3282442748091603
5283015572097,8.294049267,1,0.24899697265624998,1.7717092285156248,-11.182118853759764,-0.7938931297709924,0.5572519083969466,-1.3358778625954197
5283025574545,8.304051715,1,0.18914193115234373,1.7561469177246092,-11.194089862060546,-0.8015267175572519,0.5877862595419847,-1.282442748091603
5283035569701,8.314046871,1,0.20829554443359374,1.7381904052734374,-11.176133349609374,-0.8244274809160306,0.549618320610687,-1.3053435114503817
5283045574597,8.324051767,1,0.25139117431640623,1.714248388671875,-11.155782635498046,-0.8778625954198473,0.5877862595419847,-1.2671755725190839
5283055573556,8.334050726,1,0.25737667846679685,1.7381904052734374,-11.2240173828125,-0.7633587786259542,0.5190839694656488,-1.3206106870229009
5283065573608,8.344050778,1,0.22385785522460935,1.7477672119140624,-11.146205828857422,-0.8549618320610687,0.6335877862595419,-1.4045801526717556
5283075571368,8.354048538,1,0.20829554443359374,1.7322049011230467,-11.10191309814453,-0.8473282442748091,0.5190839694656488,-1.381679389312977
5283085575014,8.364052184,1,0.20829554443359374,1.7788918334960937,-11.133037719726563,-0.7709923664122137,0.5877862595419847,-1.3053435114503817
5283095569597,8.374046767,1,0.20829554443359374,1.725022296142578,-11.091139190673827,-0.7404580152671756,0.6259541984732825,-1.3740458015267176
5283105574597,8.384051767,1,0.258573779296875,1.7369933044433592,-11.190498559570312,-0.9007633587786259,0.5877862595419847,-1.3282442748091603
5283115571628,8.394048798,1,0.23702596435546874,1.7214309936523438,-11.209652172851563,-0.7557251908396947,0.5114503816793893,-1.3129770992366412
5283125574337,8.404051507,1,0.1771709228515625,1.7094599853515624,-11.149797131347656,-0.8549618320610687,0.6030534351145038,-1.3435114503816794
5283135571160,8.41404833,1,0.2501940734863281,1.7274164978027342,-11.166556542968749,-0.7862595419847328,0.5343511450381679,-1.3206106870229009
5283145572253,8.424049423,1,0.181959326171875,1.7369933044433592,-11.231199987792968,-0.8091603053435115,0.5877862595419847,-1.3587786259541985
5283155571680,8.43404885,1,0.229843359375,1.7202338928222656,-11.194089862060546,-0.7480916030534351,0.5725190839694656,-1.366412213740458
5283165573972,8.444051142,1,0.24061726684570311,1.744175909423828,-11.14022032470703,-0.7251908396946565,0.6335877862595419,-1.3511450381679388
5283175570483,8.454047653,1,0.2214636535644531,1.7741034301757812,-11.123460913085937,-0.7786259541984732,0.5190839694656488,-1.3053435114503817
