timestamp_ns,t_s,sensor_id,ax,ay,az,gx,gy,gz
5274899782257,0.178259427,3,-0.22266075439453123,-0.5446808776855468,-8.914809881591797,-8.34351145038168,-0.4732824427480916,-5.893129770992366
5274909563402,0.188040572,3,-0.16519991455078123,-0.5051765502929687,-8.930372192382812,-4.442748091603053,-0.32061068702290074,-3.183206106870229
5274919498142,0.197975312,3,-0.19871873779296872,-0.5674257934570313,-8.935160595703124,-4.465648854961832,-0.35877862595419846,-3.1755725190839694
5274929450434,0.207927604,3,-0.23343466186523437,-0.5770026000976562,-8.91840118408203,-4.442748091603053,-0.3816793893129771,-3.1908396946564888
5274939376944,0.217854114,3,-0.1867477294921875,-0.5231330627441406,-8.901641772460938,-4.404580152671755,-0.2900763358778626,-3.1374045801526718
5274949452621,0.227929791,3,-0.201112939453125,-0.565031591796875,-8.989030133056641,-4.427480916030534,-0.33587786259541985,-3.2290076335877864
5274959445277,0.237922447,3,-0.19393033447265623,-0.5315127685546874,-8.865728747558594,-4.412213740458015,-0.2900763358778626,-3.1526717557251906
5274969467257,0.247944427,3,-0.1879448303222656,-0.6105214233398437,-8.842983831787109,-4.450381679389313,-0.3053435114503817,-3.114503816793893
5274979456319,0.257933489,3,-0.20949264526367187,-0.49320554199218747,-8.974664923095702,-4.458015267175573,-0.24427480916030533,-3.1297709923664123
5274989458038,0.267935208,3,-0.21308394775390624,-0.5590460876464843,-9.016563452148437,-4.465648854961832,-0.3511450381679389,-3.1068702290076335
5274999434809,0.277911979,3,-0.21068974609375,-0.5674257934570313,-8.963891015625,-4.435114503816794,-0.3053435114503817,-3.1297709923664123
5275009452257,0.287929427,3,-0.20949264526367187,-0.5662286926269531,-8.987833032226561,-4.442748091603053,-0.31297709923664124,-3.16793893129771
5275019428767,0.297905937,3,-0.2166752502441406,-0.5458779785156249,-8.921992486572265,-4.480916030534351,-0.2748091603053435,-3.1374045801526718
5275029473663,0.307950833,3,-0.24779987182617186,-0.565031591796875,-8.959102612304687,-4.3893129770992365,-0.31297709923664124,-3.198473282442748
5275039449132,0.317926302,3,-0.18435352783203124,-0.5710170959472656,-8.913612780761719,-4.442748091603053,-0.3053435114503817,-3.198473282442748
5275049466059,0.327943229,3,-0.18076222534179687,-0.5051765502929687,-8.904035974121093,-4.366412213740458,-0.3511450381679389,-3.1068702290076335
5275059451527,0.337928697,3,-0.16998831787109375,-0.5518634826660156,-8.960299713134765,-4.4961832061068705,-0.3435114503816794,-3.122137404580153
5275069467986,0.347945156,3,-0.18914193115234373,-0.5267243652343749,-8.895656268310546,-4.473282442748092,-0.33587786259541985,-3.1603053435114505
5275079448038,0.357925208,3,-0.18435352783203124,-0.5602431884765625,-8.943540301513671,-4.427480916030534,-0.2366412213740458,-3.16793893129771
5275089461788,0.367938958,3,-0.1975216369628906,-0.5039794494628906,-8.921992486572265,-4.427480916030534,-0.2900763358778626,-3.1068702290076335
5275099435173,0.377912343,3,-0.16160861206054686,-0.5339069702148437,-8.920795385742187,-4.3816793893129775,-0.2900763358778626,-3.0839694656488548
5275109430954,0.387908124,3,-0.20829554443359374,-0.5398924743652344,-8.943540301513671,-4.473282442748092,-0.2824427480916031,-3.183206106870229
5275119448871,0.397926041,3,-0.20829554443359374,-0.5710170959472656,-8.905233074951171,-4.366412213740458,-0.3053435114503817,-3.1603053435114505
5275129447100,0.40792427,3,-0.20350714111328125,-0.5482721801757812,-8.992621435546875,-4.473282442748092,-0.31297709923664124,-3.1068702290076335
5275139468611,0.417945781,3,-0.19153613281249998,-0.5363011718749999,-8.963891015625,-4.396946564885496,-0.21374045801526717,-3.145038167938931
5275149445381,0.427922551,3,-0.19033903198242186,-0.5662286926269531,-8.974664923095702,-4.3893129770992365,-0.31297709923664124,-3.16793893129771
5275159444027,0.437921197,3,-0.18555062866210936,-0.5159504577636719,-8.945934503173827,-4.488549618320611,-0.2824427480916031,-3.1526717557251906
5275169458923,0.447936093,3,-0.18555062866210936,-0.5482721801757812,-8.981847528076171,-4.366412213740458,-0.33587786259541985,-3.2061068702290076
5275179456319,0.457933489,3,-0.23343466186523437,-0.5602431884765625,-8.980650427246093,-4.465648854961832,-0.26717557251908397,-3.145038167938931
5275189443194,0.467920364,3,-0.17477672119140625,-0.5770026000976562,-8.927977990722656,-4.427480916030534,-0.3893129770992366,-3.2213740458015265
5275199438767,0.477915937,3,-0.15562310791015624,-0.5339069702148437,-8.985438830566405,-4.442748091603053,-0.25190839694656486,-3.0839694656488548
5275209445902,0.487923072,3,-0.22385785522460935,-0.5351040710449219,-9.045293872070312,-4.419847328244275,-0.366412213740458,-3.2061068702290076
5275219440486,0.497917656,3,-0.20829554443359374,-0.5590460876464843,-8.92438668823242,-4.442748091603053,-0.2824427480916031,-3.1526717557251906
5275229438194,0.507915364,3,-0.1867477294921875,-0.5135562561035156,-8.98304462890625,-4.480916030534351,-0.29770992366412213,-3.1297709923664123
5275239442309,0.517919479,3,-0.2059013427734375,-0.5255272644042969,-8.99501563720703,-4.465648854961832,-0.2824427480916031,-3.145038167938931
5275249466579,0.527943749,3,-0.19871873779296872,-0.5698199951171875,-8.923189587402343,-4.442748091603053,-0.3435114503816794,-3.1908396946564888
5275259445694,0.537922864,3,-0.14245499877929688,-0.5638344909667968,-8.93156929321289,-4.412213740458015,-0.2824427480916031,-3.1297709923664123
5275269444600,0.54792177,3,-0.20470424194335937,-0.5267243652343749,-8.978256225585938,-4.488549618320611,-0.26717557251908397,-3.1908396946564888
5275279436423,0.557913593,3,-0.22864625854492185,-0.5159504577636719,-8.935160595703124,-4.412213740458015,-0.3053435114503817,-3.1526717557251906
5275289456267,0.567933437,3,-0.23822306518554687,-0.5662286926269531,-8.967482318115234,-4.488549618320611,-0.25190839694656486,-3.1908396946564888
5275299444965,0.577922135,3,-0.201112939453125,-0.5135562561035156,-9.048885174560546,-4.458015267175573,-0.3282442748091603,-3.1374045801526718
5275309441423,0.587918593,3,-0.22026655273437498,-0.5422866760253906,-8.953117108154297,-4.435114503816794,-0.32061068702290074,-3.2213740458015265
5275319433506,0.597910676,3,-0.1771709228515625,-0.5231330627441406,-9.029731561279297,-4.396946564885496,-0.3053435114503817,-3.122137404580153
5275329458611,0.607935781,3,-0.19393033447265623,-0.5746083984375,-8.90643017578125,-4.3816793893129775,-0.3282442748091603,-3.183206106870229
5275339440433,0.617917603,3,-0.29568390502929687,-0.5386953735351562,-9.00100114135742,-4.450381679389313,-0.1984732824427481,-3.114503816793893
5275349442517,0.627919687,3,-0.1580173095703125,-0.5327098693847656,-8.972270721435546,-4.480916030534351,-0.29770992366412213,-3.1297709923664123
5275359382829,0.637859999,3,-0.18914193115234373,-0.5434837768554687,-8.97705912475586,-4.488549618320611,-0.32061068702290074,-3.1374045801526718
5275369446840,0.64792401,3,-0.1867477294921875,-0.5626373901367188,-8.987833032226561,-4.404580152671755,-0.3053435114503817,-3.1755725190839694
5275379439444,0.657916614,3,-0.16998831787109375,-0.5363011718749999,-8.948328704833983,-4.404580152671755,-0.25190839694656486,-3.1603053435114505
5275389446996,0.667924166,3,-0.17597382202148437,-0.5303156677246094,-8.932766394042968,-4.3893129770992365,-0.32061068702290074,-3.198473282442748
5275399439861,0.677917031,3,-0.22864625854492185,-0.5219359619140624,-8.96269391479492,-4.412213740458015,-0.2595419847328244,-3.1908396946564888
5275409434600,0.68791177,3,-0.20829554443359374,-0.5219359619140624,-8.935160595703124,-4.458015267175573,-0.32061068702290074,-3.1297709923664123
5275419432725,0.697909895,3,-0.17118541870117188,-0.5530605834960938,-8.996212738037109,-4.3893129770992365,-0.22900763358778625,-3.145038167938931
5275429446423,0.707923593,3,-0.17477672119140625,-0.5686228942871093,-8.96987651977539,-4.442748091603053,-0.29770992366412213,-3.099236641221374
5275439442100,0.71791927,3,-0.18076222534179687,-0.5638344909667968,-8.998606939697265,-4.343511450381679,-0.2748091603053435,-3.122137404580153
5275449485225,0.727962395,3,-0.2166752502441406,-0.5279214660644531,-8.963891015625,-4.465648854961832,-0.3053435114503817,-3.1526717557251906
5275459529704,0.738006874,3,-0.2059013427734375,-0.5339069702148437,-8.919598284912109,-4.374045801526718,-0.37404580152671757,-3.1374045801526718
5275469448142,0.747925312,3,-0.22266075439453123,-0.5327098693847656,-8.882488159179687,-4.396946564885496,-0.32061068702290074,-3.16793893129771
5275479468819,0.757945989,3,-0.1592144104003906,-0.5734112976074218,-8.968679418945312,-4.435114503816794,-0.2595419847328244,-3.1526717557251906
5275489455329,0.767932499,3,-0.19033903198242186,-0.6009446166992187,-8.953117108154297,-4.412213740458015,-0.2824427480916031,-3.145038167938931
5275499441006,0.777918176,3,-0.19393033447265623,-0.5746083984375,-8.929175091552734,-4.5038167938931295,-0.1984732824427481,-3.1374045801526718
5275509437933,0.787915103,3,-0.21906945190429686,-0.5566518859863281,-8.939948999023438,-4.419847328244275,-0.32061068702290074,-3.1603053435114505
5275519433506,0.797910676,3,-0.2166752502441406,-0.5925649108886718,-8.889670764160156,-4.427480916030534,-0.2900763358778626,-3.1297709923664123
5275529442100,0.80791927,3,-0.24301146850585936,-0.4955997436523437,-8.947131604003905,-4.3816793893129775,-0.31297709923664124,-3.2213740458015265
5275539451058,0.817928228,3,-0.22026655273437498,-0.5291185668945312,-8.945934503173827,-4.419847328244275,-0.3511450381679389,-3.16793893129771
5275549442256,0.827919426,3,-0.22385785522460935,-0.5291185668945312,-8.948328704833983,-4.3893129770992365,-0.29770992366412213,-3.0763358778625953
5275559440485,0.837917655,3,-0.21428104858398436,-0.5386953735351562,-8.93875189819336,-4.419847328244275,-0.3053435114503817,-3.122137404580153
5275569438038,0.847915208,3,-0.229843359375,-0.5793968017578125,-8.872911352539061,-4.458015267175573,-0.366412213740458,-3.1374045801526718
5275579436788,0.857913958,3,-0.18555062866210936,-0.5506663818359374,-8.967482318115234,-4.450381679389313,-0.32061068702290074,-3.145038167938931
5275589448194,0.867925364,3,-0.17477672119140625,-0.5590460876464843,-8.968679418945312,-4.450381679389313,-0.29770992366412213,-3.1068702290076335
5275599432569,0.877909739,3,-0.23582886352539062,-0.5686228942871093,-9.009380847167968,-4.450381679389313,-0.3053435114503817,-3.1374045801526718
5275609386475,0.887863645,3,-0.181959326171875,-0.5590460876464843,-8.890867864990234,-4.366412213740458,-0.31297709923664124,-3.1068702290076335
5275619443142,0.897920312,3,-0.14724340209960937,-0.55545478515625,-8.913612780761719,-4.435114503816794,-0.25190839694656486,-3.145038167938931
5275629444496,0.907921666,3,-0.24779987182617186,-0.5518634826660156,-8.933963494873046,-4.450381679389313,-0.366412213740458,-3.114503816793893
5275639449183,0.917926353,3,-0.19153613281249998,-0.5446808776855468,-8.933963494873046,-4.442748091603053,-0.1984732824427481,-3.2061068702290076
5275649438558,0.927915728,3,-0.20949264526367187,-0.5099649536132812,-9.048885174560546,-4.419847328244275,-0.3893129770992366,-3.198473282442748
5275659435538,0.937912708,3,-0.21308394775390624,-0.5674257934570313,-8.972270721435546,-4.442748091603053,-0.26717557251908397,-3.1603053435114505
5275669443090,0.94792026,3,-0.20470424194335937,-0.5351040710449219,-8.967482318115234,-4.374045801526718,-0.4122137404580153,-3.213740458015267
5275679439548,0.957916718,3,-0.21428104858398436,-0.5339069702148437,-8.86812294921875,-4.450381679389313,-0.24427480916030533,-3.1297709923664123
5275689443767,0.967920937,3,-0.23104046020507812,-0.5446808776855468,-8.87410845336914,-4.412213740458015,-0.3511450381679389,-3.1755725190839694
5275699440850,0.97791802,3,-0.16160861206054686,-0.4944026428222656,-8.895656268310546,-4.458015267175573,-0.25190839694656486,-3.2061068702290076
5275709442569,0.987919739,3,-0.19871873779296872,-0.5243301635742187,-9.044096771240234,-4.396946564885496,-0.44274809160305345,-3.1755725190839694
5275719439183,0.997916353,3,-0.20949264526367187,-0.5566518859863281,-8.921992486572265,-4.3893129770992365,-0.24427480916030533,-3.1297709923664123
5275729437673,1.007914843,3,-0.21906945190429686,-0.5674257934570313,-8.927977990722656,-4.3893129770992365,-0.3893129770992366,-3.198473282442748
5275739446110,1.01792328,3,-0.21188684692382811,-0.5303156677246094,-8.957905511474609,-4.3893129770992365,-0.22900763358778625,-3.122137404580153
5275749452933,1.027930103,3,-0.19632453613281248,-0.565031591796875,-8.93156929321289,-4.366412213740458,-0.2900763358778626,-3.068702290076336
5275759441371,1.037918541,3,-0.21428104858398436,-0.5542576843261718,-8.898050469970702,-4.427480916030534,-0.24427480916030533,-3.1374045801526718
5275769438142,1.047915312,3,-0.15442600708007811,-0.5147533569335937,-8.974664923095702,-4.3893129770992365,-0.35877862595419846,-3.1908396946564888
5275779441319,1.057918489,3,-0.16998831787109375,-0.5183446594238281,-8.959102612304687,-4.458015267175573,-0.25190839694656486,-3.1068702290076335
5275789450642,1.067927812,3,-0.24899697265624998,-0.5291185668945312,-8.967482318115234,-4.412213740458015,-0.40458015267175573,-3.114503816793893
5275799454183,1.077931353,3,-0.1975216369628906,-0.5746083984375,-8.89924757080078,-4.519083969465649,-0.16793893129770993,-3.1603053435114505
5275809480225,1.087957395,3,-0.21906945190429686,-0.5422866760253906,-8.935160595703124,-4.473282442748092,-0.4122137404580153,-3.1297709923664123
5275819442412,1.097919582,3,-0.181959326171875,-0.5542576843261718,-8.898050469970702,-4.396946564885496,-0.2366412213740458,-3.2061068702290076
5275829443402,1.107920572,3,-0.201112939453125,-0.49320554199218747,-8.9255837890625,-4.458015267175573,-0.3053435114503817,-3.1374045801526718
5275839452465,1.117929635,3,-0.19991583862304688,-0.47644613037109373,-8.92438668823242,-4.442748091603053,-0.2595419847328244,-3.1755725190839694
5275849461892,1.127939062,3,-0.21188684692382811,-0.5770026000976562,-9.00100114135742,-4.458015267175573,-0.3893129770992366,-3.1374045801526718
5275859449287,1.137926457,3,-0.20709844360351562,-0.5614402893066406,-8.975862023925782,-4.442748091603053,-0.29770992366412213,-3.1526717557251906
5275869447100,1.14792427,3,-0.17238251953125,-0.5434837768554687,-8.926780889892578,-4.419847328244275,-0.37404580152671757,-3.114503816793893
5275879448610,1.15792578,3,-0.2262520568847656,-0.5734112976074218,-8.883685260009765,-4.3893129770992365,-0.24427480916030533,-3.198473282442748
5275889453037,1.167930207,3,-0.19632453613281248,-0.5279214660644531,-8.865728747558594,-4.4961832061068705,-0.3511450381679389,-3.1908396946564888
5275899438819,1.177915989,3,-0.22744915771484372,-0.5422866760253906,-8.901641772460938,-4.450381679389313,-0.22137404580152673,-3.122137404580153
5275909448715,1.187925885,3,-0.22026655273437498,-0.5662286926269531,-8.948328704833983,-4.419847328244275,-0.3816793893129771,-3.198473282442748
5275919441527,1.197918697,3,-0.19393033447265623,-0.5303156677246094,-8.89326206665039,-4.435114503816794,-0.35877862595419846,-3.1297709923664123
5275929440694,1.207917864,3,-0.17597382202148437,-0.5506663818359374,-8.979453326416015,-4.435114503816794,-0.31297709923664124,-3.183206106870229
5275939431423,1.217908593,3,-0.18315642700195311,-0.5327098693847656,-8.838195428466797,-4.366412213740458,-0.24427480916030533,-3.1297709923664123
5275949448871,1.227926041,3,-0.18435352783203124,-0.5758054992675781,-8.986635931396483,-4.404580152671755,-0.3435114503816794,-3.213740458015267
5275959439131,1.237916301,3,-0.18555062866210936,-0.5315127685546874,-8.911218579101561,-4.32824427480916,-0.25190839694656486,-3.1908396946564888
5275969485537,1.247962707,3,-0.20709844360351562,-0.5470750793457031,-8.991424334716797,-4.435114503816794,-0.3435114503816794,-3.1755725190839694
5275979445798,1.257922968,3,-0.20470424194335937,-0.5482721801757812,-8.89326206665039,-4.427480916030534,-0.33587786259541985,-3.1603053435114505
5275989451527,1.267928697,3,-0.13766659545898435,-0.49320554199218747,-8.914809881591797,-4.419847328244275,-0.3282442748091603,-3.1603053435114505
5275999444131,1.277921301,3,-0.1292868896484375,-0.5590460876464843,-8.992621435546875,-4.473282442748092,-0.2824427480916031,-3.1297709923664123
5276009543610,1.28802078,3,-0.2166752502441406,-0.5662286926269531,-8.941146099853515,-4.427480916030534,-0.33587786259541985,-3.1374045801526718
5276019454131,1.297931301,3,-0.19512743530273435,-0.5662286926269531,-8.9255837890625,-4.473282442748092,-0.3053435114503817,-3.099236641221374
5276029455642,1.307932812,3,-0.17477672119140625,-0.5530605834960938,-8.986635931396483,-4.3816793893129775,-0.37404580152671757,-3.145038167938931
5276039462777,1.317939947,3,-0.22026655273437498,-0.5363011718749999,-8.870517150878905,-4.450381679389313,-0.2748091603053435,-3.053435114503817
5276049462985,1.327940155,3,-0.2214636535644531,-0.5434837768554687,-8.939948999023438,-4.465648854961832,-0.2824427480916031,-3.1297709923664123
5276059441319,1.337918489,3,-0.1592144104003906,-0.5363011718749999,-8.914809881591797,-4.419847328244275,-0.24427480916030533,-3.045801526717557
5276069443558,1.347920728,3,-0.21188684692382811,-0.5374982727050781,-8.94473740234375,-4.427480916030534,-0.33587786259541985,-3.0839694656488548
5276079449964,1.357927134,3,-0.16879121704101563,-0.5243301635742187,-8.902838873291016,-4.435114503816794,-0.2595419847328244,-3.145038167938931
5276089450746,1.367927916,3,-0.19632453613281248,-0.5877765075683593,-8.980650427246093,-4.3893129770992365,-0.32061068702290074,-3.0610687022900764
5276099439704,1.377916874,3,-0.201112939453125,-0.5279214660644531,-8.96987651977539,-4.412213740458015,-0.24427480916030533,-3.1374045801526718
5276109448923,1.387926093,3,-0.20350714111328125,-0.5147533569335937,-9.018957653808593,-4.412213740458015,-0.3053435114503817,-3.1603053435114505
5276119441423,1.397918593,3,-0.21068974609375,-0.5434837768554687,-8.985438830566405,-4.435114503816794,-0.24427480916030533,-3.1374045801526718
5276129442881,1.407920051,3,-0.1867477294921875,-0.5829881042480468,-8.955511309814453,-4.442748091603053,-0.32061068702290074,-3.16793893129771
5276139439287,1.417916457,3,-0.20231004028320312,-0.5243301635742187,-8.972270721435546,-4.366412213740458,-0.2595419847328244,-3.0916030534351147
5276149440433,1.427917603,3,-0.23582886352539062,-0.5051765502929687,-8.97705912475586,-4.435114503816794,-0.32061068702290074,-3.1374045801526718
5276159442881,1.437920051,3,-0.23223756103515625,-0.5470750793457031,-8.945934503173827,-4.3893129770992365,-0.32061068702290074,-3.183206106870229
5276169471579,1.447948749,3,-0.16998831787109375,-0.5925649108886718,-8.939948999023438,-4.435114503816794,-0.3511450381679389,-3.114503816793893
5276179440850,1.45791802,3,-0.18435352783203124,-0.565031591796875,-8.86812294921875,-4.511450381679389,-0.26717557251908397,-3.099236641221374
5276189439183,1.467916353,3,-0.25737667846679685,-0.5410895751953124,-8.94473740234375,-4.427480916030534,-0.2824427480916031,-3.0916030534351147
5276199461058,1.477938228,3,-0.21906945190429686,-0.5267243652343749,-8.957905511474609,-4.435114503816794,-0.29770992366412213,-3.0916030534351147
5276209449391,1.487926561,3,-0.1975216369628906,-0.5063736511230469,-8.93755479736328,-4.396946564885496,-0.33587786259541985,-3.1374045801526718
5276219409860,1.49788703,3,-0.1879448303222656,-0.5506663818359374,-8.978256225585938,-4.419847328244275,-0.2900763358778626,-3.16793893129771
5276229460433,1.507937603,3,-0.18076222534179687,-0.603338818359375,-8.936357696533202,-4.412213740458015,-0.26717557251908397,-3.1755725190839694
5276239440537,1.517917707,3,-0.1975216369628906,-0.5051765502929687,-8.98304462890625,-4.458015267175573,-0.2595419847328244,-3.145038167938931
5276249438766,1.527915936,3,-0.1927332336425781,-0.5363011718749999,-8.953117108154297,-4.458015267175573,-0.3435114503816794,-3.183206106870229
5276259447673,1.537924843,3,-0.21428104858398436,-0.5506663818359374,-8.971073620605468,-4.458015267175573,-0.2748091603053435,-3.114503816793893
5276269439860,1.54791703,3,-0.22864625854492185,-0.5303156677246094,-8.978256225585938,-4.450381679389313,-0.33587786259541985,-3.0839694656488548
5276279442464,1.557919634,3,-0.19033903198242186,-0.5374982727050781,-8.94473740234375,-4.465648854961832,-0.24427480916030533,-3.1908396946564888
5276289447464,1.567924634,3,-0.17357962036132812,-0.5518634826660156,-8.996212738037109,-4.450381679389313,-0.2824427480916031,-3.1297709923664123
5276299438246,1.577915416,3,-0.22385785522460935,-0.5398924743652344,-8.935160595703124,-4.450381679389313,-0.25190839694656486,-3.183206106870229
5276309443714,1.587920884,3,-0.23582886352539062,-0.5195417602539062,-8.888473663330078,-4.435114503816794,-0.29770992366412213,-3.1755725190839694
5276319454548,1.597931718,3,-0.18555062866210936,-0.5147533569335937,-8.948328704833983,-4.427480916030534,-0.2900763358778626,-3.1068702290076335
5276329445954,1.607923124,3,-0.19871873779296872,-0.5063736511230469,-9.014169250488282,-4.5038167938931295,-0.2824427480916031,-3.1297709923664123
5276339447308,1.617924478,3,-0.20949264526367187,-0.5686228942871093,-8.846575134277343,-4.473282442748092,-0.21374045801526717,-3.183206106870229
5276349440485,1.627917655,3,-0.229843359375,-0.603338818359375,-9.069235888671875,-4.396946564885496,-0.2900763358778626,-3.198473282442748
5276359458506,1.637935676,3,-0.19033903198242186,-0.5363011718749999,-8.933963494873046,-4.3816793893129775,-0.2366412213740458,-3.1297709923664123
5276369443975,1.647921145,3,-0.24779987182617186,-0.5315127685546874,-8.963891015625,-4.351145038167939,-0.2900763358778626,-3.114503816793893
5276379439079,1.657916249,3,-0.201112939453125,-0.5231330627441406,-8.883685260009765,-4.396946564885496,-0.33587786259541985,-3.122137404580153
5276389469496,1.667946666,3,-0.2059013427734375,-0.5267243652343749,-8.941146099853515,-4.435114503816794,-0.3435114503816794,-3.114503816793893
5276399444704,1.677921874,3,-0.16759411621093748,-0.5434837768554687,-8.9255837890625,-4.404580152671755,-0.20610687022900764,-3.068702290076336
5276409452048,1.687929218,3,-0.19991583862304688,-0.5183446594238281,-8.923189587402343,-4.396946564885496,-0.3282442748091603,-3.145038167938931
5276419431162,1.697908332,3,-0.21308394775390624,-0.4944026428222656,-8.895656268310546,-4.358778625954199,-0.2824427480916031,-3.1374045801526718
5276429440225,1.707917395,3,-0.14125789794921875,-0.5386953735351562,-8.947131604003905,-4.450381679389313,-0.26717557251908397,-3.2061068702290076
5276439439391,1.717916561,3,-0.17238251953125,-0.5698199951171875,-9.004592443847656,-4.366412213740458,-0.24427480916030533,-3.1297709923664123
5276449445902,1.727923072,3,-0.16160861206054686,-0.5698199951171875,-8.957905511474609,-4.404580152671755,-0.2595419847328244,-3.1374045801526718
5276459437568,1.737914738,3,-0.22385785522460935,-0.5099649536132812,-8.945934503173827,-4.3893129770992365,-0.2748091603053435,-3.183206106870229
5276469442360,1.74791953,3,-0.23223756103515625,-0.5231330627441406,-8.845378033447265,-4.435114503816794,-0.2824427480916031,-3.145038167938931
5276479434704,1.757911874,3,-0.19512743530273435,-0.5267243652343749,-8.947131604003905,-4.442748091603053,-0.2595419847328244,-3.099236641221374
5276489450121,1.767927291,3,-0.18555062866210936,-0.5243301635742187,-8.990227233886719,-4.412213740458015,-0.3435114503816794,-3.1755725190839694
5276499439287,1.777916457,3,-0.22026655273437498,-0.5566518859863281,-8.866925848388671,-4.473282442748092,-0.3053435114503817,-3.198473282442748
5276509390798,1.787867968,3,-0.1592144104003906,-0.51714755859375,-8.913612780761719,-4.488549618320611,-0.3282442748091603,-3.099236641221374
5276519431006,1.797908176,3,-0.17118541870117188,-0.5267243652343749,-8.953117108154297,-4.419847328244275,-0.31297709923664124,-3.1526717557251906
5276529438766,1.807915936,3,-0.20709844360351562,-0.5530605834960938,-8.941146099853515,-4.351145038167939,-0.32061068702290074,-3.1526717557251906
5276539442464,1.817919634,3,-0.17956512451171874,-0.5363011718749999,-8.87410845336914,-4.427480916030534,-0.24427480916030533,-3.1755725190839694
5276549444652,1.827921822,3,-0.2346317626953125,-0.5566518859863281,-8.91840118408203,-4.374045801526718,-0.3511450381679389,-3.1068702290076335
5276559485641,1.837962811,3,-0.20350714111328125,-0.5374982727050781,-8.990227233886719,-4.358778625954199,-0.29770992366412213,-3.2061068702290076
5276569486996,1.847964166,3,-0.18315642700195311,-0.5111620544433594,-9.004592443847656,-4.3816793893129775,-0.29770992366412213,-3.1603053435114505
5276579463089,1.857940259,3,-0.16639701538085935,-0.55545478515625,-8.872911352539061,-4.412213740458015,-0.24427480916030533,-3.1374045801526718
5276589446214,1.867923384,3,-0.22505495605468748,-0.5793968017578125,-8.961496813964843,-4.435114503816794,-0.3816793893129771,-3.122137404580153
5276599377048,1.877854218,3,-0.24779987182617186,-0.5793968017578125,-8.989030133056641,-4.412213740458015,-0.2595419847328244,-3.183206106870229
5276609443298,1.887920468,3,-0.2454056701660156,-0.5374982727050781,-8.912415679931641,-4.435114503816794,-0.22900763358778625,-3.0610687022900764
5276619462464,1.897939634,3,-0.2454056701660156,-0.5303156677246094,-8.927977990722656,-4.3816793893129775,-0.20610687022900764,-3.1374045801526718
5276629441162,1.907918332,3,-0.20231004028320312,-0.5434837768554687,-8.973467822265624,-4.458015267175573,-0.29770992366412213,-3.1374045801526718
5276639433818,1.917910988,3,-0.19871873779296872,-0.5578489868164063,-8.8872765625,-4.3893129770992365,-0.25190839694656486,-3.1297709923664123
5276649453298,1.927930468,3,-0.1927332336425781,-0.5267243652343749,-8.986635931396483,-4.435114503816794,-0.2748091603053435,-3.1603053435114505
5276659443454,1.937920624,3,-0.23104046020507812,-0.5434837768554687,-8.942343200683593,-4.526717557251908,-0.26717557251908397,-3.1603053435114505
5276669468506,1.947945676,3,-0.20709844360351562,-0.5255272644042969,-8.97705912475586,-4.427480916030534,-0.24427480916030533,-3.2442748091603053
5276679441110,1.95791828,3,-0.18555062866210936,-0.5542576843261718,-8.968679418945312,-4.427480916030534,-0.2748091603053435,-3.145038167938931
5276689446318,1.967923488,3,-0.239420166015625,-0.5781997009277343,-8.889670764160156,-4.3816793893129775,-0.35877862595419846,-3.099236641221374
5276699439964,1.977917134,3,-0.22266075439453123,-0.55545478515625,-8.992621435546875,-4.343511450381679,-0.2900763358778626,-3.1526717557251906
5276709448402,1.987925572,3,-0.1580173095703125,-0.5243301635742187,-8.904035974121093,-4.412213740458015,-0.32061068702290074,-3.2061068702290076
5276719433037,1.997910207,3,-0.23822306518554687,-0.5446808776855468,-8.941146099853515,-4.320610687022901,-0.25190839694656486,-3.1603053435114505
5276729447152,2.007924322,3,-0.22266075439453123,-0.47644613037109373,-8.985438830566405,-4.419847328244275,-0.3969465648854962,-3.1755725190839694
5276739452725,2.017929895,3,-0.19991583862304688,-0.5542576843261718,-8.935160595703124,-4.396946564885496,-0.2366412213740458,-3.1908396946564888
5276749450589,2.027927759,3,-0.20949264526367187,-0.5494692810058593,-8.95670841064453,-4.412213740458015,-0.35877862595419846,-3.122137404580153
5276759439287,2.037916457,3,-0.2166752502441406,-0.51714755859375,-8.965088116455078,-4.419847328244275,-0.2824427480916031,-3.1374045801526718
5276769444756,2.047921926,3,-0.239420166015625,-0.5758054992675781,-9.0021982421875,-4.450381679389313,-0.4580152671755725,-3.122137404580153
5276779476891,2.057954061,3,-0.17597382202148437,-0.5303156677246094,-8.919598284912109,-4.435114503816794,-0.25190839694656486,-3.1297709923664123
5276789453350,2.06793052,3,-0.21787235107421873,-0.5506663818359374,-8.894459167480468,-4.4961832061068705,-0.2824427480916031,-3.1297709923664123
5276799435693,2.077912863,3,-0.16519991455078123,-0.5710170959472656,-8.933963494873046,-4.419847328244275,-0.15267175572519084,-3.1603053435114505
5276809445954,2.087923124,3,-0.21188684692382811,-0.5446808776855468,-8.811859210205078,-4.3893129770992365,-0.3969465648854962,-3.1297709923664123
5276819445902,2.097923072,3,-0.17836802368164062,-0.5758054992675781,-8.945934503173827,-4.465648854961832,-0.2366412213740458,-3.145038167938931
5276829439495,2.107916665,3,-0.18435352783203124,-0.5626373901367188,-8.973467822265624,-4.358778625954199,-0.4198473282442748,-3.122137404580153
5276839460172,2.117937342,3,-0.24301146850585936,-0.5255272644042969,-8.850166436767578,-4.435114503816794,-0.21374045801526717,-3.183206106870229
5276849396475,2.127873645,3,-0.201112939453125,-0.5518634826660156,-8.911218579101561,-4.442748091603053,-0.3969465648854962,-3.2290076335877864
5276859446683,2.137923853,3,-0.23223756103515625,-0.47644613037109373,-8.951920007324219,-4.3893129770992365,-0.2748091603053435,-3.16793893129771
5276869449287,2.147926457,3,-0.21308394775390624,-0.5446808776855468,-8.876502655029297,-4.396946564885496,-0.33587786259541985,-3.16793893129771
5276879441422,2.157918592,3,-0.17238251953125,-0.5015852478027344,-8.921992486572265,-4.450381679389313,-0.22137404580152673,-3.1603053435114505
5276889447308,2.167924478,3,-0.22864625854492185,-0.51714755859375,-8.941146099853515,-4.3893129770992365,-0.3511450381679389,-3.1374045801526718
5276899484756,2.177961926,3,-0.15682020874023436,-0.6057330200195312,-8.948328704833983,-4.458015267175573,-0.24427480916030533,-3.122137404580153
5276909453506,2.187930676,3,-0.20231004028320312,-0.5363011718749999,-8.910021478271483,-4.404580152671755,-0.35877862595419846,-3.16793893129771
5276919438870,2.19791604,3,-0.2346317626953125,-0.5506663818359374,-8.967482318115234,-4.458015267175573,-0.25190839694656486,-3.1603053435114505
5276929443558,2.207920728,3,-0.20350714111328125,-0.5386953735351562,-8.967482318115234,-4.465648854961832,-0.33587786259541985,-3.1068702290076335
5276939448402,2.217925572,3,-0.1592144104003906,-0.5111620544433594,-8.901641772460938,-4.465648854961832,-0.25190839694656486,-3.1755725190839694
5276949443922,2.227921092,3,-0.16519991455078123,-0.5327098693847656,-8.895656268310546,-4.480916030534351,-0.3816793893129771,-3.145038167938931
5276959436631,2.237913801,3,-0.21787235107421873,-0.5470750793457031,-8.876502655029297,-4.3893129770992365,-0.2900763358778626,-3.213740458015267
5276969443766,2.247920936,3,-0.24899697265624998,-0.5698199951171875,-8.985438830566405,-4.366412213740458,-0.366412213740458,-3.145038167938931
5276979445485,2.257922655,3,-0.17357962036132812,-0.5147533569335937,-8.932766394042968,-4.3893129770992365,-0.22137404580152673,-3.099236641221374
5276989442620,2.26791979,3,-0.1867477294921875,-0.5746083984375,-8.88607946166992,-4.427480916030534,-0.2900763358778626,-3.1526717557251906
5276999462360,2.27793953,3,-0.19991583862304688,-0.6009446166992187,-8.91840118408203,-4.374045801526718,-0.25190839694656486,-3.145038167938931
5277009440225,2.287917395,3,-0.2154781494140625,-0.5327098693847656,-8.92438668823242,-4.351145038167939,-0.35877862595419846,-3.145038167938931
5277019435641,2.297912811,3,-0.17118541870117188,-0.5147533569335937,-8.961496813964843,-4.465648854961832,-0.24427480916030533,-3.1374045801526718
5277029453818,2.307930988,3,-0.20949264526367187,-0.5195417602539062,-8.96987651977539,-4.435114503816794,-0.3511450381679389,-3.213740458015267
5277039444599,2.317921769,3,-0.21428104858398436,-0.5386953735351562,-8.961496813964843,-4.473282442748092,-0.2900763358778626,-3.1068702290076335
5277049438766,2.327915936,3,-0.20829554443359374,-0.5339069702148437,-8.997409838867187,-4.465648854961832,-0.40458015267175573,-3.122137404580153
5277059442829,2.337919999,3,-0.19512743530273435,-0.5279214660644531,-8.968679418945312,-4.480916030534351,-0.183206106870229,-3.198473282442748
5277069445954,2.347923124,3,-0.1867477294921875,-0.584185205078125,-9.006986645507812,-4.465648854961832,-0.3053435114503817,-3.1068702290076335
5277079445433,2.357922603,3,-0.17118541870117188,-0.5339069702148437,-8.904035974121093,-4.442748091603053,-0.21374045801526717,-3.145038167938931
5277089444131,2.367921301,3,-0.19632453613281248,-0.5422866760253906,-8.902838873291016,-4.351145038167939,-0.366412213740458,-3.099236641221374
5277099441214,2.377918384,3,-0.20350714111328125,-0.5363011718749999,-8.972270721435546,-4.435114503816794,-0.2900763358778626,-3.16793893129771
5277109444599,2.387921769,3,-0.19393033447265623,-0.5734112976074218,-8.941146099853515,-4.465648854961832,-0.35877862595419846,-3.1068702290076335
5277119438714,2.397915884,3,-0.2154781494140625,-0.5159504577636719,-8.986635931396483,-4.396946564885496,-0.22900763358778625,-3.1603053435114505
5277129448506,2.407925676,3,-0.20709844360351562,-0.5255272644042969,-8.981847528076171,-4.396946564885496,-0.37404580152671757,-3.145038167938931
5277139439860,2.41791703,3,-0.201112939453125,-0.5039794494628906,-8.929175091552734,-4.404580152671755,-0.21374045801526717,-3.114503816793893
5277149413402,2.427890572,3,-0.16759411621093748,-0.5327098693847656,-8.950722906494141,-4.396946564885496,-0.3816793893129771,-3.1297709923664123
5277159466839,2.437944009,3,-0.26216508178710934,-0.5327098693847656,-8.9255837890625,-4.3893129770992365,-0.25190839694656486,-3.114503816793893
5277169455849,2.447933019,3,-0.1640028137207031,-0.5063736511230469,-8.93755479736328,-4.488549618320611,-0.3435114503816794,-3.1908396946564888
5277179444599,2.457921769,3,-0.22385785522460935,-0.5758054992675781,-9.005789544677734,-4.419847328244275,-0.24427480916030533,-3.0610687022900764
5277189467985,2.467945155,3,-0.1927332336425781,-0.4991910461425781,-9.028534460449219,-4.458015267175573,-0.3435114503816794,-3.1374045801526718
5277199455329,2.477932499,3,-0.2262520568847656,-0.5614402893066406,-8.921992486572265,-4.442748091603053,-0.2824427480916031,-3.183206106870229
5277209424079,2.487901249,3,-0.2501940734863281,-0.5398924743652344,-8.939948999023438,-4.450381679389313,-0.3282442748091603,-3.122137404580153
5277219459027,2.497936197,3,-0.1879448303222656,-0.5374982727050781,-8.935160595703124,-4.458015267175573,-0.2824427480916031,-3.183206106870229
5277229452047,2.507929217,3,-0.23582886352539062,-0.55545478515625,-8.968679418945312,-4.435114503816794,-0.33587786259541985,-3.1755725190839694
5277239445068,2.517922238,3,-0.20709844360351562,-0.5590460876464843,-8.968679418945312,-4.3816793893129775,-0.2366412213740458,-3.1603053435114505
5277249458610,2.52793578,3,-0.1867477294921875,-0.5710170959472656,-8.971073620605468,-4.435114503816794,-0.2748091603053435,-3.16793893129771
5277259446162,2.537923332,3,-0.19512743530273435,-0.5327098693847656,-8.990227233886719,-4.442748091603053,-0.20610687022900764,-3.1374045801526718
5277269450849,2.547928019,3,-0.18315642700195311,-0.5243301635742187,-8.94473740234375,-4.404580152671755,-0.3816793893129771,-3.1755725190839694
5277279445745,2.557922915,3,-0.15322890625,-0.5973533142089843,-8.905233074951171,-4.396946564885496,-0.2748091603053435,-3.1374045801526718
5277289455276,2.567932446,3,-0.20231004028320312,-0.5434837768554687,-8.968679418945312,-4.473282442748092,-0.3511450381679389,-3.1603053435114505
5277299443714,2.577920884,3,-0.16998831787109375,-0.5470750793457031,-8.914809881591797,-4.412213740458015,-0.22137404580152673,-3.1526717557251906
5277309451162,2.587928332,3,-0.22026655273437498,-0.5339069702148437,-8.917204083251953,-4.465648854961832,-0.3435114503816794,-3.1526717557251906
5277319449756,2.597926926,3,-0.21787235107421873,-0.5434837768554687,-8.890867864990234,-4.427480916030534,-0.3053435114503817,-3.122137404580153
5277329454183,2.607931353,3,-0.1867477294921875,-0.5087678527832031,-8.93156929321289,-4.435114503816794,-0.3511450381679389,-3.1297709923664123
5277339438506,2.617915676,3,-0.21068974609375,-0.5398924743652344,-8.966285217285156,-4.404580152671755,-0.2595419847328244,-3.16793893129771
5277349507256,2.627984426,3,-0.19991583862304688,-0.5602431884765625,-8.905233074951171,-4.412213740458015,-0.3969465648854962,-3.1374045801526718
5277359449235,2.637926405,3,-0.23223756103515625,-0.5327098693847656,-8.971073620605468,-4.4961832061068705,-0.24427480916030533,-3.1603053435114505
5277369454860,2.64793203,3,-0.23104046020507812,-0.5530605834960938,-8.91840118408203,-4.435114503816794,-0.3893129770992366,-3.1603053435114505
5277379442985,2.657920155,3,-0.21068974609375,-0.5602431884765625,-8.98304462890625,-4.404580152671755,-0.3053435114503817,-3.236641221374046
5277389454339,2.667931509,3,-0.18315642700195311,-0.565031591796875,-9.00100114135742,-4.396946564885496,-0.35877862595419846,-3.16793893129771
5277399446110,2.67792328,3,-0.24061726684570311,-0.5506663818359374,-8.947131604003905,-4.404580152671755,-0.33587786259541985,-3.16793893129771
5277409444599,2.687921769,3,-0.17597382202148437,-0.5470750793457031,-8.973467822265624,-4.435114503816794,-0.29770992366412213,-3.122137404580153
5277419460693,2.697937863,3,-0.20949264526367187,-0.5578489868164063,-8.951920007324219,-4.404580152671755,-0.33587786259541985,-3.2061068702290076
5277429449912,2.707927082,3,-0.2166752502441406,-0.5602431884765625,-8.896853369140624,-4.396946564885496,-0.366412213740458,-3.16793893129771
5277439448089,2.717925259,3,-0.20470424194335937,-0.5482721801757812,-8.921992486572265,-4.480916030534351,-0.2595419847328244,-3.16793893129771
5277449445797,2.727922967,3,-0.2741360900878906,-0.5398924743652344,-8.980650427246093,-4.473282442748092,-0.3282442748091603,-3.1526717557251906
5277459515641,2.737992811,3,-0.21787235107421873,-0.5159504577636719,-8.96269391479492,-4.4961832061068705,-0.2748091603053435,-3.1297709923664123
5277469454026,2.747931196,3,-0.23822306518554687,-0.6081272216796875,-8.957905511474609,-4.419847328244275,-0.366412213740458,-3.1755725190839694
5277479458610,2.75793578,3,-0.16160861206054686,-0.5363011718749999,-8.997409838867187,-4.427480916030534,-0.2595419847328244,-3.114503816793893
5277489453818,2.767930988,3,-0.22864625854492185,-0.5267243652343749,-8.876502655029297,-4.3893129770992365,-0.35877862595419846,-3.183206106870229
5277499384339,2.777861509,3,-0.19512743530273435,-0.46806642456054687,-8.888473663330078,-4.396946564885496,-0.2824427480916031,-3.1603053435114505
5277509459183,2.787936353,3,-0.1640028137207031,-0.5638344909667968,-8.981847528076171,-4.419847328244275,-0.3893129770992366,-3.2061068702290076
5277519449756,2.797926926,3,-0.20949264526367187,-0.5339069702148437,-8.961496813964843,-4.4961832061068705,-0.35877862595419846,-3.2061068702290076
5277529420120,2.80789729,3,-0.20350714111328125,-0.5758054992675781,-9.004592443847656,-4.488549618320611,-0.29770992366412213,-3.0916030534351147
5277539460745,2.817937915,3,-0.201112939453125,-0.5530605834960938,-8.963891015625,-4.435114503816794,-0.2595419847328244,-3.114503816793893
5277549449495,2.827926665,3,-0.181959326171875,-0.5207388610839844,-8.955511309814453,-4.366412213740458,-0.366412213740458,-3.099236641221374
5277559438610,2.83791578,3,-0.22864625854492185,-0.5674257934570313,-8.960299713134765,-4.450381679389313,-0.29770992366412213,-3.183206106870229
5277569452047,2.847929217,3,-0.17597382202148437,-0.5434837768554687,-8.94473740234375,-4.458015267175573,-0.25190839694656486,-3.1603053435114505
5277579442985,2.857920155,3,-0.23822306518554687,-0.5506663818359374,-8.94473740234375,-4.442748091603053,-0.25190839694656486,-3.1297709923664123
5277589432881,2.867910051,3,-0.20829554443359374,-0.5183446594238281,-8.913612780761719,-4.488549618320611,-0.32061068702290074,-3.1374045801526718
5277599469339,2.877946509,3,-0.1592144104003906,-0.5363011718749999,-8.932766394042968,-4.3893129770992365,-0.1984732824427481,-3.213740458015267
5277609449808,2.887926978,3,-0.21308394775390624,-0.5877765075683593,-8.92438668823242,-4.427480916030534,-0.25190839694656486,-3.16793893129771
5277619447672,2.897924842,3,-0.2154781494140625,-0.5255272644042969,-8.992621435546875,-4.3893129770992365,-0.31297709923664124,-3.16793893129771
5277629448610,2.90792578,3,-0.201112939453125,-0.5578489868164063,-8.926780889892578,-4.404580152671755,-0.3816793893129771,-3.145038167938931
5277639452151,2.917929321,3,-0.11731588134765625,-0.5255272644042969,-8.989030133056641,-4.3816793893129775,-0.32061068702290074,-3.122137404580153
5277649452360,2.92792953,3,-0.1879448303222656,-0.5781997009277343,-8.892064965820312,-4.488549618320611,-0.33587786259541985,-3.1603053435114505
5277659451578,2.937928748,3,-0.19871873779296872,-0.5470750793457031,-8.945934503173827,-4.374045801526718,-0.3435114503816794,-3.1374045801526718
5277669455589,2.947932759,3,-0.20350714111328125,-0.5315127685546874,-8.919598284912109,-4.427480916030534,-0.2366412213740458,-3.2442748091603053
5277679444808,2.957921978,3,-0.1927332336425781,-0.5027823486328125,-8.98304462890625,-4.404580152671755,-0.2900763358778626,-3.1068702290076335
5277689442568,2.967919738,3,-0.19033903198242186,-0.5686228942871093,-8.852560638427734,-4.488549618320611,-0.33587786259541985,-3.1603053435114505
5277699449651,2.977926821,3,-0.19153613281249998,-0.5542576843261718,-8.920795385742187,-4.427480916030534,-0.2824427480916031,-3.1068702290076335
5277709450068,2.987927238,3,-0.2154781494140625,-0.5770026000976562,-8.93755479736328,-4.442748091603053,-0.31297709923664124,-3.2290076335877864
5277719450485,2.997927655,3,-0.15442600708007811,-0.5315127685546874,-8.980650427246093,-4.374045801526718,-0.22137404580152673,-3.1526717557251906
5277729450797,3.007927967,3,-0.16879121704101563,-0.5626373901367188,-8.950722906494141,-4.473282442748092,-0.2595419847328244,-3.1755725190839694
5277739456891,3.017934061,3,-0.23223756103515625,-0.5147533569335937,-8.935160595703124,-4.33587786259542,-0.2595419847328244,-3.1297709923664123
5277749451422,3.027928592,3,-0.2561795776367187,-0.5422866760253906,-8.933963494873046,-4.450381679389313,-0.32061068702290074,-3.2290076335877864
5277759455641,3.037932811,3,-0.17238251953125,-0.5231330627441406,-8.90044467163086,-4.427480916030534,-0.32061068702290074,-3.122137404580153
5277769462203,3.047939373,3,-0.17477672119140625,-0.5470750793457031,-8.949525805664061,-4.435114503816794,-0.42748091603053434,-3.2213740458015265
5277779447464,3.057924634,3,-0.17597382202148437,-0.5758054992675781,-8.961496813964843,-4.396946564885496,-0.2824427480916031,-3.099236641221374
5277789447047,3.067924217,3,-0.24181436767578124,-0.5374982727050781,-8.942343200683593,-4.534351145038168,-0.26717557251908397,-3.1068702290076335
5277799450485,3.077927655,3,-0.21188684692382811,-0.5578489868164063,-8.959102612304687,-4.458015267175573,-0.2900763358778626,-3.1374045801526718
5277809452620,3.08792979,3,-0.18435352783203124,-0.5877765075683593,-8.981847528076171,-4.374045801526718,-0.4122137404580153,-3.1908396946564888
5277819445797,3.097922967,3,-0.229843359375,-0.5422866760253906,-8.979453326416015,-4.5038167938931295,-0.2366412213740458,-3.1526717557251906
5277829458453,3.107935623,3,-0.22266075439453123,-0.5590460876464843,-8.913612780761719,-4.374045801526718,-0.3893129770992366,-3.16793893129771
5277839379235,3.117856405,3,-0.1879448303222656,-0.51714755859375,-9.0021982421875,-4.488549618320611,-0.22900763358778625,-3.183206106870229
5277849470745,3.127947915,3,-0.17357962036132812,-0.5470750793457031,-8.949525805664061,-4.458015267175573,-0.3282442748091603,-3.122137404580153
5277859456526,3.137933696,3,-0.23582886352539062,-0.5865794067382812,-8.857349041748046,-4.488549618320611,-0.2595419847328244,-3.1526717557251906
5277869453297,3.147930467,3,-0.22266075439453123,-0.5051765502929687,-8.851363537597656,-4.450381679389313,-0.32061068702290074,-3.1755725190839694
5277879444755,3.157921925,3,-0.20231004028320312,-0.5195417602539062,-8.912415679931641,-4.3816793893129775,-0.25190839694656486,-3.1908396946564888
5277889449964,3.167927134,3,-0.1927332336425781,-0.5195417602539062,-8.914809881591797,-4.480916030534351,-0.3282442748091603,-3.183206106870229
5277899453297,3.177930467,3,-0.21308394775390624,-0.5255272644042969,-8.907627276611327,-4.450381679389313,-0.20610687022900764,-3.0916030534351147
5277909489182,3.187966352,3,-0.201112939453125,-0.5207388610839844,-8.941146099853515,-4.442748091603053,-0.3816793893129771,-3.213740458015267
5277919455745,3.197932915,3,-0.17477672119140625,-0.5207388610839844,-8.941146099853515,-4.450381679389313,-0.22900763358778625,-3.122137404580153
5277929460537,3.207937707,3,-0.20949264526367187,-0.5410895751953124,-8.968679418945312,-4.465648854961832,-0.3511450381679389,-3.145038167938931
5277939449755,3.217926925,3,-0.13766659545898435,-0.5626373901367188,-8.902838873291016,-4.404580152671755,-0.21374045801526717,-3.1755725190839694
5277949444547,3.227921717,3,-0.21428104858398436,-0.5458779785156249,-9.005789544677734,-4.404580152671755,-0.33587786259541985,-3.213740458015267
5277959449547,3.237926717,3,-0.22864625854492185,-0.5829881042480468,-9.00818374633789,-4.488549618320611,-0.2366412213740458,-3.1526717557251906
5277969449235,3.247926405,3,-0.24181436767578124,-0.5339069702148437,-9.009380847167968,-4.343511450381679,-0.3969465648854962,-3.122137404580153
5277979449912,3.257927082,3,-0.20949264526367187,-0.5722141967773438,-8.8872765625,-4.435114503816794,-0.19083969465648856,-3.183206106870229
5277989477985,3.267955155,3,-0.2597708801269531,-0.5746083984375,-8.920795385742187,-4.488549618320611,-0.3282442748091603,-3.1297709923664123
5277999448245,3.277925415,3,-0.22266075439453123,-0.5315127685546874,-8.943540301513671,-4.5038167938931295,-0.19083969465648856,-3.2061068702290076
5278009909235,3.288386405,3,-0.24660277099609373,-0.5638344909667968,-8.953117108154297,-4.442748091603053,-0.37404580152671757,-3.122137404580153
5278019531318,3.298008488,3,-0.1771709228515625,-0.5482721801757812,-8.89924757080078,-4.396946564885496,-0.19083969465648856,-3.236641221374046
5278029458870,3.30793604,3,-0.18315642700195311,-0.5758054992675781,-8.99501563720703,-4.396946564885496,-0.35877862595419846,-3.1603053435114505
5278039515432,3.317992602,3,-0.16759411621093748,-0.55545478515625,-8.974664923095702,-4.3893129770992365,-0.21374045801526717,-3.2290076335877864
5278049454026,3.327931196,3,-0.21787235107421873,-0.5793968017578125,-8.95670841064453,-4.374045801526718,-0.40458015267175573,-3.145038167938931
5278059450016,3.337927186,3,-0.21906945190429686,-0.5363011718749999,-8.954314208984375,-4.396946564885496,-0.22137404580152673,-3.114503816793893
5278069454651,3.347931821,3,-0.20231004028320312,-0.5410895751953124,-8.968679418945312,-4.473282442748092,-0.32061068702290074,-3.16793893129771
5278079415224,3.357892394,3,-0.24660277099609373,-0.5578489868164063,-8.913612780761719,-4.358778625954199,-0.20610687022900764,-3.1755725190839694
5278089407516,3.367884686,3,-0.239420166015625,-0.5578489868164063,-8.932766394042968,-4.4961832061068705,-0.3969465648854962,-3.1603053435114505
5278099456005,3.377933175,3,-0.1879448303222656,-0.5386953735351562,-8.926780889892578,-4.396946564885496,-0.20610687022900764,-3.1603053435114505
5278109457047,3.387934217,3,-0.17477672119140625,-0.5207388610839844,-8.991424334716797,-4.488549618320611,-0.3969465648854962,-3.2213740458015265
5278119439859,3.397917029,3,-0.23702596435546874,-0.5398924743652344,-8.882488159179687,-4.450381679389313,-0.2595419847328244,-3.183206106870229
5278129460328,3.407937498,3,-0.21308394775390624,-0.49799394531249996,-8.94473740234375,-4.404580152671755,-0.4122137404580153,-3.1526717557251906
5278139447984,3.417925154,3,-0.15442600708007811,-0.5279214660644531,-8.961496813964843,-4.412213740458015,-0.24427480916030533,-3.114503816793893
5278149451995,3.427929165,3,-0.1592144104003906,-0.5674257934570313,-8.974664923095702,-4.412213740458015,-0.4122137404580153,-3.114503816793893
5278159437724,3.437914894,3,-0.20709844360351562,-0.5889736083984375,-8.979453326416015,-4.396946564885496,-0.31297709923664124,-3.1603053435114505
5278169458297,3.447935467,3,-0.25139117431640623,-0.6009446166992187,-9.064447485351561,-4.435114503816794,-0.3435114503816794,-3.114503816793893
5278179439859,3.457917029,3,-0.19512743530273435,-0.5458779785156249,-9.036914166259765,-4.3893129770992365,-0.22137404580152673,-3.099236641221374
5278189451995,3.467929165,3,-0.24061726684570311,-0.5494692810058593,-8.913612780761719,-4.396946564885496,-0.4122137404580153,-3.114503816793893
5278199447568,3.477924738,3,-0.20231004028320312,-0.5446808776855468,-8.930372192382812,-4.3816793893129775,-0.29770992366412213,-3.16793893129771
5278209453974,3.487931144,3,-0.20949264526367187,-0.5746083984375,-9.017760552978515,-4.396946564885496,-0.3893129770992366,-3.1374045801526718
5278219447359,3.497924529,3,-0.2346317626953125,-0.5219359619140624,-8.942343200683593,-4.366412213740458,-0.25190839694656486,-3.2290076335877864
5278229450484,3.507927654,3,-0.20470424194335937,-0.5770026000976562,-8.95670841064453,-4.458015267175573,-0.4122137404580153,-3.2061068702290076
5278239464234,3.517941404,3,-0.24779987182617186,-0.5339069702148437,-8.943540301513671,-4.4961832061068705,-0.22137404580152673,-3.2213740458015265
5278249451734,3.527928904,3,-0.201112939453125,-0.5590460876464843,-8.948328704833983,-4.435114503816794,-0.366412213740458,-3.2290076335877864
5278259450797,3.537927967,3,-0.17956512451171874,-0.5674257934570313,-8.890867864990234,-4.435114503816794,-0.29770992366412213,-3.099236641221374
5278269449964,3.547927134,3,-0.22026655273437498,-0.5327098693847656,-8.987833032226561,-4.366412213740458,-0.3435114503816794,-3.145038167938931
5278280945276,3.559422446,3,-0.19393033447265623,-0.5159504577636719,-8.904035974121093,-4.419847328244275,-0.4122137404580153,-3.0839694656488548
5278291087412,3.569564582,3,-0.1867477294921875,-0.5710170959472656,-9.006986645507812,-4.427480916030534,-0.2824427480916031,-3.068702290076336
5278301076630,3.5795538,3,-0.23582886352539062,-0.5327098693847656,-8.926780889892578,-4.458015267175573,-0.3893129770992366,-3.122137404580153
5278311079964,3.589557134,3,-0.20709844360351562,-0.5063736511230469,-8.950722906494141,-4.450381679389313,-0.21374045801526717,-3.183206106870229
5278321034859,3.599512029,3,-0.1927332336425781,-0.4944026428222656,-8.920795385742187,-4.450381679389313,-0.26717557251908397,-3.1526717557251906
5278331075068,3.609552238,3,-0.18555062866210936,-0.5458779785156249,-8.910021478271483,-4.435114503816794,-0.2595419847328244,-3.2061068702290076
5278341068870,3.61954604,3,-0.21787235107421873,-0.488417138671875,-8.90643017578125,-4.343511450381679,-0.3511450381679389,-3.1297709923664123
5278351070693,3.629547863,3,-0.22505495605468748,-0.5506663818359374,-8.947131604003905,-4.427480916030534,-0.2366412213740458,-3.2061068702290076
5278361033974,3.639511144,3,-0.20470424194335937,-0.5374982727050781,-8.950722906494141,-4.396946564885496,-0.3511450381679389,-3.0916030534351147
5278371091995,3.649569165,3,-0.22864625854492185,-0.5207388610839844,-8.898050469970702,-4.450381679389313,-0.22137404580152673,-3.099236641221374
5278381090849,3.659568019,3,-0.201112939453125,-0.51714755859375,-8.914809881591797,-4.404580152671755,-0.29770992366412213,-3.1908396946564888
5278391070849,3.669548019,3,-0.2262520568847656,-0.49679684448242184,-8.967482318115234,-4.458015267175573,-0.22900763358778625,-3.2290076335877864
5278401044964,3.679522134,3,-0.19512743530273435,-0.5566518859863281,-8.935160595703124,-4.450381679389313,-0.26717557251908397,-3.1297709923664123
5278411071214,3.689548384,3,-0.20829554443359374,-0.5506663818359374,-8.930372192382812,-4.5038167938931295,-0.2366412213740458,-3.1068702290076335
5278421028401,3.699505571,3,-0.21906945190429686,-0.5027823486328125,-8.948328704833983,-4.3816793893129775,-0.32061068702290074,-3.1297709923664123
5278431035536,3.709512706,3,-0.12689268798828124,-0.5315127685546874,-8.992621435546875,-4.435114503816794,-0.3435114503816794,-3.16793893129771
5278441047672,3.719524842,3,-0.201112939453125,-0.5662286926269531,-8.90643017578125,-4.3893129770992365,-0.366412213740458,-3.16793893129771
5278451089703,3.729566873,3,-0.21428104858398436,-0.507570751953125,-8.990227233886719,-4.458015267175573,-0.2900763358778626,-3.1755725190839694
5278461040484,3.739517654,3,-0.2059013427734375,-0.5446808776855468,-8.941146099853515,-4.351145038167939,-0.3435114503816794,-3.1297709923664123
5278471131005,3.749608175,3,-0.17477672119140625,-0.5135562561035156,-8.89924757080078,-4.480916030534351,-0.2748091603053435,-3.122137404580153
5278481157568,3.759634738,3,-0.21787235107421873,-0.5183446594238281,-8.961496813964843,-4.427480916030534,-0.32061068702290074,-3.183206106870229
5278491069234,3.769546404,3,-0.1771709228515625,-0.565031591796875,-8.979453326416015,-4.465648854961832,-0.2748091603053435,-3.16793893129771
5278501044599,3.779521769,3,-0.19512743530273435,-0.5626373901367188,-8.953117108154297,-4.450381679389313,-0.33587786259541985,-3.16793893129771
5278511080172,3.789557342,3,-0.1771709228515625,-0.5255272644042969,-8.948328704833983,-4.450381679389313,-0.24427480916030533,-3.183206106870229
5278521020901,3.799498071,3,-0.17238251953125,-0.5506663818359374,-9.00818374633789,-4.366412213740458,-0.32061068702290074,-3.1603053435114505
5278531097828,3.809574998,3,-0.22505495605468748,-0.5602431884765625,-8.98304462890625,-4.458015267175573,-0.24427480916030533,-3.1908396946564888
5278541039703,3.819516873,3,-0.20231004028320312,-0.5374982727050781,-8.905233074951171,-4.404580152671755,-0.3969465648854962,-3.145038167938931
5278551073349,3.829550519,3,-0.1879448303222656,-0.4860229370117187,-9.006986645507812,-4.3816793893129775,-0.2824427480916031,-3.1603053435114505
5278561188766,3.839665936,3,-0.239420166015625,-0.5578489868164063,-9.05965908203125,-4.458015267175573,-0.33587786259541985,-3.1374045801526718
5278571074911,3.849552081,3,-0.19033903198242186,-0.5267243652343749,-9.010577947998046,-4.465648854961832,-0.2900763358778626,-3.2213740458015265
5278581074182,3.859551352,3,-0.15562310791015624,-0.5135562561035156,-8.95670841064453,-4.404580152671755,-0.3893129770992366,-3.1755725190839694
5278591092828,3.869569998,3,-0.24061726684570311,-0.5315127685546874,-8.936357696533202,-4.458015267175573,-0.26717557251908397,-3.16793893129771
5278601053557,3.879530727,3,-0.2214636535644531,-0.5135562561035156,-8.947131604003905,-4.473282442748092,-0.37404580152671757,-3.2061068702290076
5278611088922,3.889566092,3,-0.22505495605468748,-0.5434837768554687,-8.936357696533202,-4.526717557251908,-0.2900763358778626,-3.16793893129771
5278621034703,3.899511873,3,-0.21308394775390624,-0.5542576843261718,-9.011775048828124,-4.404580152671755,-0.33587786259541985,-3.1755725190839694
5278631070693,3.909547863,3,-0.17956512451171874,-0.5267243652343749,-8.920795385742187,-4.435114503816794,-0.25190839694656486,-3.1755725190839694
5278641034443,3.919511613,3,-0.23822306518554687,-0.5267243652343749,-8.949525805664061,-4.3893129770992365,-0.33587786259541985,-3.16793893129771
5278651064495,3.929541665,3,-0.19033903198242186,-0.5351040710449219,-8.961496813964843,-4.465648854961832,-0.26717557251908397,-3.2061068702290076
5278661047984,3.939525154,3,-0.22505495605468748,-0.5542576843261718,-8.88009395751953,-4.458015267175573,-0.3053435114503817,-3.1297709923664123
5278671065172,3.949542342,3,-0.22744915771484372,-0.55545478515625,-8.920795385742187,-4.3816793893129775,-0.2824427480916031,-3.1755725190839694
5278681091318,3.959568488,3,-0.19153613281249998,-0.5422866760253906,-8.93875189819336,-4.480916030534351,-0.3435114503816794,-3.145038167938931
5278691077724,3.969554894,3,-0.20829554443359374,-0.5099649536132812,-8.943540301513671,-4.4961832061068705,-0.29770992366412213,-3.16793893129771
5278701042828,3.979519998,3,-0.23702596435546874,-0.5410895751953124,-8.894459167480468,-4.396946564885496,-0.40458015267175573,-3.183206106870229
5278711091943,3.989569113,3,-0.19632453613281248,-0.5422866760253906,-8.98304462890625,-4.450381679389313,-0.3282442748091603,-3.1755725190839694
5278721039286,3.999516456,3,-0.23223756103515625,-0.55545478515625,-8.90044467163086,-4.442748091603053,-0.3282442748091603,-3.1374045801526718
5278731082932,4.009560102,3,-0.22744915771484372,-0.604535919189453,-8.912415679931641,-4.465648854961832,-0.2900763358778626,-3.16793893129771
5278741041318,4.019518488,3,-0.1879448303222656,-0.5363011718749999,-9.00818374633789,-4.435114503816794,-0.2900763358778626,-3.0916030534351147
5278751060120,4.02953729,3,-0.23223756103515625,-0.5542576843261718,-8.96987651977539,-4.442748091603053,-0.29770992366412213,-3.16793893129771
5278761054338,4.039531508,3,-0.1975216369628906,-0.5722141967773438,-8.972270721435546,-4.458015267175573,-0.366412213740458,-3.1908396946564888
5278771083245,4.049560415,3,-0.201112939453125,-0.5770026000976562,-8.953117108154297,-4.480916030534351,-0.33587786259541985,-3.145038167938931
5278781086213,4.059563383,3,-0.17118541870117188,-0.5207388610839844,-9.028534460449219,-4.419847328244275,-0.2366412213740458,-3.1374045801526718
5278791094911,4.069572081,3,-0.19632453613281248,-0.5770026000976562,-8.894459167480468,-4.465648854961832,-0.35877862595419846,-3.1374045801526718
5278801058974,4.079536144,3,-0.20231004028320312,-0.5710170959472656,-8.947131604003905,-4.419847328244275,-0.35877862595419846,-3.1908396946564888
5278811076995,4.089554165,3,-0.23223756103515625,-0.5339069702148437,-8.96987651977539,-4.549618320610687,-0.22900763358778625,-3.145038167938931
5278821033713,4.099510883,3,-0.22505495605468748,-0.5734112976074218,-8.989030133056641,-4.427480916030534,-0.22900763358778625,-3.122137404580153
5278831044963,4.109522133,3,-0.1771709228515625,-0.584185205078125,-8.948328704833983,-4.442748091603053,-0.26717557251908397,-3.099236641221374
5278841054182,4.119531352,3,-0.201112939453125,-0.5027823486328125,-8.916006982421875,-4.374045801526718,-0.26717557251908397,-3.122137404580153
5278851089651,4.129566821,3,-0.1975216369628906,-0.5626373901367188,-8.96987651977539,-4.419847328244275,-0.2748091603053435,-3.1603053435114505
5278861054286,4.139531456,3,-0.21188684692382811,-0.507570751953125,-9.024943157958983,-4.458015267175573,-0.2748091603053435,-3.0839694656488548
5278871153870,4.14963104,3,-0.18914193115234373,-0.565031591796875,-8.94473740234375,-4.427480916030534,-0.26717557251908397,-3.1297709923664123
5278881158401,4.159635571,3,-0.22744915771484372,-0.5746083984375,-8.898050469970702,-4.458015267175573,-0.40458015267175573,-3.1374045801526718
5278891091995,4.169569165,3,-0.16998831787109375,-0.49679684448242184,-8.908824377441405,-4.427480916030534,-0.31297709923664124,-3.114503816793893
5278901083088,4.179560258,3,-0.20231004028320312,-0.5865794067382812,-8.935160595703124,-4.358778625954199,-0.31297709923664124,-3.068702290076336
5278911072984,4.189550154,3,-0.18555062866210936,-0.5506663818359374,-8.921992486572265,-4.427480916030534,-0.29770992366412213,-3.145038167938931
5278921034703,4.199511873,3,-0.2166752502441406,-0.5566518859863281,-8.939948999023438,-4.427480916030534,-0.29770992366412213,-3.1908396946564888
5278931077776,4.209554946,3,-0.2154781494140625,-0.5710170959472656,-8.920795385742187,-4.419847328244275,-0.366412213740458,-3.1297709923664123
5278941021943,4.219499113,3,-0.17118541870117188,-0.5363011718749999,-8.8872765625,-4.427480916030534,-0.3053435114503817,-3.2290076335877864
5278951084703,4.229561873,3,-0.20470424194335937,-0.5195417602539062,-8.965088116455078,-4.526717557251908,-0.366412213740458,-3.0839694656488548
5278961025484,4.239502654,3,-0.1771709228515625,-0.5590460876464843,-8.92438668823242,-4.458015267175573,-0.26717557251908397,-3.1755725190839694
5278971074026,4.249551196,3,-0.17597382202148437,-0.5973533142089843,-8.963891015625,-4.404580152671755,-0.2595419847328244,-3.183206106870229
5278981048088,4.259525258,3,-0.21428104858398436,-0.5410895751953124,-8.945934503173827,-4.442748091603053,-0.2595419847328244,-3.1526717557251906
5278991081786,4.269558956,3,-0.1879448303222656,-0.5578489868164063,-9.020154754638671,-4.465648854961832,-0.35877862595419846,-3.0763358778625953
5279001043297,4.279520467,3,-0.21188684692382811,-0.5123591552734374,-8.96269391479492,-4.458015267175573,-0.2595419847328244,-3.122137404580153
5279011083661,4.289560831,3,-0.1771709228515625,-0.5099649536132812,-8.942343200683593,-4.465648854961832,-0.3969465648854962,-3.1755725190839694
5279021026995,4.299504165,3,-0.16160861206054686,-0.5243301635742187,-8.913612780761719,-4.3816793893129775,-0.3053435114503817,-3.0916030534351147
5279031061942,4.309539112,3,-0.21308394775390624,-0.5398924743652344,-8.936357696533202,-4.366412213740458,-0.33587786259541985,-3.1908396946564888
5279041065015,4.319542185,3,-0.19153613281249998,-0.5698199951171875,-8.87410845336914,-4.4961832061068705,-0.25190839694656486,-3.0839694656488548
5279051060432,4.329537602,3,-0.21308394775390624,-0.6105214233398437,-8.876502655029297,-4.435114503816794,-0.37404580152671757,-3.1755725190839694
5279061035588,4.339512758,3,-0.19632453613281248,-0.5710170959472656,-9.003395343017578,-4.412213740458015,-0.2900763358778626,-3.1068702290076335
5279071063661,4.349540831,3,-0.19033903198242186,-0.5506663818359374,-8.904035974121093,-4.564885496183206,-0.31297709923664124,-3.1068702290076335
5279080980224,4.359457394,3,-0.18914193115234373,-0.45968671875,-8.978256225585938,-4.465648854961832,-0.22900763358778625,-3.1068702290076335
5279091105276,4.369582446,3,-0.22026655273437498,-0.5398924743652344,-8.96987651977539,-4.480916030534351,-0.37404580152671757,-3.1297709923664123
5279101031005,4.379508175,3,-0.21068974609375,-0.5422866760253906,-9.003395343017578,-4.450381679389313,-0.25190839694656486,-3.0763358778625953
5279111073401,4.389550571,3,-0.17477672119140625,-0.5458779785156249,-8.86213744506836,-4.412213740458015,-0.32061068702290074,-3.1297709923664123
5279121038974,4.399516144,3,-0.21906945190429686,-0.5315127685546874,-8.963891015625,-4.465648854961832,-0.24427480916030533,-3.114503816793893
5279131062932,4.409540102,3,-0.17477672119140625,-0.6212953308105469,-8.898050469970702,-4.480916030534351,-0.3511450381679389,-3.1374045801526718
5279141041370,4.41951854,3,-0.229843359375,-0.5434837768554687,-8.984241729736327,-4.435114503816794,-0.25190839694656486,-3.1068702290076335
5279151077515,4.429554685,3,-0.1879448303222656,-0.5195417602539062,-8.94473740234375,-4.412213740458015,-0.3053435114503817,-3.145038167938931
5279161044338,4.439521508,3,-0.15682020874023436,-0.5339069702148437,-8.949525805664061,-4.32824427480916,-0.16793893129770993,-3.145038167938931
5279171094651,4.449571821,3,-0.19991583862304688,-0.4740519287109375,-8.87410845336914,-4.442748091603053,-0.42748091603053434,-3.213740458015267
5279181073765,4.459550935,3,-0.17118541870117188,-0.5722141967773438,-8.980650427246093,-4.4961832061068705,-0.1297709923664122,-3.198473282442748
5279191063922,4.469541092,3,-0.18435352783203124,-0.5398924743652344,-8.911218579101561,-4.442748091603053,-0.31297709923664124,-3.068702290076336
5279201084911,4.479562081,3,-0.20709844360351562,-0.5758054992675781,-8.90643017578125,-4.442748091603053,-0.2824427480916031,-3.1755725190839694
5279211052047,4.489529217,3,-0.1975216369628906,-0.5087678527832031,-8.850166436767578,-4.442748091603053,-0.3816793893129771,-3.16793893129771
5279221026682,4.499503852,3,-0.1927332336425781,-0.5506663818359374,-8.985438830566405,-4.419847328244275,-0.2748091603053435,-3.1908396946564888
5279231077984,4.509555154,3,-0.19991583862304688,-0.5195417602539062,-8.943540301513671,-4.442748091603053,-0.3511450381679389,-3.16793893129771
5279241026578,4.519503748,3,-0.229843359375,-0.5530605834960938,-8.892064965820312,-4.3893129770992365,-0.2595419847328244,-3.1603053435114505
5279251078088,4.529555258,3,-0.19991583862304688,-0.5183446594238281,-8.987833032226561,-4.358778625954199,-0.3893129770992366,-3.1603053435114505
5279260977984,4.539455154,3,-0.17118541870117188,-0.5243301635742187,-8.913612780761719,-4.366412213740458,-0.22900763358778625,-3.1755725190839694
5279271063349,4.549540519,3,-0.21428104858398436,-0.5267243652343749,-8.921992486572265,-4.427480916030534,-0.37404580152671757,-3.16793893129771
5279281008088,4.559485258,3,-0.17238251953125,-0.5219359619140624,-8.948328704833983,-4.5038167938931295,-0.25190839694656486,-3.16793893129771
5279291038922,4.569516092,3,-0.1927332336425781,-0.5530605834960938,-8.877699755859375,-4.374045801526718,-0.3816793893129771,-3.122137404580153
5279301043869,4.579521039,3,-0.16160861206054686,-0.5339069702148437,-9.02135185546875,-4.519083969465649,-0.22900763358778625,-3.145038167938931
5279311065484,4.589542654,3,-0.1867477294921875,-0.5398924743652344,-8.975862023925782,-4.450381679389313,-0.4732824427480916,-3.1297709923664123
5279321038557,4.599515727,3,-0.15203180541992187,-0.5710170959472656,-8.93755479736328,-4.458015267175573,-0.2595419847328244,-3.1374045801526718
5279330985432,4.609462602,3,-0.2166752502441406,-0.5793968017578125,-8.87410845336914,-4.419847328244275,-0.48091603053435117,-3.2213740458015265
5279341014547,4.619491717,3,-0.19991583862304688,-0.4644751220703125,-8.974664923095702,-4.3816793893129775,-0.3435114503816794,-3.16793893129771
5279351118869,4.629596039,3,-0.2346317626953125,-0.5339069702148437,-8.980650427246093,-4.412213740458015,-0.3816793893129771,-3.1526717557251906
5279361043453,4.639520623,3,-0.21906945190429686,-0.5267243652343749,-8.939948999023438,-4.404580152671755,-0.2824427480916031,-3.145038167938931
5279371064807,4.649541977,3,-0.18076222534179687,-0.5279214660644531,-8.892064965820312,-4.419847328244275,-0.35877862595419846,-3.1908396946564888
5279381035276,4.659512446,3,-0.20829554443359374,-0.5243301635742187,-8.954314208984375,-4.427480916030534,-0.2748091603053435,-3.16793893129771
5279391076786,4.669553956,3,-0.25258827514648435,-0.5339069702148437,-8.991424334716797,-4.412213740458015,-0.42748091603053434,-3.145038167938931
5279401027255,4.679504425,3,-0.2454056701660156,-0.5686228942871093,-8.972270721435546,-4.435114503816794,-0.25190839694656486,-3.1755725190839694
5279411066161,4.689543331,3,-0.20949264526367187,-0.5147533569335937,-8.984241729736327,-4.442748091603053,-0.3511450381679389,-3.2061068702290076
5279421063765,4.699540935,3,-0.229843359375,-0.5590460876464843,-8.917204083251953,-4.442748091603053,-0.2595419847328244,-3.1374045801526718
5279431077099,4.709554269,3,-0.19033903198242186,-0.5027823486328125,-9.03332286376953,-4.435114503816794,-0.35877862595419846,-3.16793893129771
5279441042151,4.719519321,3,-0.19991583862304688,-0.5363011718749999,-8.979453326416015,-4.412213740458015,-0.24427480916030533,-3.1908396946564888
5279451078244,4.729555414,3,-0.201112939453125,-0.5602431884765625,-8.942343200683593,-4.465648854961832,-0.37404580152671757,-3.2061068702290076
5279461079807,4.739556977,3,-0.17836802368164062,-0.5051765502929687,-8.981847528076171,-4.458015267175573,-0.2366412213740458,-3.1755725190839694
5279471056109,4.749533279,3,-0.20470424194335937,-0.5602431884765625,-8.979453326416015,-4.404580152671755,-0.3969465648854962,-3.1526717557251906
5279481020744,4.759497914,3,-0.2166752502441406,-0.5231330627441406,-8.935160595703124,-4.396946564885496,-0.2824427480916031,-3.099236641221374
5279491072515,4.769549685,3,-0.16998831787109375,-0.5865794067382812,-8.96987651977539,-4.3816793893129775,-0.33587786259541985,-3.145038167938931
5279501022359,4.779499529,3,-0.19871873779296872,-0.5889736083984375,-8.957905511474609,-4.3893129770992365,-0.20610687022900764,-3.122137404580153
5279511074078,4.789551248,3,-0.19512743530273435,-0.5291185668945312,-8.990227233886719,-4.419847328244275,-0.3969465648854962,-3.0763358778625953
5279521043713,4.799520883,3,-0.17357962036132812,-0.5303156677246094,-8.927977990722656,-4.435114503816794,-0.21374045801526717,-3.1603053435114505
5279531045640,4.80952281,3,-0.19991583862304688,-0.5674257934570313,-8.961496813964843,-4.404580152671755,-0.4122137404580153,-3.16793893129771
5279541026005,4.819503175,3,-0.17477672119140625,-0.5590460876464843,-8.932766394042968,-4.404580152671755,-0.2595419847328244,-3.0916030534351147
5279551974651,4.830451821,3,-0.22026655273437498,-0.5626373901367188,-8.98304462890625,-4.458015267175573,-0.2900763358778626,-3.145038167938931
5279561256317,4.839733487,3,-0.21188684692382811,-0.5219359619140624,-8.98304462890625,-4.458015267175573,-0.2900763358778626,-3.1603053435114505
5279571129130,4.8496063,3,-0.19991583862304688,-0.5207388610839844,-8.93875189819336,-4.511450381679389,-0.3435114503816794,-3.122137404580153
5279581012151,4.859489321,3,-0.21188684692382811,-0.5530605834960938,-8.863334545898438,-4.404580152671755,-0.2366412213740458,-3.0610687022900764
5279590449338,4.868926508,3,-0.19033903198242186,-0.5195417602539062,-8.967482318115234,-4.450381679389313,-0.32061068702290074,-3.0610687022900764
5279600460849,4.878938019,3,-0.2059013427734375,-0.5123591552734374,-8.921992486572265,-4.366412213740458,-0.26717557251908397,-3.198473282442748
5279610414130,4.8888913,3,-0.18555062866210936,-0.5422866760253906,-9.036914166259765,-4.442748091603053,-0.31297709923664124,-3.183206106870229
5279620407984,4.898885154,3,-0.17118541870117188,-0.5219359619140624,-8.910021478271483,-4.465648854961832,-0.1984732824427481,-3.2213740458015265
5279630413869,4.908891039,3,-0.21787235107421873,-0.5410895751953124,-8.911218579101561,-4.412213740458015,-0.21374045801526717,-3.1374045801526718
5279640453557,4.918930727,3,-0.20709844360351562,-0.5243301635742187,-8.942343200683593,-4.450381679389313,-0.183206106870229,-3.1526717557251906
5279650409494,4.928886664,3,-0.15682020874023436,-0.5590460876464843,-8.905233074951171,-4.412213740458015,-0.35877862595419846,-3.1374045801526718
5279660454338,4.938931508,3,-0.1771709228515625,-0.5566518859863281,-8.985438830566405,-4.3816793893129775,-0.2748091603053435,-3.1755725190839694
5279670410067,4.948887237,3,-0.25737667846679685,-0.5602431884765625,-8.917204083251953,-4.396946564885496,-0.3511450381679389,-3.1526717557251906
5279680405796,4.958882966,3,-0.16998831787109375,-0.5506663818359374,-8.917204083251953,-4.473282442748092,-0.26717557251908397,-3.145038167938931
5279691107828,4.969584998,3,-0.2059013427734375,-0.6009446166992187,-8.953117108154297,-4.427480916030534,-0.3969465648854962,-3.1374045801526718
5279701027932,4.979505102,3,-0.18076222534179687,-0.4908113403320312,-8.926780889892578,-4.419847328244275,-0.26717557251908397,-3.1755725190839694
5279711104703,4.989581873,3,-0.19393033447265623,-0.5638344909667968,-8.945934503173827,-4.442748091603053,-0.35877862595419846,-3.1755725190839694
5279721036942,4.999514112,3,-0.181959326171875,-0.4944026428222656,-8.957905511474609,-4.435114503816794,-0.3435114503816794,-3.114503816793893
5279731075432,5.009552602,3,-0.20829554443359374,-0.5494692810058593,-8.98304462890625,-4.366412213740458,-0.2900763358778626,-3.0916030534351147
5279741037046,5.019514216,3,-0.2154781494140625,-0.5470750793457031,-8.902838873291016,-4.412213740458015,-0.2900763358778626,-3.198473282442748
5279751063921,5.029541091,3,-0.20470424194335937,-0.5518634826660156,-9.04649097290039,-4.526717557251908,-0.366412213740458,-3.099236641221374
5279761024286,5.039501456,3,-0.24660277099609373,-0.46686932373046874,-8.978256225585938,-4.3816793893129775,-0.33587786259541985,-3.1755725190839694
5279771063453,5.049540623,3,-0.16519991455078123,-0.5303156677246094,-8.933963494873046,-4.458015267175573,-0.37404580152671757,-3.1526717557251906
5279781029703,5.059506873,3,-0.16759411621093748,-0.5051765502929687,-8.966285217285156,-4.419847328244275,-0.2366412213740458,-3.0916030534351147
5279791078661,5.069555831,3,-0.16639701538085935,-0.5351040710449219,-8.968679418945312,-4.412213740458015,-0.366412213740458,-3.1908396946564888
5279801014286,5.079491456,3,-0.1592144104003906,-0.5506663818359374,-8.963891015625,-4.465648854961832,-0.3282442748091603,-3.1297709923664123
5279811117723,5.089594893,3,-0.22266075439453123,-0.5578489868164063,-9.02733735961914,-4.435114503816794,-0.33587786259541985,-3.1068702290076335
5279821017151,5.099494321,3,-0.20829554443359374,-0.5434837768554687,-8.965088116455078,-4.450381679389313,-0.2366412213740458,-3.099236641221374
5279831062984,5.109540154,3,-0.21428104858398436,-0.5374982727050781,-8.957905511474609,-4.465648854961832,-0.33587786259541985,-3.145038167938931
5279841038088,5.119515258,3,-0.16759411621093748,-0.5039794494628906,-8.898050469970702,-4.4961832061068705,-0.37404580152671757,-3.145038167938931
5279851064442,5.129541612,3,-0.201112939453125,-0.5674257934570313,-8.91840118408203,-4.412213740458015,-0.32061068702290074,-3.1297709923664123
5279861033557,5.139510727,3,-0.17477672119140625,-0.5422866760253906,-8.986635931396483,-4.412213740458015,-0.21374045801526717,-3.0916030534351147
5279871086525,5.149563695,3,-0.23702596435546874,-0.5374982727050781,-8.86213744506836,-4.419847328244275,-0.22137404580152673,-3.122137404580153
5279881020588,5.159497758,3,-0.21308394775390624,-0.5410895751953124,-8.949525805664061,-4.442748091603053,-0.2900763358778626,-3.1068702290076335
5279891059442,5.169536612,3,-0.16879121704101563,-0.5386953735351562,-8.910021478271483,-4.3893129770992365,-0.29770992366412213,-3.16793893129771
5279901032463,5.179509633,3,-0.15322890625,-0.55545478515625,-8.905233074951171,-4.412213740458015,-0.2595419847328244,-3.1526717557251906
5279911392775,5.189869945,3,-0.17597382202148437,-0.5518634826660156,-8.929175091552734,-4.458015267175573,-0.3282442748091603,-3.099236641221374
5279921112567,5.199589737,3,-0.1879448303222656,-0.5985504150390625,-8.974664923095702,-4.412213740458015,-0.3282442748091603,-3.0916030534351147
5279931072567,5.209549737,3,-0.1927332336425781,-0.5470750793457031,-8.951920007324219,-4.404580152671755,-0.3511450381679389,-3.114503816793893
5279941051838,5.219529008,3,-0.201112939453125,-0.5506663818359374,-8.986635931396483,-4.450381679389313,-0.2900763358778626,-3.198473282442748
5279951078869,5.229556039,3,-0.20709844360351562,-0.5458779785156249,-8.961496813964843,-4.427480916030534,-0.3435114503816794,-3.1526717557251906
5279961022255,5.239499425,3,-0.20350714111328125,-0.5231330627441406,-8.979453326416015,-4.419847328244275,-0.2824427480916031,-3.183206106870229
5279971072307,5.249549477,3,-0.22385785522460935,-0.5446808776855468,-8.914809881591797,-4.442748091603053,-0.3435114503816794,-3.1526717557251906
5279981011473,5.259488643,3,-0.24660277099609373,-0.5303156677246094,-9.048885174560546,-4.473282442748092,-0.25190839694656486,-3.2061068702290076
5279991078348,5.269555518,3,-0.2059013427734375,-0.5183446594238281,-8.993818536376953,-4.488549618320611,-0.35877862595419846,-3.1526717557251906
5280001020067,5.279497237,3,-0.19393033447265623,-0.5590460876464843,-9.018957653808593,-4.396946564885496,-0.2824427480916031,-3.1374045801526718
5280011109025,5.289586195,3,-0.17477672119140625,-0.5566518859863281,-8.853757739257812,-4.427480916030534,-0.3816793893129771,-3.1526717557251906
5280021039598,5.299516768,3,-0.2561795776367187,-0.48123453369140623,-8.978256225585938,-4.3816793893129775,-0.366412213740458,-3.145038167938931
5280031085223,5.309562393,3,-0.22385785522460935,-0.55545478515625,-8.961496813964843,-4.396946564885496,-0.40458015267175573,-3.198473282442748
5280041027463,5.319504633,3,-0.19512743530273435,-0.5111620544433594,-8.910021478271483,-4.473282442748092,-0.2595419847328244,-3.122137404580153
5280051086421,5.329563591,3,-0.22505495605468748,-0.5183446594238281,-8.943540301513671,-4.5038167938931295,-0.3511450381679389,-3.1297709923664123
5280060983140,5.33946031,3,-0.20709844360351562,-0.5135562561035156,-8.996212738037109,-4.450381679389313,-0.3816793893129771,-3.114503816793893
5280070995744,5.349472914,3,-0.2166752502441406,-0.5279214660644531,-8.913612780761719,-4.442748091603053,-0.366412213740458,-3.1603053435114505
5280081049911,5.359527081,3,-0.1640028137207031,-0.5219359619140624,-8.939948999023438,-4.404580152671755,-0.3282442748091603,-3.183206106870229
5280091080432,5.369557602,3,-0.21906945190429686,-0.5422866760253906,-9.02733735961914,-4.427480916030534,-0.3969465648854962,-3.145038167938931
5280101034442,5.379511612,3,-0.19991583862304688,-0.5243301635742187,-8.98304462890625,-4.480916030534351,-0.2748091603053435,-3.114503816793893
5280111078921,5.389556091,3,-0.16998831787109375,-0.5506663818359374,-8.963891015625,-4.480916030534351,-0.33587786259541985,-3.0839694656488548
5280121046734,5.399523904,3,-0.20231004028320312,-0.5422866760253906,-8.908824377441405,-4.404580152671755,-0.32061068702290074,-3.1603053435114505
5280131069546,5.409546716,3,-0.20231004028320312,-0.565031591796875,-8.96269391479492,-4.435114503816794,-0.2900763358778626,-3.114503816793893
5280141035952,5.419513122,3,-0.16998831787109375,-0.565031591796875,-8.939948999023438,-4.366412213740458,-0.22900763358778625,-3.1068702290076335
5280151069650,5.42954682,3,-0.18435352783203124,-0.5219359619140624,-9.020154754638671,-4.450381679389313,-0.2824427480916031,-3.1526717557251906
5280161045327,5.439522497,3,-0.2166752502441406,-0.5734112976074218,-8.921992486572265,-4.3893129770992365,-0.2748091603053435,-3.1297709923664123
5280171063296,5.449540466,3,-0.20709844360351562,-0.5602431884765625,-8.965088116455078,-4.458015267175573,-0.35877862595419846,-3.1374045801526718
5280181032515,5.459509685,3,-0.1975216369628906,-0.5303156677246094,-9.028534460449219,-4.320610687022901,-0.22137404580152673,-3.1297709923664123
5280191094130,5.4695713,3,-0.2059013427734375,-0.5770026000976562,-8.929175091552734,-4.374045801526718,-0.33587786259541985,-3.145038167938931
5280201025536,5.479502706,3,-0.22864625854492185,-0.5734112976074218,-8.954314208984375,-4.480916030534351,-0.3053435114503817,-3.1526717557251906
5280211082098,5.489559268,3,-0.19393033447265623,-0.565031591796875,-8.99501563720703,-4.458015267175573,-0.3511450381679389,-3.122137404580153
5280221041317,5.499518487,3,-0.18076222534179687,-0.5602431884765625,-8.92438668823242,-4.396946564885496,-0.2595419847328244,-3.1068702290076335
5280231073921,5.509551091,3,-0.1879448303222656,-0.49320554199218747,-8.945934503173827,-4.488549618320611,-0.37404580152671757,-3.1755725190839694
5280241036838,5.519514008,3,-0.14484920043945312,-0.5614402893066406,-8.961496813964843,-4.396946564885496,-0.29770992366412213,-3.1374045801526718
5280251074025,5.529551195,3,-0.22266075439453123,-0.49679684448242184,-8.966285217285156,-4.419847328244275,-0.3282442748091603,-3.1755725190839694
5280261027046,5.539504216,3,-0.14484920043945312,-0.5267243652343749,-8.998606939697265,-4.442748091603053,-0.2748091603053435,-3.1297709923664123
5280271081265,5.549558435,3,-0.1867477294921875,-0.5482721801757812,-8.942343200683593,-4.442748091603053,-0.2824427480916031,-3.1603053435114505
5280280999442,5.559476612,3,-0.23702596435546874,-0.5542576843261718,-8.975862023925782,-4.5038167938931295,-0.26717557251908397,-3.1603053435114505
5280291098973,5.569576143,3,-0.20949264526367187,-0.5746083984375,-9.00818374633789,-4.442748091603053,-0.3053435114503817,-3.1526717557251906
5280301033296,5.579510466,3,-0.19991583862304688,-0.5686228942871093,-8.920795385742187,-4.419847328244275,-0.3282442748091603,-3.16793893129771
5280311062098,5.589539268,3,-0.2059013427734375,-0.5686228942871093,-8.902838873291016,-4.435114503816794,-0.3816793893129771,-3.183206106870229
5280320985536,5.599462706,3,-0.14604630126953125,-0.5231330627441406,-8.961496813964843,-4.374045801526718,-0.22900763358778625,-3.183206106870229
5280331074338,5.609551508,3,-0.19393033447265623,-0.5087678527832031,-8.882488159179687,-4.427480916030534,-0.37404580152671757,-3.1603053435114505
5280341031838,5.619509008,3,-0.16879121704101563,-0.5351040710449219,-8.96987651977539,-4.465648854961832,-0.25190839694656486,-3.1603053435114505
5280351085275,5.629562445,3,-0.1867477294921875,-0.5494692810058593,-8.974664923095702,-4.480916030534351,-0.4122137404580153,-3.1297709923664123
5280361028348,5.639505518,3,-0.2059013427734375,-0.5746083984375,-8.99501563720703,-4.450381679389313,-0.2748091603053435,-3.2748091603053435
5280371083244,5.649560414,3,-0.201112939453125,-0.5686228942871093,-8.963891015625,-4.450381679389313,-0.3435114503816794,-3.2061068702290076
5280381026682,5.659503852,3,-0.21068974609375,-0.5506663818359374,-8.959102612304687,-4.3816793893129775,-0.2900763358778626,-3.122137404580153
5280391080119,5.669557289,3,-0.2549824768066406,-0.5614402893066406,-8.98304462890625,-4.404580152671755,-0.33587786259541985,-3.1908396946564888
5280401033244,5.679510414,3,-0.17597382202148437,-0.488417138671875,-8.943540301513671,-4.419847328244275,-0.25190839694656486,-3.267175572519084
5280411069338,5.689546508,3,-0.2166752502441406,-0.5339069702148437,-8.981847528076171,-4.427480916030534,-0.40458015267175573,-3.1374045801526718
5280421032411,5.699509581,3,-0.19153613281249998,-0.5602431884765625,-8.910021478271483,-4.404580152671755,-0.24427480916030533,-3.183206106870229
5280431080692,5.709557862,3,-0.2059013427734375,-0.5662286926269531,-8.973467822265624,-4.458015267175573,-0.35877862595419846,-3.1068702290076335
5280441037254,5.719514424,3,-0.21308394775390624,-0.5638344909667968,-8.960299713134765,-4.450381679389313,-0.24427480916030533,-3.1068702290076335
5280451073661,5.729550831,3,-0.2166752502441406,-0.5219359619140624,-8.930372192382812,-4.458015267175573,-0.35877862595419846,-3.1755725190839694
5280461028296,5.739505466,3,-0.20350714111328125,-0.5482721801757812,-8.935160595703124,-4.442748091603053,-0.25190839694656486,-3.1755725190839694
5280471109494,5.749586664,3,-0.2166752502441406,-0.5758054992675781,-9.039308367919922,-4.458015267175573,-0.2900763358778626,-3.2061068702290076
5280481090640,5.75956781,3,-0.19393033447265623,-0.5374982727050781,-8.975862023925782,-4.435114503816794,-0.24427480916030533,-3.1755725190839694
5280491090900,5.76956807,3,-0.16759411621093748,-0.5638344909667968,-8.921992486572265,-4.427480916030534,-0.37404580152671757,-3.1755725190839694
5280501033036,5.779510206,3,-0.21308394775390624,-0.5494692810058593,-8.953117108154297,-4.480916030534351,-0.22137404580152673,-3.1755725190839694
5280511094911,5.789572081,3,-0.18435352783203124,-0.5279214660644531,-8.905233074951171,-4.480916030534351,-0.37404580152671757,-3.145038167938931
5280521035588,5.799512758,3,-0.1927332336425781,-0.5566518859863281,-8.916006982421875,-4.374045801526718,-0.24427480916030533,-3.145038167938931
5280531075848,5.809553018,3,-0.1879448303222656,-0.5398924743652344,-9.017760552978515,-4.473282442748092,-0.3893129770992366,-3.1526717557251906
5280541012254,5.819489424,3,-0.23104046020507812,-0.5698199951171875,-8.917204083251953,-4.404580152671755,-0.2366412213740458,-3.1526717557251906
5280551058192,5.829535362,3,-0.2166752502441406,-0.5805939025878906,-8.97705912475586,-4.465648854961832,-0.366412213740458,-3.0916030534351147
5280561091369,5.839568539,3,-0.25139117431640623,-0.5279214660644531,-8.991424334716797,-4.458015267175573,-0.21374045801526717,-3.1374045801526718
5280570926577,5.849403747,3,-0.19512743530273435,-0.5303156677246094,-8.974664923095702,-4.396946564885496,-0.35877862595419846,-3.1374045801526718
5280581036838,5.859514008,3,-0.17836802368164062,-0.5219359619140624,-8.87410845336914,-4.480916030534351,-0.25190839694656486,-3.1526717557251906
5280591140171,5.869617341,3,-0.17956512451171874,-0.5207388610839844,-8.93875189819336,-4.435114503816794,-0.4122137404580153,-3.1603053435114505
5280601013140,5.87949031,3,-0.21787235107421873,-0.584185205078125,-8.980650427246093,-4.351145038167939,-0.22137404580152673,-3.1603053435114505
5280611062723,5.889539893,3,-0.21308394775390624,-0.4955997436523437,-9.0021982421875,-4.351145038167939,-0.366412213740458,-3.1374045801526718
5280621009754,5.899486924,3,-0.19871873779296872,-0.55545478515625,-8.933963494873046,-4.412213740458015,-0.24427480916030533,-3.1374045801526718
5280631064754,5.909541924,3,-0.24779987182617186,-0.5602431884765625,-8.971073620605468,-4.488549618320611,-0.3282442748091603,-3.2290076335877864
5280641028713,5.919505883,3,-0.20231004028320312,-0.5363011718749999,-8.881291058349609,-4.450381679389313,-0.22900763358778625,-3.2290076335877864
5280651069598,5.929546768,3,-0.21428104858398436,-0.49320554199218747,-9.012972149658202,-4.480916030534351,-0.3893129770992366,-3.099236641221374
5280661061525,5.939538695,3,-0.1867477294921875,-0.5686228942871093,-8.90643017578125,-4.458015267175573,-0.19083969465648856,-3.099236641221374
5280671076421,5.949553591,3,-0.24061726684570311,-0.5386953735351562,-8.997409838867187,-4.480916030534351,-0.3435114503816794,-3.114503816793893
5280681021473,5.959498643,3,-0.181959326171875,-0.5494692810058593,-8.960299713134765,-4.465648854961832,-0.25190839694656486,-3.1755725190839694
5280691098556,5.969575726,3,-0.20470424194335937,-0.5925649108886718,-8.966285217285156,-4.404580152671755,-0.3893129770992366,-3.16793893129771
5280701033088,5.979510258,3,-0.15562310791015624,-0.5243301635742187,-8.966285217285156,-4.458015267175573,-0.22900763358778625,-3.16793893129771
5280711057098,5.989534268,3,-0.18555062866210936,-0.5315127685546874,-8.93755479736328,-4.396946564885496,-0.33587786259541985,-3.1526717557251906
5280721035067,5.999512237,3,-0.22505495605468748,-0.5494692810058593,-8.884882360839843,-4.419847328244275,-0.29770992366412213,-3.145038167938931
5280731093973,6.009571143,3,-0.19153613281249998,-0.5746083984375,-8.920795385742187,-4.374045801526718,-0.3435114503816794,-3.099236641221374
5280741013921,6.019491091,3,-0.14963760375976562,-0.5770026000976562,-8.912415679931641,-4.396946564885496,-0.32061068702290074,-3.114503816793893
5280751081213,6.029558383,3,-0.2262520568847656,-0.5339069702148437,-8.97705912475586,-4.458015267175573,-0.32061068702290074,-3.114503816793893
5280761034650,6.03951182,3,-0.19393033447265623,-0.5207388610839844,-8.96987651977539,-4.419847328244275,-0.2900763358778626,-3.1374045801526718
5280771068765,6.049545935,3,-0.19871873779296872,-0.5698199951171875,-8.957905511474609,-4.442748091603053,-0.37404580152671757,-3.1374045801526718
5280781031108,6.059508278,3,-0.22744915771484372,-0.5530605834960938,-8.975862023925782,-4.442748091603053,-0.29770992366412213,-3.1603053435114505
5280791126213,6.069603383,3,-0.23104046020507812,-0.5865794067382812,-8.974664923095702,-4.396946564885496,-0.29770992366412213,-3.1526717557251906
5280801031577,6.079508747,3,-0.17836802368164062,-0.5494692810058593,-8.825027319335938,-4.435114503816794,-0.2595419847328244,-3.1526717557251906
5280811132150,6.08960932,3,-0.23582886352539062,-0.5770026000976562,-8.97705912475586,-4.488549618320611,-0.3893129770992366,-3.1755725190839694
5280821061786,6.099538956,3,-0.18315642700195311,-0.5135562561035156,-8.986635931396483,-4.480916030534351,-0.25190839694656486,-3.0610687022900764
5280831017671,6.109494841,3,-0.201112939453125,-0.5267243652343749,-9.00100114135742,-4.5038167938931295,-0.29770992366412213,-3.183206106870229
5280841036108,6.119513278,3,-0.13646949462890623,-0.5339069702148437,-8.89924757080078,-4.458015267175573,-0.21374045801526717,-3.145038167938931
5280851088452,6.129565622,3,-0.19153613281249998,-0.55545478515625,-8.993818536376953,-4.419847328244275,-0.3435114503816794,-3.1526717557251906
5280861036473,6.139513643,3,-0.1484405029296875,-0.5578489868164063,-8.967482318115234,-4.4961832061068705,-0.29770992366412213,-3.1374045801526718
5280871075119,6.149552289,3,-0.16160861206054686,-0.5530605834960938,-9.024943157958983,-4.480916030534351,-0.3435114503816794,-3.1755725190839694
5280881049806,6.159526976,3,-0.2059013427734375,-0.5458779785156249,-8.929175091552734,-4.419847328244275,-0.2366412213740458,-3.16793893129771
5280891074077,6.169551247,3,-0.2609679809570312,-0.5159504577636719,-9.004592443847656,-4.366412213740458,-0.37404580152671757,-3.114503816793893
5280901084129,6.179561299,3,-0.21428104858398436,-0.5770026000976562,-8.904035974121093,-4.3893129770992365,-0.20610687022900764,-3.1068702290076335
5280911071421,6.189548591,3,-0.20949264526367187,-0.5542576843261718,-8.90044467163086,-4.442748091603053,-0.3511450381679389,-3.1374045801526718
5280921028921,6.199506091,3,-0.22864625854492185,-0.5051765502929687,-8.949525805664061,-4.435114503816794,-0.2824427480916031,-3.2061068702290076
5280931064858,6.209542028,3,-0.2214636535644531,-0.5255272644042969,-8.929175091552734,-4.4961832061068705,-0.29770992366412213,-3.0839694656488548
5280941039911,6.219517081,3,-0.2442085693359375,-0.5315127685546874,-8.88607946166992,-4.427480916030534,-0.2366412213740458,-3.16793893129771
5280951069546,6.229546716,3,-0.20470424194335937,-0.5686228942871093,-8.961496813964843,-4.396946564885496,-0.4122137404580153,-3.145038167938931
5280961035015,6.239512185,3,-0.19393033447265623,-0.5386953735351562,-8.93875189819336,-4.419847328244275,-0.2748091603053435,-3.145038167938931
5280971065744,6.249542914,3,-0.22505495605468748,-0.5758054992675781,-8.902838873291016,-4.427480916030534,-0.3511450381679389,-3.114503816793893
5280981010640,6.25948781,3,-0.18435352783203124,-0.5351040710449219,-8.89924757080078,-4.412213740458015,-0.31297709923664124,-3.183206106870229
5280991084129,6.269561299,3,-0.20231004028320312,-0.5446808776855468,-8.926780889892578,-4.412213740458015,-0.3893129770992366,-3.1068702290076335
5281001032827,6.279509997,3,-0.23702596435546874,-0.5159504577636719,-9.018957653808593,-4.3816793893129775,-0.2748091603053435,-3.1526717557251906
5281011053192,6.289530362,3,-0.20350714111328125,-0.6057330200195312,-8.96269391479492,-4.419847328244275,-0.32061068702290074,-3.122137404580153
5281021024129,6.299501299,3,-0.2166752502441406,-0.5698199951171875,-8.941146099853515,-4.412213740458015,-0.20610687022900764,-3.1526717557251906
5281031059442,6.309536612,3,-0.229843359375,-0.5219359619140624,-8.980650427246093,-4.366412213740458,-0.3435114503816794,-3.1526717557251906
5281041035431,6.319512601,3,-0.23343466186523437,-0.4860229370117187,-8.93875189819336,-4.396946564885496,-0.2595419847328244,-3.099236641221374
5281051061681,6.329538851,3,-0.16519991455078123,-0.5315127685546874,-8.936357696533202,-4.427480916030534,-0.2748091603053435,-3.16793893129771
5281061020223,6.339497393,3,-0.20470424194335937,-0.5195417602539062,-8.951920007324219,-4.3816793893129775,-0.25190839694656486,-3.122137404580153
5281071064858,6.349542028,3,-0.22744915771484372,-0.5219359619140624,-8.93755479736328,-4.427480916030534,-0.3816793893129771,-3.053435114503817
5281081002358,6.359479528,3,-0.1879448303222656,-0.5997475158691405,-9.026140258789061,-4.427480916030534,-0.2824427480916031,-3.1297709923664123
5281091109650,6.36958682,3,-0.18076222534179687,-0.5434837768554687,-8.997409838867187,-4.351145038167939,-0.3969465648854962,-3.145038167938931
5281101034494,6.379511664,3,-0.23104046020507812,-0.5147533569335937,-8.930372192382812,-4.412213740458015,-0.32061068702290074,-3.1755725190839694
5281111060483,6.389537653,3,-0.15562310791015624,-0.5099649536132812,-8.992621435546875,-4.3893129770992365,-0.29770992366412213,-3.114503816793893
5281121035067,6.399512237,3,-0.2214636535644531,-0.5303156677246094,-8.86213744506836,-4.3893129770992365,-0.21374045801526717,-3.145038167938931
5281131067410,6.40954458,3,-0.1640028137207031,-0.5494692810058593,-8.942343200683593,-4.435114503816794,-0.24427480916030533,-3.122137404580153
5281141024963,6.419502133,3,-0.17956512451171874,-0.5303156677246094,-9.005789544677734,-4.450381679389313,-0.3435114503816794,-3.2213740458015265
5281151084181,6.429561351,3,-0.17836802368164062,-0.5147533569335937,-8.929175091552734,-4.4961832061068705,-0.3511450381679389,-3.1297709923664123
5281161040275,6.439517445,3,-0.20231004028320312,-0.5578489868164063,-8.963891015625,-4.396946564885496,-0.3435114503816794,-3.114503816793893
5281171064806,6.449541976,3,-0.21428104858398436,-0.5255272644042969,-8.8872765625,-4.396946564885496,-0.21374045801526717,-3.1374045801526718
5281180993556,6.459470726,3,-0.19153613281249998,-0.48722003784179685,-8.89924757080078,-4.3893129770992365,-0.16793893129770993,-3.0839694656488548
5281191062931,6.469540101,3,-0.2154781494140625,-0.5267243652343749,-8.95670841064453,-4.3816793893129775,-0.37404580152671757,-3.1374045801526718
5281201037306,6.479514476,3,-0.19871873779296872,-0.5889736083984375,-8.948328704833983,-4.435114503816794,-0.3435114503816794,-3.1526717557251906
5281211041525,6.489518695,3,-0.20231004028320312,-0.5374982727050781,-8.851363537597656,-4.3893129770992365,-0.35877862595419846,-3.198473282442748
5281221027619,6.499504789,3,-0.19512743530273435,-0.5386953735351562,-8.913612780761719,-4.419847328244275,-0.366412213740458,-3.0763358778625953
5281231068817,6.509545987,3,-0.23104046020507812,-0.5889736083984375,-8.89924757080078,-4.435114503816794,-0.2824427480916031,-3.122137404580153
5281241015640,6.51949281,3,-0.18076222534179687,-0.5267243652343749,-9.023746057128905,-4.366412213740458,-0.26717557251908397,-3.1374045801526718
5281251056994,6.529534164,3,-0.2154781494140625,-0.5973533142089843,-8.941146099853515,-4.351145038167939,-0.2900763358778626,-3.1755725190839694
5281261006369,6.539483539,3,-0.18435352783203124,-0.5602431884765625,-8.96987651977539,-4.3893129770992365,-0.33587786259541985,-3.1068702290076335
5281271049546,6.549526716,3,-0.17477672119140625,-0.5279214660644531,-8.929175091552734,-4.3893129770992365,-0.2748091603053435,-3.1755725190839694
5281281019650,6.55949682,3,-0.19393033447265623,-0.5410895751953124,-8.93875189819336,-4.480916030534351,-0.2824427480916031,-3.1755725190839694
5281291065535,6.569542705,3,-0.19632453613281248,-0.5770026000976562,-8.871714251708983,-4.480916030534351,-0.35877862595419846,-3.068702290076336
5281301010744,6.579487914,3,-0.1484405029296875,-0.5590460876464843,-8.966285217285156,-4.450381679389313,-0.26717557251908397,-3.1755725190839694
5281310934546,6.589411716,3,-0.21428104858398436,-0.5458779785156249,-8.930372192382812,-4.480916030534351,-0.33587786259541985,-3.1526717557251906
5281321044129,6.599521299,3,-0.22505495605468748,-0.4800374328613281,-8.99501563720703,-4.3893129770992365,-0.33587786259541985,-3.1297709923664123
5281331067410,6.60954458,3,-0.181959326171875,-0.5518634826660156,-8.961496813964843,-4.458015267175573,-0.32061068702290074,-3.1297709923664123
5281341001265,6.619478435,3,-0.21068974609375,-0.5829881042480468,-8.917204083251953,-4.404580152671755,-0.32061068702290074,-3.0381679389312977
5281351058348,6.629535518,3,-0.18076222534179687,-0.5374982727050781,-8.975862023925782,-4.412213740458015,-0.3816793893129771,-3.1908396946564888
5281361073921,6.639551091,3,-0.19393033447265623,-0.5829881042480468,-8.974664923095702,-4.488549618320611,-0.32061068702290074,-3.114503816793893
5281371059546,6.649536716,3,-0.20470424194335937,-0.5243301635742187,-8.869320050048827,-4.427480916030534,-0.33587786259541985,-3.1374045801526718
5281381040067,6.659517237,3,-0.22026655273437498,-0.565031591796875,-8.888473663330078,-4.450381679389313,-0.2595419847328244,-3.0916030534351147
5281391110848,6.669588018,3,-0.201112939453125,-0.5147533569335937,-8.95670841064453,-4.458015267175573,-0.29770992366412213,-3.1374045801526718
5281401018192,6.679495362,3,-0.21787235107421873,-0.5746083984375,-8.846575134277343,-4.435114503816794,-0.183206106870229,-3.1374045801526718
5281411045796,6.689522966,3,-0.23582886352539062,-0.5363011718749999,-8.959102612304687,-4.351145038167939,-0.3435114503816794,-3.1297709923664123
5281421029546,6.699506716,3,-0.16639701538085935,-0.5626373901367188,-9.003395343017578,-4.396946564885496,-0.2900763358778626,-3.2213740458015265
5281431064910,6.70954208,3,-0.24660277099609373,-0.5518634826660156,-8.997409838867187,-4.465648854961832,-0.3816793893129771,-3.1908396946564888
5281441031212,6.719508382,3,-0.16280571289062498,-0.5506663818359374,-8.876502655029297,-4.442748091603053,-0.2900763358778626,-3.1374045801526718
5281451076681,6.729553851,3,-0.18315642700195311,-0.5410895751953124,-8.927977990722656,-4.3893129770992365,-0.366412213740458,-3.1526717557251906
5281461086212,6.739563382,3,-0.16759411621093748,-0.5590460876464843,-8.883685260009765,-4.419847328244275,-0.26717557251908397,-3.145038167938931
5281471060067,6.749537237,3,-0.20350714111328125,-0.5386953735351562,-8.955511309814453,-4.412213740458015,-0.40458015267175573,-3.1755725190839694
5281481029858,6.759507028,3,-0.19632453613281248,-0.5662286926269531,-8.980650427246093,-4.427480916030534,-0.2366412213740458,-3.145038167938931
5281491109025,6.769586195,3,-0.20829554443359374,-0.5255272644042969,-8.9255837890625,-4.374045801526718,-0.3053435114503817,-3.1374045801526718
5281501020223,6.779497393,3,-0.17597382202148437,-0.5638344909667968,-8.926780889892578,-4.396946564885496,-0.25190839694656486,-3.183206106870229
5281511041942,6.789519112,3,-0.2059013427734375,-0.594959112548828,-8.933963494873046,-4.427480916030534,-0.366412213740458,-3.1603053435114505
5281521027202,6.799504372,3,-0.21787235107421873,-0.5734112976074218,-8.980650427246093,-4.427480916030534,-0.21374045801526717,-3.1603053435114505
5281531061629,6.809538799,3,-0.17597382202148437,-0.5243301635742187,-8.947131604003905,-4.351145038167939,-0.31297709923664124,-3.1068702290076335
5281541017046,6.819494216,3,-0.2214636535644531,-0.5446808776855468,-8.96269391479492,-4.404580152671755,-0.32061068702290074,-3.122137404580153
5281551061733,6.829538903,3,-0.23223756103515625,-0.5758054992675781,-8.827421520996094,-4.427480916030534,-0.3282442748091603,-3.16793893129771
5281560988348,6.839465518,3,-0.2346317626953125,-0.5542576843261718,-9.07163009033203,-4.442748091603053,-0.29770992366412213,-3.1526717557251906
5281571060431,6.849537601,3,-0.2442085693359375,-0.5003881469726562,-9.00818374633789,-4.458015267175573,-0.3435114503816794,-3.1374045801526718
5281581020848,6.859498018,3,-0.23702596435546874,-0.5602431884765625,-8.942343200683593,-4.450381679389313,-0.26717557251908397,-3.1603053435114505
5281591040639,6.869517809,3,-0.18555062866210936,-0.5410895751953124,-8.96269391479492,-4.404580152671755,-0.2900763358778626,-3.1297709923664123
5281601037827,6.879514997,3,-0.21188684692382811,-0.5710170959472656,-8.919598284912109,-4.404580152671755,-0.37404580152671757,-3.2061068702290076
5281611064702,6.889541872,3,-0.22385785522460935,-0.5207388610839844,-8.95670841064453,-4.450381679389313,-0.3969465648854962,-3.1603053435114505
5281621012983,6.899490153,3,-0.21188684692382811,-0.5386953735351562,-8.907627276611327,-4.450381679389313,-0.3053435114503817,-3.1526717557251906
5281630985431,6.909462601,3,-0.19033903198242186,-0.5590460876464843,-8.971073620605468,-4.358778625954199,-0.35877862595419846,-3.183206106870229
5281641015587,6.919492757,3,-0.1879448303222656,-0.5662286926269531,-8.963891015625,-4.412213740458015,-0.3053435114503817,-3.16793893129771
5281651061525,6.929538695,3,-0.2454056701660156,-0.5805939025878906,-8.978256225585938,-4.435114503816794,-0.40458015267175573,-3.122137404580153
5281661029233,6.939506403,3,-0.1771709228515625,-0.5781997009277343,-8.973467822265624,-4.3816793893129775,-0.25190839694656486,-3.1374045801526718
5281671053296,6.949530466,3,-0.21188684692382811,-0.5638344909667968,-8.975862023925782,-4.404580152671755,-0.3282442748091603,-3.145038167938931
5281681021577,6.959498747,3,-0.19512743530273435,-0.5434837768554687,-8.936357696533202,-4.33587786259542,-0.2900763358778626,-3.1526717557251906
5281691046994,6.969524164,3,-0.21428104858398436,-0.59376201171875,-8.94473740234375,-4.427480916030534,-0.35877862595419846,-3.099236641221374
5281701028244,6.979505414,3,-0.201112939453125,-0.5351040710449219,-9.005789544677734,-4.404580152671755,-0.2595419847328244,-3.16793893129771
5281711062827,6.989539997,3,-0.16280571289062498,-0.5578489868164063,-9.009380847167968,-4.458015267175573,-0.3816793893129771,-3.1068702290076335
5281721046994,6.999524164,3,-0.22505495605468748,-0.5686228942871093,-8.942343200683593,-4.450381679389313,-0.183206106870229,-3.16793893129771
5281731062775,7.009539945,3,-0.19153613281249998,-0.5518634826660156,-8.898050469970702,-4.450381679389313,-0.37404580152671757,-3.1297709923664123
5281741020014,7.019497184,3,-0.23702596435546874,-0.5363011718749999,-9.00818374633789,-4.412213740458015,-0.3435114503816794,-3.198473282442748
5281751062723,7.029539893,3,-0.16639701538085935,-0.5506663818359374,-8.926780889892578,-4.3893129770992365,-0.366412213740458,-3.1526717557251906
5281761024494,7.039501664,3,-0.22266075439453123,-0.5039794494628906,-8.93875189819336,-4.358778625954199,-0.2595419847328244,-3.213740458015267
5281771055119,7.049532289,3,-0.16041151123046873,-0.5434837768554687,-8.967482318115234,-4.458015267175573,-0.35877862595419846,-3.1755725190839694
5281781001889,7.059479059,3,-0.20829554443359374,-0.5602431884765625,-8.83580122680664,-4.412213740458015,-0.1984732824427481,-3.1374045801526718
5281791070848,7.069548018,3,-0.2346317626953125,-0.5327098693847656,-8.975862023925782,-4.3816793893129775,-0.3282442748091603,-3.1068702290076335
5281801026316,7.079503486,3,-0.19871873779296872,-0.5195417602539062,-8.916006982421875,-4.419847328244275,-0.24427480916030533,-3.145038167938931
5281810980796,7.089457966,3,-0.20470424194335937,-0.49799394531249996,-8.993818536376953,-4.435114503816794,-0.3282442748091603,-3.122137404580153
5281821017202,7.099494372,3,-0.19991583862304688,-0.4908113403320312,-8.902838873291016,-4.366412213740458,-0.25190839694656486,-3.1908396946564888
5281831071473,7.109548643,3,-0.24301146850585936,-0.5231330627441406,-8.990227233886719,-4.442748091603053,-0.3282442748091603,-3.114503816793893
5281841012618,7.119489788,3,-0.17357962036132812,-0.5805939025878906,-8.93875189819336,-4.419847328244275,-0.26717557251908397,-3.114503816793893
5281851055743,7.129532913,3,-0.22026655273437498,-0.5410895751953124,-8.954314208984375,-4.404580152671755,-0.4122137404580153,-3.145038167938931
5281861017671,7.139494841,3,-0.1879448303222656,-0.5566518859863281,-8.967482318115234,-4.33587786259542,-0.2824427480916031,-3.1908396946564888
5281871049962,7.149527132,3,-0.2214636535644531,-0.5183446594238281,-8.957905511474609,-4.412213740458015,-0.3969465648854962,-3.1526717557251906
5281881020952,7.159498122,3,-0.17836802368164062,-0.5363011718749999,-8.911218579101561,-4.435114503816794,-0.33587786259541985,-3.213740458015267
5281891040587,7.169517757,3,-0.19991583862304688,-0.5195417602539062,-8.935160595703124,-4.312977099236641,-0.3511450381679389,-3.1526717557251906
5281900995900,7.17947307,3,-0.16639701538085935,-0.4991910461425781,-8.996212738037109,-4.396946564885496,-0.20610687022900764,-3.1297709923664123
5281911021993,7.189499163,3,-0.19991583862304688,-0.5710170959472656,-8.96269391479492,-4.511450381679389,-0.26717557251908397,-3.1755725190839694
5281921075014,7.199552184,3,-0.15083470458984374,-0.5638344909667968,-8.888473663330078,-4.396946564885496,-0.19083969465648856,-3.198473282442748
5281931057202,7.209534372,3,-0.20470424194335937,-0.5327098693847656,-8.9255837890625,-4.3893129770992365,-0.3435114503816794,-3.1374045801526718
5281941021473,7.219498643,3,-0.2214636535644531,-0.5267243652343749,-8.80946500854492,-4.450381679389313,-0.2900763358778626,-3.198473282442748
5281951083921,7.229561091,3,-0.19393033447265623,-0.5398924743652344,-8.948328704833983,-4.404580152671755,-0.32061068702290074,-3.16793893129771
5281961013556,7.239490726,3,-0.1879448303222656,-0.5087678527832031,-8.9255837890625,-4.396946564885496,-0.2900763358778626,-3.145038167938931
5281971036733,7.249513903,3,-0.2154781494140625,-0.5255272644042969,-8.896853369140624,-4.419847328244275,-0.3282442748091603,-3.1755725190839694
5281981002983,7.259480153,3,-0.20949264526367187,-0.5458779785156249,-8.917204083251953,-4.374045801526718,-0.32061068702290074,-3.1526717557251906
5281991038087,7.269515257,3,-0.2262520568847656,-0.5590460876464843,-8.959102612304687,-4.480916030534351,-0.3282442748091603,-3.2290076335877864
5282001027254,7.279504424,3,-0.17238251953125,-0.5590460876464843,-9.00100114135742,-4.419847328244275,-0.29770992366412213,-3.213740458015267
5282011160743,7.289637913,3,-0.22744915771484372,-0.5374982727050781,-8.957905511474609,-4.4961832061068705,-0.3435114503816794,-3.1526717557251906
5282021036525,7.299513695,3,-0.18315642700195311,-0.5219359619140624,-8.902838873291016,-4.412213740458015,-0.33587786259541985,-3.0763358778625953
5282031071889,7.309549059,3,-0.181959326171875,-0.5518634826660156,-8.94473740234375,-4.458015267175573,-0.31297709923664124,-3.1603053435114505
5282041005066,7.319482236,3,-0.17956512451171874,-0.5099649536132812,-8.919598284912109,-4.435114503816794,-0.1984732824427481,-3.1908396946564888
5282051043764,7.329520934,3,-0.22385785522460935,-0.5039794494628906,-8.96987651977539,-4.427480916030534,-0.3053435114503817,-3.1526717557251906
5282061019598,7.339496768,3,-0.21787235107421873,-0.5458779785156249,-8.943540301513671,-4.442748091603053,-0.3282442748091603,-3.1755725190839694
5282071031785,7.349508955,3,-0.24061726684570311,-0.5566518859863281,-8.960299713134765,-4.442748091603053,-0.32061068702290074,-3.0916030534351147
5282081012879,7.359490049,3,-0.22266075439453123,-0.5494692810058593,-8.894459167480468,-4.435114503816794,-0.2824427480916031,-3.099236641221374
5282091066316,7.369543486,3,-0.20231004028320312,-0.5758054992675781,-8.955511309814453,-4.419847328244275,-0.4122137404580153,-3.0763358778625953
5282101009389,7.379486559,3,-0.22026655273437498,-0.5410895751953124,-8.996212738037109,-4.4961832061068705,-0.16030534351145037,-3.0916030534351147
5282110979441,7.389456611,3,-0.2214636535644531,-0.5374982727050781,-8.968679418945312,-4.442748091603053,-0.2900763358778626,-3.1374045801526718
5282121006368,7.399483538,3,-0.18914193115234373,-0.5231330627441406,-8.908824377441405,-4.442748091603053,-0.2900763358778626,-3.1068702290076335
5282131036056,7.409513226,3,-0.20949264526367187,-0.5363011718749999,-8.98304462890625,-4.396946564885496,-0.2824427480916031,-3.1526717557251906
5282141012983,7.419490153,3,-0.1975216369628906,-0.5770026000976562,-8.882488159179687,-4.427480916030534,-0.31297709923664124,-3.122137404580153
5282151055275,7.429532445,3,-0.16519991455078123,-0.5303156677246094,-8.89326206665039,-4.427480916030534,-0.35877862595419846,-3.1908396946564888
5282161002931,7.439480101,3,-0.17836802368164062,-0.5590460876464843,-8.902838873291016,-4.396946564885496,-0.2366412213740458,-3.16793893129771
5282171059858,7.449537028,3,-0.20470424194335937,-0.5817910034179687,-8.939948999023438,-4.480916030534351,-0.2748091603053435,-3.183206106870229
5282181005795,7.459482965,3,-0.21906945190429686,-0.5195417602539062,-8.888473663330078,-4.419847328244275,-0.1984732824427481,-3.1526717557251906
5282191042827,7.469519997,3,-0.20829554443359374,-0.5614402893066406,-9.004592443847656,-4.412213740458015,-0.33587786259541985,-3.114503816793893
5282201020795,7.479497965,3,-0.19393033447265623,-0.5470750793457031,-8.910021478271483,-4.419847328244275,-0.32061068702290074,-3.16793893129771
5282211034285,7.489511455,3,-0.21906945190429686,-0.5614402893066406,-8.972270721435546,-4.404580152671755,-0.32061068702290074,-3.2061068702290076
5282220997462,7.499474632,3,-0.20949264526367187,-0.5542576843261718,-8.856151940917968,-4.427480916030534,-0.26717557251908397,-3.1755725190839694
5282231035327,7.509512497,3,-0.22744915771484372,-0.5386953735351562,-8.949525805664061,-4.473282442748092,-0.29770992366412213,-3.1297709923664123
5282241019754,7.519496924,3,-0.20949264526367187,-0.5374982727050781,-9.022548956298827,-4.427480916030534,-0.2824427480916031,-3.1755725190839694
5282251056264,7.529533434,3,-0.21188684692382811,-0.5351040710449219,-8.975862023925782,-4.465648854961832,-0.2824427480916031,-3.1603053435114505
5282261013973,7.539491143,3,-0.21787235107421873,-0.5626373901367188,-8.916006982421875,-4.488549618320611,-0.2595419847328244,-3.1526717557251906
5282271049337,7.549526507,3,-0.20829554443359374,-0.5482721801757812,-8.96269391479492,-4.4961832061068705,-0.2900763358778626,-3.145038167938931
5282280991733,7.559468903,3,-0.18435352783203124,-0.5363011718749999,-8.96269391479492,-4.473282442748092,-0.2900763358778626,-3.145038167938931
5282291041681,7.569518851,3,-0.2154781494140625,-0.5698199951171875,-8.910021478271483,-4.465648854961832,-0.29770992366412213,-3.114503816793893
5282301015639,7.579492809,3,-0.22266075439453123,-0.4908113403320312,-8.960299713134765,-4.465648854961832,-0.32061068702290074,-3.1526717557251906
5282311036577,7.589513747,3,-0.22864625854492185,-0.5339069702148437,-8.96269391479492,-4.374045801526718,-0.37404580152671757,-3.1755725190839694
5282321013712,7.599490882,3,-0.22864625854492185,-0.5422866760253906,-9.011775048828124,-4.419847328244275,-0.3282442748091603,-3.0916030534351147
5282330996681,7.609473851,3,-0.17118541870117188,-0.5518634826660156,-8.93875189819336,-4.465648854961832,-0.3282442748091603,-3.1603053435114505
5282341014702,7.619491872,3,-0.12808978881835936,-0.5195417602539062,-8.984241729736327,-4.442748091603053,-0.3511450381679389,-3.16793893129771
5282351056056,7.629533226,3,-0.1927332336425781,-0.5638344909667968,-8.930372192382812,-4.5038167938931295,-0.29770992366412213,-3.122137404580153
5282360997358,7.639474528,3,-0.21308394775390624,-0.5255272644042969,-8.913612780761719,-4.419847328244275,-0.29770992366412213,-3.1068702290076335
5282371052879,7.649530049,3,-0.21308394775390624,-0.5386953735351562,-8.949525805664061,-4.442748091603053,-0.33587786259541985,-3.183206106870229
5282381012931,7.659490101,3,-0.16879121704101563,-0.5446808776855468,-9.012972149658202,-4.465648854961832,-0.33587786259541985,-3.1603053435114505
5282391052931,7.669530101,3,-0.20231004028320312,-0.5686228942871093,-8.927977990722656,-4.412213740458015,-0.3282442748091603,-3.198473282442748
5282401021785,7.679498955,3,-0.21906945190429686,-0.5698199951171875,-8.951920007324219,-4.465648854961832,-0.25190839694656486,-3.1297709923664123
5282411054493,7.689531663,3,-0.21906945190429686,-0.5410895751953124,-8.929175091552734,-4.4961832061068705,-0.3053435114503817,-3.198473282442748
5282421010379,7.699487549,3,-0.20470424194335937,-0.5458779785156249,-8.942343200683593,-4.3816793893129775,-0.3053435114503817,-3.114503816793893
5282431059754,7.709536924,3,-0.2537853759765625,-0.584185205078125,-8.93755479736328,-4.358778625954199,-0.31297709923664124,-3.1526717557251906
5282441013139,7.719490309,3,-0.21188684692382811,-0.5327098693847656,-8.882488159179687,-4.3816793893129775,-0.21374045801526717,-3.16793893129771
5282451045691,7.729522861,3,-0.19991583862304688,-0.5243301635742187,-8.932766394042968,-4.404580152671755,-0.33587786259541985,-3.1374045801526718
5282461004285,7.739481455,3,-0.19632453613281248,-0.5279214660644531,-8.992621435546875,-4.412213740458015,-0.25190839694656486,-3.1374045801526718
5282471028035,7.749505205,3,-0.16759411621093748,-0.5674257934570313,-8.91840118408203,-4.442748091603053,-0.32061068702290074,-3.1374045801526718
5282481063504,7.759540674,3,-0.20470424194335937,-0.5135562561035156,-8.971073620605468,-4.435114503816794,-0.2824427480916031,-3.145038167938931
5282491071993,7.769549163,3,-0.19632453613281248,-0.5374982727050781,-9.012972149658202,-4.412213740458015,-0.3053435114503817,-3.0763358778625953
5282501010066,7.779487236,3,-0.16160861206054686,-0.5351040710449219,-8.95670841064453,-4.488549618320611,-0.3053435114503817,-3.1755725190839694
5282511049858,7.789527028,3,-0.16519991455078123,-0.5470750793457031,-8.927977990722656,-4.396946564885496,-0.3511450381679389,-3.145038167938931
5282521013504,7.799490674,3,-0.18315642700195311,-0.5722141967773438,-8.912415679931641,-4.412213740458015,-0.25190839694656486,-3.1603053435114505
5282531049077,7.809526247,3,-0.20231004028320312,-0.5422866760253906,-8.935160595703124,-4.404580152671755,-0.3053435114503817,-3.1526717557251906
5282541018452,7.819495622,3,-0.17118541870117188,-0.5542576843261718,-8.936357696533202,-4.427480916030534,-0.3053435114503817,-3.1526717557251906
5282550995795,7.829472965,3,-0.21428104858398436,-0.5530605834960938,-8.998606939697265,-4.374045801526718,-0.29770992366412213,-3.183206106870229
5282561097827,7.839574997,3,-0.2214636535644531,-0.5386953735351562,-9.018957653808593,-4.419847328244275,-0.29770992366412213,-3.1374045801526718
5282571064493,7.849541663,3,-0.20829554443359374,-0.5602431884765625,-8.967482318115234,-4.427480916030534,-0.29770992366412213,-3.122137404580153
5282581024129,7.859501299,3,-0.20470424194335937,-0.5386953735351562,-8.902838873291016,-4.374045801526718,-0.3053435114503817,-3.122137404580153
5282591054337,7.869531507,3,-0.1771709228515625,-0.5518634826660156,-8.966285217285156,-4.366412213740458,-0.2748091603053435,-3.053435114503817
5282601012306,7.879489476,3,-0.1927332336425781,-0.5638344909667968,-8.870517150878905,-4.450381679389313,-0.2900763358778626,-3.1297709923664123
5282611048972,7.889526142,3,-0.23822306518554687,-0.5219359619140624,-8.877699755859375,-4.404580152671755,-0.32061068702290074,-3.099236641221374
5282620983556,7.899460726,3,-0.1771709228515625,-0.5219359619140624,-8.973467822265624,-4.374045801526718,-0.2748091603053435,-3.2519083969465647
5282631028556,7.909505726,3,-0.19393033447265623,-0.5506663818359374,-8.943540301513671,-4.488549618320611,-0.366412213740458,-3.1068702290076335
5282641022358,7.919499528,3,-0.19871873779296872,-0.5518634826660156,-8.966285217285156,-4.427480916030534,-0.29770992366412213,-3.1908396946564888
5282650995274,7.929472444,3,-0.21906945190429686,-0.5853823059082031,-8.945934503173827,-4.465648854961832,-0.29770992366412213,-3.1908396946564888
5282661007566,7.939484736,3,-0.1927332336425781,-0.5386953735351562,-8.953117108154297,-4.404580152671755,-0.2748091603053435,-3.114503816793893
5282671054493,7.949531663,3,-0.2166752502441406,-0.5231330627441406,-8.851363537597656,-4.442748091603053,-0.31297709923664124,-3.0839694656488548
5282681009754,7.959486924,3,-0.1927332336425781,-0.5291185668945312,-8.907627276611327,-4.458015267175573,-0.22900763358778625,-3.198473282442748
5282691045483,7.969522653,3,-0.20470424194335937,-0.5973533142089843,-8.927977990722656,-4.488549618320611,-0.3282442748091603,-3.145038167938931
5282701046004,7.979523174,3,-0.21308394775390624,-0.5195417602539062,-8.93156929321289,-4.396946564885496,-0.2900763358778626,-3.1374045801526718
5282711044441,7.989521611,3,-0.25737667846679685,-0.49679684448242184,-9.022548956298827,-4.412213740458015,-0.2748091603053435,-3.198473282442748
5282721013191,7.999490361,3,-0.22266075439453123,-0.5542576843261718,-8.978256225585938,-4.404580152671755,-0.26717557251908397,-3.1908396946564888
5282731041681,8.009518851,3,-0.24061726684570311,-0.5518634826660156,-8.904035974121093,-4.427480916030534,-0.31297709923664124,-3.198473282442748
5282741019337,8.019496507,3,-0.19991583862304688,-0.5339069702148437,-9.005789544677734,-4.427480916030534,-0.2748091603053435,-3.1297709923664123
5282751052879,8.029530049,3,-0.19512743530273435,-0.5374982727050781,-8.89924757080078,-4.404580152671755,-0.3435114503816794,-3.1603053435114505
5282761007462,8.039484632,3,-0.1592144104003906,-0.5722141967773438,-8.963891015625,-4.442748091603053,-0.33587786259541985,-3.1603053435114505
5282771041316,8.049518486,3,-0.18914193115234373,-0.5470750793457031,-9.005789544677734,-4.473282442748092,-0.366412213740458,-3.1908396946564888
5282781013451,8.059490621,3,-0.1640028137207031,-0.565031591796875,-8.919598284912109,-4.458015267175573,-0.2900763358778626,-3.2061068702290076
5282791043399,8.069520569,3,-0.17118541870117188,-0.5674257934570313,-8.94473740234375,-4.435114503816794,-0.4198473282442748,-3.1755725190839694
5282801044493,8.079521663,3,-0.19991583862304688,-0.5590460876464843,-8.951920007324219,-4.473282442748092,-0.31297709923664124,-3.16793893129771
5282811065274,8.089542444,3,-0.19632453613281248,-0.5470750793457031,-8.9255837890625,-4.3816793893129775,-0.2900763358778626,-3.122137404580153
5282821008556,8.099485726,3,-0.19991583862304688,-0.5339069702148437,-8.94473740234375,-4.419847328244275,-0.32061068702290074,-3.16793893129771
5282831054181,8.109531351,3,-0.2442085693359375,-0.5722141967773438,-8.923189587402343,-4.351145038167939,-0.2824427480916031,-3.16793893129771
5282841017931,8.119495101,3,-0.2154781494140625,-0.5087678527832031,-8.93875189819336,-4.3816793893129775,-0.24427480916030533,-3.1526717557251906
5282851050639,8.129527809,3,-0.22266075439453123,-0.5482721801757812,-8.930372192382812,-4.3816793893129775,-0.3893129770992366,-3.122137404580153
5282861061160,8.13953833,3,-0.2154781494140625,-0.5781997009277343,-8.986635931396483,-4.374045801526718,-0.21374045801526717,-3.0839694656488548
5282871045951,8.149523121,3,-0.1975216369628906,-0.5374982727050781,-8.904035974121093,-4.419847328244275,-0.366412213740458,-3.16793893129771
5282881026733,8.159503903,3,-0.24181436767578124,-0.5746083984375,-8.978256225585938,-4.419847328244275,-0.2595419847328244,-3.122137404580153
5282891047358,8.169524528,3,-0.1879448303222656,-0.5279214660644531,-8.963891015625,-4.374045801526718,-0.3511450381679389,-3.099236641221374
5282901057410,8.17953458,3,-0.20829554443359374,-0.5111620544433594,-8.919598284912109,-4.419847328244275,-0.2595419847328244,-3.145038167938931
5282911116524,8.189593694,3,-0.17597382202148437,-0.49200844116210934,-8.941146099853515,-4.3816793893129775,-0.29770992366412213,-3.1526717557251906
5282921009285,8.199486455,3,-0.2154781494140625,-0.5363011718749999,-8.93156929321289,-4.465648854961832,-0.1984732824427481,-3.2061068702290076
5282931037097,8.209514267,3,-0.19871873779296872,-0.5578489868164063,-9.022548956298827,-4.404580152671755,-0.35877862595419846,-3.2061068702290076
5282941004233,8.219481403,3,-0.1867477294921875,-0.5291185668945312,-8.987833032226561,-4.458015267175573,-0.3053435114503817,-3.1603053435114505
5282951046993,8.229524163,3,-0.18315642700195311,-0.5530605834960938,-9.0021982421875,-4.488549618320611,-0.4122137404580153,-3.0839694656488548
5282961023399,8.239500569,3,-0.18555062866210936,-0.5087678527832031,-8.981847528076171,-4.297709923664122,-0.26717557251908397,-3.0763358778625953
5282971050899,8.249528069,3,-0.1867477294921875,-0.4896142395019531,-9.00818374633789,-4.419847328244275,-0.3435114503816794,-3.1755725190839694
5282981005483,8.259482653,3,-0.22385785522460935,-0.5063736511230469,-8.920795385742187,-4.435114503816794,-0.2595419847328244,-3.1374045801526718
5282991074597,8.269551767,3,-0.19393033447265623,-0.5530605834960938,-8.951920007324219,-4.480916030534351,-0.4122137404580153,-3.045801526717557
5283001077201,8.279554371,3,-0.20709844360351562,-0.51714755859375,-8.895656268310546,-4.404580152671755,-0.2595419847328244,-3.114503816793893
5283011041212,8.289518382,3,-0.19153613281249998,-0.5506663818359374,-9.06564458618164,-4.412213740458015,-0.3282442748091603,-3.1068702290076335
5283021013347,8.299490517,3,-0.239420166015625,-0.5374982727050781,-8.980650427246093,-4.404580152671755,-0.2824427480916031,-3.1297709923664123
5283031050014,8.309527184,3,-0.20350714111328125,-0.565031591796875,-8.950722906494141,-4.374045801526718,-0.33587786259541985,-3.1526717557251906
5283041010326,8.319487496,3,-0.25139117431640623,-0.5327098693847656,-9.006986645507812,-4.450381679389313,-0.2366412213740458,-3.122137404580153
5283050980431,8.329457601,3,-0.21428104858398436,-0.5626373901367188,-8.888473663330078,-4.419847328244275,-0.3969465648854962,-3.122137404580153
5283061013191,8.339490361,3,-0.201112939453125,-0.5398924743652344,-8.930372192382812,-4.396946564885496,-0.2748091603053435,-3.1755725190839694
5283071067878,8.349545048,3,-0.19632453613281248,-0.5327098693847656,-8.963891015625,-4.419847328244275,-0.3282442748091603,-3.1603053435114505
5283081001681,8.359478851,3,-0.21068974609375,-0.5410895751953124,-8.89924757080078,-4.419847328244275,-0.2366412213740458,-3.1297709923664123
5283091036889,8.369514059,3,-0.19512743530273435,-0.5805939025878906,-8.968679418945312,-4.427480916030534,-0.33587786259541985,-3.0610687022900764
