timestamp_ns,t_s,sensor_id,ax,ay,az
3477043594401,0.06483375,1,0.23822306518554687,1.7393875061035156,-11.180921752929686
3477053547734,0.074787083,1,0.23343466186523437,1.7417817077636717,-11.173739147949219
3477063545442,0.084784791,1,0.21906945190429686,1.696291876220703,-11.201272467041015
3477073548411,0.09478776,1,0.19991583862304688,1.7393875061035156,-11.213243475341796
3477083540599,0.104779948,1,0.22864625854492185,1.7393875061035156,-11.158176837158203
3477093539401,0.11477875,1,0.22864625854492185,1.7477672119140624,-11.21084927368164
3477103539401,0.12477875,1,0.22385785522460935,1.7214309936523438,-11.180921752929686
3477113537994,0.134777343,1,0.22266075439453123,1.715445489501953,-11.192892761230468
3477123541015,0.144780364,1,0.22744915771484372,1.705868682861328,-11.183315954589844
3477133540338,0.154779687,1,0.23822306518554687,1.7106570861816406,-11.192892761230468
3477143538515,0.164777864,1,0.22505495605468748,1.744175909423828,-11.220426080322264
3477153539244,0.174778593,1,0.2262520568847656,1.7381904052734374,-11.171344946289063
3477163537994,0.184777343,1,0.22266075439453123,1.7489643127441405,-11.194089862060546
3477173539557,0.194778906,1,0.23702596435546874,1.7178396911621092,-11.204863769531249
3477183539088,0.204778437,1,0.21906945190429686,1.7130512878417967,-11.190498559570312
3477193539140,0.214778489,1,0.23582886352539062,1.7130512878417967,-11.225214483642578
3477203538671,0.22477802,1,0.2262520568847656,1.7298106994628906,-11.154585534667968
3477213538619,0.234777968,1,0.23343466186523437,1.7513585144042967,-11.183315954589844
3477223537942,0.244777291,1,0.2214636535644531,1.714248388671875,-11.208455072021483
3477233538307,0.254777656,1,0.21068974609375,1.744175909423828,-11.202469567871093
3477243537786,0.264777135,1,0.2454056701660156,1.7226280944824217,-11.194089862060546
3477253539557,0.274778906,1,0.23822306518554687,1.7286135986328124,-11.197681164550781
3477263538567,0.284777916,1,0.2442085693359375,1.715445489501953,-11.186907257080078
3477273538984,0.294778333,1,0.23104046020507812,1.7357962036132812,-11.168950744628905
3477283538724,0.304778073,1,0.24061726684570311,1.725022296142578,-11.184513055419922
3477293538203,0.314777552,1,0.22385785522460935,1.7405846069335937,-11.17852755126953
3477303537786,0.324777135,1,0.23343466186523437,1.7322049011230467,-11.173739147949219
3477313539296,0.334778645,1,0.24779987182617186,1.7034744812011717,-11.186907257080078
3477323538359,0.344777708,1,0.21906945190429686,1.7393875061035156,-11.19887826538086
3477333538671,0.35477802,1,0.22744915771484372,1.7226280944824217,-11.158176837158203
3477343536953,0.364776302,1,0.2166752502441406,1.753752716064453,-11.202469567871093
3477353539088,0.374778437,1,0.23223756103515625,1.734599102783203,-11.190498559570312
3477363536380,0.384775729,1,0.2154781494140625,1.7453730102539062,-11.173739147949219
3477373538567,0.394777916,1,0.21787235107421873,1.734599102783203,-11.228805786132812
3477383534088,0.404773437,1,0.24660277099609373,1.7286135986328124,-11.184513055419922
3477393537942,0.414777291,1,0.21787235107421873,1.7106570861816406,-11.19887826538086
3477403538046,0.424777395,1,0.2346317626953125,1.7130512878417967,-11.180921752929686
3477413538307,0.434777656,1,0.24899697265624998,1.714248388671875,-11.177330450439452
3477423538046,0.444777395,1,0.21906945190429686,1.7238251953125,-11.227608685302734
3477433535234,0.454774583,1,0.27892449340820313,1.7274164978027342,-11.197681164550781
3477443537526,0.464776875,1,0.24061726684570311,1.715445489501953,-11.189301458740234
3477453538463,0.474777812,1,0.23702596435546874,1.7453730102539062,-11.179724652099608
3477463537994,0.484777343,1,0.22744915771484372,1.753752716064453,-11.165359442138671
3477473538776,0.494778125,1,0.23223756103515625,1.7262193969726563,-11.207257971191405
3477483535390,0.504774739,1,0.21068974609375,1.714248388671875,-11.209652172851563
3477493538515,0.514777864,1,0.201112939453125,1.7034744812011717,-11.133037719726563
3477503538151,0.5247775,1,0.20350714111328125,1.7322049011230467,-11.168950744628905
3477513538255,0.534777604,1,0.21428104858398436,1.7130512878417967,-11.200075366210937
3477523537890,0.544777239,1,0.229843359375,1.7322049011230467,-11.21084927368164
3477533538203,0.554777552,1,0.21068974609375,1.7166425903320313,-11.165359442138671
3477543538567,0.564777916,1,0.22266075439453123,1.7238251953125,-11.168950744628905
3477553538046,0.574777395,1,0.21428104858398436,1.725022296142578,-11.17254204711914
3477563537942,0.584777291,1,0.24061726684570311,1.7190367919921874,-11.192892761230468
3477573538151,0.5947775,1,0.2442085693359375,1.7525556152343749,-11.219228979492186
3477583536640,0.604775989,1,0.23702596435546874,1.7202338928222656,-11.183315954589844
3477593538359,0.614777708,1,0.20829554443359374,1.7022773803710936,-11.203666668701171
3477603537578,0.624776927,1,0.22026655273437498,1.7286135986328124,-11.209652172851563
3477613538463,0.634777812,1,0.22385785522460935,1.7357962036132812,-11.202469567871093
3477623538203,0.644777552,1,0.26216508178710934,1.7322049011230467,-11.176133349609374
3477633536588,0.654775937,1,0.22744915771484372,1.7525556152343749,-11.196484063720703
3477643538567,0.664777916,1,0.21308394775390624,1.7310078002929687,-11.173739147949219
3477653538828,0.674778177,1,0.23343466186523437,1.714248388671875,-11.215637677001952
3477663538984,0.684778333,1,0.2262520568847656,1.7262193969726563,-11.203666668701171
3477673539140,0.694778489,1,0.23582886352539062,1.7286135986328124,-11.197681164550781
3477683538775,0.704778124,1,0.24181436767578124,1.7262193969726563,-11.201272467041015
3477693538567,0.714777916,1,0.1927332336425781,1.7178396911621092,-11.154585534667968
3477703537786,0.724777135,1,0.2346317626953125,1.7322049011230467,-11.19887826538086
3477713537578,0.734776927,1,0.20470424194335937,1.7118541870117185,-11.15338843383789
3477723537525,0.744776874,1,0.23104046020507812,1.7094599853515624,-11.186907257080078
3477733537630,0.754776979,1,0.2059013427734375,1.7381904052734374,-11.182118853759764
3477743537578,0.764776927,1,0.24181436767578124,1.7465701110839842,-11.149797131347656
3477753537630,0.774776979,1,0.21308394775390624,1.7214309936523438,-11.170147845458983
3477763536640,0.784775989,1,0.2645592834472656,1.7405846069335937,-11.212046374511718
3477773537994,0.794777343,1,0.239420166015625,1.7094599853515624,-11.194089862060546
3477783537682,0.804777031,1,0.2262520568847656,1.7274164978027342,-11.208455072021483
3477793538671,0.81477802,1,0.22864625854492185,1.7238251953125,-11.202469567871093
3477803538307,0.824777656,1,0.2262520568847656,1.7334020019531249,-11.17852755126953
3477813538307,0.834777656,1,0.23582886352539062,1.7262193969726563,-11.213243475341796
3477823535650,0.844774999,1,0.2214636535644531,1.7393875061035156,-11.19169566040039
3477833539244,0.854778593,1,0.2154781494140625,1.7357962036132812,-11.188104357910156
3477843538411,0.86477776,1,0.23343466186523437,1.7286135986328124,-11.182118853759764
3477853538567,0.874777916,1,0.23223756103515625,1.705868682861328,-11.231199987792968
3477863537838,0.884777187,1,0.24779987182617186,1.7274164978027342,-11.167753643798827
3477873538567,0.894777916,1,0.2214636535644531,1.715445489501953,-11.215637677001952
3477883537473,0.904776822,1,0.22385785522460935,1.7202338928222656,-11.200075366210937
3477893538255,0.914777604,1,0.23582886352539062,1.7274164978027342,-11.251550701904296
3477903537994,0.924777343,1,0.25258827514648435,1.7465701110839842,-11.197681164550781
3477913538202,0.934777551,1,0.2549824768066406,1.7369933044433592,-11.183315954589844
3477923537525,0.944776874,1,0.20470424194335937,1.7286135986328124,-11.195286962890624
3477933538202,0.954777551,1,0.22744915771484372,1.7286135986328124,-11.194089862060546
3477943534505,0.964773854,1,0.22026655273437498,1.7286135986328124,-11.154585534667968
3477953538984,0.974778333,1,0.20829554443359374,1.7106570861816406,-11.204863769531249
3477963537734,0.984777083,1,0.2346317626953125,1.7310078002929687,-11.174936248779296
3477973538880,0.994778229,1,0.20470424194335937,1.7298106994628906,-11.2240173828125
3477983546327,1.004785676,1,0.22385785522460935,1.7238251953125,-11.177330450439452
3477993536484,1.014775833,1,0.2154781494140625,1.7262193969726563,-11.19887826538086
3478003561640,1.024800989,1,0.24301146850585936,1.7214309936523438,-11.146205828857422
3478013579661,1.03481901,1,0.201112939453125,1.70467158203125,-11.231199987792968
3478023543515,1.044782864,1,0.2346317626953125,1.7417817077636717,-11.179724652099608
3478033540338,1.054779687,1,0.2214636535644531,1.7405846069335937,-11.209652172851563
3478043540390,1.064779739,1,0.20231004028320312,1.7226280944824217,-11.233594189453123
3478053541067,1.074780416,1,0.2166752502441406,1.7429788085937499,-11.167753643798827
3478063539452,1.084778801,1,0.229843359375,1.7226280944824217,-11.206060870361327
3478073538723,1.094778072,1,0.2346317626953125,1.7226280944824217,-11.17852755126953
3478083538984,1.104778333,1,0.22026655273437498,1.7334020019531249,-11.225214483642578
3478093537734,1.114777083,1,0.23822306518554687,1.7310078002929687,-11.212046374511718
3478103538879,1.124778228,1,0.2693476867675781,1.7585411193847655,-11.174936248779296
3478113539557,1.134778906,1,0.22864625854492185,1.7357962036132812,-11.200075366210937
3478123538827,1.144778176,1,0.21787235107421873,1.7106570861816406,-11.16057103881836
3478133538932,1.154778281,1,0.23702596435546874,1.7118541870117185,-11.167753643798827
3478143536692,1.164776041,1,0.2214636535644531,1.7429788085937499,-11.212046374511718
3478153538671,1.17477802,1,0.22505495605468748,1.753752716064453,-11.203666668701171
3478163538879,1.184778228,1,0.239420166015625,1.7274164978027342,-11.182118853759764
3478173539192,1.194778541,1,0.25258827514648435,1.7202338928222656,-11.203666668701171
3478183538150,1.204777499,1,0.2262520568847656,1.725022296142578,-11.149797131347656
3478193536900,1.214776249,1,0.24181436767578124,1.7214309936523438,-11.179724652099608
3478203538515,1.224777864,1,0.23582886352539062,1.7262193969726563,-11.165359442138671
3478213538515,1.234777864,1,0.23582886352539062,1.734599102783203,-11.206060870361327
3478223538463,1.244777812,1,0.2346317626953125,1.7034744812011717,-11.16057103881836
3478233538671,1.25477802,1,0.23223756103515625,1.7262193969726563,-11.195286962890624
3478243537994,1.264777343,1,0.21308394775390624,1.7286135986328124,-11.180921752929686
3478253538150,1.274777499,1,0.22266075439453123,1.7573440185546874,-11.168950744628905
3478263538879,1.284778228,1,0.22744915771484372,1.7238251953125,-11.203666668701171
3478273539504,1.294778853,1,0.2346317626953125,1.714248388671875,-11.202469567871093
3478283537890,1.304777239,1,0.2549824768066406,1.725022296142578,-11.170147845458983
3478293538619,1.314777968,1,0.22385785522460935,1.7322049011230467,-11.190498559570312
3478303537786,1.324777135,1,0.21906945190429686,1.7334020019531249,-11.18571015625
3478313538515,1.334777864,1,0.19991583862304688,1.7190367919921874,-11.222820281982422
3478323538254,1.344777603,1,0.22864625854492185,1.734599102783203,-11.200075366210937
3478333537577,1.354776926,1,0.21787235107421873,1.7238251953125,-11.176133349609374
3478343539296,1.364778645,1,0.20829554443359374,1.7214309936523438,-11.19887826538086
3478353536952,1.374776301,1,0.23582886352539062,1.7417817077636717,-11.200075366210937
3478363539556,1.384778905,1,0.239420166015625,1.725022296142578,-11.195286962890624
3478373539296,1.394778645,1,0.23343466186523437,1.7226280944824217,-11.220426080322264
3478383538098,1.404777447,1,0.229843359375,1.7381904052734374,-11.179724652099608
3478393538463,1.414777812,1,0.24181436767578124,1.7238251953125,-11.161768139648437
3478403538359,1.424777708,1,0.239420166015625,1.7238251953125,-11.177330450439452
3478413538619,1.434777968,1,0.23822306518554687,1.714248388671875,-11.19887826538086
3478423537629,1.444776978,1,0.22266075439453123,1.7118541870117185,-11.2240173828125
3478433538619,1.454777968,1,0.22744915771484372,1.7525556152343749,-11.19887826538086
3478443537786,1.464777135,1,0.23702596435546874,1.7274164978027342,-11.188104357910156
3478453538463,1.474777812,1,0.20470424194335937,1.7369933044433592,-11.194089862060546
3478463538671,1.48477802,1,0.201112939453125,1.7202338928222656,-11.179724652099608
3478473538411,1.49477776,1,0.229843359375,1.7417817077636717,-11.177330450439452
3478483538619,1.504777968,1,0.23104046020507812,1.7417817077636717,-11.173739147949219
3478493536692,1.514776041,1,0.23822306518554687,1.7034744812011717,-11.150994232177734
3478503538983,1.524778332,1,0.22864625854492185,1.7262193969726563,-11.221623181152344
3478513539140,1.534778489,1,0.2214636535644531,1.7381904052734374,-11.201272467041015
3478523537525,1.544776874,1,0.21188684692382811,1.7357962036132812,-11.177330450439452
3478533537838,1.554777187,1,0.21308394775390624,1.7322049011230467,-11.186907257080078
3478543538306,1.564777655,1,0.22266075439453123,1.7429788085937499,-11.209652172851563
3478553537994,1.574777343,1,0.2166752502441406,1.7453730102539062,-11.183315954589844
3478563537733,1.584777082,1,0.20709844360351562,1.7381904052734374,-11.201272467041015
3478573538202,1.594777551,1,0.21787235107421873,1.7705121276855467,-11.195286962890624
3478583537994,1.604777343,1,0.2454056701660156,1.7310078002929687,-11.186907257080078
3478593539140,1.614778489,1,0.23104046020507812,1.753752716064453,-11.148600030517578
3478603535806,1.624775155,1,0.21188684692382811,1.7429788085937499,-11.17852755126953
3478613539348,1.634778697,1,0.2214636535644531,1.7453730102539062,-11.161768139648437
3478623537525,1.644776874,1,0.22385785522460935,1.7357962036132812,-11.196484063720703
3478633538046,1.654777395,1,0.25139117431640623,1.7417817077636717,-11.213243475341796
3478643537629,1.664776978,1,0.1975216369628906,1.7190367919921874,-11.17852755126953
3478653534713,1.674774062,1,0.2166752502441406,1.7118541870117185,-11.197681164550781
3478663538254,1.684777603,1,0.21068974609375,1.7405846069335937,-11.202469567871093
3478673538358,1.694777707,1,0.22864625854492185,1.7274164978027342,-11.197681164550781
3478683537525,1.704776874,1,0.2154781494140625,1.7166425903320313,-11.226411584472656
3478693538306,1.714777655,1,0.23702596435546874,1.7298106994628906,-11.206060870361327
3478703536015,1.724775364,1,0.2705447875976562,1.7334020019531249,-11.183315954589844
3478713538463,1.734777812,1,0.20709844360351562,1.7369933044433592,-11.152191333007812
3478723537733,1.744777082,1,0.22266075439453123,1.714248388671875,-11.204863769531249
3478733539140,1.754778489,1,0.23104046020507812,1.7310078002929687,-11.171344946289063
3478743538515,1.764777864,1,0.24181436767578124,1.7513585144042967,-11.203666668701171
3478753537838,1.774777187,1,0.21188684692382811,1.744175909423828,-11.183315954589844
3478763539140,1.784778489,1,0.229843359375,1.7214309936523438,-11.19887826538086
3478773538671,1.79477802,1,0.2454056701660156,1.7190367919921874,-11.149797131347656
3478783537994,1.804777343,1,0.24301146850585936,1.734599102783203,-11.171344946289063
3478793538046,1.814777395,1,0.2262520568847656,1.7214309936523438,-11.197681164550781
3478803536692,1.824776041,1,0.2454056701660156,1.7118541870117185,-11.182118853759764
3478813538098,1.834777447,1,0.24779987182617186,1.7262193969726563,-11.192892761230468
3478823537681,1.84477703,1,0.2537853759765625,1.7226280944824217,-11.212046374511718
3478833538515,1.854777864,1,0.21428104858398436,1.7130512878417967,-11.190498559570312
3478843537785,1.864777134,1,0.22026655273437498,1.7226280944824217,-11.167753643798827
3478853538306,1.874777655,1,0.2166752502441406,1.7357962036132812,-11.186907257080078
3478863538983,1.884778332,1,0.22864625854492185,1.7453730102539062,-11.208455072021483
3478873538619,1.894777968,1,0.23702596435546874,1.7214309936523438,-11.201272467041015
3478883538879,1.904778228,1,0.24660277099609373,1.715445489501953,-11.182118853759764
3478893538515,1.914777864,1,0.20829554443359374,1.725022296142578,-11.21683477783203
3478903538619,1.924777968,1,0.22385785522460935,1.7393875061035156,-11.173739147949219
3478913538619,1.934777968,1,0.2166752502441406,1.7286135986328124,-11.182118853759764
3478923544556,1.944783905,1,0.22266075439453123,1.7417817077636717,-11.226411584472656
3478933539973,1.954779322,1,0.2059013427734375,1.7166425903320313,-11.165359442138671
3478943538462,1.964777811,1,0.2154781494140625,1.7106570861816406,-11.18571015625
3478953538879,1.974778228,1,0.2154781494140625,1.7178396911621092,-11.201272467041015
3478963538358,1.984777707,1,0.24181436767578124,1.6998831787109374,-11.158176837158203
3478973538723,1.994778072,1,0.23702596435546874,1.7405846069335937,-11.19169566040039
3478983538046,2.004777395,1,0.19871873779296872,1.7298106994628906,-11.201272467041015
3478993538515,2.014777864,1,0.22744915771484372,1.7190367919921874,-11.203666668701171
3479003537681,2.02477703,1,0.23223756103515625,1.7178396911621092,-11.190498559570312
3479013538931,2.03477828,1,0.2154781494140625,1.7393875061035156,-11.221623181152344
3479023538098,2.044777447,1,0.20350714111328125,1.7178396911621092,-11.21683477783203
3479033539035,2.054778384,1,0.22744915771484372,1.7310078002929687,-11.183315954589844
3479043541067,2.064780416,1,0.2154781494140625,1.7561469177246092,-11.202469567871093
3479053539348,2.074778697,1,0.22744915771484372,1.763329522705078,-11.215637677001952
3479063537369,2.084776718,1,0.2346317626953125,1.7286135986328124,-11.173739147949219
3479073538619,2.094777968,1,0.25737667846679685,1.7202338928222656,-11.204863769531249
3479083538931,2.10477828,1,0.23822306518554687,1.7202338928222656,-11.200075366210937
3479093538410,2.114777759,1,0.22864625854492185,1.7429788085937499,-11.194089862060546
3479103536379,2.124775728,1,0.21308394775390624,1.7130512878417967,-11.189301458740234
3479113538671,2.13477802,1,0.21906945190429686,1.6986860778808592,-11.206060870361327
3479123538567,2.144777916,1,0.23582886352539062,1.7034744812011717,-11.190498559570312
3479133539192,2.154778541,1,0.19871873779296872,1.7357962036132812,-11.192892761230468
3479143537994,2.164777343,1,0.21308394775390624,1.7322049011230467,-11.188104357910156
3479153539556,2.174778905,1,0.21906945190429686,1.7262193969726563,-11.200075366210937
3479163538202,2.184777551,1,0.2442085693359375,1.7106570861816406,-11.21084927368164
3479173538983,2.194778332,1,0.24061726684570311,1.725022296142578,-11.201272467041015
3479183538202,2.204777551,1,0.2166752502441406,1.7214309936523438,-11.189301458740234
3479193538671,2.21477802,1,0.2214636535644531,1.7166425903320313,-11.174936248779296
3479203537785,2.224777134,1,0.21428104858398436,1.7274164978027342,-11.189301458740234
3479213538514,2.234777863,1,0.20949264526367187,1.7322049011230467,-11.218031878662108
3479223537317,2.244776666,1,0.20470424194335937,1.7322049011230467,-11.207257971191405
3479233538254,2.254777603,1,0.21188684692382811,1.7357962036132812,-11.213243475341796
3479243537421,2.26477677,1,0.23702596435546874,1.7202338928222656,-11.176133349609374
3479253537942,2.274777291,1,0.229843359375,1.7621324218749999,-11.214440576171874
3479263538202,2.284777551,1,0.19871873779296872,1.7405846069335937,-11.189301458740234
3479273541587,2.294780936,1,0.23223756103515625,1.7226280944824217,-11.214440576171874
3479283538046,2.304777395,1,0.23822306518554687,1.734599102783203,-11.220426080322264
3479293538462,2.314777811,1,0.2442085693359375,1.7238251953125,-11.192892761230468
3479303538723,2.324778072,1,0.2166752502441406,1.715445489501953,-11.154585534667968
3479313538514,2.334777863,1,0.24061726684570311,1.7393875061035156,-11.197681164550781
3479323537577,2.344776926,1,0.24301146850585936,1.744175909423828,-11.177330450439452
3479333538514,2.354777863,1,0.22385785522460935,1.7405846069335937,-11.19169566040039
3479343537681,2.36477703,1,0.22744915771484372,1.7381904052734374,-11.184513055419922
3479353539817,2.374779166,1,0.25139117431640623,1.7417817077636717,-11.176133349609374
3479363535442,2.384774791,1,0.20949264526367187,1.7429788085937499,-11.194089862060546
3479373539296,2.394778645,1,0.25139117431640623,1.7549498168945312,-11.176133349609374
3479383537733,2.404777082,1,0.2549824768066406,1.7274164978027342,-11.189301458740234
3479393539191,2.41477854,1,0.22505495605468748,1.7310078002929687,-11.202469567871093
3479403538983,2.424778332,1,0.2214636535644531,1.7477672119140624,-11.235988391113281
3479413535441,2.43477479,1,0.21308394775390624,1.7489643127441405,-11.174936248779296
3479423537733,2.444777082,1,0.22266075439453123,1.7274164978027342,-11.164162341308593
3479433539191,2.45477854,1,0.20949264526367187,1.7238251953125,-11.183315954589844
3479443538775,2.464778124,1,0.2262520568847656,1.7214309936523438,-11.177330450439452
3479453538671,2.47477802,1,0.22505495605468748,1.7178396911621092,-11.192892761230468
3479463535754,2.484775103,1,0.22864625854492185,1.7202338928222656,-11.19169566040039
3479473538358,2.494777707,1,0.2059013427734375,1.7334020019531249,-11.197681164550781
3479483537525,2.504776874,1,0.23223756103515625,1.7262193969726563,-11.226411584472656
3479493538619,2.514777968,1,0.21787235107421873,1.7417817077636717,-11.212046374511718
3479503538202,2.524777551,1,0.22266075439453123,1.7226280944824217,-11.197681164550781
3479513536275,2.534775624,1,0.21906945190429686,1.7226280944824217,-11.165359442138671
3479523537889,2.544777238,1,0.24899697265624998,1.7310078002929687,-11.170147845458983
3479533538775,2.554778124,1,0.229843359375,1.7298106994628906,-11.177330450439452
3479543538358,2.564777707,1,0.23104046020507812,1.7465701110839842,-11.180921752929686
3479553538514,2.574777863,1,0.229843359375,1.7453730102539062,-11.16057103881836
3479563537785,2.584777134,1,0.23223756103515625,1.7393875061035156,-11.206060870361327
3479573538671,2.59477802,1,0.2262520568847656,1.7381904052734374,-11.168950744628905
3479583538358,2.604777707,1,0.21787235107421873,1.7238251953125,-11.21683477783203
3479593536535,2.614775884,1,0.21308394775390624,1.7381904052734374,-11.19169566040039
3479603539087,2.624778436,1,0.239420166015625,1.7274164978027342,-11.215637677001952
3479613534608,2.634773957,1,0.23104046020507812,1.714248388671875,-11.150994232177734
3479623538150,2.644777499,1,0.20949264526367187,1.7585411193847655,-11.209652172851563
3479633539035,2.654778384,1,0.21428104858398436,1.7238251953125,-11.203666668701171
3479643537889,2.664777238,1,0.2346317626953125,1.7202338928222656,-11.220426080322264
3479653538046,2.674777395,1,0.24061726684570311,1.7238251953125,-11.190498559570312
3479663537993,2.684777342,1,0.23702596435546874,1.7405846069335937,-11.209652172851563
3479673542473,2.694781822,1,0.22385785522460935,1.725022296142578,-11.174936248779296
3479683539452,2.704778801,1,0.24301146850585936,1.744175909423828,-11.218031878662108
3479693540129,2.714779478,1,0.24779987182617186,1.7393875061035156,-11.154585534667968
3479703538150,2.724777499,1,0.2262520568847656,1.7381904052734374,-11.179724652099608
3479713539087,2.734778436,1,0.22385785522460935,1.7310078002929687,-11.206060870361327
3479723538514,2.744777863,1,0.23223756103515625,1.7681179260253905,-11.207257971191405
3479733539348,2.754778697,1,0.21188684692382811,1.7118541870117185,-11.225214483642578
3479743537993,2.764777342,1,0.23343466186523437,1.7609353210449217,-11.221623181152344
3479753538306,2.774777655,1,0.21308394775390624,1.7034744812011717,-11.204863769531249
3479763539035,2.784778384,1,0.2214636535644531,1.7357962036132812,-11.189301458740234
3479773538879,2.794778228,1,0.2166752502441406,1.7334020019531249,-11.152191333007812
3479783537733,2.804777082,1,0.21787235107421873,1.7262193969726563,-11.162965240478515
3479793539191,2.81477854,1,0.1975216369628906,1.7274164978027342,-11.202469567871093
3479803538202,2.824777551,1,0.2154781494140625,1.744175909423828,-11.19887826538086
3479813539139,2.834778488,1,0.239420166015625,1.7286135986328124,-11.201272467041015
3479823538045,2.844777394,1,0.21787235107421873,1.7022773803710936,-11.221623181152344
3479833538566,2.854777915,1,0.258573779296875,1.7369933044433592,-11.213243475341796
3479843537056,2.864776405,1,0.22505495605468748,1.7190367919921874,-11.164162341308593
3479853539504,2.874778853,1,0.2262520568847656,1.7417817077636717,-11.18571015625
3479863538879,2.884778228,1,0.23582886352539062,1.7513585144042967,-11.170147845458983
3479873538775,2.894778124,1,0.2454056701660156,1.7190367919921874,-11.173739147949219
3479883539400,2.904778749,1,0.22385785522460935,1.725022296142578,-11.16057103881836
3479893538410,2.914777759,1,0.21068974609375,1.7453730102539062,-11.232397088623046
3479903537004,2.924776353,1,0.24061726684570311,1.7286135986328124,-11.240776794433593
3479913538410,2.934777759,1,0.20709844360351562,1.7202338928222656,-11.184513055419922
3479923537368,2.944776717,1,0.22505495605468748,1.7369933044433592,-11.206060870361327
3479933538931,2.95477828,1,0.2346317626953125,1.7274164978027342,-11.234791290283203
3479943538670,2.964778019,1,0.2059013427734375,1.7226280944824217,-11.170147845458983
3479953538723,2.974778072,1,0.23104046020507812,1.7310078002929687,-11.180921752929686
3479963538514,2.984777863,1,0.23582886352539062,1.734599102783203,-11.222820281982422
3479973539556,2.994778905,1,0.22505495605468748,1.7238251953125,-11.179724652099608
3479983582473,3.004821822,1,0.25139117431640623,1.7322049011230467,-11.239579693603515
3479993548827,3.014788176,1,0.22385785522460935,1.7274164978027342,-11.21683477783203
3480003539973,3.024779322,1,0.25139117431640623,1.7214309936523438,-11.197681164550781
3480013538150,3.034777499,1,0.21787235107421873,1.7417817077636717,-11.133037719726563
3480023539973,3.044779322,1,0.2166752502441406,1.7202338928222656,-11.174936248779296
3480033554035,3.054793384,1,0.22744915771484372,1.7262193969726563,-11.182118853759764
3480043543931,3.06478328,1,0.22385785522460935,1.7465701110839842,-11.202469567871093
3480053539660,3.074779009,1,0.23702596435546874,1.707065783691406,-11.162965240478515
3480063537420,3.084776769,1,0.201112939453125,1.7274164978027342,-11.19887826538086
3480073539712,3.094779061,1,0.24779987182617186,1.7262193969726563,-11.186907257080078
3480083538670,3.104778019,1,0.2537853759765625,1.7393875061035156,-11.164162341308593
3480093537472,3.114776821,1,0.22026655273437498,1.7369933044433592,-11.184513055419922
3480103539556,3.124778905,1,0.23223756103515625,1.715445489501953,-11.196484063720703
3480113539139,3.134778488,1,0.2154781494140625,1.7286135986328124,-11.17852755126953
3480123534556,3.144773905,1,0.21428104858398436,1.7274164978027342,-11.180921752929686
3480133539972,3.154779321,1,0.2442085693359375,1.7549498168945312,-11.186907257080078
3480143538618,3.164777967,1,0.24899697265624998,1.7082628845214842,-11.202469567871093
3480153538358,3.174777707,1,0.23822306518554687,1.7310078002929687,-11.21683477783203
3480163538566,3.184777915,1,0.23343466186523437,1.7489643127441405,-11.204863769531249
3480173535545,3.194774894,1,0.22266075439453123,1.7369933044433592,-11.196484063720703
3480183538775,3.204778124,1,0.22026655273437498,1.7262193969726563,-11.184513055419922
3480193538775,3.214778124,1,0.22266075439453123,1.7872715393066405,-11.177330450439452
3480203538254,3.224777603,1,0.2214636535644531,1.7238251953125,-11.188104357910156
3480213538410,3.234777759,1,0.20470424194335937,1.7334020019531249,-11.196484063720703
3480223535858,3.244775207,1,0.20949264526367187,1.7130512878417967,-11.218031878662108
3480233538514,3.254777863,1,0.22864625854492185,1.7202338928222656,-11.17852755126953
3480243538462,3.264777811,1,0.23822306518554687,1.7286135986328124,-11.200075366210937
3480253538774,3.274778123,1,0.21068974609375,1.7369933044433592,-11.18571015625
3480263538097,3.284777446,1,0.20350714111328125,1.7405846069335937,-11.17852755126953
3480273535493,3.294774842,1,0.22026655273437498,1.7381904052734374,-11.17254204711914
3480283538670,3.304778019,1,0.23104046020507812,1.7190367919921874,-11.17254204711914
3480293538410,3.314777759,1,0.21188684692382811,1.7298106994628906,-11.139023223876952
3480303537733,3.324777082,1,0.23582886352539062,1.7166425903320313,-11.23000288696289
3480313538566,3.334777915,1,0.23822306518554687,1.7417817077636717,-11.239579693603515
3480323536639,3.344775988,1,0.24779987182617186,1.7166425903320313,-11.204863769531249
3480333539191,3.35477854,1,0.2561795776367187,1.7525556152343749,-11.154585534667968
3480343538566,3.364777915,1,0.23702596435546874,1.725022296142578,-11.165359442138671
3480353538774,3.374778123,1,0.229843359375,1.7334020019531249,-11.182118853759764
3480363537941,3.38477729,1,0.2166752502441406,1.7357962036132812,-11.149797131347656
3480373536743,3.394776092,1,0.22385785522460935,1.7214309936523438,-11.202469567871093
3480383536691,3.40477604,1,0.20470424194335937,1.7202338928222656,-11.176133349609374
3480393538462,3.414777811,1,0.19632453613281248,1.753752716064453,-11.162965240478515
3480403537941,3.42477729,1,0.23223756103515625,1.744175909423828,-11.207257971191405
3480413537889,3.434777238,1,0.2537853759765625,1.744175909423828,-11.204863769531249
3480423539243,3.444778592,1,0.24779987182617186,1.7453730102539062,-11.196484063720703
3480433539139,3.454778488,1,0.20949264526367187,1.7417817077636717,-11.219228979492186
3480443538097,3.464777446,1,0.20709844360351562,1.7274164978027342,-11.225214483642578
3480453538983,3.474778332,1,0.21787235107421873,1.7178396911621092,-11.202469567871093
3480463538722,3.484778071,1,0.2597708801269531,1.7286135986328124,-11.24915650024414
3480473538462,3.494777811,1,0.23702596435546874,1.7202338928222656,-11.194089862060546
3480483537629,3.504776978,1,0.21308394775390624,1.7166425903320313,-11.213243475341796
3480493539087,3.514778436,1,0.2454056701660156,1.7405846069335937,-11.219228979492186
3480503537993,3.524777342,1,0.22026655273437498,1.7274164978027342,-11.17254204711914
3480513539556,3.534778905,1,0.22266075439453123,1.7238251953125,-11.166556542968749
3480523538879,3.544778228,1,0.239420166015625,1.7310078002929687,-11.165359442138671
3480533555024,3.554794373,1,0.2166752502441406,1.7286135986328124,-11.190498559570312
3480543553618,3.564792967,1,0.23343466186523437,1.7322049011230467,-11.183315954589844
3480553552889,3.574792238,1,0.22744915771484372,1.763329522705078,-11.164162341308593
3480563552993,3.584792342,1,0.23582886352539062,1.7298106994628906,-11.186907257080078
3480573552368,3.594791717,1,0.21787235107421873,1.7298106994628906,-11.189301458740234
3480583551743,3.604791092,1,0.2262520568847656,1.7226280944824217,-11.184513055419922
3480593553149,3.614792498,1,0.229843359375,1.714248388671875,-11.195286962890624
3480603546431,3.62478578,1,0.2454056701660156,1.7393875061035156,-11.177330450439452
3480613551691,3.63479104,1,0.23582886352539062,1.7369933044433592,-11.190498559570312
3480623551170,3.644790519,1,0.21787235107421873,1.697488977050781,-11.167753643798827
3480633566222,3.654805571,1,0.2346317626953125,1.7202338928222656,-11.188104357910156
3480643564764,3.664804113,1,0.229843359375,1.7190367919921874,-11.21084927368164
3480653564035,3.674803384,1,0.25258827514648435,1.7465701110839842,-11.184513055419922
3480663564035,3.684803384,1,0.2549824768066406,1.7477672119140624,-11.194089862060546
3480673562889,3.694802238,1,0.22864625854492185,1.7310078002929687,-11.170147845458983
3480683561847,3.704801196,1,0.24301146850585936,1.7334020019531249,-11.19169566040039
3480693562993,3.714802342,1,0.21906945190429686,1.7298106994628906,-11.1474029296875
3480703561899,3.724801248,1,0.22385785522460935,1.7214309936523438,-11.206060870361327
3480713562785,3.734802134,1,0.22505495605468748,1.7106570861816406,-11.220426080322264
3480723562420,3.744801769,1,0.18315642700195311,1.744175909423828,-11.186907257080078
3480733562108,3.754801457,1,0.20470424194335937,1.7465701110839842,-11.165359442138671
3480743564139,3.764803488,1,0.239420166015625,1.7334020019531249,-11.214440576171874
3480753563410,3.774802759,1,0.24061726684570311,1.7310078002929687,-11.168950744628905
3480763562576,3.784801925,1,0.19871873779296872,1.7369933044433592,-11.149797131347656
3480773562264,3.794801613,1,0.229843359375,1.7393875061035156,-11.212046374511718
3480783561795,3.804801144,1,0.21308394775390624,1.7501614135742187,-11.184513055419922
3480793563358,3.814802707,1,0.21906945190429686,1.7477672119140624,-11.200075366210937
3480803569451,3.8248088,1,0.20829554443359374,1.7298106994628906,-11.215637677001952
3480813565024,3.834804373,1,0.2214636535644531,1.7286135986328124,-11.215637677001952
3480823561691,3.84480104,1,0.2262520568847656,1.7214309936523438,-11.136629022216797
3480833558410,3.854797759,1,0.2154781494140625,1.7094599853515624,-11.194089862060546
3480843564295,3.864803644,1,0.21188684692382811,1.7310078002929687,-11.214440576171874
3480853563045,3.874802394,1,0.20231004028320312,1.7310078002929687,-11.203666668701171
3480863563306,3.884802655,1,0.23702596435546874,1.7334020019531249,-11.195286962890624
3480873562785,3.894802134,1,0.22266075439453123,1.7238251953125,-11.189301458740234
3480883563618,3.904802967,1,0.26336218261718747,1.7453730102539062,-11.243170996093749
3480893559660,3.914799009,1,0.2214636535644531,1.7393875061035156,-11.220426080322264
3480903565128,3.924804477,1,0.2262520568847656,1.7429788085937499,-11.17852755126953
3480913563045,3.934802394,1,0.2561795776367187,1.7214309936523438,-11.207257971191405
3480923563462,3.944802811,1,0.23822306518554687,1.7262193969726563,-11.174936248779296
3480933571483,3.954810832,1,0.22744915771484372,1.7274164978027342,-11.170147845458983
3480943565805,3.964805154,1,0.23223756103515625,1.7405846069335937,-11.192892761230468
3480953562941,3.97480229,1,0.22864625854492185,1.7238251953125,-11.176133349609374
3480963562316,3.984801665,1,0.2154781494140625,1.7322049011230467,-11.188104357910156
3480973562837,3.994802186,1,0.25737667846679685,1.7274164978027342,-11.206060870361327
3480983563305,4.004802654,1,0.21906945190429686,1.7298106994628906,-11.167753643798827
3480993562628,4.014801977,1,0.22505495605468748,1.7465701110839842,-11.16057103881836
3481003562003,4.024801352,1,0.23343466186523437,1.7417817077636717,-11.18571015625
3481013563045,4.034802394,1,0.2214636535644531,1.7453730102539062,-11.166556542968749
3481023561691,4.04480104,1,0.21308394775390624,1.7226280944824217,-11.170147845458983
3481033579764,4.054819113,1,0.22026655273437498,1.7561469177246092,-11.227608685302734
3481043569087,4.064808436,1,0.2537853759765625,1.734599102783203,-11.189301458740234
3481053563253,4.074802602,1,0.23343466186523437,1.7178396911621092,-11.188104357910156
3481063562941,4.08480229,1,0.20470424194335937,1.7393875061035156,-11.146205828857422
3481073563253,4.094802602,1,0.20470424194335937,1.7525556152343749,-11.184513055419922
3481083557576,4.104796925,1,0.24899697265624998,1.7190367919921874,-11.177330450439452
3481093563097,4.114802446,1,0.2262520568847656,1.7417817077636717,-11.174936248779296
3481103562733,4.124802082,1,0.239420166015625,1.7298106994628906,-11.184513055419922
3481113563045,4.134802394,1,0.21906945190429686,1.7298106994628906,-11.197681164550781
3481123562368,4.144801717,1,0.21068974609375,1.7286135986328124,-11.184513055419922
3481133603878,4.154843227,1,0.20709844360351562,1.7477672119140624,-11.19169566040039
3481143564555,4.164803904,1,0.20829554443359374,1.707065783691406,-11.212046374511718
3481153561691,4.17480104,1,0.22864625854492185,1.7405846069335937,-11.201272467041015
3481163564139,4.184803488,1,0.21787235107421873,1.7274164978027342,-11.184513055419922
3481173562576,4.194801925,1,0.19393033447265623,1.744175909423828,-11.189301458740234
3481183563566,4.204802915,1,0.23104046020507812,1.7609353210449217,-11.202469567871093
3481193561847,4.214801196,1,0.24181436767578124,1.7334020019531249,-11.182118853759764
3481203562524,4.224801873,1,0.22385785522460935,1.7322049011230467,-11.194089862060546
3481213561899,4.234801248,1,0.23702596435546874,1.7238251953125,-11.184513055419922
3481223562941,4.24480229,1,0.2501940734863281,1.7214309936523438,-11.170147845458983
3481233562732,4.254802081,1,0.2214636535644531,1.7310078002929687,-11.204863769531249
3481243563930,4.264803279,1,0.22505495605468748,1.7561469177246092,-11.166556542968749
3481253563149,4.274802498,1,0.22026655273437498,1.7357962036132812,-11.212046374511718
3481263562212,4.284801561,1,0.23702596435546874,1.7417817077636717,-11.177330450439452
3481273562785,4.294802134,1,0.21308394775390624,1.7405846069335937,-11.214440576171874
3481283562785,4.304802134,1,0.229843359375,1.7429788085937499,-11.209652172851563
3481293564295,4.314803644,1,0.23582886352539062,1.7357962036132812,-11.159373937988281
3481303563253,4.324802602,1,0.22266075439453123,1.7310078002929687,-11.155782635498046
3481313562107,4.334801456,1,0.21188684692382811,1.7405846069335937,-11.19169566040039
3481323563462,4.344802811,1,0.20350714111328125,1.7298106994628906,-11.201272467041015
3481333562055,4.354801404,1,0.229843359375,1.7405846069335937,-11.165359442138671
3481343563618,4.364802967,1,0.24899697265624998,1.7417817077636717,-11.167753643798827
3481353562680,4.374802029,1,0.23822306518554687,1.7357962036132812,-11.179724652099608
3481363562889,4.384802238,1,0.21787235107421873,1.7298106994628906,-11.17852755126953
3481373562837,4.394802186,1,0.22385785522460935,1.734599102783203,-11.192892761230468
3481383563409,4.404802758,1,0.20231004028320312,1.7178396911621092,-11.2240173828125
3481393564087,4.414803436,1,0.2214636535644531,1.7334020019531249,-11.228805786132812
3481403562837,4.424802186,1,0.21188684692382811,1.7238251953125,-11.184513055419922
3481413563982,4.434803331,1,0.21906945190429686,1.70467158203125,-11.200075366210937
3481423562993,4.444802342,1,0.229843359375,1.696291876220703,-11.226411584472656
3481433563462,4.454802811,1,0.21068974609375,1.7214309936523438,-11.19169566040039
3481443562941,4.46480229,1,0.22266075439453123,1.7357962036132812,-11.158176837158203
3481453563409,4.474802758,1,0.21787235107421873,1.7226280944824217,-11.13423482055664
3481463563774,4.484803123,1,0.24301146850585936,1.7214309936523438,-11.226411584472656
3481473562993,4.494802342,1,0.24061726684570311,1.7298106994628906,-11.218031878662108
3481483562628,4.504801977,1,0.22026655273437498,1.7274164978027342,-11.194089862060546
3481493562732,4.514802081,1,0.2166752502441406,1.7693150268554687,-11.182118853759764
3481503562784,4.524802133,1,0.22744915771484372,1.7298106994628906,-11.218031878662108
3481513562316,4.534801665,1,0.23223756103515625,1.7118541870117185,-11.197681164550781
3481523562576,4.544801925,1,0.23582886352539062,1.7022773803710936,-11.18571015625
3481533562628,4.554801977,1,0.2262520568847656,1.7178396911621092,-11.177330450439452
3481543562732,4.564802081,1,0.24181436767578124,1.7022773803710936,-11.161768139648437
3481553563774,4.574803123,1,0.229843359375,1.744175909423828,-11.215637677001952
3481563562941,4.58480229,1,0.23343466186523437,1.7310078002929687,-11.165359442138671
3481573567628,4.594806977,1,0.23343466186523437,1.7525556152343749,-11.166556542968749
3481583562420,4.604801769,1,0.22505495605468748,1.7238251953125,-11.19169566040039
3481593562941,4.61480229,1,0.23582886352539062,1.725022296142578,-11.204863769531249
3481603562576,4.624801925,1,0.21906945190429686,1.7405846069335937,-11.162965240478515
3481613562628,4.634801977,1,0.239420166015625,1.7393875061035156,-11.201272467041015
3481623562680,4.644802029,1,0.2262520568847656,1.7334020019531249,-11.19887826538086
3481633561586,4.654800935,1,0.24779987182617186,1.7429788085937499,-11.208455072021483
3481643564451,4.6648038,1,0.23822306518554687,1.715445489501953,-11.159373937988281
3481653564243,4.674803592,1,0.229843359375,1.7298106994628906,-11.196484063720703
3481663557264,4.684796613,1,0.2154781494140625,1.7393875061035156,-11.190498559570312
3481673562576,4.694801925,1,0.24660277099609373,1.7381904052734374,-11.161768139648437
3481683563149,4.704802498,1,0.24061726684570311,1.725022296142578,-11.177330450439452
3481693563149,4.714802498,1,0.24899697265624998,1.7274164978027342,-11.19169566040039
3481703563201,4.72480255,1,0.22864625854492185,1.7010802795410156,-11.203666668701171
3481713563357,4.734802706,1,0.23822306518554687,1.7298106994628906,-11.220426080322264
3481723562732,4.744802081,1,0.25737667846679685,1.734599102783203,-11.165359442138671
3481733563409,4.754802758,1,0.23343466186523437,1.7477672119140624,-11.180921752929686
3481743581170,4.764820519,1,0.20350714111328125,1.7274164978027342,-11.221623181152344
3481753563045,4.774802394,1,0.2166752502441406,1.715445489501953,-11.190498559570312
3481763562576,4.784801925,1,0.21068974609375,1.715445489501953,-11.180921752929686
3481773562888,4.794802237,1,0.2262520568847656,1.734599102783203,-11.189301458740234
3481783562316,4.804801665,1,0.2549824768066406,1.7417817077636717,-11.194089862060546
3481793562211,4.81480156,1,0.2262520568847656,1.7310078002929687,-11.186907257080078
3481803563149,4.824802498,1,0.26695348510742184,1.7429788085937499,-11.208455072021483
3481813563670,4.834803019,1,0.21308394775390624,1.7369933044433592,-11.170147845458983
3481823563305,4.844802654,1,0.201112939453125,1.7262193969726563,-11.212046374511718
3481833565128,4.854804477,1,0.2262520568847656,1.714248388671875,-11.212046374511718
3481843579763,4.864819112,1,0.22026655273437498,1.7357962036132812,-11.32577095336914
3481853564191,4.87480354,1,0.2166752502441406,1.7357962036132812,-11.066000073242186
3481863562680,4.884802029,1,0.24899697265624998,1.7286135986328124,-11.195286962890624
3481873562211,4.89480156,1,0.229843359375,1.7118541870117185,-11.212046374511718
3481883562263,4.904801612,1,0.24301146850585936,1.7274164978027342,-11.319785449218749
3481893563149,4.914802498,1,0.22505495605468748,1.7286135986328124,-11.182118853759764
3481903563253,4.924802602,1,0.23104046020507812,1.7465701110839842,-11.058817468261719
3481913563670,4.934803019,1,0.20949264526367187,1.7489643127441405,-11.21683477783203
3481923561482,4.944800831,1,0.23223756103515625,1.7118541870117185,-11.204863769531249
3481933563357,4.954802706,1,0.23104046020507812,1.7393875061035156,-11.195286962890624
3481943561951,4.9648013,1,0.23582886352539062,1.7274164978027342,-11.227608685302734
3481953564399,4.974803748,1,0.19033903198242186,1.7310078002929687,-11.227608685302734
3481963562993,4.984802342,1,0.2262520568847656,1.7393875061035156,-11.235988391113281
3481973563878,4.994803227,1,0.23343466186523437,1.7286135986328124,-11.186907257080078
3481983563097,5.004802446,1,0.20829554443359374,1.7453730102539062,-11.320982550048827
3481993586690,5.014826039,1,0.2262520568847656,1.714248388671875,-11.143811627197264
3482003572888,5.024812237,1,0.24660277099609373,1.7357962036132812,-11.182118853759764
3482013561743,5.034801092,1,0.2059013427734375,1.7393875061035156,-11.052831964111327
3482023563409,5.044802758,1,0.19991583862304688,1.7106570861816406,-11.197681164550781
3482033564138,5.054803487,1,0.21787235107421873,1.7094599853515624,-11.195286962890624
3482043563201,5.06480255,1,0.23343466186523437,1.7190367919921874,-11.328165155029296
3482053564815,5.074804164,1,0.239420166015625,1.7405846069335937,-11.064802972412108
3482063563045,5.084802394,1,0.19153613281249998,1.7393875061035156,-11.197681164550781
3482073558930,5.094798279,1,0.23343466186523437,1.714248388671875,-11.188104357910156
3482083592940,5.104832289,1,0.2214636535644531,1.7118541870117185,-11.19887826538086
3482093574815,5.114814164,1,0.22026655273437498,1.7190367919921874,-11.179724652099608
3482103567263,5.124806612,1,0.24660277099609373,1.7381904052734374,-11.143811627197264
3482113562940,5.134802289,1,0.22385785522460935,1.7405846069335937,-11.180921752929686
3482123562836,5.144802185,1,0.22385785522460935,1.7226280944824217,-11.207257971191405
3482133560232,5.154799581,1,0.21188684692382811,1.7130512878417967,-11.177330450439452
3482143558513,5.164797862,1,0.21428104858398436,1.7262193969726563,-11.145008728027342
3482153563982,5.174803331,1,0.23343466186523437,1.7393875061035156,-11.194089862060546
3482163561951,5.1848013,1,0.25258827514648435,1.725022296142578,-11.21683477783203
3482173558409,5.194797758,1,0.20829554443359374,1.734599102783203,-11.189301458740234
3482183563722,5.204803071,1,0.22744915771484372,1.7226280944824217,-11.19887826538086
3482193562211,5.21480156,1,0.23223756103515625,1.7310078002929687,-11.222820281982422
3482203562211,5.22480156,1,0.22864625854492185,1.7465701110839842,-11.18571015625
3482213561951,5.2348013,1,0.2262520568847656,1.734599102783203,-11.221623181152344
3482223561899,5.244801248,1,0.23582886352539062,1.7429788085937499,-11.165359442138671
3482233563357,5.254802706,1,0.25139117431640623,1.7010802795410156,-11.195286962890624
3482243563357,5.264802706,1,0.24899697265624998,1.7010802795410156,-11.190498559570312
3482253564034,5.274803383,1,0.2059013427734375,1.7286135986328124,-11.202469567871093
3482263562680,5.284802029,1,0.21787235107421873,1.7262193969726563,-11.21084927368164
3482273563357,5.294802706,1,0.2442085693359375,1.7405846069335937,-11.156979736328124
3482283558357,5.304797706,1,0.24181436767578124,1.7453730102539062,-11.201272467041015
3482293563461,5.31480281,1,0.19871873779296872,1.7130512878417967,-11.218031878662108
3482303561013,5.324800362,1,0.2166752502441406,1.7190367919921874,-11.183315954589844
3482313563461,5.33480281,1,0.2262520568847656,1.7381904052734374,-11.21683477783203
3482323557784,5.344797133,1,0.25258827514648435,1.7226280944824217,-11.192892761230468
3482333562367,5.354801716,1,0.22385785522460935,1.7369933044433592,-11.197681164550781
3482343562784,5.364802133,1,0.20829554443359374,1.7501614135742187,-11.23000288696289
3482353564503,5.374803852,1,0.22266075439453123,1.7417817077636717,-11.165359442138671
3482363562732,5.384802081,1,0.21787235107421873,1.725022296142578,-11.197681164550781
3482373563253,5.394802602,1,0.2154781494140625,1.7453730102539062,-11.213243475341796
3482383562628,5.404801977,1,0.21188684692382811,1.7417817077636717,-11.19169566040039
3482393562836,5.414802185,1,0.24779987182617186,1.7262193969726563,-11.162965240478515
3482403562367,5.424801716,1,0.20949264526367187,1.7238251953125,-11.183315954589844
3482413562940,5.434802289,1,0.23223756103515625,1.7322049011230467,-11.170147845458983
3482423562003,5.444801352,1,0.20949264526367187,1.7274164978027342,-11.232397088623046
3482433561482,5.454800831,1,0.22385785522460935,1.7453730102539062,-11.17254204711914
3482443562315,5.464801664,1,0.2166752502441406,1.7334020019531249,-11.192892761230468
3482453562263,5.474801612,1,0.23582886352539062,1.7262193969726563,-11.189301458740234
3482463558669,5.484798018,1,0.24779987182617186,1.7381904052734374,-11.154585534667968
3482473562472,5.494801821,1,0.22864625854492185,1.7561469177246092,-11.200075366210937
3482483562055,5.504801404,1,0.19871873779296872,1.725022296142578,-11.247959399414063
3482493563201,5.51480255,1,0.20709844360351562,1.7453730102539062,-11.186907257080078
3482503563201,5.52480255,1,0.22266075439453123,1.7585411193847655,-11.188104357910156
3482513563722,5.534803071,1,0.20709844360351562,1.734599102783203,-11.166556542968749
3482523563357,5.544802706,1,0.23343466186523437,1.7393875061035156,-11.164162341308593
3482533562784,5.554802133,1,0.20949264526367187,1.7274164978027342,-11.19887826538086
3482543562107,5.564801456,1,0.2609679809570312,1.7322049011230467,-11.186907257080078
3482553584086,5.574823435,1,0.2501940734863281,1.7298106994628906,-11.195286962890624
3482563563722,5.584803071,1,0.22744915771484372,1.7501614135742187,-11.170147845458983
3482573561065,5.594800414,1,0.19512743530273435,1.725022296142578,-11.18571015625
3482583564242,5.604803591,1,0.2442085693359375,1.7417817077636717,-11.190498559570312
3482593562628,5.614801977,1,0.22266075439453123,1.734599102783203,-11.174936248779296
3482603562524,5.624801873,1,0.22505495605468748,1.7214309936523438,-11.17852755126953
3482613563669,5.634803018,1,0.23104046020507812,1.7082628845214842,-11.167753643798827
3482623563044,5.644802393,1,0.22505495605468748,1.7393875061035156,-11.182118853759764
3482633562107,5.654801456,1,0.22266075439453123,1.7274164978027342,-11.171344946289063
3482643562732,5.664802081,1,0.21906945190429686,1.7561469177246092,-11.162965240478515
3482653562576,5.674801925,1,0.22505495605468748,1.753752716064453,-11.196484063720703
3482663563878,5.684803227,1,0.2657563842773437,1.734599102783203,-11.164162341308593
3482673562367,5.694801716,1,0.24061726684570311,1.7298106994628906,-11.154585534667968
3482683563044,5.704802393,1,0.24181436767578124,1.7393875061035156,-11.21683477783203
3482693565284,5.714804633,1,0.20470424194335937,1.7465701110839842,-11.19887826538086
3482703562159,5.724801508,1,0.23343466186523437,1.7274164978027342,-11.192892761230468
3482713562940,5.734802289,1,0.21068974609375,1.7286135986328124,-11.18571015625
3482723563201,5.74480255,1,0.23104046020507812,1.734599102783203,-11.159373937988281
3482733563096,5.754802445,1,0.23223756103515625,1.7274164978027342,-11.16057103881836
3482743563721,5.76480307,1,0.22864625854492185,1.7262193969726563,-11.166556542968749
3482753563409,5.774802758,1,0.2154781494140625,1.7202338928222656,-11.161768139648437
3482763562576,5.784801925,1,0.20949264526367187,1.7322049011230467,-11.21084927368164
3482773562524,5.794801873,1,0.22385785522460935,1.734599102783203,-11.184513055419922
3482783563044,5.804802393,1,0.2214636535644531,1.7489643127441405,-11.177330450439452
3482793563096,5.814802445,1,0.21906945190429686,1.763329522705078,-11.189301458740234
3482803563305,5.824802654,1,0.20709844360351562,1.7525556152343749,-11.171344946289063
3482813562888,5.834802237,1,0.2166752502441406,1.7405846069335937,-11.19169566040039
3482823563305,5.844802654,1,0.2166752502441406,1.7381904052734374,-11.212046374511718
3482833563878,5.854803227,1,0.22026655273437498,1.7214309936523438,-11.219228979492186
3482843563409,5.864802758,1,0.23582886352539062,1.7214309936523438,-11.209652172851563
3482853563617,5.874802966,1,0.229843359375,1.7238251953125,-11.182118853759764
3482863564138,5.884803487,1,0.23104046020507812,1.7274164978027342,-11.192892761230468
3482873563513,5.894802862,1,0.24899697265624998,1.7226280944824217,-11.182118853759764
3482883562992,5.904802341,1,0.24660277099609373,1.7357962036132812,-11.192892761230468
3482893563148,5.914802497,1,0.20829554443359374,1.7262193969726563,-11.213243475341796
3482903563721,5.92480307,1,0.22864625854492185,1.7202338928222656,-11.176133349609374
3482913562732,5.934802081,1,0.24301146850585936,1.7501614135742187,-11.207257971191405
3482923563044,5.944802393,1,0.2154781494140625,1.7513585144042967,-11.203666668701171
3482933575753,5.954815102,1,0.201112939453125,1.7190367919921874,-11.226411584472656
3482943560961,5.96480031,1,0.229843359375,1.7334020019531249,-11.204863769531249
3482953563721,5.97480307,1,0.22505495605468748,1.7381904052734374,-11.179724652099608
3482963562940,5.984802289,1,0.20231004028320312,1.7238251953125,-11.204863769531249
3482973562784,5.994802133,1,0.21308394775390624,1.7274164978027342,-11.207257971191405
3482983562628,6.004801977,1,0.21068974609375,1.714248388671875,-11.21683477783203
3482993563617,6.014802966,1,0.22864625854492185,1.7310078002929687,-11.156979736328124
3483003563513,6.024802862,1,0.22266075439453123,1.70467158203125,-11.21084927368164
3483013563357,6.034802706,1,0.22026655273437498,1.70467158203125,-11.201272467041015
3483023563773,6.044803122,1,0.22864625854492185,1.696291876220703,-11.158176837158203
3483033563148,6.054802497,1,0.23104046020507812,1.734599102783203,-11.165359442138671
3483043562367,6.064801716,1,0.20709844360351562,1.705868682861328,-11.167753643798827
3483053568357,6.074807706,1,0.2346317626953125,1.7597382202148437,-11.179724652099608
3483063563878,6.084803227,1,0.2346317626953125,1.7405846069335937,-11.171344946289063
3483073563617,6.094802966,1,0.24181436767578124,1.7202338928222656,-11.192892761230468
3483083563253,6.104802602,1,0.229843359375,1.714248388671875,-11.19169566040039
3483093562888,6.114802237,1,0.2262520568847656,1.7477672119140624,-11.194089862060546
3483103562471,6.12480182,1,0.23343466186523437,1.7549498168945312,-11.189301458740234
3483113562575,6.134801924,1,0.23343466186523437,1.7226280944824217,-11.208455072021483
3483123563513,6.144802862,1,0.22385785522460935,1.7334020019531249,-11.218031878662108
3483133562471,6.15480182,1,0.2501940734863281,1.7405846069335937,-11.17852755126953
3483143562523,6.164801872,1,0.229843359375,1.7202338928222656,-11.16057103881836
3483153563461,6.17480281,1,0.2154781494140625,1.7238251953125,-11.173739147949219
3483163579555,6.184818904,1,0.22864625854492185,1.7274164978027342,-11.200075366210937
3483173565648,6.194804997,1,0.2262520568847656,1.7501614135742187,-11.17254204711914
3483183563357,6.204802706,1,0.229843359375,1.7166425903320313,-11.164162341308593
3483193563253,6.214802602,1,0.229843359375,1.7334020019531249,-11.155782635498046
3483203562680,6.224802029,1,0.2262520568847656,1.7357962036132812,-11.219228979492186
3483213562628,6.234801977,1,0.21068974609375,1.7477672119140624,-11.164162341308593
3483223563513,6.244802862,1,0.2501940734863281,1.725022296142578,-11.164162341308593
3483233563930,6.254803279,1,0.21787235107421873,1.7190367919921874,-11.173739147949219
3483243562888,6.264802237,1,0.24181436767578124,1.7226280944824217,-11.17852755126953
3483253562628,6.274801977,1,0.2166752502441406,1.7226280944824217,-11.170147845458983
3483263562940,6.284802289,1,0.21188684692382811,1.7310078002929687,-11.218031878662108
3483273566065,6.294805414,1,0.21188684692382811,1.7214309936523438,-11.192892761230468
3483283562888,6.304802237,1,0.20949264526367187,1.7585411193847655,-11.215637677001952
3483293562784,6.314802133,1,0.23223756103515625,1.7489643127441405,-11.189301458740234
3483303562419,6.324801768,1,0.22744915771484372,1.7214309936523438,-11.174936248779296
3483313559971,6.33479932,1,0.24899697265624998,1.7274164978027342,-11.189301458740234
3483323564555,6.344803904,1,0.23702596435546874,1.7166425903320313,-11.17852755126953
3483333562888,6.354802237,1,0.24061726684570311,1.7010802795410156,-11.164162341308593
3483343563930,6.364803279,1,0.22026655273437498,1.7094599853515624,-11.21084927368164
3483353562888,6.374802237,1,0.24181436767578124,1.7501614135742187,-11.21084927368164
3483363563357,6.384802706,1,0.23702596435546874,1.744175909423828,-11.19887826538086
3483373564502,6.394803851,1,0.2059013427734375,1.7357962036132812,-11.219228979492186
3483383563096,6.404802445,1,0.21308394775390624,1.7310078002929687,-11.19169566040039
3483393563721,6.41480307,1,0.239420166015625,1.7226280944824217,-11.168950744628905
3483403562992,6.424802341,1,0.21068974609375,1.7429788085937499,-11.19887826538086
3483413563305,6.434802654,1,0.21787235107421873,1.7453730102539062,-11.171344946289063
3483423563721,6.44480307,1,0.21308394775390624,1.7310078002929687,-11.206060870361327
3483433563044,6.454802393,1,0.22026655273437498,1.7417817077636717,-11.173739147949219
3483443564034,6.464803383,1,0.21188684692382811,1.7357962036132812,-11.197681164550781
3483453557836,6.474797185,1,0.2214636535644531,1.7274164978027342,-11.233594189453123
3483463565596,6.484804945,1,0.23822306518554687,1.7369933044433592,-11.196484063720703
3483473562523,6.494801872,1,0.23104046020507812,1.7118541870117185,-11.234791290283203
3483483563930,6.504803279,1,0.2262520568847656,1.7262193969726563,-11.156979736328124
3483493565857,6.514805206,1,0.20350714111328125,1.7226280944824217,-11.179724652099608
3483503563044,6.524802393,1,0.20829554443359374,1.70467158203125,-11.18571015625
3483513563148,6.534802497,1,0.20949264526367187,1.7262193969726563,-11.204863769531249
3483523563461,6.54480281,1,0.22864625854492185,1.7322049011230467,-11.18571015625
3483533563617,6.554802966,1,0.24181436767578124,1.7214309936523438,-11.215637677001952
3483543562992,6.564802341,1,0.25737667846679685,1.7477672119140624,-11.162965240478515
3483553564086,6.574803435,1,0.22026655273437498,1.7262193969726563,-11.201272467041015
3483563558877,6.584798226,1,0.22385785522460935,1.7334020019531249,-11.2240173828125
3483573578513,6.594817862,1,0.21188684692382811,1.7274164978027342,-11.192892761230468
3483583565284,6.604804633,1,0.2549824768066406,1.7549498168945312,-11.192892761230468
3483593563669,6.614803018,1,0.21787235107421873,1.7369933044433592,-11.206060870361327
3483603563617,6.624802966,1,0.23822306518554687,1.7405846069335937,-11.184513055419922
3483613563200,6.634802549,1,0.23104046020507812,1.7286135986328124,-11.16057103881836
3483623563200,6.644802549,1,0.2214636535644531,1.7429788085937499,-11.196484063720703
3483633562992,6.654802341,1,0.239420166015625,1.734599102783203,-11.204863769531249
3483643562523,6.664801872,1,0.23223756103515625,1.734599102783203,-11.173739147949219
3483653563982,6.674803331,1,0.2346317626953125,1.7429788085937499,-11.176133349609374
3483663563877,6.684803226,1,0.23582886352539062,1.70467158203125,-11.182118853759764
3483673600752,6.694840101,1,0.22266075439453123,1.7513585144042967,-11.167753643798827
3483683562940,6.704802289,1,0.1975216369628906,1.744175909423828,-11.213243475341796
3483693563513,6.714802862,1,0.23343466186523437,1.7226280944824217,-11.179724652099608
3483703564450,6.724803799,1,0.2262520568847656,1.7298106994628906,-11.170147845458983
3483713561586,6.734800935,1,0.229843359375,1.7393875061035156,-11.21084927368164
3483723563513,6.744802862,1,0.2262520568847656,1.7118541870117185,-11.19169566040039
3483733563304,6.754802653,1,0.21068974609375,1.7166425903320313,-11.243170996093749
3483743561481,6.76480083,1,0.21068974609375,1.7322049011230467,-11.18571015625
3483753563669,6.774803018,1,0.21188684692382811,1.7238251953125,-11.190498559570312
3483763563252,6.784802601,1,0.22505495605468748,1.7525556152343749,-11.170147845458983
3483773563044,6.794802393,1,0.22744915771484372,1.725022296142578,-11.221623181152344
3483783562627,6.804801976,1,0.23104046020507812,1.7298106994628906,-11.166556542968749
3483793563773,6.814803122,1,0.20470424194335937,1.7298106994628906,-11.188104357910156
3483803562159,6.824801508,1,0.2154781494140625,1.7310078002929687,-11.19169566040039
3483813563721,6.83480307,1,0.24061726684570311,1.7166425903320313,-11.149797131347656
3483823563200,6.844802549,1,0.21308394775390624,1.7214309936523438,-11.15338843383789
3483833561794,6.854801143,1,0.2154781494140625,1.7190367919921874,-11.170147845458983
3483843562888,6.864802237,1,0.21068974609375,1.7393875061035156,-11.167753643798827
3483853563044,6.874802393,1,0.23104046020507812,1.7369933044433592,-11.168950744628905
3483863562731,6.88480208,1,0.2166752502441406,1.715445489501953,-11.188104357910156
3483873563409,6.894802758,1,0.22266075439453123,1.7166425903320313,-11.165359442138671
3483883564294,6.904803643,1,0.20949264526367187,1.7334020019531249,-11.189301458740234
3483893563200,6.914802549,1,0.22505495605468748,1.7202338928222656,-11.16057103881836
3483903563617,6.924802966,1,0.229843359375,1.7322049011230467,-11.190498559570312
3483913563148,6.934802497,1,0.22266075439453123,1.7357962036132812,-11.19887826538086
3483923563044,6.944802393,1,0.23223756103515625,1.7369933044433592,-11.137826123046874
3483933562784,6.954802133,1,0.2346317626953125,1.7489643127441405,-11.176133349609374
3483943563252,6.964802601,1,0.21188684692382811,1.7214309936523438,-11.170147845458983
3483953563981,6.97480333,1,0.229843359375,1.7477672119140624,-11.21084927368164
3483963562783,6.984802132,1,0.24061726684570311,1.7465701110839842,-11.197681164550781
3483973563096,6.994802445,1,0.2262520568847656,1.7274164978027342,-11.19887826538086
3483983563461,7.00480281,1,0.21787235107421873,1.7405846069335937,-11.214440576171874
3483993563408,7.014802757,1,0.21906945190429686,1.744175909423828,-11.192892761230468
3484003573825,7.024813174,1,0.20350714111328125,1.7274164978027342,-11.202469567871093
3484013620961,7.03486031,1,0.24301146850585936,1.7369933044433592,-11.190498559570312
3484023573200,7.044812549,1,0.23104046020507812,1.7286135986328124,-11.152191333007812
3484033563513,7.054802862,1,0.22385785522460935,1.734599102783203,-11.166556542968749
3484043557575,7.064796924,1,0.2442085693359375,1.7238251953125,-11.180921752929686
3484053562054,7.074801403,1,0.23822306518554687,1.7202338928222656,-11.232397088623046
3484063557783,7.084797132,1,0.22744915771484372,1.7334020019531249,-11.155782635498046
3484073561117,7.094800466,1,0.22864625854492185,1.7010802795410156,-11.182118853759764
3484083614033,7.104853382,1,0.20470424194335937,1.7226280944824217,-11.196484063720703
3484093561065,7.114800414,1,0.2346317626953125,1.7286135986328124,-11.196484063720703
3484103559711,7.12479906,1,0.229843359375,1.7310078002929687,-11.180921752929686
3484113560492,7.134799841,1,0.22385785522460935,1.7369933044433592,-11.150994232177734
3484123559763,7.144799112,1,0.24061726684570311,1.7369933044433592,-11.209652172851563
3484133560336,7.154799685,1,0.21188684692382811,1.7585411193847655,-11.174936248779296
3484143559242,7.164798591,1,0.21308394775390624,1.7477672119140624,-11.195286962890624
3484153561169,7.174800518,1,0.25737667846679685,1.7334020019531249,-11.202469567871093
3484163559294,7.184798643,1,0.21068974609375,1.7082628845214842,-11.174936248779296
3484173560492,7.194799841,1,0.23343466186523437,1.725022296142578,-11.168950744628905
3484183602210,7.204841559,1,0.22864625854492185,1.7226280944824217,-11.177330450439452
3484193563356,7.214802705,1,0.229843359375,1.7298106994628906,-11.150994232177734
3484203561638,7.224800987,1,0.20829554443359374,1.7202338928222656,-11.188104357910156
3484213559554,7.234798903,1,0.23104046020507812,1.705868682861328,-11.235988391113281
3484223557054,7.244796403,1,0.20949264526367187,1.7357962036132812,-11.189301458740234
3484233561638,7.254800987,1,0.2059013427734375,1.7322049011230467,-11.194089862060546
3484243559554,7.264798903,1,0.23582886352539062,1.7322049011230467,-11.21084927368164
3484253559710,7.274799059,1,0.20949264526367187,1.7214309936523438,-11.21084927368164
3484263560283,7.284799632,1,0.2442085693359375,1.7310078002929687,-11.176133349609374
3484273559710,7.294799059,1,0.2454056701660156,1.7130512878417967,-11.215637677001952
3484283560075,7.304799424,1,0.20470424194335937,1.7334020019531249,-11.17254204711914
3484293560960,7.314800309,1,0.22744915771484372,1.7705121276855467,-11.177330450439452
3484303560856,7.324800205,1,0.23822306518554687,1.7238251953125,-11.206060870361327
3484313560700,7.334800049,1,0.22026655273437498,1.7405846069335937,-11.19169566040039
3484323561533,7.344800882,1,0.24181436767578124,1.734599102783203,-11.183315954589844
3484333560648,7.354799997,1,0.23104046020507812,1.7166425903320313,-11.195286962890624
3484343559554,7.364798903,1,0.20231004028320312,1.7262193969726563,-11.214440576171874
3484353559138,7.374798487,1,0.2214636535644531,1.7585411193847655,-11.194089862060546
3484363559763,7.384799112,1,0.22266075439453123,1.7310078002929687,-11.167753643798827
3484373558877,7.394798226,1,0.201112939453125,1.7202338928222656,-11.154585534667968
3484383558460,7.404797809,1,0.23343466186523437,1.7322049011230467,-11.18571015625
3484393559294,7.414798643,1,0.23343466186523437,1.7609353210449217,-11.201272467041015
3484403559346,7.424798695,1,0.20709844360351562,1.7525556152343749,-11.208455072021483
3484413558200,7.434797549,1,0.22026655273437498,1.7118541870117185,-11.195286962890624
3484423559346,7.444798695,1,0.2154781494140625,1.7501614135742187,-11.189301458740234
3484433557940,7.454797289,1,0.21308394775390624,1.734599102783203,-11.190498559570312
3484443558929,7.464798278,1,0.21787235107421873,1.734599102783203,-11.200075366210937
3484453560804,7.474800153,1,0.22385785522460935,1.7010802795410156,-11.209652172851563
3484463560387,7.484799736,1,0.22266075439453123,1.7298106994628906,-11.208455072021483
3484473558825,7.494798174,1,0.24779987182617186,1.753752716064453,-11.190498559570312
3484483559346,7.504798695,1,0.23582886352539062,1.7322049011230467,-11.165359442138671
3484493560856,7.514800205,1,0.239420166015625,1.7166425903320313,-11.171344946289063
3484503558617,7.524797966,1,0.21188684692382811,1.7238251953125,-11.173739147949219
3484513560179,7.534799528,1,0.2166752502441406,1.7082628845214842,-11.206060870361327
3484523560752,7.544800101,1,0.20709844360351562,1.7334020019531249,-11.234791290283203
3484533559294,7.554798643,1,0.2442085693359375,1.7202338928222656,-11.165359442138671
3484543559294,7.564798643,1,0.2262520568847656,1.7226280944824217,-11.177330450439452
3484553556221,7.57479557,1,0.20709844360351562,1.7381904052734374,-11.176133349609374
3484563560544,7.584799893,1,0.2549824768066406,1.734599102783203,-11.186907257080078
3484573559815,7.594799164,1,0.23343466186523437,1.744175909423828,-11.125855114746093
3484583560856,7.604800205,1,0.22266075439453123,1.7357962036132812,-11.150994232177734
3484593560283,7.614799632,1,0.2166752502441406,1.7369933044433592,-11.148600030517578
3484603559971,7.62479932,1,0.2154781494140625,1.70467158203125,-11.183315954589844
3484613560231,7.63479958,1,0.23223756103515625,1.7034744812011717,-11.197681164550781
3484623559814,7.644799163,1,0.2454056701660156,1.696291876220703,-11.212046374511718
3484633559919,7.654799268,1,0.229843359375,1.7298106994628906,-11.174936248779296
3484643559450,7.664798799,1,0.20350714111328125,1.705868682861328,-11.21084927368164
3484653559554,7.674798903,1,0.2549824768066406,1.7274164978027342,-11.179724652099608
3484663558877,7.684798226,1,0.22744915771484372,1.7381904052734374,-11.174936248779296
3484673559867,7.694799216,1,0.20829554443359374,1.7274164978027342,-11.196484063720703
3484683559710,7.704799059,1,0.2214636535644531,1.7381904052734374,-11.192892761230468
3484693560700,7.714800049,1,0.20350714111328125,1.7202338928222656,-11.196484063720703
3484703560492,7.724799841,1,0.24660277099609373,1.7298106994628906,-11.212046374511718
3484713561325,7.734800674,1,0.22505495605468748,1.7453730102539062,-11.19887826538086
3484723560179,7.744799528,1,0.229843359375,1.7322049011230467,-11.174936248779296
3484733557314,7.754796663,1,0.21787235107421873,1.7190367919921874,-11.174936248779296
3484743560492,7.764799841,1,0.20709844360351562,1.7286135986328124,-11.19887826538086
3484753560544,7.774799893,1,0.20709844360351562,1.7214309936523438,-11.201272467041015
3484763559606,7.784798955,1,0.239420166015625,1.7369933044433592,-11.219228979492186
3484773559398,7.794798747,1,0.22385785522460935,1.7357962036132812,-11.195286962890624
3484783558773,7.804798122,1,0.21906945190429686,1.7274164978027342,-11.200075366210937
3484793560544,7.814799893,1,0.239420166015625,1.7262193969726563,-11.19887826538086
3484803556377,7.824795726,1,0.22266075439453123,1.7118541870117185,-11.179724652099608
3484813560908,7.834800257,1,0.2059013427734375,1.7334020019531249,-11.177330450439452
3484823558356,7.844797705,1,0.21906945190429686,1.7334020019531249,-11.170147845458983
3484833559658,7.854799007,1,0.25258827514648435,1.7274164978027342,-11.201272467041015
3484843559137,7.864798486,1,0.22864625854492185,1.696291876220703,-11.225214483642578
3484853559450,7.874798799,1,0.20350714111328125,1.7369933044433592,-11.203666668701171
3484863561741,7.88480109,1,0.22026655273437498,1.7381904052734374,-11.218031878662108
3484873560231,7.89479958,1,0.2501940734863281,1.7178396911621092,-11.194089862060546
3484883559450,7.904798799,1,0.23582886352539062,1.7334020019531249,-11.182118853759764
3484893561585,7.914800934,1,0.21068974609375,1.7513585144042967,-11.17852755126953
3484903561273,7.924800622,1,0.23702596435546874,1.734599102783203,-11.190498559570312
3484913558616,7.934797965,1,0.23104046020507812,1.7393875061035156,-11.189301458740234
3484923559398,7.944798747,1,0.20829554443359374,1.707065783691406,-11.202469567871093
3484933564033,7.954803382,1,0.22744915771484372,1.734599102783203,-11.186907257080078
3484943567314,7.964806663,1,0.22385785522460935,1.7369933044433592,-11.17254204711914
3484953563408,7.974802757,1,0.24899697265624998,1.7274164978027342,-11.197681164550781
3484963561689,7.984801038,1,0.19512743530273435,1.7262193969726563,-11.189301458740234
3484973559398,7.994798747,1,0.23343466186523437,1.7238251953125,-11.194089862060546
3484983560544,8.004799893,1,0.2346317626953125,1.7513585144042967,-11.158176837158203
3484993606169,8.014845518,1,0.21906945190429686,1.725022296142578,-11.204863769531249
3485003567575,8.024806924,1,0.23582886352539062,1.7405846069335937,-11.189301458740234
3485013554919,8.034794268,1,0.229843359375,1.7322049011230467,-11.206060870361327
3485023553096,8.044792445,1,0.21428104858398436,1.7357962036132812,-11.192892761230468
3485033562991,8.05480234,1,0.22864625854492185,1.7106570861816406,-11.204863769531249
3485043559971,8.06479932,1,0.22385785522460935,1.7286135986328124,-11.155782635498046
3485053561637,8.074800986,1,0.25139117431640623,1.7310078002929687,-11.177330450439452
3485063565439,8.084804788,1,0.2501940734863281,1.7190367919921874,-11.149797131347656
3485073561273,8.094800622,1,0.21906945190429686,1.7357962036132812,-11.155782635498046
3485083560127,8.104799476,1,0.21308394775390624,1.714248388671875,-11.19169566040039
3485093564918,8.114804267,1,0.23343466186523437,1.734599102783203,-11.19169566040039
3485103563304,8.124802653,1,0.21787235107421873,1.7190367919921874,-11.167753643798827
3485113562627,8.134801976,1,0.21188684692382811,1.7226280944824217,-11.200075366210937
3485123563148,8.144802497,1,0.22385785522460935,1.7166425903320313,-11.231199987792968
3485133562835,8.154802184,1,0.22266075439453123,1.7465701110839842,-11.189301458740234
3485143562887,8.164802236,1,0.23223756103515625,1.7226280944824217,-11.170147845458983
3485153564398,8.174803747,1,0.20709844360351562,1.753752716064453,-11.18571015625
3485163562991,8.18480234,1,0.25737667846679685,1.7693150268554687,-11.228805786132812
3485173563408,8.194802757,1,0.2262520568847656,1.734599102783203,-11.194089862060546
3485183562575,8.204801924,1,0.23702596435546874,1.7381904052734374,-11.207257971191405
3485193564502,8.214803851,1,0.23822306518554687,1.7429788085937499,-11.182118853759764
3485203562366,8.224801715,1,0.24301146850585936,1.7226280944824217,-11.154585534667968
3485213559918,8.234799267,1,0.21428104858398436,1.715445489501953,-11.164162341308593
3485223563408,8.244802757,1,0.19871873779296872,1.7429788085937499,-11.214440576171874
3485233563408,8.254802757,1,0.24061726684570311,1.7286135986328124,-11.19887826538086
3485243563096,8.264802445,1,0.22266075439453123,1.7238251953125,-11.171344946289063
3485253564450,8.274803799,1,0.2262520568847656,1.7381904052734374,-11.176133349609374
3485263563721,8.28480307,1,0.21308394775390624,1.7310078002929687,-11.168950744628905
3485273561637,8.294800986,1,0.1879448303222656,1.734599102783203,-11.182118853759764
3485283562366,8.304801715,1,0.22744915771484372,1.7190367919921874,-11.186907257080078
3485293582262,8.314821611,1,0.23223756103515625,1.7226280944824217,-11.133037719726563
3485303561116,8.324800465,1,0.22026655273437498,1.734599102783203,-11.207257971191405
3485313564241,8.33480359,1,0.21428104858398436,1.7334020019531249,-11.170147845458983
3485323563773,8.344803122,1,0.23104046020507812,1.734599102783203,-11.201272467041015
3485333560335,8.354799684,1,0.23343466186523437,1.7298106994628906,-11.183315954589844
3485343563564,8.364802913,1,0.21188684692382811,1.7166425903320313,-11.203666668701171
3485353563408,8.374802757,1,0.23702596435546874,1.7238251953125,-11.219228979492186
3485363563512,8.384802861,1,0.24899697265624998,1.7417817077636717,-11.180921752929686
3485373563773,8.394803122,1,0.2214636535644531,1.7322049011230467,-11.232397088623046
3485383563304,8.404802653,1,0.20709844360351562,1.7298106994628906,-11.18571015625
3485393563460,8.414802809,1,0.2154781494140625,1.7393875061035156,-11.141417425537108
3485403564085,8.424803434,1,0.20350714111328125,1.7310078002929687,-11.207257971191405
3485413559450,8.434798799,1,0.2454056701660156,1.7453730102539062,-11.182118853759764
3485423563668,8.444803017,1,0.21428104858398436,1.7214309936523438,-11.208455072021483
3485433563252,8.454802601,1,0.22505495605468748,1.7130512878417967,-11.167753643798827
3485443563043,8.464802392,1,0.21068974609375,1.7322049011230467,-11.184513055419922
3485453562418,8.474801767,1,0.2166752502441406,1.7597382202148437,-11.19169566040039
3485463564606,8.484803955,1,0.22744915771484372,1.7226280944824217,-11.218031878662108
3485473563095,8.494802444,1,0.23822306518554687,1.7130512878417967,-11.183315954589844
3485483563043,8.504802392,1,0.25139117431640623,1.7417817077636717,-11.196484063720703
3485493563147,8.514802496,1,0.2597708801269531,1.7286135986328124,-11.173739147949219
3485503558147,8.524797496,1,0.2346317626953125,1.7178396911621092,-11.171344946289063
3485513563564,8.534802913,1,0.23223756103515625,1.7429788085937499,-11.19169566040039
3485523563564,8.544802913,1,0.21428104858398436,1.7082628845214842,-11.221623181152344
3485533557470,8.554796819,1,0.24779987182617186,1.7381904052734374,-11.176133349609374
3485543563720,8.564803069,1,0.22864625854492185,1.7405846069335937,-11.190498559570312
3485553563668,8.574803017,1,0.24660277099609373,1.7190367919921874,-11.200075366210937
3485563563877,8.584803226,1,0.2166752502441406,1.7202338928222656,-11.15338843383789
3485573563877,8.594803226,1,0.20709844360351562,1.7202338928222656,-11.167753643798827
3485583562939,8.604802288,1,0.23822306518554687,1.7501614135742187,-11.171344946289063
3485593563408,8.614802757,1,0.22266075439453123,1.725022296142578,-11.209652172851563
3485603562366,8.624801715,1,0.22505495605468748,1.7286135986328124,-11.162965240478515
3485613564033,8.634803382,1,0.2262520568847656,1.7405846069335937,-11.17254204711914
3485623563147,8.644802496,1,0.2501940734863281,1.7489643127441405,-11.208455072021483
3485633561533,8.654800882,1,0.2154781494140625,1.7334020019531249,-11.179724652099608
3485643562470,8.664801819,1,0.22744915771484372,1.7130512878417967,-11.226411584472656
3485653563720,8.674803069,1,0.2214636535644531,1.7166425903320313,-11.240776794433593
3485663563304,8.684802653,1,0.20350714111328125,1.725022296142578,-11.170147845458983
3485673563095,8.694802444,1,0.21906945190429686,1.725022296142578,-11.209652172851563
3485683563668,8.704803017,1,0.21906945190429686,1.7334020019531249,-11.200075366210937
3485693564502,8.714803851,1,0.229843359375,1.7214309936523438,-11.171344946289063
3485703563043,8.724802392,1,0.22385785522460935,1.7381904052734374,-11.19169566040039
3485713563147,8.734802496,1,0.27293898925781246,1.7226280944824217,-11.182118853759764
3485723563408,8.744802757,1,0.23104046020507812,1.7238251953125,-11.1474029296875
3485733564449,8.754803798,1,0.21308394775390624,1.7393875061035156,-11.18571015625
3485743563356,8.764802705,1,0.23343466186523437,1.7513585144042967,-11.183315954589844
3485753564554,8.774803903,1,0.24061726684570311,1.7226280944824217,-11.17254204711914
3485763564554,8.784803903,1,0.23822306518554687,1.725022296142578,-11.207257971191405
3485773564189,8.794803538,1,0.22864625854492185,1.7034744812011717,-11.203666668701171
3485783563252,8.804802601,1,0.22385785522460935,1.7190367919921874,-11.168950744628905
3485793558095,8.814797444,1,0.22744915771484372,1.734599102783203,-11.188104357910156
3485803563512,8.824802861,1,0.2442085693359375,1.7334020019531249,-11.17254204711914
3485813563304,8.834802653,1,0.23702596435546874,1.7118541870117185,-11.233594189453123
3485823562366,8.844801715,1,0.22385785522460935,1.7465701110839842,-11.192892761230468
3485833563252,8.854802601,1,0.2214636535644531,1.7310078002929687,-11.189301458740234
3485843562106,8.864801455,1,0.22266075439453123,1.7477672119140624,-11.19887826538086
3485853562991,8.87480234,1,0.229843359375,1.7298106994628906,-11.190498559570312
3485863562314,8.884801663,1,0.2609679809570312,1.725022296142578,-11.195286962890624
3485873562314,8.894801663,1,0.22505495605468748,1.7357962036132812,-11.17852755126953
3485883563356,8.904802705,1,0.23104046020507812,1.7238251953125,-11.221623181152344
3485893563460,8.914802809,1,0.22505495605468748,1.6915034729003906,-11.177330450439452
3485903579814,8.924819163,1,0.21188684692382811,1.7334020019531249,-11.167753643798827
3485913562991,8.93480234,1,0.19632453613281248,1.7561469177246092,-11.194089862060546
3485923562054,8.944801403,1,0.22744915771484372,1.7585411193847655,-11.176133349609374
3485933562366,8.954801715,1,0.2442085693359375,1.7609353210449217,-11.146205828857422
3485943564970,8.964804319,1,0.22385785522460935,1.7405846069335937,-11.222820281982422
3485953564501,8.97480385,1,0.22026655273437498,1.734599102783203,-11.19887826538086
3485963563408,8.984802757,1,0.20231004028320312,1.753752716064453,-11.197681164550781
3485973562939,8.994802288,1,0.2262520568847656,1.734599102783203,-11.168950744628905
3485983561429,9.004800778,1,0.2166752502441406,1.744175909423828,-11.19169566040039
3485993562835,9.014802184,1,0.22864625854492185,1.7489643127441405,-11.173739147949219
3486003602574,9.024841923,1,0.23702596435546874,1.7334020019531249,-11.212046374511718
3486013570856,9.034810205,1,0.2154781494140625,1.7190367919921874,-11.177330450439452
3486023562835,9.044802184,1,0.21906945190429686,1.725022296142578,-11.220426080322264
3486033564085,9.054803434,1,0.22505495605468748,1.7477672119140624,-11.197681164550781
3486043557054,9.064796403,1,0.21906945190429686,1.7417817077636717,-11.202469567871093
3486053562679,9.074802028,1,0.24181436767578124,1.7357962036132812,-11.19169566040039
3486063574866,9.084814215,1,0.19393033447265623,1.734599102783203,-11.212046374511718
3486073560960,9.094800309,1,0.24181436767578124,1.7417817077636717,-11.206060870361327
3486083559241,9.10479859,1,0.20470424194335937,1.7489643127441405,-11.177330450439452
3486093558147,9.114797496,1,0.2166752502441406,1.7166425903320313,-11.161768139648437
3486103611324,9.124850673,1,0.21428104858398436,1.7202338928222656,-11.208455072021483
3486113562887,9.134802236,1,0.21308394775390624,1.7322049011230467,-11.194089862060546
3486123563199,9.144802548,1,0.20231004028320312,1.7369933044433592,-11.180921752929686
3486133563043,9.154802392,1,0.24061726684570311,1.7130512878417967,-11.189301458740234
3486143562314,9.164801663,1,0.21308394775390624,1.7322049011230467,-11.154585534667968
3486153562835,9.174802184,1,0.2262520568847656,1.7202338928222656,-11.17852755126953
3486163561897,9.184801246,1,0.2454056701660156,1.734599102783203,-11.208455072021483
3486173561897,9.194801246,1,0.20829554443359374,1.7405846069335937,-11.189301458740234
3486183563460,9.204802809,1,0.2214636535644531,1.7381904052734374,-11.183315954589844
3486193563095,9.214802444,1,0.19153613281249998,1.7022773803710936,-11.235988391113281
3486203562470,9.224801819,1,0.23822306518554687,1.7429788085937499,-11.209652172851563
3486213563251,9.2348026,1,0.20470424194335937,1.7166425903320313,-11.186907257080078
3486223562887,9.244802236,1,0.22744915771484372,1.7322049011230467,-11.179724652099608
3486233562835,9.254802184,1,0.22505495605468748,1.707065783691406,-11.184513055419922
3486243563981,9.26480333,1,0.1927332336425781,1.7298106994628906,-11.179724652099608
3486253563616,9.274802965,1,0.21068974609375,1.7501614135742187,-11.17852755126953
3486263562366,9.284801715,1,0.2262520568847656,1.7621324218749999,-11.174936248779296
3486273561637,9.294800986,1,0.23822306518554687,1.7705121276855467,-11.168950744628905
3486283563199,9.304802548,1,0.23582886352539062,1.714248388671875,-11.192892761230468
3486293561793,9.314801142,1,0.20829554443359374,1.7286135986328124,-11.195286962890624
3486303562835,9.324802184,1,0.21428104858398436,1.7202338928222656,-11.180921752929686
3486313565283,9.334804632,1,0.1975216369628906,1.705868682861328,-11.212046374511718
3486323563199,9.344802548,1,0.22744915771484372,1.7298106994628906,-11.203666668701171
3486333563095,9.354802444,1,0.24181436767578124,1.725022296142578,-11.192892761230468
3486343561689,9.364801038,1,0.26216508178710934,1.7166425903320313,-11.182118853759764
3486353563147,9.374802496,1,0.22266075439453123,1.7274164978027342,-11.180921752929686
3486363562314,9.384801663,1,0.22026655273437498,1.7465701110839842,-11.209652172851563
3486373561533,9.394800882,1,0.2346317626953125,1.744175909423828,-11.173739147949219
3486383561897,9.404801246,1,0.23223756103515625,1.7274164978027342,-11.12226381225586
3486393562835,9.414802184,1,0.2214636535644531,1.696291876220703,-11.19887826538086
3486403562574,9.424801923,1,0.2154781494140625,1.7166425903320313,-11.184513055419922
3486413564553,9.434803902,1,0.21428104858398436,1.7214309936523438,-11.168950744628905
3486423563355,9.444802704,1,0.21428104858398436,1.7178396911621092,-11.200075366210937
3486433562991,9.45480234,1,0.22026655273437498,1.7106570861816406,-11.228805786132812
3486443562835,9.464802184,1,0.22505495605468748,1.7214309936523438,-11.207257971191405
3486453563408,9.474802757,1,0.23343466186523437,1.7202338928222656,-11.18571015625
3486463564918,9.484804267,1,0.21787235107421873,1.7202338928222656,-11.189301458740234
3486473563512,9.494802861,1,0.22266075439453123,1.725022296142578,-11.215637677001952
3486483563616,9.504802965,1,0.21188684692382811,1.7130512878417967,-11.200075366210937
3486493563824,9.514803173,1,0.21068974609375,1.7190367919921874,-11.180921752929686
3486503562678,9.524802027,1,0.24061726684570311,1.7369933044433592,-11.170147845458983
3486513563460,9.534802809,1,0.24779987182617186,1.7405846069335937,-11.173739147949219
3486523563720,9.544803069,1,0.2454056701660156,1.7190367919921874,-11.171344946289063
3486533566012,9.554805361,1,0.22266075439453123,1.7429788085937499,-11.194089862060546
3486543561949,9.564801298,1,0.2454056701660156,1.7369933044433592,-11.183315954589844
3486553562991,9.57480234,1,0.21308394775390624,1.7322049011230467,-11.219228979492186
3486563560908,9.584800257,1,0.20709844360351562,1.715445489501953,-11.196484063720703
3486573562105,9.594801454,1,0.2501940734863281,1.7298106994628906,-11.183315954589844
3486583563095,9.604802444,1,0.2262520568847656,1.7298106994628906,-11.170147845458983
3486593563303,9.614802652,1,0.23104046020507812,1.7214309936523438,-11.189301458740234
3486603563251,9.6248026,1,0.25737667846679685,1.7453730102539062,-11.227608685302734
3486613562314,9.634801663,1,0.23582886352539062,1.7334020019531249,-11.159373937988281
3486623562574,9.644801923,1,0.21188684692382811,1.7262193969726563,-11.179724652099608
3486633563095,9.654802444,1,0.25737667846679685,1.734599102783203,-11.17852755126953
3486643562939,9.664802288,1,0.23223756103515625,1.707065783691406,-11.220426080322264
3486653562991,9.67480234,1,0.25737667846679685,1.7405846069335937,-11.17852755126953
3486663562730,9.684802079,1,0.24779987182617186,1.7357962036132812,-11.188104357910156
3486673562939,9.694802288,1,0.24061726684570311,1.7381904052734374,-11.189301458740234
3486683563616,9.704802965,1,0.23104046020507812,1.7298106994628906,-11.19887826538086
3486693563251,9.7148026,1,0.229843359375,1.7286135986328124,-11.19887826538086
3486703562366,9.724801715,1,0.22385785522460935,1.7322049011230467,-11.204863769531249
3486713579657,9.734819006,1,0.24660277099609373,1.7417817077636717,-11.192892761230468
3486723562991,9.74480234,1,0.20350714111328125,1.7238251953125,-11.177330450439452
3486733562626,9.754801975,1,0.21068974609375,1.7357962036132812,-11.189301458740234
3486743564137,9.764803486,1,0.2501940734863281,1.7130512878417967,-11.196484063720703
3486753563303,9.774802652,1,0.24181436767578124,1.7202338928222656,-11.195286962890624
3486763563199,9.784802548,1,0.25139117431640623,1.7298106994628906,-11.206060870361327
3486773563355,9.794802704,1,0.21787235107421873,1.7202338928222656,-11.170147845458983
3486783551376,9.804790725,1,0.22266075439453123,1.7082628845214842,-11.200075366210937
3486793564293,9.814803642,1,0.23223756103515625,1.744175909423828,-11.162965240478515
3486803562522,9.824801871,1,0.2454056701660156,1.7274164978027342,-11.200075366210937
3486813579241,9.83481859,1,0.21428104858398436,1.7238251953125,-11.234791290283203
3486823563616,9.844802965,1,0.2561795776367187,1.725022296142578,-11.165359442138671
3486833562991,9.85480234,1,0.19393033447265623,1.7238251953125,-11.1474029296875
3486843562366,9.864801715,1,0.21188684692382811,1.7334020019531249,-11.233594189453123
3486853563720,9.874803069,1,0.23702596435546874,1.7477672119140624,-11.218031878662108
3486863563564,9.884802913,1,0.23582886352539062,1.7334020019531249,-11.202469567871093
3486873563043,9.894802392,1,0.2442085693359375,1.7274164978027342,-11.183315954589844
3486883562418,9.904801767,1,0.21188684692382811,1.7334020019531249,-11.18571015625
3486893561897,9.914801246,1,0.22026655273437498,1.696291876220703,-11.23000288696289
3486903562574,9.924801923,1,0.21428104858398436,1.7298106994628906,-11.158176837158203
3486913562887,9.934802236,1,0.19871873779296872,1.7417817077636717,-11.189301458740234
3486923563720,9.944803069,1,0.2059013427734375,1.7549498168945312,-11.159373937988281
3486933562626,9.954801975,1,0.2262520568847656,1.7286135986328124,-11.176133349609374
3486943558407,9.964797756,1,0.22864625854492185,1.7334020019531249,-11.264718811035156
3486953573720,9.974813069,1,0.25139117431640623,1.725022296142578,-11.196484063720703
3486963564241,9.98480359,1,0.2454056701660156,1.7298106994628906,-11.18571015625
3486973562730,9.994802079,1,0.2154781494140625,1.7453730102539062,-11.176133349609374
3486983562366,10.004801715,1,0.22266075439453123,1.7118541870117185,-11.188104357910156
3486993562991,10.01480234,1,0.2262520568847656,1.7525556152343749,-11.19169566040039
3487003561689,10.024801038,1,0.20949264526367187,1.7357962036132812,-11.19887826538086
3487013563407,10.034802756,1,0.2346317626953125,1.7238251953125,-11.162965240478515
3487023564032,10.044803381,1,0.21308394775390624,1.7298106994628906,-11.19169566040039
3487033557522,10.054796871,1,0.2214636535644531,1.7082628845214842,-11.219228979492186
3487043561428,10.064800777,1,0.2214636535644531,1.725022296142578,-11.202469567871093
3487053562834,10.074802183,1,0.229843359375,1.7310078002929687,-11.180921752929686
3487063566845,10.084806194,1,0.22864625854492185,1.734599102783203,-11.202469567871093
3487073564397,10.094803746,1,0.20949264526367187,1.715445489501953,-11.194089862060546
3487083562886,10.104802235,1,0.19991583862304688,1.7190367919921874,-11.194089862060546
3487093562522,10.114801871,1,0.22385785522460935,1.7130512878417967,-11.18571015625
3487103562626,10.124801975,1,0.21308394775390624,1.753752716064453,-11.206060870361327
3487113563564,10.134802913,1,0.20709844360351562,1.7549498168945312,-11.183315954589844
3487123563251,10.1448026,1,0.2442085693359375,1.7238251953125,-11.188104357910156
3487133564084,10.154803433,1,0.22864625854492185,1.725022296142578,-11.16057103881836
3487143562522,10.164801871,1,0.2346317626953125,1.7190367919921874,-11.182118853759764
3487153563616,10.174802965,1,0.2059013427734375,1.725022296142578,-11.177330450439452
3487163563459,10.184802808,1,0.22744915771484372,1.7238251953125,-11.186907257080078
3487173563928,10.194803277,1,0.23822306518554687,1.7238251953125,-11.182118853759764
3487183562782,10.204802131,1,0.23343466186523437,1.7417817077636717,-11.21084927368164
3487193563355,10.214802704,1,0.23223756103515625,1.7106570861816406,-11.189301458740234
3487203563564,10.224802913,1,0.2346317626953125,1.7298106994628906,-11.201272467041015
3487213563616,10.234802965,1,0.24660277099609373,1.7298106994628906,-11.184513055419922
3487223562678,10.244802027,1,0.20829554443359374,1.7465701110839842,-11.200075366210937
3487233564241,10.25480359,1,0.23702596435546874,1.7166425903320313,-11.152191333007812
3487243562782,10.264802131,1,0.24061726684570311,1.7369933044433592,-11.171344946289063
3487253563824,10.274803173,1,0.19393033447265623,1.7118541870117185,-11.2240173828125
3487263557782,10.284797131,1,0.21787235107421873,1.7381904052734374,-11.196484063720703
3487273563668,10.294803017,1,0.22505495605468748,1.7417817077636717,-11.221623181152344
3487283557001,10.30479635,1,0.22266075439453123,1.7094599853515624,-11.162965240478515
3487293557522,10.314796871,1,0.24061726684570311,1.7585411193847655,-11.167753643798827
3487303563043,10.324802392,1,0.20829554443359374,1.7214309936523438,-11.18571015625
3487313562313,10.334801662,1,0.23343466186523437,1.7357962036132812,-11.150994232177734
3487323561636,10.344800985,1,0.23702596435546874,1.744175909423828,-11.173739147949219
3487333562678,10.354802027,1,0.23343466186523437,1.7298106994628906,-11.208455072021483
3487343563095,10.364802444,1,0.23702596435546874,1.7214309936523438,-11.176133349609374
3487353561741,10.37480109,1,0.2442085693359375,1.7106570861816406,-11.165359442138671
3487363563511,10.38480286,1,0.22744915771484372,1.6986860778808592,-11.173739147949219
3487373562782,10.394802131,1,0.2501940734863281,1.7010802795410156,-11.21084927368164
3487383562313,10.404801662,1,0.2262520568847656,1.7262193969726563,-11.18571015625
3487393563928,10.414803277,1,0.23702596435546874,1.7334020019531249,-11.174936248779296
3487403562366,10.424801715,1,0.18435352783203124,1.7274164978027342,-11.197681164550781
3487413562886,10.434802235,1,0.2346317626953125,1.7357962036132812,-11.2240173828125
3487423581168,10.444820517,1,0.23582886352539062,1.7369933044433592,-11.152191333007812
3487433563772,10.454803121,1,0.24061726684570311,1.714248388671875,-11.167753643798827
3487443562834,10.464802183,1,0.25139117431640623,1.7274164978027342,-11.18571015625
3487453563199,10.474802548,1,0.20709844360351562,1.7381904052734374,-11.214440576171874
3487463564188,10.484803537,1,0.22266075439453123,1.7477672119140624,-11.19169566040039
3487473563928,10.494803277,1,0.2346317626953125,1.7262193969726563,-11.204863769531249
3487483563459,10.504802808,1,0.22505495605468748,1.7393875061035156,-11.212046374511718
3487493564136,10.514803485,1,0.21428104858398436,1.7393875061035156,-11.195286962890624
3487503562782,10.524802131,1,0.21188684692382811,1.7190367919921874,-11.202469567871093
3487513563043,10.534802392,1,0.23343466186523437,1.7369933044433592,-11.21084927368164
3487523602053,10.544841402,1,0.23104046020507812,1.7262193969726563,-11.21084927368164
3487533562313,10.554801662,1,0.21188684692382811,1.7393875061035156,-11.162965240478515
3487543563147,10.564802496,1,0.2454056701660156,1.7357962036132812,-11.173739147949219
3487553561532,10.574800881,1,0.23822306518554687,1.7166425903320313,-11.261127508544922
3487563562365,10.584801714,1,0.21188684692382811,1.7573440185546874,-11.19887826538086
3487573562990,10.594802339,1,0.20350714111328125,1.7238251953125,-11.165359442138671
3487583557001,10.60479635,1,0.23223756103515625,1.714248388671875,-11.186907257080078
3487593563147,10.614802496,1,0.24660277099609373,1.7262193969726563,-11.188104357910156
3487603562886,10.624802235,1,0.2346317626953125,1.7286135986328124,-11.155782635498046
3487613563407,10.634802756,1,0.2262520568847656,1.725022296142578,-11.179724652099608
3487623562782,10.644802131,1,0.22864625854492185,1.7190367919921874,-11.180921752929686
3487633565022,10.654804371,1,0.22505495605468748,1.7214309936523438,-11.171344946289063
3487643563563,10.664802912,1,0.20709844360351562,1.7262193969726563,-11.161768139648437
3487653562886,10.674802235,1,0.22026655273437498,1.7298106994628906,-11.209652172851563
3487663562313,10.684801662,1,0.22505495605468748,1.7429788085937499,-11.164162341308593
3487673562157,10.694801506,1,0.22505495605468748,1.744175909423828,-11.184513055419922
3487683562782,10.704802131,1,0.2537853759765625,1.7190367919921874,-11.196484063720703
3487693563563,10.714802912,1,0.229843359375,1.753752716064453,-11.161768139648437
3487703563355,10.724802704,1,0.20949264526367187,1.734599102783203,-11.226411584472656
3487713563407,10.734802756,1,0.2442085693359375,1.725022296142578,-11.190498559570312
3487723562470,10.744801819,1,0.24899697265624998,1.7262193969726563,-11.196484063720703
3487733563980,10.754803329,1,0.24061726684570311,1.744175909423828,-11.166556542968749
3487743562782,10.764802131,1,0.2154781494140625,1.7310078002929687,-11.19169566040039
3487753563511,10.77480286,1,0.21428104858398436,1.7501614135742187,-11.208455072021483
3487763563251,10.7848026,1,0.2454056701660156,1.7334020019531249,-11.17254204711914
3487773563095,10.794802444,1,0.22505495605468748,1.7166425903320313,-11.18571015625
3487783561636,10.804800985,1,0.23702596435546874,1.7369933044433592,-11.162965240478515
3487793562730,10.814802079,1,0.23223756103515625,1.7226280944824217,-11.159373937988281
3487803563303,10.824802652,1,0.2346317626953125,1.7322049011230467,-11.183315954589844
3487813564553,10.834803902,1,0.2154781494140625,1.7202338928222656,-11.155782635498046
3487823563042,10.844802391,1,0.26216508178710934,1.725022296142578,-11.197681164550781
3487833563199,10.854802548,1,0.24779987182617186,1.7369933044433592,-11.206060870361327
3487843562417,10.864801766,1,0.20709844360351562,1.7322049011230467,-11.174936248779296
3487853562834,10.874802183,1,0.20949264526367187,1.7405846069335937,-11.19169566040039
3487863562053,10.884801402,1,0.24660277099609373,1.7322049011230467,-11.17852755126953
3487873563199,10.894802548,1,0.21188684692382811,1.7094599853515624,-11.182118853759764
3487883562834,10.904802183,1,0.23702596435546874,1.7226280944824217,-11.183315954589844
3487893563459,10.914802808,1,0.25737667846679685,1.7429788085937499,-11.165359442138671
3487903562678,10.924802027,1,0.22266075439453123,1.7477672119140624,-11.184513055419922
3487913563251,10.9348026,1,0.2154781494140625,1.7238251953125,-11.173739147949219
3487923563251,10.9448026,1,0.2454056701660156,1.7405846069335937,-11.2240173828125
3487933562261,10.95480161,1,0.20470424194335937,1.734599102783203,-11.17254204711914
3487943562522,10.964801871,1,0.21906945190429686,1.7130512878417967,-11.184513055419922
3487953563251,10.9748026,1,0.23582886352539062,1.7214309936523438,-11.203666668701171
3487963562574,10.984801923,1,0.239420166015625,1.7226280944824217,-11.155782635498046
3487973592990,10.994832339,1,0.2214636535644531,1.7393875061035156,-11.155782635498046
3487983573667,11.004813016,1,0.23822306518554687,1.725022296142578,-11.164162341308593
3487993561324,11.014800673,1,0.23343466186523437,1.7202338928222656,-11.166556542968749
3488003566376,11.024805725,1,0.23104046020507812,1.7322049011230467,-11.158176837158203
3488013562886,11.034802235,1,0.2214636535644531,1.7274164978027342,-11.19887826538086
3488023559449,11.044798798,1,0.26336218261718747,1.7310078002929687,-11.173739147949219
3488033562730,11.054802079,1,0.22505495605468748,1.7214309936523438,-11.19169566040039
3488043561063,11.064800412,1,0.21428104858398436,1.7214309936523438,-11.19169566040039
3488053559084,11.074798433,1,0.20350714111328125,1.744175909423828,-11.180921752929686
3488063556272,11.084795621,1,0.23223756103515625,1.7274164978027342,-11.19169566040039
3488073560438,11.094799787,1,0.2454056701660156,1.734599102783203,-11.21683477783203
3488083559605,11.104798954,1,0.2214636535644531,1.7094599853515624,-11.171344946289063
3488093560074,11.114799423,1,0.21308394775390624,1.7298106994628906,-11.176133349609374
3488103560334,11.124799683,1,0.22744915771484372,1.7322049011230467,-11.203666668701171
3488113558615,11.134797964,1,0.22026655273437498,1.7286135986328124,-11.180921752929686
3488123560334,11.144799683,1,0.2214636535644531,1.7369933044433592,-11.171344946289063
3488133599553,11.154838902,1,0.22505495605468748,1.7310078002929687,-11.201272467041015
3488143559969,11.164799318,1,0.2549824768066406,1.725022296142578,-11.209652172851563
3488153560126,11.174799475,1,0.2214636535644531,1.7393875061035156,-11.206060870361327
3488163558824,11.184798173,1,0.23104046020507812,1.7202338928222656,-11.232397088623046
3488173558824,11.194798173,1,0.23104046020507812,1.7238251953125,-11.215637677001952
3488183561011,11.20480036,1,0.23343466186523437,1.7357962036132812,-11.168950744628905
3488193560699,11.214800048,1,0.22266075439453123,1.7597382202148437,-11.197681164550781
3488203559344,11.224798693,1,0.20829554443359374,1.7310078002929687,-11.18571015625
3488213558355,11.234797704,1,0.258573779296875,1.725022296142578,-11.21084927368164
3488223558771,11.24479812,1,0.23223756103515625,1.707065783691406,-11.183315954589844
3488233558146,11.254797495,1,0.23702596435546874,1.725022296142578,-11.213243475341796
3488243561115,11.264800464,1,0.22864625854492185,1.7489643127441405,-11.167753643798827
3488253556949,11.274796298,1,0.20709844360351562,1.7417817077636717,-11.21084927368164
3488263560855,11.284800204,1,0.21308394775390624,1.7034744812011717,-11.192892761230468
3488273555803,11.294795152,1,0.23582886352539062,1.7274164978027342,-11.196484063720703
3488283560230,11.304799579,1,0.21428104858398436,1.7226280944824217,-11.180921752929686
3488293562261,11.31480161,1,0.21188684692382811,1.715445489501953,-11.176133349609374
3488303558511,11.32479786,1,0.21787235107421873,1.7238251953125,-11.192892761230468
3488313558980,11.334798329,1,0.2346317626953125,1.7405846069335937,-11.200075366210937
3488323558928,11.344798277,1,0.25258827514648435,1.7118541870117185,-11.16057103881836
3488333558303,11.354797652,1,0.2166752502441406,1.7334020019531249,-11.201272467041015
3488343560126,11.364799475,1,0.20709844360351562,1.725022296142578,-11.176133349609374
3488353560282,11.374799631,1,0.21308394775390624,1.7274164978027342,-11.19887826538086
3488363559136,11.384798485,1,0.2262520568847656,1.7369933044433592,-11.220426080322264
3488373559813,11.394799162,1,0.23223756103515625,1.7429788085937499,-11.189301458740234
3488383558667,11.404798016,1,0.2166752502441406,1.715445489501953,-11.203666668701171
3488393558980,11.414798329,1,0.2166752502441406,1.7369933044433592,-11.180921752929686
3488403559032,11.424798381,1,0.1879448303222656,1.7274164978027342,-11.177330450439452
3488413559084,11.434798433,1,0.23822306518554687,1.7405846069335937,-11.202469567871093
3488423558459,11.444797808,1,0.23343466186523437,1.7429788085937499,-11.152191333007812
3488433558407,11.454797756,1,0.19871873779296872,1.7453730102539062,-11.179724652099608
3488443560751,11.4648001,1,0.21308394775390624,1.7489643127441405,-11.170147845458983
3488453559292,11.474798641,1,0.24899697265624998,1.7405846069335937,-11.150994232177734
3488463560230,11.484799579,1,0.23702596435546874,1.7262193969726563,-11.17254204711914
3488473558667,11.494798016,1,0.2262520568847656,1.7310078002929687,-11.196484063720703
3488483559813,11.504799162,1,0.2166752502441406,1.7513585144042967,-11.201272467041015
3488493560126,11.514799475,1,0.2346317626953125,1.7657237243652342,-11.170147845458983
3488503561011,11.52480036,1,0.23223756103515625,1.7214309936523438,-11.180921752929686
3488513558876,11.534798225,1,0.23582886352539062,1.7369933044433592,-11.190498559570312
3488523556688,11.544796037,1,0.21787235107421873,1.7226280944824217,-11.234791290283203
3488533560126,11.554799475,1,0.24899697265624998,1.7298106994628906,-11.156979736328124
3488543560959,11.564800308,1,0.2214636535644531,1.744175909423828,-11.182118853759764
3488553558980,11.574798329,1,0.2262520568847656,1.7405846069335937,-11.180921752929686
3488563560490,11.584799839,1,0.2214636535644531,1.7357962036132812,-11.228805786132812
3488573556219,11.594795568,1,0.2454056701660156,1.7262193969726563,-11.17852755126953
3488583560125,11.604799474,1,0.21906945190429686,1.7417817077636717,-11.2240173828125
3488593560438,11.614799787,1,0.23223756103515625,1.7190367919921874,-11.214440576171874
3488603555282,11.624794631,1,0.19991583862304688,1.7274164978027342,-11.206060870361327
3488613562105,11.634801454,1,0.20709844360351562,1.7178396911621092,-11.192892761230468
3488623560073,11.644799422,1,0.19871873779296872,1.7393875061035156,-11.164162341308593
3488633559448,11.654798797,1,0.23104046020507812,1.7298106994628906,-11.19887826538086
3488643599553,11.664838902,1,0.22266075439453123,1.7178396911621092,-11.207257971191405
3488653560855,11.674800204,1,0.23343466186523437,1.714248388671875,-11.17254204711914
3488663557990,11.684797339,1,0.24660277099609373,1.714248388671875,-11.156979736328124
3488673558615,11.694797964,1,0.24181436767578124,1.7369933044433592,-11.192892761230468
3488683559032,11.704798381,1,0.2214636535644531,1.734599102783203,-11.180921752929686
3488693559292,11.714798641,1,0.2262520568847656,1.753752716064453,-11.190498559570312
3488703558511,11.72479786,1,0.2346317626953125,1.753752716064453,-11.176133349609374
3488713558198,11.734797547,1,0.19871873779296872,1.7178396911621092,-11.192892761230468
3488723558407,11.744797756,1,0.2346317626953125,1.753752716064453,-11.19887826538086
3488733558198,11.754797547,1,0.2059013427734375,1.7094599853515624,-11.197681164550781
3488743597678,11.764837027,1,0.20829554443359374,1.7381904052734374,-11.18571015625
3488753559032,11.774798381,1,0.24181436767578124,1.7298106994628906,-11.201272467041015
3488763559761,11.78479911,1,0.2705447875976562,1.7082628845214842,-11.203666668701171
3488773560177,11.794799526,1,0.2154781494140625,1.7381904052734374,-11.214440576171874
3488783559969,11.804799318,1,0.21428104858398436,1.7405846069335937,-11.208455072021483
3488793559969,11.814799318,1,0.2454056701660156,1.7501614135742187,-11.186907257080078
3488803558459,11.824797808,1,0.23343466186523437,1.7202338928222656,-11.186907257080078
3488813558250,11.834797599,1,0.201112939453125,1.705868682861328,-11.150994232177734
3488823559344,11.844798693,1,0.229843359375,1.7190367919921874,-11.158176837158203
3488833560021,11.85479937,1,0.21906945190429686,1.7166425903320313,-11.190498559570312
3488843596323,11.864835672,1,0.22505495605468748,1.7501614135742187,-11.197681164550781
3488853561688,11.874801037,1,0.23104046020507812,1.7274164978027342,-11.1474029296875
3488863559605,11.884798954,1,0.20949264526367187,1.7477672119140624,-11.167753643798827
3488873558771,11.89479812,1,0.23343466186523437,1.7477672119140624,-11.202469567871093
3488883559552,11.904798901,1,0.2537853759765625,1.753752716064453,-11.221623181152344
3488893560542,11.914799891,1,0.22026655273437498,1.6998831787109374,-11.188104357910156
3488903559969,11.924799318,1,0.2346317626953125,1.7405846069335937,-11.192892761230468
3488913560334,11.934799683,1,0.21428104858398436,1.7477672119140624,-11.177330450439452
3488923559969,11.944799318,1,0.23702596435546874,1.7286135986328124,-11.18571015625
3488933564500,11.954803849,1,0.23223756103515625,1.707065783691406,-11.2240173828125
3488943605542,11.964844891,1,0.2501940734863281,1.7094599853515624,-11.195286962890624
3488953561532,11.974800881,1,0.23104046020507812,1.7178396911621092,-11.179724652099608
3488963561167,11.984800516,1,0.239420166015625,1.7381904052734374,-11.186907257080078
3488973560959,11.994800308,1,0.22505495605468748,1.7262193969726563,-11.179724652099608
3488983559604,12.004798953,1,0.23822306518554687,1.7417817077636717,-11.208455072021483
3488993558979,12.014798328,1,0.20709844360351562,1.7393875061035156,-11.159373937988281
3489003559552,12.024798901,1,0.22026655273437498,1.7178396911621092,-11.208455072021483
3489013560802,12.034800151,1,0.2214636535644531,1.7453730102539062,-11.188104357910156
3489023560021,12.04479937,1,0.24899697265624998,1.7286135986328124,-11.15338843383789
3489033559344,12.054798693,1,0.2262520568847656,1.7202338928222656,-11.227608685302734
3489043559448,12.064798797,1,0.24660277099609373,1.7286135986328124,-11.214440576171874
3489053560229,12.074799578,1,0.23223756103515625,1.7106570861816406,-11.179724652099608
3489063558198,12.084797547,1,0.24061726684570311,1.7381904052734374,-11.171344946289063
3489073562573,12.094801922,1,0.2166752502441406,1.7334020019531249,-11.184513055419922
3489083560386,12.104799735,1,0.24899697265624998,1.7274164978027342,-11.2240173828125
3489093560229,12.114799578,1,0.23822306518554687,1.7429788085937499,-11.207257971191405
3489103558615,12.124797964,1,0.23104046020507812,1.7477672119140624,-11.204863769531249
3489113558823,12.134798172,1,0.24061726684570311,1.7405846069335937,-11.170147845458983
3489123560386,12.144799735,1,0.22385785522460935,1.744175909423828,-11.168950744628905
3489133558719,12.154798068,1,0.22864625854492185,1.7082628845214842,-11.189301458740234
3489143559552,12.164798901,1,0.2442085693359375,1.7322049011230467,-11.182118853759764
3489153562000,12.174801349,1,0.23702596435546874,1.7238251953125,-11.186907257080078
3489163559657,12.184799006,1,0.19512743530273435,1.7429788085937499,-11.200075366210937
3489173559552,12.194798901,1,0.22864625854492185,1.7190367919921874,-11.202469567871093
3489183559344,12.204798693,1,0.2214636535644531,1.7501614135742187,-11.200075366210937
3489193559032,12.214798381,1,0.20709844360351562,1.7477672119140624,-11.226411584472656
3489203559084,12.224798433,1,0.23582886352539062,1.7429788085937499,-11.186907257080078
3489213558615,12.234797964,1,0.22744915771484372,1.7238251953125,-11.173739147949219
3489223559344,12.244798693,1,0.25139117431640623,1.7298106994628906,-11.19169566040039
3489233558979,12.254798328,1,0.22864625854492185,1.7262193969726563,-11.162965240478515
3489243558302,12.264797651,1,0.23822306518554687,1.7489643127441405,-11.203666668701171
3489253560229,12.274799578,1,0.24061726684570311,1.734599102783203,-11.17254204711914
3489263558927,12.284798276,1,0.24899697265624998,1.7298106994628906,-11.17254204711914
3489273560073,12.294799422,1,0.20949264526367187,1.7369933044433592,-11.202469567871093
3489283558667,12.304798016,1,0.21188684692382811,1.7417817077636717,-11.19887826538086
3489293558615,12.314797964,1,0.21308394775390624,1.7130512878417967,-11.207257971191405
3489303559761,12.32479911,1,0.2454056701660156,1.7310078002929687,-11.201272467041015
3489313559552,12.334798901,1,0.2549824768066406,1.7274164978027342,-11.177330450439452
3489323560906,12.344800255,1,0.2705447875976562,1.753752716064453,-11.202469567871093
3489333559396,12.354798745,1,0.23343466186523437,1.7298106994628906,-11.19887826538086
3489343555750,12.364795099,1,0.25258827514648435,1.7429788085937499,-11.186907257080078
3489353559813,12.374799162,1,0.239420166015625,1.7381904052734374,-11.201272467041015
3489363557677,12.384797026,1,0.21906945190429686,1.7405846069335937,-11.219228979492186
3489373560854,12.394800203,1,0.2549824768066406,1.7369933044433592,-11.233594189453123
3489383557990,12.404797339,1,0.2154781494140625,1.7609353210449217,-11.16057103881836
3489393559552,12.414798901,1,0.2454056701660156,1.734599102783203,-11.149797131347656
3489403558927,12.424798276,1,0.2442085693359375,1.7214309936523438,-11.189301458740234
3489413558459,12.434797808,1,0.2262520568847656,1.7429788085937499,-11.190498559570312
3489423558302,12.444797651,1,0.21428104858398436,1.7334020019531249,-11.214440576171874
3489433558458,12.454797807,1,0.22026655273437498,1.753752716064453,-11.16057103881836
3489443558979,12.464798328,1,0.21428104858398436,1.7393875061035156,-11.212046374511718
3489453561636,12.474800985,1,0.239420166015625,1.7310078002929687,-11.219228979492186
3489463560386,12.484799735,1,0.21906945190429686,1.7417817077636717,-11.221623181152344
3489473558719,12.494798068,1,0.21787235107421873,1.7214309936523438,-11.148600030517578
3489483558927,12.504798276,1,0.21308394775390624,1.7322049011230467,-11.173739147949219
3489493559188,12.514798537,1,0.22744915771484372,1.7238251953125,-11.21084927368164
3489503558563,12.524797912,1,0.21906945190429686,1.7202338928222656,-11.159373937988281
3489513556688,12.534796037,1,0.25139117431640623,1.7202338928222656,-11.18571015625
3489523560490,12.544799839,1,0.20709844360351562,1.7118541870117185,-11.19887826538086
3489533558979,12.554798328,1,0.22505495605468748,1.7310078002929687,-11.202469567871093
3489543558198,12.564797547,1,0.23223756103515625,1.7322049011230467,-11.218031878662108
3489553560281,12.57479963,1,0.24181436767578124,1.7226280944824217,-11.243170996093749
3489563559344,12.584798693,1,0.19393033447265623,1.7214309936523438,-11.180921752929686
3489573558094,12.594797443,1,0.23822306518554687,1.7417817077636717,-11.184513055419922
3489583559552,12.604798901,1,0.201112939453125,1.7094599853515624,-11.16057103881836
3489593560021,12.61479937,1,0.24301146850585936,1.7501614135742187,-11.186907257080078
3489603560750,12.624800099,1,0.21906945190429686,1.7202338928222656,-11.164162341308593
3489613560594,12.634799943,1,0.23702596435546874,1.7513585144042967,-11.204863769531249
3489623558979,12.644798328,1,0.22026655273437498,1.7525556152343749,-11.18571015625
3489633559292,12.654798641,1,0.229843359375,1.7226280944824217,-11.213243475341796
3489643560073,12.664799422,1,0.22026655273437498,1.7417817077636717,-11.190498559570312
3489653559969,12.674799318,1,0.24660277099609373,1.7453730102539062,-11.200075366210937
3489663559135,12.684798484,1,0.2454056701660156,1.7489643127441405,-11.201272467041015
3489673559396,12.694798745,1,0.22505495605468748,1.734599102783203,-11.200075366210937
3489683558719,12.704798068,1,0.23822306518554687,1.7166425903320313,-11.188104357910156
3489693559656,12.714799005,1,0.23223756103515625,1.7274164978027342,-11.200075366210937
3489703558615,12.724797964,1,0.19033903198242186,1.7238251953125,-11.174936248779296
3489713559500,12.734798849,1,0.23343466186523437,1.725022296142578,-11.171344946289063
3489723559083,12.744798432,1,0.24899697265624998,1.7310078002929687,-11.221623181152344
3489733559865,12.754799214,1,0.2442085693359375,1.725022296142578,-11.177330450439452
3489743560438,12.764799787,1,0.24181436767578124,1.7130512878417967,-11.203666668701171
3489753560854,12.774800203,1,0.22266075439453123,1.7310078002929687,-11.197681164550781
3489763555958,12.784795307,1,0.22505495605468748,1.7298106994628906,-11.182118853759764
3489773560073,12.794799422,1,0.22266075439453123,1.7286135986328124,-11.150994232177734
3489783558979,12.804798328,1,0.23343466186523437,1.7585411193847655,-11.200075366210937
3489793559083,12.814798432,1,0.22505495605468748,1.7501614135742187,-11.188104357910156
3489803559135,12.824798484,1,0.24061726684570311,1.7669208251953124,-11.186907257080078
3489813558354,12.834797703,1,0.22864625854492185,1.7357962036132812,-11.152191333007812
3489823559083,12.844798432,1,0.2549824768066406,1.7202338928222656,-11.179724652099608
3489833558406,12.854797755,1,0.239420166015625,1.7106570861816406,-11.209652172851563
3489843560125,12.864799474,1,0.22744915771484372,1.7190367919921874,-11.201272467041015
3489853554344,12.874793693,1,0.2501940734863281,1.7657237243652342,-11.209652172851563
3489863561479,12.884800828,1,0.24779987182617186,1.7286135986328124,-11.182118853759764
3489873559135,12.894798484,1,0.22266075439453123,1.7022773803710936,-11.174936248779296
3489883558719,12.904798068,1,0.22385785522460935,1.714248388671875,-11.234791290283203
3489893560281,12.91479963,1,0.229843359375,1.7094599853515624,-11.188104357910156
3489903558146,12.924797495,1,0.24899697265624998,1.7405846069335937,-11.16057103881836
3489913558406,12.934797755,1,0.2561795776367187,1.7417817077636717,-11.183315954589844
3489923558302,12.944797651,1,0.25737667846679685,1.7022773803710936,-11.179724652099608
3489933558979,12.954798328,1,0.2442085693359375,1.7369933044433592,-11.188104357910156
3489943558146,12.964797495,1,0.22744915771484372,1.7190367919921874,-11.222820281982422
3489953598667,12.974838016,1,0.24899697265624998,1.7214309936523438,-11.15338843383789
3489963559604,12.984798953,1,0.23223756103515625,1.7501614135742187,-11.188104357910156
3489973558823,12.994798172,1,0.21308394775390624,1.7214309936523438,-11.182118853759764
3489983559135,13.004798484,1,0.21787235107421873,1.725022296142578,-11.17254204711914
3489993559917,13.014799266,1,0.22266075439453123,1.7381904052734374,-11.201272467041015
3490003615073,13.024854422,1,0.22266075439453123,1.7274164978027342,-11.195286962890624
3490013630646,13.034869995,1,0.22864625854492185,1.7298106994628906,-11.18571015625
3490023561010,13.044800359,1,0.2346317626953125,1.7417817077636717,-11.206060870361327
3490033563458,13.054802807,1,0.22026655273437498,1.7226280944824217,-11.21084927368164
3490043561010,13.064800359,1,0.20709844360351562,1.7597382202148437,-11.21084927368164
3490053618146,13.074857495,1,0.22744915771484372,1.7286135986328124,-11.208455072021483
3490063561792,13.084801141,1,0.239420166015625,1.7178396911621092,-11.17852755126953
3490073559552,13.094798901,1,0.21906945190429686,1.7178396911621092,-11.203666668701171
3490083559552,13.104798901,1,0.24181436767578124,1.7429788085937499,-11.184513055419922
3490093559604,13.114798953,1,0.23582886352539062,1.7166425903320313,-11.177330450439452
3490103558771,13.12479812,1,0.20470424194335937,1.725022296142578,-11.171344946289063
3490113559552,13.134798901,1,0.23343466186523437,1.7298106994628906,-11.180921752929686
3490123560333,13.144799682,1,0.19871873779296872,1.7082628845214842,-11.219228979492186
3490133559448,13.154798797,1,0.2454056701660156,1.7298106994628906,-11.208455072021483
3490143559031,13.16479838,1,0.22266075439453123,1.7513585144042967,-11.213243475341796
3490153560802,13.174800151,1,0.229843359375,1.7669208251953124,-11.190498559570312
3490163560333,13.184799682,1,0.22385785522460935,1.7513585144042967,-11.179724652099608
3490173559135,13.194798484,1,0.22864625854492185,1.7274164978027342,-11.17254204711914
3490183558614,13.204797963,1,0.229843359375,1.7190367919921874,-11.183315954589844
3490193559187,13.214798536,1,0.21787235107421873,1.7214309936523438,-11.196484063720703
3490203559760,13.224799109,1,0.24061726684570311,1.7393875061035156,-11.202469567871093
3490213558719,13.234798068,1,0.22385785522460935,1.7274164978027342,-11.179724652099608
3490223559552,13.244798901,1,0.20949264526367187,1.7369933044433592,-11.19169566040039
3490233558875,13.254798224,1,0.21787235107421873,1.7357962036132812,-11.168950744628905
3490243558094,13.264797443,1,0.22505495605468748,1.7477672119140624,-11.17852755126953
3490253560646,13.274799995,1,0.21906945190429686,1.7585411193847655,-11.182118853759764
3490263562208,13.284801557,1,0.22744915771484372,1.734599102783203,-11.201272467041015
3490273560281,13.29479963,1,0.2442085693359375,1.7334020019531249,-11.204863769531249
3490283559760,13.304799109,1,0.2454056701660156,1.7513585144042967,-11.196484063720703
3490293559864,13.314799213,1,0.2454056701660156,1.734599102783203,-11.192892761230468
3490303558823,13.324798172,1,0.2537853759765625,1.725022296142578,-11.201272467041015
3490313559239,13.334798588,1,0.21188684692382811,1.7214309936523438,-11.184513055419922
3490323559656,13.344799005,1,0.23822306518554687,1.7202338928222656,-11.192892761230468
3490333557000,13.354796349,1,0.2346317626953125,1.7322049011230467,-11.174936248779296
3490343560906,13.364800255,1,0.23343466186523437,1.7298106994628906,-11.164162341308593
3490353560229,13.374799578,1,0.21308394775390624,1.7489643127441405,-11.202469567871093
3490363560073,13.384799422,1,0.201112939453125,1.7286135986328124,-11.17852755126953
3490373561323,13.394800672,1,0.1975216369628906,1.7381904052734374,-11.196484063720703
3490383560437,13.404799786,1,0.23582886352539062,1.734599102783203,-11.19169566040039
3490393561323,13.414800672,1,0.27293898925781246,1.715445489501953,-11.208455072021483
3490403559812,13.424799161,1,0.2442085693359375,1.7262193969726563,-11.148600030517578
3490413560385,13.434799734,1,0.22385785522460935,1.7022773803710936,-11.207257971191405
3490423561479,13.444800828,1,0.24899697265624998,1.7286135986328124,-11.202469567871093
3490433559135,13.454798484,1,0.23343466186523437,1.7405846069335937,-11.167753643798827
3490443558614,13.464797963,1,0.21787235107421873,1.7429788085937499,-11.154585534667968
3490453559239,13.474798588,1,0.22505495605468748,1.7453730102539062,-11.204863769531249
3490463602781,13.48484213,1,0.2262520568847656,1.7429788085937499,-11.222820281982422
3490473559656,13.494799005,1,0.23104046020507812,1.7130512878417967,-11.24915650024414
3490483560125,13.504799474,1,0.24061726684570311,1.744175909423828,-11.19887826538086
3490493560073,13.514799422,1,0.23702596435546874,1.7106570861816406,-11.196484063720703
3490503558979,13.524798328,1,0.22266075439453123,1.7214309936523438,-11.215637677001952
3490513560437,13.534799786,1,0.22744915771484372,1.70467158203125,-11.17852755126953
3490523554760,13.544794109,1,0.24779987182617186,1.7357962036132812,-11.167753643798827
3490533558927,13.554798276,1,0.21428104858398436,1.7381904052734374,-11.194089862060546
3490543559604,13.564798953,1,0.23104046020507812,1.7190367919921874,-11.203666668701171
3490553558979,13.574798328,1,0.2059013427734375,1.7453730102539062,-11.188104357910156
3490563559135,13.584798484,1,0.22505495605468748,1.7166425903320313,-11.194089862060546
3490573560854,13.594800203,1,0.20231004028320312,1.7022773803710936,-11.184513055419922
3490583558302,13.604797651,1,0.2059013427734375,1.707065783691406,-11.201272467041015
3490593558771,13.61479812,1,0.22864625854492185,1.7022773803710936,-11.220426080322264
3490603558718,13.624798067,1,0.21428104858398436,1.7393875061035156,-11.189301458740234
3490613558614,13.634797963,1,0.21428104858398436,1.7393875061035156,-11.189301458740234
3490623556791,13.64479614,1,0.23104046020507812,1.7549498168945312,-11.182118853759764
3490633559656,13.654799005,1,0.2262520568847656,1.7369933044433592,-11.16057103881836
3490643560021,13.66479937,1,0.23702596435546874,1.7465701110839842,-11.171344946289063
3490653557729,13.674797078,1,0.22385785522460935,1.7513585144042967,-11.219228979492186
3490663560333,13.684799682,1,0.21308394775390624,1.7190367919921874,-11.170147845458983
3490673560229,13.694799578,1,0.24301146850585936,1.7573440185546874,-11.196484063720703
3490683560906,13.704800255,1,0.23104046020507812,1.734599102783203,-11.322179650878905
3490693560854,13.714800203,1,0.2346317626953125,1.7262193969726563,-11.179724652099608
3490703559812,13.724799161,1,0.21068974609375,1.7118541870117185,-11.173739147949219
3490713559343,13.734798692,1,0.2561795776367187,1.7429788085937499,-11.179724652099608
3490723559343,13.744798692,1,0.21308394775390624,1.725022296142578,-11.044452258300781
3490733559083,13.754798432,1,0.23822306518554687,1.714248388671875,-11.189301458740234
3490743558979,13.764798328,1,0.2262520568847656,1.70467158203125,-11.318588348388671
3490753556323,13.774795672,1,0.20231004028320312,1.7190367919921874,-11.165359442138671
3490763561375,13.784800724,1,0.21787235107421873,1.7334020019531249,-11.162965240478515
3490773599187,13.794838536,1,0.21308394775390624,1.7238251953125,-11.046846459960937
3490783560906,13.804800255,1,0.21188684692382811,1.7310078002929687,-11.330559356689452
3490793559448,13.814798797,1,0.21308394775390624,1.7178396911621092,-11.183315954589844
3490803559864,13.824799213,1,0.22026655273437498,1.7166425903320313,-11.171344946289063
3490813560177,13.834799526,1,0.24660277099609373,1.7130512878417967,-11.159373937988281
3490823559291,13.84479864,1,0.2214636535644531,1.7238251953125,-11.062408770751953
3490833558666,13.854798015,1,0.22505495605468748,1.7465701110839842,-11.206060870361327
3490843559239,13.864798588,1,0.24660277099609373,1.714248388671875,-11.197681164550781
3490853559812,13.874799161,1,0.25139117431640623,1.697488977050781,-11.202469567871093
3490863559291,13.88479864,1,0.21308394775390624,1.7238251953125,-11.189301458740234
3490873558927,13.894798276,1,0.21188684692382811,1.7202338928222656,-11.323376751708985
3490883561739,13.904801088,1,0.2214636535644531,1.7393875061035156,-11.03846675415039
3490893560802,13.914800151,1,0.1867477294921875,1.734599102783203,-11.17852755126953
3490903558562,13.924797911,1,0.201112939453125,1.7357962036132812,-11.17254204711914
3490913558614,13.934797963,1,0.23104046020507812,1.7405846069335937,-11.177330450439452
3490923558562,13.944797911,1,0.22744915771484372,1.7238251953125,-11.19169566040039
3490933565698,13.954805047,1,0.22266075439453123,1.7310078002929687,-11.173739147949219
3490943562416,13.964801765,1,0.2262520568847656,1.7166425903320313,-11.206060870361327
3490953559968,13.974799317,1,0.22026655273437498,1.7381904052734374,-11.159373937988281
