timestamp_ns,t_s,sensor_id,ax,ay,az
4959259695346,0.057673386,1,0.23582886352539062,1.7166425903320313,-11.206060870361327
4959262504408,0.060482448,1,0.19632453613281248,1.7022773803710936,-11.154585534667968
4959265356283,0.063334323,1,0.19632453613281248,1.6771382629394531,-11.204863769531249
4959268218783,0.066196823,1,0.21068974609375,1.6160861206054686,-11.179724652099608
4959271069669,0.069047709,1,0.2059013427734375,1.7693150268554687,-11.19169566040039
4959273925502,0.071903542,1,0.2154781494140625,1.7848773376464844,-11.337741961669922
4959276785554,0.074763594,1,0.22026655273437498,1.697488977050781,-11.184513055419922
4959279640658,0.077618698,1,0.19512743530273435,1.7274164978027342,-11.17254204711914
4959282497169,0.080475209,1,0.20709844360351562,1.7417817077636717,-11.174936248779296
4959285356700,0.08333474,1,0.21906945190429686,1.7094599853515624,-11.180921752929686
4959288212585,0.086190625,1,0.27174188842773433,1.707065783691406,-11.204863769531249
4959291067950,0.08904599,1,0.23223756103515625,1.772906329345703,-11.222820281982422
4959293925502,0.091903542,1,0.19991583862304688,1.7369933044433592,-11.221623181152344
4959296784981,0.094763021,1,0.2549824768066406,1.7238251953125,-11.276689819335937
4959299638627,0.097616667,1,0.2753331909179687,1.734599102783203,-11.182118853759764
4959302495919,0.100473959,1,0.19632453613281248,1.7417817077636717,-11.183315954589844
4959305355398,0.103333438,1,0.2537853759765625,1.7034744812011717,-11.145008728027342
4959308212169,0.106190209,1,0.19871873779296872,1.7274164978027342,-11.141417425537108
4959311067481,0.109045521,1,0.2166752502441406,1.7525556152343749,-11.173739147949219
4959313925085,0.111903125,1,0.2537853759765625,1.70467158203125,-11.109095703125
4959316783887,0.114761927,1,0.24181436767578124,1.7334020019531249,-11.246762298583985
4959319639096,0.117617136,1,0.2346317626953125,1.7525556152343749,-11.100715997314452
4959322496127,0.120474167,1,0.1867477294921875,1.7561469177246092,-11.179724652099608
4959325355658,0.123333698,1,0.1867477294921875,1.7764976318359373,-11.145008728027342
4959328212689,0.126190729,1,0.2753331909179687,1.7130512878417967,-11.221623181152344
4959331067012,0.129045052,1,0.2442085693359375,1.7238251953125,-11.206060870361327
4959333924096,0.131902136,1,0.2154781494140625,1.7238251953125,-11.131840618896483
4959336784356,0.134762396,1,0.2693476867675781,1.7274164978027342,-11.15338843383789
4959339638523,0.137616563,1,0.21188684692382811,1.744175909423828,-11.15338843383789
4959342496075,0.140474115,1,0.239420166015625,1.6927005737304686,-11.158176837158203
4959345355919,0.143333959,1,0.19512743530273435,1.7525556152343749,-11.215637677001952
4959348212637,0.146190677,1,0.28012159423828126,1.7417817077636717,-11.137826123046874
4959351067429,0.149045469,1,0.29568390502929687,1.7226280944824217,-11.208455072021483
4959353925085,0.151903125,1,0.2262520568847656,1.7178396911621092,-11.267113012695312
4959356783992,0.154762032,1,0.181959326171875,1.7489643127441405,-11.192892761230468
4959359638471,0.157616511,1,0.18435352783203124,1.7693150268554687,-11.209652172851563
4959362495762,0.160473802,1,0.23223756103515625,1.7381904052734374,-11.168950744628905
4959365355502,0.163333542,1,0.21188684692382811,1.734599102783203,-11.121066711425781
4959368211960,0.16619,1,0.21906945190429686,1.7489643127441405,-11.234791290283203
4959371067585,0.169045625,1,0.22385785522460935,1.7322049011230467,-11.184513055419922
4959373924617,0.171902657,1,0.23582886352539062,1.753752716064453,-11.189301458740234
4959376784356,0.174762396,1,0.23822306518554687,1.6998831787109374,-11.131840618896483
4959379638523,0.177616563,1,0.24061726684570311,1.7369933044433592,-11.176133349609374
4959382495867,0.180473907,1,0.15562310791015624,1.7322049011230467,-11.149797131347656
4959385354877,0.183332917,1,0.1867477294921875,1.7477672119140624,-11.112687005615234
4959388212481,0.186190521,1,0.1867477294921875,1.714248388671875,-11.196484063720703
4959391066544,0.189044584,1,0.2262520568847656,1.7286135986328124,-11.241973895263671
4959393924408,0.191902448,1,0.15682020874023436,1.7286135986328124,-11.168950744628905
4959396783731,0.194761771,1,0.24899697265624998,1.7393875061035156,-11.105504400634764
4959399638366,0.197616406,1,0.23582886352539062,1.697488977050781,-11.105504400634764
4959402495346,0.200473386,1,0.22026655273437498,1.7381904052734374,-11.215637677001952
4959405355241,0.203333281,1,0.22266075439453123,1.6915034729003906,-11.171344946289063
4959408211075,0.206189115,1,0.2059013427734375,1.705868682861328,-11.133037719726563
4959411068002,0.209046042,1,0.19393033447265623,1.7381904052734374,-11.165359442138671
4959413924512,0.211902552,1,0.21308394775390624,1.7381904052734374,-11.232397088623046
4959416784721,0.214762761,1,0.2059013427734375,1.7202338928222656,-11.166556542968749
4959419638627,0.217616667,1,0.24061726684570311,1.7753005310058592,-11.168950744628905
4959422495971,0.220474011,1,0.20949264526367187,1.7166425903320313,-11.130643518066405
4959425355554,0.223333594,1,0.239420166015625,1.7884686401367187,-11.186907257080078
4959428211856,0.226189896,1,0.24779987182617186,1.744175909423828,-11.166556542968749
4959431067533,0.229045573,1,0.26695348510742184,1.7357962036132812,-11.203666668701171
4959433924148,0.231902188,1,0.19632453613281248,1.7094599853515624,-11.203666668701171
4959436783679,0.234761719,1,0.201112939453125,1.7310078002929687,-11.184513055419922
4959439638679,0.237616719,1,0.2693476867675781,1.705868682861328,-11.202469567871093
4959442495866,0.240473906,1,0.24779987182617186,1.7561469177246092,-11.207257971191405
4959445354877,0.243332917,1,0.20470424194335937,1.7573440185546874,-11.186907257080078
4959448212169,0.246190209,1,0.20470424194335937,1.7369933044433592,-11.225214483642578
4959451066960,0.249045,1,0.20709844360351562,1.7106570861816406,-11.23718549194336
4959453925033,0.251903073,1,0.17357962036132812,1.725022296142578,-11.161768139648437
4959456783419,0.254761459,1,0.19512743530273435,1.725022296142578,-11.166556542968749
4959459638314,0.257616354,1,0.1867477294921875,1.7334020019531249,-11.112687005615234
4959462496127,0.260474167,1,0.21428104858398436,1.7860744384765623,-11.265915911865234
4959465356127,0.263334167,1,0.24301146850585936,1.7393875061035156,-11.221623181152344
4959468211960,0.26619,1,0.20949264526367187,1.753752716064453,-11.204863769531249
4959471066908,0.269044948,1,0.22864625854492185,1.744175909423828,-11.161768139648437
4959473924773,0.271902813,1,0.3028665100097656,1.7645266235351562,-11.142614526367186
4959476783731,0.274761771,1,0.21787235107421873,1.7166425903320313,-11.261127508544922
4959479639408,0.277617448,1,0.18315642700195311,1.7214309936523438,-11.166556542968749
4959482494929,0.280472969,1,0.23822306518554687,1.7369933044433592,-11.100715997314452
4959485354564,0.283332604,1,0.22026655273437498,1.7357962036132812,-11.21084927368164
4959488212012,0.286190052,1,0.22505495605468748,1.6998831787109374,-11.19169566040039
4959491066544,0.289044584,1,0.2154781494140625,1.7609353210449217,-11.180921752929686
4959493924721,0.291902761,1,0.21188684692382811,1.772906329345703,-11.139023223876952
4959496782637,0.294760677,1,0.2454056701660156,1.7334020019531249,-11.189301458740234
4959499638523,0.297616563,1,0.2609679809570312,1.714248388671875,-11.152191333007812
4959502495554,0.300473594,1,0.22266075439453123,1.725022296142578,-11.23000288696289
4959505355346,0.303333386,1,0.2166752502441406,1.7094599853515624,-11.195286962890624
4959508212794,0.306190834,1,0.19871873779296872,1.7453730102539062,-11.2240173828125
4959511066752,0.309044792,1,0.19871873779296872,1.734599102783203,-11.145008728027342
4959513923835,0.311901875,1,0.19033903198242186,1.7465701110839842,-11.189301458740234
4959516783627,0.314761667,1,0.229843359375,1.7465701110839842,-11.190498559570312
4959519638106,0.317616146,1,0.26216508178710934,1.7226280944824217,-11.320982550048827
4959522495033,0.320473073,1,0.201112939453125,1.7130512878417967,-11.167753643798827
4959525355033,0.323333073,1,0.2454056701660156,1.7298106994628906,-11.219228979492186
4959528221387,0.326199427,1,0.229843359375,1.7621324218749999,-11.238382592773437
4959531069096,0.329047136,1,0.2454056701660156,1.696291876220703,-11.238382592773437
4959533924669,0.331902709,1,0.2154781494140625,1.7094599853515624,-11.19887826538086
4959536783627,0.334761667,1,0.2214636535644531,1.7764976318359373,-11.150994232177734
4959539639096,0.337617136,1,0.24899697265624998,1.7202338928222656,-11.201272467041015
4959542495971,0.340474011,1,0.2214636535644531,1.7310078002929687,-11.123460913085937
4959545355502,0.343333542,1,0.229843359375,1.7334020019531249,-11.17852755126953
4959548210450,0.34618849,1,0.201112939453125,1.7334020019531249,-11.225214483642578
4959551068054,0.349046094,1,0.2537853759765625,1.715445489501953,-11.189301458740234
4959553925241,0.351903281,1,0.22026655273437498,1.7298106994628906,-11.2240173828125
4959556784252,0.354762292,1,0.277727392578125,1.7238251953125,-11.159373937988281
4959559638471,0.357616511,1,0.23822306518554687,1.7190367919921874,-11.141417425537108
4959562495762,0.360473802,1,0.229843359375,1.7513585144042967,-11.150994232177734
4959565355189,0.363333229,1,0.21787235107421873,1.7549498168945312,-11.17852755126953
4959568212221,0.366190261,1,0.16160861206054686,1.6938976745605467,-11.143811627197264
4959571067116,0.369045156,1,0.16160861206054686,1.7453730102539062,-11.219228979492186
4959573924044,0.371902084,1,0.2561795776367187,1.7705121276855467,-11.252747802734374
4959576783991,0.374762031,1,0.22505495605468748,1.7106570861816406,-11.207257971191405
4959579638575,0.377616615,1,0.25258827514648435,1.7106570861816406,-11.21683477783203
4959582495554,0.380473594,1,0.1867477294921875,1.7561469177246092,-11.197681164550781
4959585354929,0.383332969,1,0.21308394775390624,1.697488977050781,-11.197681164550781
4959588211856,0.386189896,1,0.27174188842773433,1.715445489501953,-11.183315954589844
4959591067325,0.389045365,1,0.2454056701660156,1.7322049011230467,-11.197681164550781
4959593923939,0.391901979,1,0.2705447875976562,1.7322049011230467,-11.148600030517578
4959596783106,0.394761146,1,0.24061726684570311,1.7525556152343749,-11.222820281982422
4959599638314,0.397616354,1,0.2609679809570312,1.801636749267578,-11.137826123046874
4959602495085,0.400473125,1,0.15682020874023436,1.7896657409667969,-11.177330450439452
4959605355971,0.403334011,1,0.2214636535644531,1.705868682861328,-11.164162341308593
4959608213679,0.406191719,1,0.25258827514648435,1.772906329345703,-11.164162341308593
4959611067793,0.409045833,1,0.24301146850585936,1.7022773803710936,-11.19169566040039
4959613924200,0.41190224,1,0.22505495605468748,1.7597382202148437,-11.161768139648437
4959616784043,0.414762083,1,0.27892449340820313,1.7489643127441405,-11.143811627197264
4959619638991,0.417617031,1,0.22864625854492185,1.7274164978027342,-11.145008728027342
4959622495502,0.420473542,1,0.1771709228515625,1.7573440185546874,-11.17852755126953
4959625354929,0.423332969,1,0.22385785522460935,1.7094599853515624,-11.203666668701171
4959628212116,0.426190156,1,0.20231004028320312,1.70467158203125,-11.161768139648437
4959631066023,0.429044063,1,0.201112939453125,1.7238251953125,-11.194089862060546
4959633924408,0.431902448,1,0.201112939453125,1.7417817077636717,-11.094730493164063
4959636783783,0.434761823,1,0.21906945190429686,1.686715069580078,-11.174936248779296
4959639638835,0.437616875,1,0.19632453613281248,1.686715069580078,-11.232397088623046
4959642495398,0.440473438,1,0.239420166015625,1.7369933044433592,-11.201272467041015
4959645355346,0.443333386,1,0.277727392578125,1.7226280944824217,-11.201272467041015
4959648211700,0.44618974,1,0.21428104858398436,1.725022296142578,-11.220426080322264
4959651066908,0.449044948,1,0.2154781494140625,1.7369933044433592,-11.196484063720703
4959653923939,0.451901979,1,0.2059013427734375,1.7202338928222656,-11.189301458740234
4959656781596,0.454759636,1,0.2059013427734375,1.714248388671875,-11.202469567871093
4959659638939,0.457616979,1,0.2166752502441406,1.7573440185546874,-11.190498559570312
4959662495241,0.460473281,1,0.23822306518554687,1.7369933044433592,-11.219228979492186
4959665355137,0.463333177,1,0.229843359375,1.7214309936523438,-11.215637677001952
4959668211908,0.466189948,1,0.21787235107421873,1.7274164978027342,-11.189301458740234
4959671068158,0.469046198,1,0.23582886352539062,1.7621324218749999,-11.110292803955078
4959673924148,0.471902188,1,0.21308394775390624,1.6843208679199217,-11.125855114746093
4959676783835,0.474761875,1,0.20231004028320312,1.7082628845214842,-11.233594189453123
4959679638366,0.477616406,1,0.2501940734863281,1.6903063720703124,-11.19169566040039
4959682494981,0.480473021,1,0.239420166015625,1.7609353210449217,-11.195286962890624
4959685355085,0.483333125,1,0.2154781494140625,1.7465701110839842,-11.174936248779296
4959688212012,0.486190052,1,0.23582886352539062,1.7621324218749999,-11.128249316406249
4959691067325,0.489045365,1,0.229843359375,1.7357962036132812,-11.194089862060546
4959693924200,0.49190224,1,0.229843359375,1.7214309936523438,-11.14022032470703
4959696782689,0.494760729,1,0.258573779296875,1.7477672119140624,-11.195286962890624
4959699637898,0.497615938,1,0.20231004028320312,1.7489643127441405,-11.238382592773437
4959702495241,0.500473281,1,0.24660277099609373,1.7489643127441405,-11.262324609375
4959705354668,0.503332708,1,0.24301146850585936,1.7465701110839842,-11.303026037597656
4959708211491,0.506189531,1,0.2214636535644531,1.7621324218749999,-11.149797131347656
4959711066491,0.509044531,1,0.21906945190429686,1.7022773803710936,-11.19887826538086
4959713923887,0.511901927,1,0.2741360900878906,1.7226280944824217,-11.155782635498046
4959716783731,0.514761771,1,0.26216508178710934,1.7621324218749999,-11.202469567871093
4959719638002,0.517616042,1,0.2920926025390625,1.7741034301757812,-11.117475408935546
4959722496283,0.520474323,1,0.24301146850585936,1.6915034729003906,-11.183315954589844
4959725355398,0.523333438,1,0.19871873779296872,1.7262193969726563,-11.177330450439452
4959728211648,0.526189688,1,0.19393033447265623,1.7465701110839842,-11.233594189453123
4959731066648,0.529044688,1,0.2741360900878906,1.7082628845214842,-11.17254204711914
4959733924408,0.531902448,1,0.2549824768066406,1.763329522705078,-11.165359442138671
4959736783158,0.534761198,1,0.2059013427734375,1.7609353210449217,-11.207257971191405
4959739638262,0.537616302,1,0.2657563842773437,1.7525556152343749,-11.16057103881836
4959742495085,0.540473125,1,0.2442085693359375,1.7190367919921874,-11.218031878662108
4959745354616,0.543332656,1,0.2825157958984375,1.7322049011230467,-11.12226381225586
4959748211804,0.546189844,1,0.22864625854492185,1.7166425903320313,-11.130643518066405
4959751066387,0.549044427,1,0.19033903198242186,1.7405846069335937,-11.184513055419922
4959753924616,0.551902656,1,0.23104046020507812,1.7788918334960937,-11.196484063720703
4959756783991,0.554762031,1,0.23104046020507812,1.7357962036132812,-11.128249316406249
4959759637950,0.55761599,1,0.24660277099609373,1.734599102783203,-11.245565197753905
4959762495658,0.560473698,1,0.20231004028320312,1.734599102783203,-11.218031878662108
4959765354616,0.563332656,1,0.24301146850585936,1.668758557128906,-11.292252130126952
4959768212168,0.566190208,1,0.17836802368164062,1.7214309936523438,-11.139023223876952
4959771063575,0.569041615,1,0.18435352783203124,1.772906329345703,-11.177330450439452
4959773925137,0.571903177,1,0.2166752502441406,1.7166425903320313,-11.173739147949219
4959776783366,0.574761406,1,0.20709844360351562,1.7286135986328124,-11.189301458740234
4959779637325,0.577615365,1,0.24301146850585936,1.7561469177246092,-11.156979736328124
4959782494460,0.5804725,1,0.23223756103515625,1.7381904052734374,-11.195286962890624
4959785354356,0.583332396,1,0.22744915771484372,1.7597382202148437,-11.167753643798827
4959788211960,0.58619,1,0.2154781494140625,1.7381904052734374,-11.188104357910156
4959791066960,0.589045,1,0.2214636535644531,1.782483135986328,-11.125855114746093
4959793923783,0.591901823,1,0.22385785522460935,1.695094775390625,-11.209652172851563
4959796790241,0.594768281,1,0.19871873779296872,1.7190367919921874,-11.207257971191405
4959799640866,0.597618906,1,0.16759411621093748,1.7010802795410156,-11.188104357910156
4959802495762,0.600473802,1,0.201112939453125,1.7094599853515624,-11.213243475341796
4959805353731,0.603331771,1,0.21068974609375,1.7561469177246092,-11.197681164550781
4959808212950,0.60619099,1,0.19871873779296872,1.697488977050781,-11.16057103881836
4959811066491,0.609044531,1,0.19632453613281248,1.7501614135742187,-11.19887826538086
4959813923887,0.611901927,1,0.2154781494140625,1.7166425903320313,-11.263521710205078
4959816784148,0.614762188,1,0.2154781494140625,1.8219874633789062,-11.161768139648437
4959819635502,0.617613542,1,0.2442085693359375,1.7453730102539062,-11.182118853759764
4959822496856,0.620474896,1,0.14963760375976562,1.7513585144042967,-11.204863769531249
4959825355137,0.623333177,1,0.21188684692382811,1.7513585144042967,-11.171344946289063
4959828212273,0.626190313,1,0.2346317626953125,1.7034744812011717,-11.034875451660156
4959831066648,0.629044688,1,0.23104046020507812,1.7178396911621092,-11.188104357910156
4959833924148,0.631902188,1,0.28012159423828126,1.7178396911621092,-11.179724652099608
4959836784200,0.63476224,1,0.24301146850585936,1.7166425903320313,-11.23718549194336
4959839639095,0.637617135,1,0.26216508178710934,1.7429788085937499,-11.203666668701171
4959842495085,0.640473125,1,0.17597382202148437,1.7202338928222656,-11.177330450439452
4959845354773,0.643332813,1,0.201112939453125,1.7369933044433592,-11.111489904785156
4959848211543,0.646189583,1,0.2346317626953125,1.725022296142578,-11.098321795654297
4959851066283,0.649044323,1,0.2537853759765625,1.7393875061035156,-11.189301458740234
4959853924668,0.651902708,1,0.21787235107421873,1.7417817077636717,-11.201272467041015
4959856782481,0.654760521,1,0.21068974609375,1.7298106994628906,-11.207257971191405
4959859637898,0.657615938,1,0.277727392578125,1.753752716064453,-11.106701501464842
4959862496231,0.660474271,1,0.21188684692382811,1.7585411193847655,-11.19887826538086
4959865354512,0.663332552,1,0.22385785522460935,1.7393875061035156,-11.184513055419922
4959868212168,0.666190208,1,0.23582886352539062,1.7238251953125,-11.174936248779296
4959871066908,0.669044948,1,0.1927332336425781,1.7621324218749999,-11.262324609375
4959873923783,0.671901823,1,0.18315642700195311,1.763329522705078,-11.170147845458983
4959876783002,0.674761042,1,0.2166752502441406,1.7298106994628906,-11.25514200439453
4959879638158,0.677616198,1,0.2166752502441406,1.7525556152343749,-11.226411584472656
4959882494825,0.680472865,1,0.19512743530273435,1.7405846069335937,-11.130643518066405
4959885355606,0.683333646,1,0.22744915771484372,1.7405846069335937,-11.244368096923827
4959888212116,0.686190156,1,0.21068974609375,1.668758557128906,-11.320982550048827
4959891066595,0.689044635,1,0.25258827514648435,1.6927005737304686,-11.167753643798827
4959893924095,0.691902135,1,0.25139117431640623,1.7238251953125,-11.250353601074218
4959896782741,0.694760781,1,0.21787235107421873,1.6891092712402342,-11.234791290283203
4959899637481,0.697615521,1,0.2166752502441406,1.7226280944824217,-11.149797131347656
4959902495502,0.700473542,1,0.2154781494140625,1.705868682861328,-11.125855114746093
4959905351856,0.703329896,1,0.2741360900878906,1.7573440185546874,-11.227608685302734
4959908211387,0.706189427,1,0.22385785522460935,1.7585411193847655,-11.238382592773437
4959911066023,0.709044063,1,0.20470424194335937,1.7214309936523438,-11.241973895263671
4959913923939,0.711901979,1,0.2346317626953125,1.7322049011230467,-11.162965240478515
4959916782793,0.714760833,1,0.22864625854492185,1.697488977050781,-11.173739147949219
4959919638366,0.717616406,1,0.20949264526367187,1.7178396911621092,-11.158176837158203
4959922495814,0.720473854,1,0.22385785522460935,1.7286135986328124,-11.168950744628905
4959925354825,0.723332865,1,0.23343466186523437,1.7357962036132812,-11.221623181152344
4959928211960,0.72619,1,0.20231004028320312,1.7405846069335937,-11.1474029296875
4959931066335,0.729044375,1,0.2262520568847656,1.7513585144042967,-11.180921752929686
4959933923835,0.731901875,1,0.19153613281249998,1.7310078002929687,-11.222820281982422
4959936783887,0.734761927,1,0.20350714111328125,1.7262193969726563,-11.176133349609374
4959939637689,0.737615729,1,0.20350714111328125,1.7501614135742187,-11.206060870361327
4959942495033,0.740473073,1,0.1879448303222656,1.7453730102539062,-11.204863769531249
4959945354773,0.743332813,1,0.22505495605468748,1.7357962036132812,-11.17852755126953
4959948211543,0.746189583,1,0.143652099609375,1.7357962036132812,-11.228805786132812
4959951067116,0.749045156,1,0.201112939453125,1.7178396911621092,-11.247959399414063
4959953924720,0.75190276,1,0.2501940734863281,1.7334020019531249,-11.247959399414063
4959956782377,0.754760417,1,0.24061726684570311,1.7597382202148437,-11.179724652099608
4959959638418,0.757616458,1,0.23582886352539062,1.7489643127441405,-11.179724652099608
4959962495345,0.760473385,1,0.2346317626953125,1.725022296142578,-11.180921752929686
4959965354825,0.763332865,1,0.2154781494140625,1.7585411193847655,-11.179724652099608
4959968212220,0.76619026,1,0.2765302917480469,1.7262193969726563,-11.173739147949219
4959971067950,0.76904599,1,0.20949264526367187,1.725022296142578,-11.17254204711914
4959973924720,0.77190276,1,0.1352723937988281,1.7202338928222656,-11.139023223876952
4959976783314,0.774761354,1,0.2346317626953125,1.7262193969726563,-11.15338843383789
4959979637898,0.777615938,1,0.23223756103515625,1.7310078002929687,-11.196484063720703
4959982495814,0.780473854,1,0.2166752502441406,1.714248388671875,-11.243170996093749
4959985355241,0.783333281,1,0.27892449340820313,1.7453730102539062,-11.143811627197264
4959988211960,0.78619,1,0.29448680419921874,1.6819266662597656,-11.21683477783203
4959991067325,0.789045365,1,0.24660277099609373,1.6903063720703124,-11.177330450439452
4959993923575,0.791901615,1,0.2645592834472656,1.7561469177246092,-11.148600030517578
4959996783158,0.794761198,1,0.181959326171875,1.6747440612792968,-11.173739147949219
4959999637950,0.79761599,1,0.20231004028320312,1.7381904052734374,-11.184513055419922
4960002515658,0.800493698,1,0.20231004028320312,1.7130512878417967,-11.257536206054686
4960005375502,0.803353542,1,0.201112939453125,1.714248388671875,-11.18571015625
4960008222168,0.806200208,1,0.2813186950683594,1.714248388671875,-11.195286962890624
4960011067741,0.809045781,1,0.24181436767578124,1.7010802795410156,-11.303026037597656
4960013924252,0.811902292,1,0.24301146850585936,1.7214309936523438,-11.149797131347656
4960016783887,0.814761927,1,0.21906945190429686,1.753752716064453,-11.159373937988281
4960019638470,0.81761651,1,0.22864625854492185,1.7645266235351562,-11.19169566040039
4960022496491,0.820474531,1,0.2609679809570312,1.7417817077636717,-11.13423482055664
4960025355710,0.82333375,1,0.2609679809570312,1.7800889343261719,-11.19169566040039
4960028211387,0.826189427,1,0.20829554443359374,1.7262193969726563,-11.123460913085937
4960031067064,0.829045104,1,0.2885013000488281,1.7489643127441405,-11.116278308105468
4960033924304,0.831902344,1,0.22026655273437498,1.7010802795410156,-11.208455072021483
4960036783054,0.834761094,1,0.24061726684570311,1.7393875061035156,-11.173739147949219
4960039640189,0.837618229,1,0.20231004028320312,1.7262193969726563,-11.166556542968749
4960042495502,0.840473542,1,0.2501940734863281,1.7381904052734374,-11.131840618896483
4960045354981,0.843333021,1,0.21308394775390624,1.6927005737304686,-11.16057103881836
4960048211700,0.84618974,1,0.23582886352539062,1.7848773376464844,-11.194089862060546
4960051066804,0.849044844,1,0.21428104858398436,1.7956512451171873,-11.194089862060546
4960053924095,0.851902135,1,0.20231004028320312,1.7357962036132812,-11.186907257080078
4960056783627,0.854761667,1,0.2645592834472656,1.7178396911621092,-11.142614526367186
4960059638627,0.857616667,1,0.2262520568847656,1.7657237243652342,-11.154585534667968
4960062495606,0.860473646,1,0.2262520568847656,1.8064251525878905,-11.133037719726563
4960065361804,0.863339844,1,0.20709844360351562,1.7238251953125,-11.220426080322264
4960068213991,0.866192031,1,0.20470424194335937,1.753752716064453,-11.145008728027342
4960071066491,0.869044531,1,0.20709844360351562,1.753752716064453,-11.239579693603515
4960073924095,0.871902135,1,0.2154781494140625,1.714248388671875,-11.3389390625
4960076783470,0.87476151,1,0.18076222534179687,1.772906329345703,-11.18571015625
4960079638210,0.87761625,1,0.20949264526367187,1.715445489501953,-11.213243475341796
4960082495397,0.880473437,1,0.24061726684570311,1.7334020019531249,-11.183315954589844
4960085355293,0.883333333,1,0.19871873779296872,1.7274164978027342,-11.19887826538086
4960088212793,0.886190833,1,0.2885013000488281,1.7381904052734374,-11.174936248779296
4960091063991,0.889042031,1,0.201112939453125,1.7489643127441405,-11.21084927368164
4960093923783,0.891901823,1,0.181959326171875,1.7657237243652342,-11.221623181152344
4960096784200,0.89476224,1,0.21308394775390624,1.7106570861816406,-11.116278308105468
4960099637950,0.89761599,1,0.24181436767578124,1.7094599853515624,-11.162965240478515
4960102495293,0.900473333,1,0.24899697265624998,1.753752716064453,-11.246762298583985
4960105355554,0.903333594,1,0.2442085693359375,1.7190367919921874,-11.200075366210937
4960108211595,0.906189635,1,0.22864625854492185,1.7202338928222656,-11.15338843383789
4960111067168,0.909045208,1,0.24660277099609373,1.725022296142578,-11.25514200439453
4960113924304,0.911902344,1,0.2059013427734375,1.7166425903320313,-11.142614526367186
4960116784408,0.914762448,1,0.2920926025390625,1.6927005737304686,-11.154585534667968
4960119639095,0.917617135,1,0.2454056701660156,1.7238251953125,-11.235988391113281
4960122496127,0.920474167,1,0.21068974609375,1.7274164978027342,-11.195286962890624
4960125355137,0.923333177,1,0.21068974609375,1.7369933044433592,-11.174936248779296
4960128211804,0.926189844,1,0.24660277099609373,1.7094599853515624,-11.212046374511718
4960131066127,0.929044167,1,0.24899697265624998,1.7094599853515624,-11.188104357910156
4960133924043,0.931902083,1,0.24899697265624998,1.6819266662597656,-11.320982550048827
4960136784460,0.9347625,1,0.18914193115234373,1.7322049011230467,-11.167753643798827
4960139638054,0.937616094,1,0.2657563842773437,1.7286135986328124,-11.168950744628905
4960142495345,0.940473385,1,0.23223756103515625,1.6938976745605467,-11.155782635498046
4960145354616,0.943332656,1,0.2454056701660156,1.7549498168945312,-11.15338843383789
4960148211908,0.946189948,1,0.21188684692382811,1.772906329345703,-11.197681164550781
4960151067637,0.949045677,1,0.20829554443359374,1.734599102783203,-11.219228979492186
4960153925502,0.951903542,1,0.22744915771484372,1.696291876220703,-11.176133349609374
4960156784304,0.954762344,1,0.2609679809570312,1.7274164978027342,-11.189301458740234
4960159638314,0.957616354,1,0.19871873779296872,1.697488977050781,-11.154585534667968
4960162494825,0.960472865,1,0.19871873779296872,1.7178396911621092,-11.222820281982422
4960165355293,0.963333333,1,0.22385785522460935,1.7681179260253905,-11.155782635498046
4960168210918,0.966188958,1,0.22744915771484372,1.7010802795410156,-11.128249316406249
4960171067064,0.969045104,1,0.23582886352539062,1.7322049011230467,-11.17852755126953
4960173924095,0.971902135,1,0.19033903198242186,1.734599102783203,-11.152191333007812
4960176782637,0.974760677,1,0.1879448303222656,1.7226280944824217,-11.232397088623046
4960179637481,0.977615521,1,0.22026655273437498,1.7453730102539062,-11.17254204711914
4960182496335,0.980474375,1,0.23343466186523437,1.7334020019531249,-11.15338843383789
4960185355189,0.983333229,1,0.23343466186523437,1.725022296142578,-11.168950744628905
4960188211595,0.986189635,1,0.24660277099609373,1.7286135986328124,-11.17254204711914
4960191066491,0.989044531,1,0.2454056701660156,1.7573440185546874,-11.168950744628905
4960193924408,0.991902448,1,0.21906945190429686,1.7573440185546874,-11.23000288696289
4960196783783,0.994761823,1,0.23822306518554687,1.7274164978027342,-11.227608685302734
4960199638627,0.997616667,1,0.19632453613281248,1.6938976745605467,-11.227608685302734
4960202495762,1.000473802,1,0.2214636535644531,1.7561469177246092,-11.179724652099608
4960205354877,1.003332917,1,0.2346317626953125,1.7405846069335937,-11.194089862060546
4960208212012,1.006190052,1,0.24181436767578124,1.7310078002929687,-11.201272467041015
4960211067064,1.009045104,1,0.23582886352539062,1.7417817077636717,-11.164162341308593
4960213924095,1.011902135,1,0.21188684692382811,1.7429788085937499,-11.2240173828125
4960216783366,1.014761406,1,0.21308394775390624,1.7286135986328124,-11.19887826538086
4960219637585,1.017615625,1,0.24181436767578124,1.7286135986328124,-11.225214483642578
4960222495137,1.020473177,1,0.23343466186523437,1.7034744812011717,-11.158176837158203
4960225354408,1.023332448,1,0.20231004028320312,1.7357962036132812,-11.179724652099608
4960228211856,1.026189896,1,0.2609679809570312,1.714248388671875,-11.182118853759764
4960231067689,1.029045729,1,0.24301146850585936,1.725022296142578,-11.17254204711914
4960233924772,1.031902812,1,0.2166752502441406,1.7202338928222656,-11.218031878662108
4960236783835,1.034761875,1,0.2166752502441406,1.7429788085937499,-11.159373937988281
4960239637533,1.037615573,1,0.24061726684570311,1.734599102783203,-11.166556542968749
4960242494772,1.040472812,1,0.239420166015625,1.7417817077636717,-11.207257971191405
4960245354772,1.043332812,1,0.23702596435546874,1.715445489501953,-11.257536206054686
4960248212533,1.046190573,1,0.23702596435546874,1.7238251953125,-11.128249316406249
4960251066960,1.049045,1,0.2549824768066406,1.7322049011230467,-11.21084927368164
4960253923887,1.051901927,1,0.2346317626953125,1.7322049011230467,-11.129446417236327
4960256783106,1.054761146,1,0.2537853759765625,1.7106570861816406,-11.135431921386719
4960259637585,1.057615625,1,0.2741360900878906,1.7166425903320313,-11.135431921386719
4960262496179,1.060474219,1,0.18914193115234373,1.7118541870117185,-11.180921752929686
4960265354877,1.063332917,1,0.229843359375,1.714248388671875,-11.195286962890624
4960268211543,1.066189583,1,0.24301146850585936,1.7381904052734374,-11.184513055419922
4960271066543,1.069044583,1,0.22266075439453123,1.7166425903320313,-11.154585534667968
4960273923783,1.071901823,1,0.27293898925781246,1.70467158203125,-11.218031878662108
4960276783366,1.074761406,1,0.23582886352539062,1.7022773803710936,-11.192892761230468
4960279638262,1.077616302,1,0.16519991455078123,1.687912170410156,-11.158176837158203
4960282495033,1.080473073,1,0.19153613281249998,1.7322049011230467,-11.145008728027342
4960285354147,1.083332187,1,0.20470424194335937,1.70467158203125,-11.16057103881836
4960288211960,1.08619,1,0.24181436767578124,1.68551796875,-11.197681164550781
4960291066856,1.089044896,1,0.24301146850585936,1.696291876220703,-11.206060870361327
4960293924043,1.091902083,1,0.1640028137207031,1.7417817077636717,-11.192892761230468
4960296784043,1.094762083,1,0.23582886352539062,1.7465701110839842,-11.141417425537108
4960299637793,1.097615833,1,0.26815058593749996,1.7705121276855467,-11.226411584472656
4960302495554,1.100473594,1,0.18914193115234373,1.7310078002929687,-11.189301458740234
4960305353991,1.103332031,1,0.181959326171875,1.7334020019531249,-11.18571015625
4960308211699,1.106189739,1,0.181959326171875,1.753752716064453,-11.212046374511718
4960311067793,1.109045833,1,0.23223756103515625,1.7453730102539062,-11.17852755126953
4960313925137,1.111903177,1,0.2561795776367187,1.7489643127441405,-11.111489904785156
4960316781960,1.11476,1,0.2561795776367187,1.7489643127441405,-11.131840618896483
4960319639616,1.117617656,1,0.2705447875976562,1.7286135986328124,-11.164162341308593
4960322495606,1.120473646,1,0.25737667846679685,1.7214309936523438,-11.164162341308593
4960325355241,1.123333281,1,0.26216508178710934,1.7286135986328124,-11.215637677001952
4960328211491,1.126189531,1,0.2753331909179687,1.7286135986328124,-11.234791290283203
4960331066908,1.129044948,1,0.2537853759765625,1.7501614135742187,-11.152191333007812
4960333929408,1.131907448,1,0.20350714111328125,1.7753005310058592,-11.145008728027342
4960336786387,1.134764427,1,0.2753331909179687,1.772906329345703,-11.243170996093749
4960339637949,1.137615989,1,0.2442085693359375,1.6651672546386718,-11.179724652099608
4960342495710,1.14047375,1,0.21787235107421873,1.7094599853515624,-11.165359442138671
4960345355554,1.143333594,1,0.239420166015625,1.7130512878417967,-11.203666668701171
4960348212585,1.146190625,1,0.1879448303222656,1.6903063720703124,-11.182118853759764
4960351066699,1.149044739,1,0.21787235107421873,1.7501614135742187,-11.207257971191405
4960353924408,1.151902448,1,0.26695348510742184,1.744175909423828,-11.177330450439452
4960356782845,1.154760885,1,0.19153613281249998,1.7238251953125,-11.192892761230468
4960359637845,1.157615885,1,0.23822306518554687,1.7705121276855467,-11.219228979492186
4960362495397,1.160473437,1,0.23702596435546874,1.7166425903320313,-11.15338843383789
4960365354512,1.163332552,1,0.21906945190429686,1.7106570861816406,-11.225214483642578
4960368212168,1.166190208,1,0.22505495605468748,1.753752716064453,-11.13423482055664
4960371066335,1.169044375,1,0.22505495605468748,1.7393875061035156,-11.136629022216797
4960373923991,1.171902031,1,0.21906945190429686,1.7094599853515624,-11.182118853759764
4960376784877,1.174762917,1,0.24660277099609373,1.7094599853515624,-11.184513055419922
4960379638054,1.177616094,1,0.1592144104003906,1.7705121276855467,-11.082759484863281
4960382494877,1.180472917,1,0.28490999755859375,1.7166425903320313,-11.235988391113281
4960385354824,1.183332864,1,0.22864625854492185,1.7369933044433592,-11.15338843383789
4960388212116,1.186190156,1,0.17956512451171874,1.7429788085937499,-11.156979736328124
4960391066439,1.189044479,1,0.23702596435546874,1.7872715393066405,-11.184513055419922
4960393923627,1.191901667,1,0.20709844360351562,1.744175909423828,-11.105504400634764
4960396783366,1.194761406,1,0.1975216369628906,1.7034744812011717,-11.165359442138671
4960399638262,1.197616302,1,0.18435352783203124,1.7106570861816406,-11.312602844238281
4960402496074,1.200474114,1,0.20470424194335937,1.7334020019531249,-11.156979736328124
4960405355345,1.203333385,1,0.229843359375,1.7453730102539062,-11.184513055419922
4960408213106,1.206191146,1,0.2154781494140625,1.7298106994628906,-11.180921752929686
4960411067637,1.209045677,1,0.24899697265624998,1.7322049011230467,-11.130643518066405
4960413924043,1.211902083,1,0.23702596435546874,1.7262193969726563,-11.182118853759764
4960416784147,1.214762187,1,0.21068974609375,1.7118541870117185,-11.173739147949219
4960419638418,1.217616458,1,0.2561795776367187,1.695094775390625,-11.19887826538086
4960422494877,1.220472917,1,0.19512743530273435,1.725022296142578,-11.149797131347656
4960425354772,1.223332812,1,0.239420166015625,1.7489643127441405,-11.150994232177734
4960428212012,1.226190052,1,0.19632453613281248,1.744175909423828,-11.228805786132812
4960431066335,1.229044375,1,0.19632453613281248,1.7190367919921874,-11.201272467041015
4960433923418,1.231901458,1,0.201112939453125,1.7118541870117185,-11.13423482055664
4960436783002,1.234761042,1,0.2166752502441406,1.707065783691406,-11.13423482055664
4960439638679,1.237616719,1,0.22026655273437498,1.707065783691406,-11.143811627197264
4960442495658,1.240473698,1,0.22744915771484372,1.7298106994628906,-11.184513055419922
4960445354356,1.243332396,1,0.20949264526367187,1.6903063720703124,-11.184513055419922
4960448211699,1.246189739,1,0.2561795776367187,1.744175909423828,-11.206060870361327
4960451066543,1.249044583,1,0.27892449340820313,1.6927005737304686,-11.124658013916015
4960453923887,1.251901927,1,0.22505495605468748,1.6938976745605467,-11.1474029296875
4960456783418,1.254761458,1,0.21068974609375,1.7262193969726563,-11.186907257080078
4960459638574,1.257616614,1,0.22744915771484372,1.7477672119140624,-11.228805786132812
4960462495502,1.260473542,1,0.229843359375,1.7130512878417967,-11.168950744628905
4960465355710,1.26333375,1,0.2705447875976562,1.7130512878417967,-11.136629022216797
4960468211752,1.266189792,1,0.1867477294921875,1.7357962036132812,-11.184513055419922
4960471066335,1.269044375,1,0.1879448303222656,1.7561469177246092,-11.146205828857422
4960473923991,1.271902031,1,0.1975216369628906,1.705868682861328,-11.225214483642578
4960476783262,1.274761302,1,0.20709844360351562,1.7262193969726563,-11.19887826538086
4960479637585,1.277615625,1,0.21188684692382811,1.7417817077636717,-11.201272467041015
4960482494772,1.280472812,1,0.2501940734863281,1.7477672119140624,-11.188104357910156
4960485354512,1.283332552,1,0.19991583862304688,1.7453730102539062,-11.19169566040039
4960488211595,1.286189635,1,0.2214636535644531,1.7082628845214842,-11.161768139648437
4960491066751,1.289044791,1,0.23702596435546874,1.7130512878417967,-11.167753643798827
4960493924356,1.291902396,1,0.23702596435546874,1.7393875061035156,-11.245565197753905
4960496783679,1.294761719,1,0.24779987182617186,1.7477672119140624,-11.152191333007812
4960499637897,1.297615937,1,0.23343466186523437,1.7477672119140624,-11.188104357910156
4960502495033,1.300473073,1,0.20829554443359374,1.7465701110839842,-11.206060870361327
4960505354616,1.303332656,1,0.23104046020507812,1.7417817077636717,-11.206060870361327
4960508211751,1.306189791,1,0.26336218261718747,1.687912170410156,-11.176133349609374
4960511066908,1.309044948,1,0.23343466186523437,1.7286135986328124,-11.192892761230468
4960513924147,1.311902187,1,0.23223756103515625,1.7166425903320313,-11.194089862060546
4960516783731,1.314761771,1,0.2262520568847656,1.7310078002929687,-11.161768139648437
4960519638314,1.317616354,1,0.2442085693359375,1.7010802795410156,-11.184513055419922
4960522494512,1.320472552,1,0.26336218261718747,1.753752716064453,-11.142614526367186
4960525354929,1.323332969,1,0.22266075439453123,1.7202338928222656,-11.154585534667968
4960528211491,1.326189531,1,0.19512743530273435,1.714248388671875,-11.141417425537108
4960531067012,1.329045052,1,0.20829554443359374,1.7501614135742187,-11.168950744628905
4960533923731,1.331901771,1,0.22266075439453123,1.687912170410156,-11.206060870361327
4960536783418,1.334761458,1,0.17597382202148437,1.7645266235351562,-11.186907257080078
4960539637689,1.337615729,1,0.21068974609375,1.715445489501953,-11.222820281982422
4960542495397,1.340473437,1,0.21428104858398436,1.725022296142578,-11.21084927368164
4960545354356,1.343332396,1,0.22505495605468748,1.7405846069335937,-11.128249316406249
4960548212012,1.346190052,1,0.239420166015625,1.7369933044433592,-11.154585534667968
4960551066074,1.349044114,1,0.21787235107421873,1.7657237243652342,-11.208455072021483
4960553923574,1.351901614,1,0.21787235107421873,1.7501614135742187,-11.099518896484375
4960556783679,1.354761719,1,0.229843359375,1.7860744384765623,-11.201272467041015
4960559638783,1.357616823,1,0.229843359375,1.7860744384765623,-11.220426080322264
4960562495293,1.360473333,1,0.20709844360351562,1.7501614135742187,-11.154585534667968
4960565354251,1.363332291,1,0.23104046020507812,1.7202338928222656,-11.098321795654297
4960568212741,1.366190781,1,0.25139117431640623,1.744175909423828,-11.251550701904296
4960571066699,1.369044739,1,0.277727392578125,1.7489643127441405,-11.188104357910156
4960573925345,1.371903385,1,0.22026655273437498,1.686715069580078,-11.177330450439452
4960576785241,1.374763281,1,0.19632453613281248,1.7166425903320313,-11.182118853759764
4960579638418,1.377616458,1,0.24301146850585936,1.7705121276855467,-11.259930407714844
4960582494772,1.380472812,1,0.2262520568847656,1.7477672119140624,-11.231199987792968
4960585354460,1.3833325,1,0.258573779296875,1.7465701110839842,-11.17254204711914
4960588212272,1.386190312,1,0.20350714111328125,1.7705121276855467,-11.17254204711914
4960591066231,1.389044271,1,0.24181436767578124,1.7202338928222656,-11.170147845458983
4960593923991,1.391902031,1,0.19393033447265623,1.7429788085937499,-11.2240173828125
4960596783054,1.394761094,1,0.24301146850585936,1.7369933044433592,-11.240776794433593
4960599638522,1.397616562,1,0.24899697265624998,1.7669208251953124,-11.167753643798827
4960602500658,1.400478698,1,0.2154781494140625,1.7274164978027342,-11.203666668701171
4960605358001,1.403336041,1,0.22505495605468748,1.8004396484374998,-11.164162341308593
4960608211856,1.406189896,1,0.25737667846679685,1.725022296142578,-11.244368096923827
4960611066335,1.409044375,1,0.23343466186523437,1.7190367919921874,-11.197681164550781
4960613923679,1.411901719,1,0.21308394775390624,1.7477672119140624,-11.133037719726563
4960616783574,1.414761614,1,0.21308394775390624,1.7274164978027342,-11.176133349609374
4960619637376,1.417615416,1,0.2154781494140625,1.7357962036132812,-11.173739147949219
4960622494356,1.420472396,1,0.22026655273437498,1.7357962036132812,-11.116278308105468
4960625354981,1.423333021,1,0.24899697265624998,1.7645266235351562,-11.033678350830078
4960628211856,1.426189896,1,0.2442085693359375,1.6938976745605467,-11.186907257080078
4960631066699,1.429044739,1,0.2645592834472656,1.714248388671875,-11.158176837158203
4960633923939,1.431901979,1,0.2166752502441406,1.7381904052734374,-11.156979736328124
4960636782533,1.434760573,1,0.24660277099609373,1.7609353210449217,-11.220426080322264
4960639639720,1.43761776,1,0.2537853759765625,1.7310078002929687,-11.116278308105468
4960642495554,1.440473594,1,0.25737667846679685,1.707065783691406,-11.219228979492186
4960645355137,1.443333177,1,0.21906945190429686,1.7585411193847655,-11.256339105224608
4960648209876,1.446187916,1,0.26815058593749996,1.68551796875,-11.19887826538086
4960651067168,1.449045208,1,0.2454056701660156,1.744175909423828,-11.206060870361327
4960653924356,1.451902396,1,0.2537853759765625,1.7310078002929687,-11.154585534667968
4960656783783,1.454761823,1,0.229843359375,1.7573440185546874,-11.182118853759764
4960659637949,1.457615989,1,0.2549824768066406,1.7238251953125,-11.241973895263671
4960662495606,1.460473646,1,0.21068974609375,1.7262193969726563,-11.119869610595703
4960665354356,1.463332396,1,0.239420166015625,1.744175909423828,-11.21084927368164
4960668211335,1.466189375,1,0.21188684692382811,1.734599102783203,-11.174936248779296
4960671066074,1.469044114,1,0.201112939453125,1.7525556152343749,-11.252747802734374
4960673923731,1.471901771,1,0.24061726684570311,1.7322049011230467,-11.184513055419922
4960676783574,1.474761614,1,0.24061726684570311,1.7310078002929687,-11.186907257080078
4960679637689,1.477615729,1,0.2609679809570312,1.7202338928222656,-11.161768139648437
4960682494824,1.480472864,1,0.20709844360351562,1.7202338928222656,-11.174936248779296
4960685354199,1.483332239,1,0.22385785522460935,1.714248388671875,-11.231199987792968
4960688211647,1.486189687,1,0.21188684692382811,1.772906329345703,-11.201272467041015
4960691066908,1.489044948,1,0.22385785522460935,1.7022773803710936,-11.201272467041015
4960693923887,1.491901927,1,0.25139117431640623,1.7178396911621092,-11.136629022216797
4960696783106,1.494761146,1,0.201112939453125,1.7573440185546874,-11.250353601074218
4960699637793,1.497615833,1,0.22026655273437498,1.734599102783203,-11.183315954589844
4960702495710,1.50047375,1,0.20470424194335937,1.7417817077636717,-11.244368096923827
4960705354668,1.503332708,1,0.22385785522460935,1.7034744812011717,-11.200075366210937
4960708211439,1.506189479,1,0.19991583862304688,1.7405846069335937,-11.154585534667968
4960711067168,1.509045208,1,0.25737667846679685,1.7274164978027342,-11.221623181152344
4960713923418,1.511901458,1,0.20829554443359374,1.734599102783203,-11.212046374511718
4960716782637,1.514760677,1,0.24301146850585936,1.744175909423828,-11.150994232177734
4960719637845,1.517615885,1,0.2154781494140625,1.7286135986328124,-11.13423482055664
4960722494772,1.520472812,1,0.25258827514648435,1.7226280944824217,-11.201272467041015
4960725354408,1.523332448,1,0.17357962036132812,1.7717092285156248,-11.192892761230468
4960728212220,1.52619026,1,0.17836802368164062,1.7465701110839842,-11.186907257080078
4960731066387,1.529044427,1,0.2609679809570312,1.753752716064453,-11.195286962890624
4960733923835,1.531901875,1,0.21428104858398436,1.7190367919921874,-11.212046374511718
4960736783106,1.534761146,1,0.2059013427734375,1.7226280944824217,-11.142614526367186
4960739638731,1.537616771,1,0.2059013427734375,1.6998831787109374,-11.176133349609374
4960742495553,1.540473593,1,0.19153613281249998,1.734599102783203,-11.204863769531249
4960745354876,1.543332916,1,0.21906945190429686,1.734599102783203,-11.167753643798827
4960748211595,1.546189635,1,0.19871873779296872,1.7381904052734374,-11.036072552490234
4960751066231,1.549044271,1,0.19512743530273435,1.7369933044433592,-11.189301458740234
4960753923835,1.551901875,1,0.23582886352539062,1.7501614135742187,-11.167753643798827
4960756783470,1.55476151,1,0.1975216369628906,1.7477672119140624,-11.1474029296875
4960759638678,1.557616718,1,0.16041151123046873,1.687912170410156,-11.196484063720703
4960762495241,1.560473281,1,0.19871873779296872,1.744175909423828,-11.179724652099608
4960765354616,1.563332656,1,0.2059013427734375,1.707065783691406,-11.197681164550781
4960768211647,1.566189687,1,0.27174188842773433,1.7501614135742187,-11.231199987792968
4960771067428,1.569045468,1,0.24660277099609373,1.7202338928222656,-11.197681164550781
4960773924408,1.571902448,1,0.18555062866210936,1.714248388671875,-11.201272467041015
4960776783053,1.574761093,1,0.25258827514648435,1.7621324218749999,-11.206060870361327
4960779637168,1.577615208,1,0.229843359375,1.7800889343261719,-11.196484063720703
4960782496231,1.580474271,1,0.22385785522460935,1.7393875061035156,-11.16057103881836
4960785355553,1.583333593,1,0.18435352783203124,1.7106570861816406,-11.168950744628905
4960788212376,1.586190416,1,0.21906945190429686,1.7130512878417967,-11.204863769531249
4960791066908,1.589044948,1,0.2442085693359375,1.7226280944824217,-11.166556542968749
4960793921699,1.591899739,1,0.19393033447265623,1.7657237243652342,-11.145008728027342
4960796781231,1.594759271,1,0.258573779296875,1.714248388671875,-11.14022032470703
4960799638783,1.597616823,1,0.258573779296875,1.7310078002929687,-11.139023223876952
4960802495658,1.600473698,1,0.2741360900878906,1.7010802795410156,-11.156979736328124
4960805355397,1.603333437,1,0.18076222534179687,1.7010802795410156,-11.251550701904296
4960808211803,1.606189843,1,0.26216508178710934,1.7465701110839842,-11.197681164550781
4960811066283,1.609044323,1,0.26216508178710934,1.7657237243652342,-11.3389390625
4960813923678,1.611901718,1,0.20470424194335937,1.7405846069335937,-11.18571015625
4960816782897,1.614760937,1,0.22026655273437498,1.7082628845214842,-11.136629022216797
4960819638731,1.617616771,1,0.21906945190429686,1.772906329345703,-11.209652172851563
4960822496439,1.620474479,1,0.23582886352539062,1.734599102783203,-11.226411584472656
4960825355449,1.623333489,1,0.21787235107421873,1.7477672119140624,-11.131840618896483
4960828210658,1.626188698,1,0.22026655273437498,1.7322049011230467,-11.105504400634764
4960831067845,1.629045885,1,0.1975216369628906,1.7381904052734374,-11.203666668701171
4960833924720,1.63190276,1,0.1975216369628906,1.7405846069335937,-11.167753643798827
4960836784095,1.634762135,1,0.21906945190429686,1.7226280944824217,-11.245565197753905
4960839638418,1.637616458,1,0.24779987182617186,1.7322049011230467,-11.171344946289063
4960842494824,1.640472864,1,0.24181436767578124,1.6723498596191406,-11.155782635498046
4960845354772,1.643332812,1,0.19393033447265623,1.70467158203125,-11.225214483642578
4960848211074,1.646189114,1,0.229843359375,1.725022296142578,-11.16057103881836
4960851066126,1.649044166,1,0.2561795776367187,1.7262193969726563,-11.190498559570312
4960853923783,1.651901823,1,0.2561795776367187,1.7286135986328124,-11.155782635498046
4960856784043,1.654762083,1,0.23702596435546874,1.7094599853515624,-11.2240173828125
4960859638470,1.65761651,1,0.21906945190429686,1.7561469177246092,-11.19169566040039
4960862495606,1.660473646,1,0.21906945190429686,1.7597382202148437,-11.192892761230468
4960865354564,1.663332604,1,0.2549824768066406,1.7274164978027342,-11.195286962890624
4960868211647,1.666189687,1,0.2214636535644531,1.7274164978027342,-11.182118853759764
4960871073783,1.669051823,1,0.2705447875976562,1.7334020019531249,-11.183315954589844
4960873926647,1.671904687,1,0.24181436767578124,1.6986860778808592,-11.183315954589844
4960876784876,1.674762916,1,0.26216508178710934,1.7393875061035156,-11.180921752929686
4960879638106,1.677616146,1,0.25139117431640623,1.7405846069335937,-11.171344946289063
4960882495137,1.680473177,1,0.21787235107421873,1.7190367919921874,-11.17254204711914
4960885355345,1.683333385,1,0.17597382202148437,1.7860744384765623,-11.171344946289063
4960888212481,1.686190521,1,0.229843359375,1.7226280944824217,-11.170147845458983
4960891066595,1.689044635,1,0.21308394775390624,1.7286135986328124,-11.168950744628905
4960893924095,1.691902135,1,0.22864625854492185,1.7322049011230467,-11.17254204711914
4960896782793,1.694760833,1,0.2059013427734375,1.7369933044433592,-11.179724652099608
4960899638991,1.697617031,1,0.2549824768066406,1.7585411193847655,-11.143811627197264
4960902495189,1.700473229,1,0.23582886352539062,1.7286135986328124,-11.196484063720703
4960905354876,1.703332916,1,0.1927332336425781,1.6915034729003906,-11.135431921386719
4960908211491,1.706189531,1,0.21188684692382811,1.687912170410156,-11.123460913085937
4960911066960,1.709045,1,0.3064578125,1.7776947326660155,-11.196484063720703
4960913924095,1.711902135,1,0.17477672119140625,1.772906329345703,-11.203666668701171
4960916783731,1.714761771,1,0.2346317626953125,1.715445489501953,-11.234791290283203
4960919638470,1.71761651,1,0.23702596435546874,1.7190367919921874,-11.192892761230468
4960922494512,1.720472552,1,0.23702596435546874,1.7286135986328124,-11.246762298583985
4960925355397,1.723333437,1,0.201112939453125,1.7405846069335937,-11.251550701904296
4960928211178,1.726189218,1,0.1975216369628906,1.7405846069335937,-11.14022032470703
4960931066751,1.729044791,1,0.25737667846679685,1.705868682861328,-11.171344946289063
4960933924251,1.731902291,1,0.17956512451171874,1.7298106994628906,-11.046846459960937
4960936784251,1.734762291,1,0.18435352783203124,1.6831237670898436,-11.200075366210937
4960939638418,1.737616458,1,0.26815058593749996,1.6903063720703124,-11.263521710205078
4960942495918,1.740473958,1,0.20949264526367187,1.6998831787109374,-11.17254204711914
4960945355501,1.743333541,1,0.229843359375,1.7405846069335937,-11.145008728027342
4960948211491,1.746189531,1,0.19512743530273435,1.7262193969726563,-11.109095703125
4960951067168,1.749045208,1,0.22385785522460935,1.7429788085937499,-11.162965240478515
4960953923730,1.75190177,1,0.2059013427734375,1.697488977050781,-11.186907257080078
4960956783158,1.754761198,1,0.19991583862304688,1.6627730529785156,-11.179724652099608
4960959637741,1.757615781,1,0.25737667846679685,1.7202338928222656,-11.215637677001952
4960962494772,1.760472812,1,0.17357962036132812,1.7238251953125,-11.202469567871093
4960965354772,1.763332812,1,0.23582886352539062,1.7010802795410156,-11.119869610595703
4960968211439,1.766189479,1,0.26815058593749996,1.7417817077636717,-11.148600030517578
4960971066751,1.769044791,1,0.2705447875976562,1.7453730102539062,-11.203666668701171
4960973923105,1.771901145,1,0.26336218261718747,1.7369933044433592,-11.197681164550781
4960976783366,1.774761406,1,0.2346317626953125,1.6986860778808592,-11.215637677001952
4960979638158,1.777616198,1,0.19991583862304688,1.7693150268554687,-11.189301458740234
4960982495553,1.780473593,1,0.2932897033691406,1.744175909423828,-11.188104357910156
4960985355241,1.783333281,1,0.2932897033691406,1.782483135986328,-11.194089862060546
4960988211647,1.786189687,1,0.239420166015625,1.734599102783203,-11.196484063720703
4960991065710,1.78904375,1,0.1879448303222656,1.734599102783203,-11.247959399414063
4960993923939,1.791901979,1,0.2059013427734375,1.725022296142578,-11.19887826538086
4960996783158,1.794761198,1,0.2442085693359375,1.7693150268554687,-11.19887826538086
4960999638314,1.797616354,1,0.21188684692382811,1.7417817077636717,-11.159373937988281
4961002495658,1.800473698,1,0.23343466186523437,1.7513585144042967,-11.218031878662108
4961005353939,1.803331979,1,0.2166752502441406,1.6843208679199217,-11.17254204711914
4961008212533,1.806190573,1,0.22864625854492185,1.68551796875,-11.192892761230468
4961011066387,1.809044427,1,0.21906945190429686,1.7465701110839842,-11.152191333007812
4961013924355,1.811902395,1,0.23822306518554687,1.7106570861816406,-11.135431921386719
4961016783210,1.81476125,1,0.26815058593749996,1.7298106994628906,-11.221623181152344
4961019638105,1.817616145,1,0.22505495605468748,1.7501614135742187,-11.184513055419922
4961022495501,1.820473541,1,0.22864625854492185,1.7130512878417967,-11.12226381225586
4961025355033,1.823333073,1,0.23223756103515625,1.6998831787109374,-11.21084927368164
4961028211960,1.82619,1,0.23223756103515625,1.7561469177246092,-11.159373937988281
4961031066439,1.829044479,1,0.2154781494140625,1.7214309936523438,-11.195286962890624
4961033923574,1.831901614,1,0.23223756103515625,1.705868682861328,-11.182118853759764
4961036783001,1.834761041,1,0.23702596435546874,1.782483135986328,-11.209652172851563
4961039638105,1.837616145,1,0.20949264526367187,1.753752716064453,-11.195286962890624
4961042494564,1.840472604,1,0.22864625854492185,1.725022296142578,-11.17852755126953
4961045354928,1.843332968,1,0.22864625854492185,1.7334020019531249,-11.186907257080078
4961048211803,1.846189843,1,0.23223756103515625,1.6938976745605467,-11.159373937988281
4961051067012,1.849045052,1,0.2059013427734375,1.6938976745605467,-11.208455072021483
4961053923783,1.851901823,1,0.23822306518554687,1.714248388671875,-11.186907257080078
4961056783105,1.854761145,1,0.20470424194335937,1.7800889343261719,-11.241973895263671
4961059637897,1.857615937,1,0.2454056701660156,1.697488977050781,-11.241973895263671
4961062495085,1.860473125,1,0.1927332336425781,1.7477672119140624,-11.11508120727539
4961065354512,1.863332552,1,0.24779987182617186,1.695094775390625,-11.214440576171874
4961068211335,1.866189375,1,0.2501940734863281,1.7429788085937499,-11.118672509765624
4961071066283,1.869044323,1,0.22385785522460935,1.7262193969726563,-11.226411584472656
4961073923418,1.871901458,1,0.20470424194335937,1.7178396911621092,-11.207257971191405
4961076782845,1.874760885,1,0.18315642700195311,1.715445489501953,-11.123460913085937
4961079638053,1.877616093,1,0.1975216369628906,1.7334020019531249,-11.201272467041015
4961082495345,1.880473385,1,0.22864625854492185,1.7022773803710936,-11.141417425537108
4961085356178,1.883334218,1,0.23822306518554687,1.7334020019531249,-11.245565197753905
4961088213366,1.886191406,1,0.20829554443359374,1.7717092285156248,-11.162965240478515
4961091066908,1.889044948,1,0.2454056701660156,1.7166425903320313,-11.137826123046874
4961093923210,1.89190125,1,0.1867477294921875,1.7465701110839842,-11.121066711425781
4961096783470,1.89476151,1,0.20709844360351562,1.7896657409667969,-11.154585534667968
4961099637220,1.89761526,1,0.3028665100097656,1.7621324218749999,-11.167753643798827
4961102494408,1.900472448,1,0.21308394775390624,1.7178396911621092,-11.165359442138671
4961105354668,1.903332708,1,0.25737667846679685,1.707065783691406,-11.177330450439452
4961108211803,1.906189843,1,0.25737667846679685,1.7597382202148437,-11.155782635498046
4961111066283,1.909044323,1,0.2609679809570312,1.6915034729003906,-11.195286962890624
4961113921803,1.911899843,1,0.2154781494140625,1.6915034729003906,-11.150994232177734
4961116780658,1.914758698,1,0.17477672119140625,1.734599102783203,-11.162965240478515
4961119638262,1.917616302,1,0.22385785522460935,1.7465701110839842,-11.162965240478515
4961122495241,1.920473281,1,0.25139117431640623,1.7429788085937499,-11.243170996093749
4961125354928,1.923332968,1,0.23702596435546874,1.7477672119140624,-11.164162341308593
4961128211491,1.926189531,1,0.24779987182617186,1.7274164978027342,-11.150994232177734
4961131066230,1.92904427,1,0.2262520568847656,1.7298106994628906,-11.141417425537108
4961133924199,1.931902239,1,0.20350714111328125,1.7010802795410156,-11.148600030517578
4961136783418,1.934761458,1,0.2262520568847656,1.7190367919921874,-11.213243475341796
4961139643366,1.937621406,1,0.229843359375,1.7357962036132812,-11.174936248779296
4961142497585,1.940475625,1,0.1975216369628906,1.7513585144042967,-11.149797131347656
4961145353105,1.943331145,1,0.20470424194335937,1.6807295654296874,-11.206060870361327
4961148213678,1.946191718,1,0.229843359375,1.7453730102539062,-11.183315954589844
4961151067064,1.949045104,1,0.2454056701660156,1.7489643127441405,-11.1474029296875
4961153924199,1.951902239,1,0.2262520568847656,1.7022773803710936,-11.218031878662108
4961156783157,1.954761197,1,0.22266075439453123,1.725022296142578,-11.110292803955078
4961159637793,1.957615833,1,0.2154781494140625,1.7178396911621092,-11.165359442138671
4961162495918,1.960473958,1,0.23582886352539062,1.7549498168945312,-11.182118853759764
4961165354824,1.963332864,1,0.19871873779296872,1.697488977050781,-11.192892761230468
4961168211960,1.96619,1,0.19871873779296872,1.7417817077636717,-11.146205828857422
4961171066595,1.969044635,1,0.21787235107421873,1.695094775390625,-11.2240173828125
4961173924147,1.971902187,1,0.21308394775390624,1.695094775390625,-11.200075366210937
4961176784095,1.974762135,1,0.2442085693359375,1.7334020019531249,-11.213243475341796
4961179638314,1.977616354,1,0.20709844360351562,1.7310078002929687,-11.19169566040039
4961182494564,1.980472604,1,0.2645592834472656,1.7381904052734374,-11.19169566040039
4961185354876,1.983332916,1,0.24061726684570311,1.7130512878417967,-11.21683477783203
4961188211230,1.98618927,1,0.21308394775390624,1.6986860778808592,-11.220426080322264
4961191066491,1.989044531,1,0.24181436767578124,1.7106570861816406,-11.183315954589844
4961193923939,1.991901979,1,0.2166752502441406,1.7369933044433592,-11.233594189453123
4961196783001,1.994761041,1,0.201112939453125,1.7417817077636717,-11.170147845458983
4961199638001,1.997616041,1,0.2454056701660156,1.7298106994628906,-11.167753643798827
4961202494460,2.0004725,1,0.2262520568847656,1.715445489501953,-11.165359442138671
4961205355137,2.003333177,1,0.19632453613281248,1.763329522705078,-11.209652172851563
4961208212480,2.00619052,1,0.23822306518554687,1.7010802795410156,-11.105504400634764
4961211067376,2.009045416,1,0.28371289672851563,1.7094599853515624,-11.182118853759764
4961213923835,2.011901875,1,0.22864625854492185,1.7118541870117185,-11.176133349609374
4961216783053,2.014761093,1,0.25737667846679685,1.715445489501953,-11.112687005615234
4961219637689,2.017615729,1,0.2657563842773437,1.7573440185546874,-11.196484063720703
4961222494876,2.020472916,1,0.22026655273437498,1.7034744812011717,-11.158176837158203
4961225353782,2.023331822,1,0.19153613281249998,1.697488977050781,-11.203666668701171
4961228211335,2.026189375,1,0.2262520568847656,1.7453730102539062,-11.171344946289063
4961231067012,2.029045052,1,0.2262520568847656,1.6819266662597656,-11.159373937988281
4961233923678,2.031901718,1,0.17118541870117188,1.5957354064941405,-11.146205828857422
4961236782480,2.03476052,1,0.22744915771484372,1.7489643127441405,-11.201272467041015
4961239638210,2.03761625,1,0.22744915771484372,1.7513585144042967,-11.19169566040039
4961242494668,2.040472708,1,0.21787235107421873,1.7513585144042967,-11.19169566040039
4961245355137,2.043333177,1,0.21188684692382811,1.6915034729003906,-11.105504400634764
4961248212272,2.046190312,1,0.26815058593749996,1.753752716064453,-11.233594189453123
4961251066907,2.049044947,1,0.2346317626953125,1.7310078002929687,-11.252747802734374
4961253924147,2.051902187,1,0.25258827514648435,1.772906329345703,-11.190498559570312
4961256787793,2.054765833,1,0.25737667846679685,1.7178396911621092,-11.200075366210937
4961259638730,2.05761677,1,0.28012159423828126,1.7226280944824217,-11.165359442138671
4961262495345,2.060473385,1,0.29568390502929687,1.7286135986328124,-11.156979736328124
4961265355449,2.063333489,1,0.2645592834472656,1.725022296142578,-11.139023223876952
4961268211178,2.066189218,1,0.239420166015625,1.7669208251953124,-11.159373937988281
4961271066387,2.069044427,1,0.2154781494140625,1.7274164978027342,-11.19169566040039
4961273924303,2.071902343,1,0.21188684692382811,1.705868682861328,-11.19169566040039
4961276783574,2.074761614,1,0.2346317626953125,1.7262193969726563,-11.127052215576171
4961279638835,2.077616875,1,0.2214636535644531,1.7130512878417967,-11.188104357910156
4961282495293,2.080473333,1,0.2885013000488281,1.7429788085937499,-11.141417425537108
4961285354980,2.08333302,1,0.2262520568847656,1.7417817077636717,-11.182118853759764
4961288211387,2.086189427,1,0.18435352783203124,1.7669208251953124,-11.080365283203124
4961291066960,2.089045,1,0.18435352783203124,1.725022296142578,-11.111489904785156
4961293924043,2.091902083,1,0.229843359375,1.7094599853515624,-11.194089862060546
4961296783210,2.09476125,1,0.2657563842773437,1.7094599853515624,-11.212046374511718
4961299637532,2.097615572,1,0.2753331909179687,1.696291876220703,-11.329362255859374
4961302495189,2.100473229,1,0.19632453613281248,1.6915034729003906,-11.168950744628905
4961305354876,2.103332916,1,0.24061726684570311,1.7585411193847655,-11.168950744628905
4961308210814,2.106188854,1,0.22744915771484372,1.7274164978027342,-11.2240173828125
4961311066387,2.109044427,1,0.21308394775390624,1.7525556152343749,-11.19887826538086
4961313923991,2.111902031,1,0.21308394775390624,1.7286135986328124,-11.200075366210937
4961316783053,2.114761093,1,0.25139117431640623,1.7417817077636717,-11.188104357910156
4961319638053,2.117616093,1,0.239420166015625,1.7178396911621092,-11.179724652099608
4961322494407,2.120472447,1,0.23582886352539062,1.7549498168945312,-11.13423482055664
4961325354460,2.1233325,1,0.2214636535644531,1.7166425903320313,-11.21084927368164
4961328211543,2.126189583,1,0.1879448303222656,1.705868682861328,-11.209652172851563
4961331066543,2.129044583,1,0.23582886352539062,1.7082628845214842,-11.112687005615234
4961333923626,2.131901666,1,0.24181436767578124,1.7405846069335937,-11.232397088623046
4961336783314,2.134761354,1,0.23104046020507812,1.7214309936523438,-11.186907257080078
4961339637532,2.137615572,1,0.2705447875976562,1.7262193969726563,-11.225214483642578
4961342495449,2.140473489,1,0.23822306518554687,1.782483135986328,-11.241973895263671
4961345355449,2.143333489,1,0.22026655273437498,1.7705121276855467,-11.196484063720703
4961348211335,2.146189375,1,0.21188684692382811,1.7848773376464844,-11.195286962890624
4961351066699,2.149044739,1,0.20829554443359374,1.7393875061035156,-11.183315954589844
4961353923366,2.151901406,1,0.20829554443359374,1.7501614135742187,-11.202469567871093
4961356783262,2.154761302,1,0.2154781494140625,1.7274164978027342,-11.194089862060546
4961359637897,2.157615937,1,0.23343466186523437,1.7274164978027342,-11.135431921386719
4961362494928,2.160472968,1,0.22385785522460935,1.7322049011230467,-11.05762036743164
4961365355553,2.163333593,1,0.2059013427734375,1.7369933044433592,-11.21084927368164
4961368211491,2.166189531,1,0.239420166015625,1.753752716064453,-11.177330450439452
4961371066543,2.169044583,1,0.22026655273437498,1.7429788085937499,-11.129446417236327
4961373924772,2.171902812,1,0.2154781494140625,1.7417817077636717,-11.164162341308593
4961376783522,2.174761562,1,0.26336218261718747,1.7681179260253905,-11.143811627197264
4961379637741,2.177615781,1,0.229843359375,1.7705121276855467,-11.188104357910156
4961382494928,2.180472968,1,0.2657563842773437,1.7417817077636717,-11.25514200439453
4961385354512,2.183332552,1,0.20829554443359374,1.753752716064453,-11.177330450439452
4961388211647,2.186189687,1,0.23582886352539062,1.687912170410156,-11.212046374511718
4961391066647,2.189044687,1,0.21308394775390624,1.7477672119140624,-11.158176837158203
4961393924251,2.191902291,1,0.22026655273437498,1.7525556152343749,-11.16057103881836
4961396783366,2.194761406,1,0.18914193115234373,1.7178396911621092,-11.113884106445312
4961399638522,2.197616562,1,0.22266075439453123,1.6986860778808592,-11.180921752929686
4961402494407,2.200472447,1,0.26695348510742184,1.7393875061035156,-11.133037719726563
4961405354512,2.203332552,1,0.24061726684570311,1.697488977050781,-11.089942089843749
4961408211439,2.206189479,1,0.24061726684570311,1.772906329345703,-11.159373937988281
4961411066387,2.209044427,1,0.239420166015625,1.7238251953125,-11.168950744628905
4961413923678,2.211901718,1,0.239420166015625,1.697488977050781,-11.177330450439452
4961416783157,2.214761197,1,0.229843359375,1.7465701110839842,-11.180921752929686
4961419637845,2.217615885,1,0.2154781494140625,1.7465701110839842,-11.121066711425781
4961422495189,2.220473229,1,0.17477672119140625,1.7202338928222656,-11.040860955810546
4961425355032,2.223333072,1,0.2262520568847656,1.7489643127441405,-11.194089862060546
4961428211855,2.226189895,1,0.2561795776367187,1.753752716064453,-11.263521710205078
4961431066959,2.229044999,1,0.229843359375,1.7202338928222656,-11.129446417236327
4961433923939,2.231901979,1,0.22385785522460935,1.6843208679199217,-11.112687005615234
4961436783053,2.234761093,1,0.2442085693359375,1.6986860778808592,-11.21683477783203
4961439637741,2.237615781,1,0.24779987182617186,1.7322049011230467,-11.213243475341796
4961442494876,2.240472916,1,0.23343466186523437,1.7405846069335937,-11.221623181152344
4961445354772,2.243332812,1,0.2154781494140625,1.7178396911621092,-11.136629022216797
4961448212376,2.246190416,1,0.23582886352539062,1.744175909423828,-11.226411584472656
4961451066439,2.249044479,1,0.24660277099609373,1.6831237670898436,-11.133037719726563
4961453924095,2.251902135,1,0.1927332336425781,1.7238251953125,-11.19887826538086
4961456783470,2.25476151,1,0.21188684692382811,1.714248388671875,-11.148600030517578
4961459637637,2.257615677,1,0.2454056701660156,1.7238251953125,-11.133037719726563
4961462495345,2.260473385,1,0.22864625854492185,1.714248388671875,-11.117475408935546
4961465355137,2.263333177,1,0.2154781494140625,1.7513585144042967,-11.179724652099608
4961468211855,2.266189895,1,0.19033903198242186,1.695094775390625,-11.167753643798827
4961471066230,2.26904427,1,0.23104046020507812,1.7190367919921874,-11.207257971191405
4961473923730,2.27190177,1,0.21068974609375,1.687912170410156,-11.186907257080078
4961476783522,2.274761562,1,0.21068974609375,1.7393875061035156,-11.184513055419922
4961479637637,2.277615677,1,0.23582886352539062,1.7597382202148437,-11.14022032470703
4961482494303,2.280472343,1,0.22744915771484372,1.7597382202148437,-11.215637677001952
4961485354720,2.28333276,1,0.24899697265624998,1.7453730102539062,-11.24915650024414
4961488210553,2.286188593,1,0.2059013427734375,1.7298106994628906,-11.24915650024414
4961491066230,2.28904427,1,0.21308394775390624,1.7393875061035156,-11.171344946289063
4961493923262,2.291901302,1,0.20709844360351562,1.7393875061035156,-11.2240173828125
4961496783105,2.294761145,1,0.16160861206054686,1.6747440612792968,-11.179724652099608
4961499637793,2.297615833,1,0.2454056701660156,1.7393875061035156,-11.161768139648437
4961502495032,2.300473072,1,0.22385785522460935,1.7369933044433592,-11.149797131347656
4961505354616,2.303332656,1,0.201112939453125,1.6998831787109374,-11.159373937988281
4961508211439,2.306189479,1,0.2059013427734375,1.7322049011230467,-11.180921752929686
4961511066387,2.309044427,1,0.2059013427734375,1.7621324218749999,-11.162965240478515
4961513923314,2.311901354,1,0.239420166015625,1.734599102783203,-11.180921752929686
4961516782949,2.314760989,1,0.23702596435546874,1.7334020019531249,-11.221623181152344
4961519637689,2.317615729,1,0.23702596435546874,1.7130512878417967,-11.209652172851563
4961522494876,2.320472916,1,0.22266075439453123,1.695094775390625,-11.21683477783203
4961525354668,2.323332708,1,0.22505495605468748,1.725022296142578,-11.228805786132812
4961528218366,2.326196406,1,0.21428104858398436,1.763329522705078,-11.149797131347656
4961531067012,2.329045052,1,0.20949264526367187,1.725022296142578,-11.168950744628905
4961533923678,2.331901718,1,0.20829554443359374,1.707065783691406,-11.128249316406249
4961536783678,2.334761718,1,0.20829554443359374,1.7118541870117185,-11.165359442138671
4961539637584,2.337615624,1,0.19871873779296872,1.707065783691406,-11.239579693603515
4961542494824,2.340472864,1,0.23702596435546874,1.707065783691406,-11.192892761230468
4961545354407,2.343332447,1,0.17956512451171874,1.7741034301757812,-11.204863769531249
4961548212012,2.346190052,1,0.25737667846679685,1.7381904052734374,-11.204863769531249
4961551065918,2.349043958,1,0.19393033447265623,1.7226280944824217,-11.209652172851563
4961553924668,2.351902708,1,0.229843359375,1.714248388671875,-11.197681164550781
4961556783001,2.354761041,1,0.22505495605468748,1.695094775390625,-11.17852755126953
4961559638470,2.35761651,1,0.24660277099609373,1.7549498168945312,-11.099518896484375
4961562495241,2.360473281,1,0.28012159423828126,1.7010802795410156,-11.121066711425781
4961565354720,2.36333276,1,0.2262520568847656,1.7800889343261719,-11.162965240478515
4961568209459,2.366187499,1,0.20949264526367187,1.7561469177246092,-11.240776794433593
4961571066334,2.369044374,1,0.2549824768066406,1.707065783691406,-11.168950744628905
4961573923730,2.37190177,1,0.24660277099609373,1.7465701110839842,-11.18571015625
4961576783626,2.374761666,1,0.20470424194335937,1.7717092285156248,-11.220426080322264
4961579637584,2.377615624,1,0.24301146850585936,1.7453730102539062,-11.2240173828125
4961582494824,2.380472864,1,0.28012159423828126,1.6998831787109374,-11.141417425537108
4961585354407,2.383332447,1,0.24660277099609373,1.7381904052734374,-11.146205828857422
4961588212064,2.386190104,1,0.25139117431640623,1.7381904052734374,-11.194089862060546
4961591067220,2.38904526,1,0.24061726684570311,1.7226280944824217,-11.159373937988281
4961593924303,2.391902343,1,0.18076222534179687,1.7238251953125,-11.15338843383789
4961596781647,2.394759687,1,0.2442085693359375,1.7178396911621092,-11.17852755126953
4961599638626,2.397616666,1,0.2442085693359375,1.68551796875,-11.202469567871093
4961602494928,2.400472968,1,0.25258827514648435,1.7022773803710936,-11.251550701904296
4961605354616,2.403332656,1,0.1975216369628906,1.7022773803710936,-11.264718811035156
4961608211022,2.406189062,1,0.17597382202148437,1.7334020019531249,-11.319785449218749
4961611066334,2.409044374,1,0.23822306518554687,1.7393875061035156,-11.166556542968749
4961613923366,2.411901406,1,0.16160861206054686,1.7106570861816406,-11.166556542968749
4961616783470,2.41476151,1,0.2454056701660156,1.7094599853515624,-11.145008728027342
4961619637428,2.417615468,1,0.24899697265624998,1.7465701110839842,-11.240776794433593
4961622495814,2.420473854,1,0.22385785522460935,1.7166425903320313,-11.195286962890624
4961625354928,2.423332968,1,0.19991583862304688,1.7202338928222656,-11.21683477783203
4961628211439,2.426189479,1,0.2657563842773437,1.744175909423828,-11.162965240478515
4961631065605,2.429043645,1,0.13168109130859373,1.7214309936523438,-11.208455072021483
4961633923105,2.431901145,1,0.20949264526367187,1.7369933044433592,-11.225214483642578
4961636783105,2.434761145,1,0.2501940734863281,1.7753005310058592,-11.170147845458983
4961639637741,2.437615781,1,0.1927332336425781,1.7621324218749999,-11.168950744628905
4961642495918,2.440473958,1,0.24660277099609373,1.7489643127441405,-11.145008728027342
4961645355449,2.443333489,1,0.20709844360351562,1.7621324218749999,-11.159373937988281
4961648211543,2.446189583,1,0.229843359375,1.7717092285156248,-11.155782635498046
4961651066647,2.449044687,1,0.26336218261718747,1.7453730102539062,-11.177330450439452
4961653924147,2.451902187,1,0.26815058593749996,1.7369933044433592,-11.129446417236327
4961656783886,2.454761926,1,0.23702596435546874,1.7238251953125,-11.184513055419922
4961659638001,2.457616041,1,0.23702596435546874,1.7034744812011717,-11.184513055419922
4961662495136,2.460473176,1,0.25737667846679685,1.7334020019531249,-11.186907257080078
4961665355084,2.463333124,1,0.19393033447265623,1.7334020019531249,-11.228805786132812
4961668211491,2.466189531,1,0.24660277099609373,1.7549498168945312,-11.328165155029296
4961671065918,2.469043958,1,0.24061726684570311,1.7082628845214842,-11.174936248779296
4961673923678,2.471901718,1,0.17836802368164062,1.7417817077636717,-11.227608685302734
4961676784407,2.474762447,1,0.23343466186523437,1.7585411193847655,-11.164162341308593
4961679637532,2.477615572,1,0.20709844360351562,1.7262193969726563,-11.21683477783203
4961682494355,2.480472395,1,0.24181436767578124,1.7202338928222656,-11.196484063720703
4961685353782,2.483331822,1,0.229843359375,1.7202338928222656,-11.252747802734374
4961688211647,2.486189687,1,0.2549824768066406,1.7573440185546874,-11.222820281982422
4961691066543,2.489044583,1,0.19632453613281248,1.7286135986328124,-11.19169566040039
4961693923939,2.491901979,1,0.2262520568847656,1.7322049011230467,-11.173739147949219
4961696783105,2.494761145,1,0.2501940734863281,1.7369933044433592,-11.168950744628905
4961699637168,2.497615208,1,0.239420166015625,1.7322049011230467,-11.1474029296875
4961702494720,2.50047276,1,0.27174188842773433,1.7369933044433592,-11.117475408935546
4961705354407,2.503332447,1,0.23343466186523437,1.7202338928222656,-11.1474029296875
4961708211803,2.506189843,1,0.20829554443359374,1.7178396911621092,-11.150994232177734
4961711066543,2.509044583,1,0.19393033447265623,1.7561469177246092,-11.146205828857422
4961713924459,2.511902499,1,0.22864625854492185,1.753752716064453,-11.262324609375
4961716782949,2.514760989,1,0.20231004028320312,1.7286135986328124,-11.23718549194336
4961719638053,2.517616093,1,0.21188684692382811,1.7357962036132812,-11.179724652099608
4961722494095,2.520472135,1,0.21188684692382811,1.6927005737304686,-11.136629022216797
4961725354407,2.523332447,1,0.23582886352539062,1.7022773803710936,-11.194089862060546
4961728211491,2.526189531,1,0.26216508178710934,1.7022773803710936,-11.13423482055664
4961731066751,2.529044791,1,0.2346317626953125,1.7202338928222656,-11.149797131347656
4961733923418,2.531901458,1,0.24061726684570311,1.7705121276855467,-11.149797131347656
4961736783314,2.534761354,1,0.2501940734863281,1.753752716064453,-11.226411584472656
4961739637168,2.537615208,1,0.19632453613281248,1.7753005310058592,-11.17852755126953
4961742494876,2.540472916,1,0.201112939453125,1.7453730102539062,-11.156979736328124
4961745354407,2.543332447,1,0.2442085693359375,1.7417817077636717,-11.19169566040039
4961748210918,2.546188958,1,0.2693476867675781,1.7226280944824217,-11.21683477783203
4961751066230,2.54904427,1,0.24301146850585936,1.7082628845214842,-11.239579693603515
4961753924303,2.551902343,1,0.20949264526367187,1.7525556152343749,-11.21683477783203
4961756781282,2.554759322,1,0.21787235107421873,1.697488977050781,-11.214440576171874
4961759638678,2.557616718,1,0.22864625854492185,1.7501614135742187,-11.1474029296875
4961762496022,2.560474062,1,0.2059013427734375,1.7693150268554687,-11.21084927368164
4961765355345,2.563333385,1,0.16280571289062498,1.715445489501953,-11.244368096923827
4961768211751,2.566189791,1,0.2166752502441406,1.7381904052734374,-11.097124694824219
4961771065970,2.56904401,1,0.18435352783203124,1.6998831787109374,-11.143811627197264
4961773923886,2.571901926,1,0.23702596435546874,1.7226280944824217,-11.21683477783203
4961776783001,2.574761041,1,0.28969840087890625,1.7214309936523438,-11.215637677001952
4961779637689,2.577615729,1,0.1879448303222656,1.7381904052734374,-11.190498559570312
4961782495866,2.580473906,1,0.1879448303222656,1.70467158203125,-11.146205828857422
4961785354824,2.583332864,1,0.229843359375,1.707065783691406,-11.202469567871093
4961788212324,2.586190364,1,0.2454056701660156,1.707065783691406,-11.136629022216797
4961791066751,2.589044791,1,0.24899697265624998,1.7705121276855467,-11.166556542968749
4961793923261,2.591901301,1,0.22026655273437498,1.7369933044433592,-11.166556542968749
4961796790866,2.594768906,1,0.25258827514648435,1.7549498168945312,-11.156979736328124
4961799639459,2.597617499,1,0.2657563842773437,1.7405846069335937,-11.232397088623046
4961802494876,2.600472916,1,0.23104046020507812,1.7549498168945312,-11.244368096923827
4961805354563,2.603332603,1,0.22505495605468748,1.7190367919921874,-11.207257971191405
4961808212116,2.606190156,1,0.22505495605468748,1.7178396911621092,-11.247959399414063
4961811066230,2.60904427,1,0.258573779296875,1.7034744812011717,-11.159373937988281
4961813923782,2.611901822,1,0.2346317626953125,1.7597382202148437,-11.209652172851563
4961816783313,2.614761353,1,0.229843359375,1.7357962036132812,-11.189301458740234
4961819634928,2.617612968,1,0.24061726684570311,1.7262193969726563,-11.184513055419922
4961822497636,2.620475676,1,0.2442085693359375,1.705868682861328,-11.270704315185545
4961825354928,2.623332968,1,0.20709844360351562,1.7369933044433592,-11.213243475341796
4961828211699,2.626189739,1,0.23343466186523437,1.7705121276855467,-11.171344946289063
4961831065657,2.629043697,1,0.23343466186523437,1.7322049011230467,-11.103110198974608
4961833923991,2.631902031,1,0.2166752502441406,1.7214309936523438,-11.123460913085937
4961836783626,2.634761666,1,0.23343466186523437,1.7453730102539062,-11.135431921386719
4961839638313,2.637616353,1,0.27174188842773433,1.7393875061035156,-11.106701501464842
4961842493730,2.64047177,1,0.21787235107421873,1.6998831787109374,-11.19169566040039
4961845354459,2.643332499,1,0.21787235107421873,1.7453730102539062,-11.141417425537108
4961848212428,2.646190468,1,0.23223756103515625,1.7513585144042967,-11.162965240478515
4961851066282,2.649044322,1,0.26815058593749996,1.7513585144042967,-11.135431921386719
4961853923626,2.651901666,1,0.23702596435546874,1.7381904052734374,-11.05762036743164
4961856784095,2.654762135,1,0.2609679809570312,1.7381904052734374,-11.21084927368164
4961859637272,2.657615312,1,0.2454056701660156,1.714248388671875,-11.201272467041015
4961862494459,2.660472499,1,0.2537853759765625,1.744175909423828,-11.176133349609374
4961865354407,2.663332447,1,0.2442085693359375,1.7681179260253905,-11.189301458740234
4961868211855,2.666189895,1,0.2214636535644531,1.7477672119140624,-11.194089862060546
4961871066595,2.669044635,1,0.2442085693359375,1.7334020019531249,-11.19169566040039
4961873923834,2.671901874,1,0.2262520568847656,1.7082628845214842,-11.173739147949219
4961876782636,2.674760676,1,0.21787235107421873,1.7429788085937499,-11.16057103881836
4961879638209,2.677616249,1,0.23822306518554687,1.7549498168945312,-11.154585534667968
4961882495449,2.680473489,1,0.19871873779296872,1.7274164978027342,-11.203666668701171
4961885354355,2.683332395,1,0.19991583862304688,1.7465701110839842,-11.206060870361327
4961888209876,2.686187916,1,0.19153613281249998,1.7561469177246092,-11.152191333007812
4961891067272,2.689045312,1,0.19033903198242186,1.725022296142578,-11.218031878662108
4961893923886,2.691901926,1,0.25139117431640623,1.744175909423828,-11.19169566040039
4961896782741,2.694760781,1,0.2813186950683594,1.7549498168945312,-11.204863769531249
4961899636959,2.697614999,1,0.23104046020507812,1.7477672119140624,-11.13423482055664
4961902494668,2.700472708,1,0.21308394775390624,1.7310078002929687,-11.183315954589844
4961905354616,2.703332656,1,0.21308394775390624,1.753752716064453,-11.17254204711914
4961908211438,2.706189478,1,0.22266075439453123,1.714248388671875,-11.130643518066405
4961911067116,2.709045156,1,0.201112939453125,1.714248388671875,-11.227608685302734
4961913923938,2.711901978,1,0.2693476867675781,1.734599102783203,-11.328165155029296
4961916782741,2.714760781,1,0.21188684692382811,1.7788918334960937,-11.174936248779296
4961919637116,2.717615156,1,0.2454056701660156,1.7322049011230467,-11.149797131347656
4961922494824,2.720472864,1,0.22266075439453123,1.697488977050781,-11.146205828857422
4961925354616,2.723332656,1,0.24181436767578124,1.7585411193847655,-11.174936248779296
4961928211022,2.726189062,1,0.21308394775390624,1.707065783691406,-11.234791290283203
4961931065918,2.729043958,1,0.2597708801269531,1.7310078002929687,-11.19887826538086
4961933924303,2.731902343,1,0.21188684692382811,1.7214309936523438,-11.174936248779296
4961936783886,2.734761926,1,0.2442085693359375,1.707065783691406,-11.192892761230468
4961939638053,2.737616093,1,0.21906945190429686,1.7609353210449217,-11.162965240478515
4961942495761,2.740473801,1,0.2753331909179687,1.7226280944824217,-11.174936248779296
4961945355293,2.743333333,1,0.21428104858398436,1.7393875061035156,-11.103110198974608
4961948211386,2.746189426,1,0.2154781494140625,1.7190367919921874,-11.203666668701171
4961951066491,2.749044531,1,0.3028665100097656,1.8052280517578123,-11.131840618896483
4961953923834,2.751901874,1,0.239420166015625,1.7334020019531249,-11.201272467041015
4961956782636,2.754760676,1,0.26216508178710934,1.7130512878417967,-11.21683477783203
4961959637793,2.757615833,1,0.20829554443359374,1.7573440185546874,-11.213243475341796
4961962494668,2.760472708,1,0.20470424194335937,1.7130512878417967,-11.176133349609374
4961965354251,2.763332291,1,0.25258827514648435,1.7238251953125,-11.183315954589844
4961968211178,2.766189218,1,0.25258827514648435,1.7334020019531249,-11.167753643798827
4961971065657,2.769043697,1,0.18914193115234373,1.7417817077636717,-11.167753643798827
4961973922845,2.771900885,1,0.23104046020507812,1.7417817077636717,-11.173739147949219
4961976782897,2.774760937,1,0.2262520568847656,1.7513585144042967,-11.034875451660156
4961979636907,2.777614947,1,0.23702596435546874,1.7453730102539062,-11.188104357910156
4961982494303,2.780472343,1,0.19153613281249998,1.7429788085937499,-11.21683477783203
4961985354720,2.78333276,1,0.24899697265624998,1.7022773803710936,-11.250353601074218
4961988211334,2.786189374,1,0.23702596435546874,1.705868682861328,-11.188104357910156
4961991065449,2.789043489,1,0.24301146850585936,1.753752716064453,-11.215637677001952
4961993923209,2.791901249,1,0.23582886352539062,1.7226280944824217,-11.238382592773437
4961996782793,2.794760833,1,0.2166752502441406,1.715445489501953,-11.156979736328124
4961999637636,2.797615676,1,0.24061726684570311,1.7322049011230467,-11.270704315185545
4962002495136,2.800473176,1,0.2454056701660156,1.7489643127441405,-11.188104357910156
4962005356022,2.803334062,1,0.23582886352539062,1.70467158203125,-11.148600030517578
4962008211022,2.806189062,1,0.17597382202148437,1.7130512878417967,-11.213243475341796
4962011066855,2.809044895,1,0.229843359375,1.7429788085937499,-11.201272467041015
4962013923990,2.81190203,1,0.20949264526367187,1.7106570861816406,-11.168950744628905
4962016781490,2.81475953,1,0.2561795776367187,1.7753005310058592,-11.197681164550781
4962019638313,2.817616353,1,0.2537853759765625,1.7717092285156248,-11.1474029296875
4962022495136,2.820473176,1,0.24779987182617186,1.7669208251953124,-11.12226381225586
4962025354563,2.823332603,1,0.23104046020507812,1.7381904052734374,-11.171344946289063
4962028211126,2.826189166,1,0.23104046020507812,1.7190367919921874,-11.103110198974608
4962031065657,2.829043697,1,0.19512743530273435,1.6986860778808592,-11.159373937988281
4962033924199,2.831902239,1,0.24779987182617186,1.6986860778808592,-11.228805786132812
4962036782949,2.834760989,1,0.20470424194335937,1.705868682861328,-11.186907257080078
4962039638053,2.837616093,1,0.2442085693359375,1.7980454467773437,-11.186907257080078
4962042495240,2.84047328,1,0.20949264526367187,1.753752716064453,-11.200075366210937
4962045354563,2.843332603,1,0.21068974609375,1.7322049011230467,-11.232397088623046
4962048211022,2.846189062,1,0.23343466186523437,1.7465701110839842,-11.16057103881836
4962051066855,2.849044895,1,0.1867477294921875,1.7357962036132812,-11.121066711425781
4962053923470,2.85190151,1,0.22385785522460935,1.7501614135742187,-11.17254204711914
4962056782532,2.854760572,1,0.22744915771484372,1.7585411193847655,-11.117475408935546
4962059637324,2.857615364,1,0.18315642700195311,1.7166425903320313,-11.204863769531249
4962062495084,2.860473124,1,0.2537853759765625,1.7381904052734374,-11.159373937988281
4962065361282,2.863339322,1,0.20949264526367187,1.7357962036132812,-11.212046374511718
4962068214251,2.866192291,1,0.24061726684570311,1.6903063720703124,-11.127052215576171
4962071066126,2.869044166,1,0.21188684692382811,1.705868682861328,-11.207257971191405
4962073924511,2.871902551,1,0.24301146850585936,1.7381904052734374,-11.183315954589844
4962076783365,2.874761405,1,0.20709844360351562,1.7513585144042967,-11.228805786132812
4962079638730,2.87761677,1,0.258573779296875,1.7477672119140624,-11.162965240478515
4962082495136,2.880473176,1,0.19991583862304688,1.707065783691406,-11.176133349609374
4962085354355,2.883332395,1,0.24181436767578124,1.725022296142578,-11.212046374511718
4962088212480,2.88619052,1,0.24181436767578124,1.7429788085937499,-11.152191333007812
4962091065970,2.88904401,1,0.2214636535644531,1.7453730102539062,-11.228805786132812
4962093923157,2.891901197,1,0.29568390502929687,1.7585411193847655,-11.202469567871093
4962096783470,2.89476151,1,0.2262520568847656,1.7585411193847655,-11.17254204711914
4962099637636,2.897615676,1,0.22864625854492185,1.6938976745605467,-11.174936248779296
4962102495605,2.900473645,1,0.2346317626953125,1.7585411193847655,-11.174936248779296
4962105354772,2.903332812,1,0.22505495605468748,1.734599102783203,-11.168950744628905
4962108210293,2.906188333,1,0.2059013427734375,1.7106570861816406,-11.177330450439452
4962111067168,2.909045208,1,0.19991583862304688,1.7369933044433592,-11.161768139648437
4962113923626,2.911901666,1,0.20829554443359374,1.763329522705078,-11.154585534667968
4962116783261,2.914761301,1,0.2262520568847656,1.7585411193847655,-11.188104357910156
4962119637584,2.917615624,1,0.277727392578125,1.7585411193847655,-11.094730493164063
4962122494615,2.920472655,1,0.23104046020507812,1.753752716064453,-11.1474029296875
4962125354772,2.923332812,1,0.24061726684570311,1.7872715393066405,-11.170147845458983
4962128211543,2.926189583,1,0.24779987182617186,1.7417817077636717,-11.182118853759764
4962131067428,2.929045468,1,0.23343466186523437,1.7573440185546874,-11.15338843383789
4962133924355,2.931902395,1,0.19153613281249998,1.7226280944824217,-11.190498559570312
4962136781803,2.934759843,1,0.2609679809570312,1.715445489501953,-11.179724652099608
4962139636126,2.937614166,1,0.22864625854492185,1.7166425903320313,-11.218031878662108
4962142494824,2.940472864,1,0.258573779296875,1.7621324218749999,-11.203666668701171
4962145354043,2.943332083,1,0.2454056701660156,1.7262193969726563,-11.164162341308593
4962148211490,2.94618953,1,0.258573779296875,1.696291876220703,-11.238382592773437
4962151065970,2.94904401,1,0.258573779296875,1.6831237670898436,-11.214440576171874
4962153923574,2.951901614,1,0.1867477294921875,1.5538368774414062,-11.145008728027342
4962156783053,2.954761093,1,0.24899697265624998,1.707065783691406,-11.137826123046874
4962159637480,2.95761552,1,0.22505495605468748,1.7896657409667969,-11.152191333007812
4962162495501,2.960473541,1,0.21428104858398436,1.7465701110839842,-11.152191333007812
4962165354668,2.963332708,1,0.2059013427734375,1.7322049011230467,-11.16057103881836
4962168208730,2.96618677,1,0.20829554443359374,1.7645266235351562,-11.131840618896483
4962171066022,2.969044062,1,0.19632453613281248,1.7561469177246092,-11.215637677001952
4962173922584,2.971900624,1,0.23343466186523437,1.744175909423828,-11.203666668701171
4962176782845,2.974760885,1,0.2166752502441406,1.7501614135742187,-11.220426080322264
4962179638157,2.977616197,1,0.19632453613281248,1.734599102783203,-11.203666668701171
4962182495136,2.980473176,1,0.23702596435546874,1.7525556152343749,-11.19169566040039
4962185354720,2.98333276,1,0.23822306518554687,1.7202338928222656,-11.167753643798827
4962188211022,2.986189062,1,0.23822306518554687,1.6903063720703124,-11.257536206054686
4962191065501,2.989043541,1,0.229843359375,1.7369933044433592,-11.164162341308593
4962193924095,2.991902135,1,0.25737667846679685,1.7381904052734374,-11.194089862060546
4962196782949,2.994760989,1,0.21308394775390624,1.7094599853515624,-11.180921752929686
4962199638470,2.99761651,1,0.18435352783203124,1.6819266662597656,-11.170147845458983
4962202495501,3.000473541,1,0.21068974609375,1.7405846069335937,-11.197681164550781
4962205353886,3.003331926,1,0.239420166015625,1.6998831787109374,-11.179724652099608
4962208211022,3.006189062,1,0.2154781494140625,1.7106570861816406,-11.174936248779296
4962211066438,3.009044478,1,0.2154781494140625,1.7226280944824217,-11.194089862060546
4962213924147,3.011902187,1,0.2657563842773437,1.7310078002929687,-11.201272467041015
4962216784303,3.014762343,1,0.20231004028320312,1.7214309936523438,-11.179724652099608
4962219637011,3.017615051,1,0.20709844360351562,1.7214309936523438,-11.201272467041015
4962222494668,3.020472708,1,0.22744915771484372,1.7238251953125,-11.243170996093749
4962225353626,3.023331666,1,0.239420166015625,1.7238251953125,-11.243170996093749
4962228211647,3.026189687,1,0.229843359375,1.753752716064453,-11.164162341308593
4962231066907,3.029044947,1,0.2214636535644531,1.697488977050781,-11.195286962890624
4962233923470,3.03190151,1,0.23582886352539062,1.7094599853515624,-11.226411584472656
4962236782845,3.034760885,1,0.19393033447265623,1.7106570861816406,-11.218031878662108
4962239637220,3.03761526,1,0.19871873779296872,1.696291876220703,-11.176133349609374
4962242493626,3.040471666,1,0.17597382202148437,1.715445489501953,-11.106701501464842
4962245354251,3.043332291,1,0.22505495605468748,1.7645266235351562,-11.213243475341796
4962248211334,3.046189374,1,0.239420166015625,1.7310078002929687,-11.183315954589844
4962251066334,3.049044374,1,0.15083470458984374,1.7130512878417967,-11.201272467041015
4962253923209,3.051901249,1,0.21068974609375,1.7322049011230467,-11.247959399414063
4962256782845,3.054760885,1,0.1879448303222656,1.7106570861816406,-11.146205828857422
4962259637376,3.057615416,1,0.17238251953125,1.714248388671875,-11.19169566040039
4962262494355,3.060472395,1,0.2346317626953125,1.7525556152343749,-11.158176837158203
4962265354563,3.063332603,1,0.22385785522460935,1.7310078002929687,-11.207257971191405
4962268211751,3.066189791,1,0.229843359375,1.7669208251953124,-11.164162341308593
4962271066647,3.069044687,1,0.23223756103515625,1.697488977050781,-11.135431921386719
4962273923626,3.071901666,1,0.23223756103515625,1.7226280944824217,-11.167753643798827
4962276782428,3.074760468,1,0.18435352783203124,1.7334020019531249,-11.196484063720703
4962279637792,3.077615832,1,0.2442085693359375,1.7334020019531249,-11.221623181152344
4962282494720,3.08047276,1,0.24899697265624998,1.7525556152343749,-11.220426080322264
4962285354042,3.083332082,1,0.18914193115234373,1.7118541870117185,-11.220426080322264
4962288211074,3.086189114,1,0.24301146850585936,1.7405846069335937,-11.139023223876952
4962291066022,3.089044062,1,0.20350714111328125,1.772906329345703,-11.206060870361327
4962293923261,3.091901301,1,0.2609679809570312,1.7705121276855467,-11.15338843383789
4962296782845,3.094760885,1,0.2346317626953125,1.7214309936523438,-11.201272467041015
4962299637220,3.09761526,1,0.25139117431640623,1.7034744812011717,-11.243170996093749
4962302494303,3.100472343,1,0.24779987182617186,1.7405846069335937,-11.173739147949219
4962305353782,3.103331822,1,0.24301146850585936,1.7262193969726563,-11.17254204711914
4962308211230,3.10618927,1,0.239420166015625,1.7381904052734374,-11.146205828857422
4962311065605,3.109043645,1,0.229843359375,1.772906329345703,-11.206060870361327
4962313923730,3.11190177,1,0.22385785522460935,1.7501614135742187,-11.141417425537108
4962316782324,3.114760364,1,0.24181436767578124,1.7094599853515624,-11.196484063720703
4962319637532,3.117615572,1,0.21428104858398436,1.7393875061035156,-11.166556542968749
4962322495136,3.120473176,1,0.24181436767578124,1.707065783691406,-11.204863769531249
4962325354980,3.12333302,1,0.17357962036132812,1.7202338928222656,-11.148600030517578
4962328212636,3.126190676,1,0.20231004028320312,1.7836802368164062,-11.190498559570312
4962331067376,3.129045416,1,0.23702596435546874,1.7286135986328124,-11.209652172851563
4962333928470,3.13190651,1,0.21906945190429686,1.7022773803710936,-11.106701501464842
4962336787636,3.134765676,1,0.21906945190429686,1.725022296142578,-11.167753643798827
4962339637584,3.137615624,1,0.2561795776367187,1.7106570861816406,-11.182118853759764
4962342494407,3.140472447,1,0.1975216369628906,1.7106570861816406,-11.235988391113281
4962345355032,3.143333072,1,0.2154781494140625,1.7501614135742187,-11.241973895263671
4962348210449,3.146188489,1,0.239420166015625,1.7226280944824217,-11.241973895263671
4962351066855,3.149044895,1,0.17357962036132812,1.7417817077636717,-11.202469567871093
4962353923053,3.151901093,1,0.22026655273437498,1.7010802795410156,-11.149797131347656
4962356783053,3.154761093,1,0.19871873779296872,1.753752716064453,-11.15338843383789
4962359638470,3.15761651,1,0.28012159423828126,1.7944541442871094,-11.171344946289063
4962362495553,3.160473593,1,0.2549824768066406,1.7178396911621092,-11.15338843383789
4962365352949,3.163330989,1,0.21068974609375,1.6699556579589843,-11.152191333007812
4962368211751,3.166189791,1,0.2741360900878906,1.7657237243652342,-11.200075366210937
4962371065917,3.169043957,1,0.23702596435546874,1.7417817077636717,-11.15338843383789
4962373923157,3.171901197,1,0.2059013427734375,1.7393875061035156,-11.171344946289063
4962376783313,3.174761353,1,0.25258827514648435,1.7381904052734374,-11.182118853759764
4962379637949,3.177615989,1,0.23104046020507812,1.7202338928222656,-11.197681164550781
4962382495657,3.180473697,1,0.23702596435546874,1.782483135986328,-11.189301458740234
4962385351959,3.183329999,1,0.24660277099609373,1.7465701110839842,-11.17852755126953
4962388212584,3.186190624,1,0.2537853759765625,1.7381904052734374,-11.164162341308593
4962391066699,3.189044739,1,0.2154781494140625,1.70467158203125,-11.136629022216797
4962393924199,3.191902239,1,0.2454056701660156,1.7357962036132812,-11.099518896484375
4962396783209,3.194761249,1,0.2454056701660156,1.7106570861816406,-11.17852755126953
4962399638001,3.197616041,1,0.24660277099609373,1.753752716064453,-11.17852755126953
4962402494876,3.200472916,1,0.19871873779296872,1.753752716064453,-11.208455072021483
4962405353938,3.203331978,1,0.2693476867675781,1.7202338928222656,-11.317391247558593
4962408211438,3.206189478,1,0.22864625854492185,1.7609353210449217,-11.164162341308593
4962411066438,3.209044478,1,0.2454056701660156,1.7034744812011717,-11.221623181152344
4962413923365,3.211901405,1,0.22385785522460935,1.7238251953125,-11.127052215576171
4962416783417,3.214761457,1,0.17597382202148437,1.7322049011230467,-11.190498559570312
4962419637584,3.217615624,1,0.23104046020507812,1.6915034729003906,-11.145008728027342
4962422495240,3.22047328,1,0.2214636535644531,1.7334020019531249,-11.145008728027342
4962425354511,3.223332551,1,0.19871873779296872,1.7753005310058592,-11.133037719726563
4962428211490,3.22618953,1,0.239420166015625,1.7357962036132812,-11.235988391113281
4962431066907,3.229044947,1,0.2885013000488281,1.707065783691406,-11.149797131347656
4962433923522,3.231901562,1,0.2537853759765625,1.6711527587890624,-11.164162341308593
4962436782897,3.234760937,1,0.21787235107421873,1.7286135986328124,-11.159373937988281
4962439637897,3.237615937,1,0.2154781494140625,1.7393875061035156,-11.159373937988281
4962442495240,3.24047328,1,0.23343466186523437,1.7262193969726563,-11.23000288696289
4962445354511,3.243332551,1,0.21068974609375,1.7513585144042967,-11.214440576171874
4962448211907,3.246189947,1,0.229843359375,1.7417817077636717,-11.212046374511718
4962451066282,3.249044322,1,0.21188684692382811,1.7681179260253905,-11.23718549194336
4962453923886,3.251901926,1,0.23343466186523437,1.7214309936523438,-11.23718549194336
4962456783938,3.254761978,1,0.23343466186523437,1.7298106994628906,-11.142614526367186
4962459638313,3.257616353,1,0.23582886352539062,1.7202338928222656,-11.15338843383789
4962462494719,3.260472759,1,0.21068974609375,1.744175909423828,-11.14022032470703
4962465355761,3.263333801,1,0.2609679809570312,1.744175909423828,-11.182118853759764
4962468211438,3.266189478,1,0.24660277099609373,1.725022296142578,-11.043255157470702
4962471066334,3.269044374,1,0.22385785522460935,1.7178396911621092,-11.196484063720703
4962473924094,3.271902134,1,0.24061726684570311,1.7393875061035156,-11.131840618896483
4962476782792,3.274760832,1,0.19991583862304688,1.7214309936523438,-11.200075366210937
4962479637063,3.277615103,1,0.2537853759765625,1.7238251953125,-11.176133349609374
4962482494563,3.280472603,1,0.2262520568847656,1.7573440185546874,-11.177330450439452
4962485353886,3.283331926,1,0.19871873779296872,1.7417817077636717,-11.197681164550781
4962488211282,3.286189322,1,0.24061726684570311,1.7130512878417967,-11.143811627197264
4962491066230,3.28904427,1,0.24301146850585936,1.7298106994628906,-11.173739147949219
4962493924094,3.291902134,1,0.19512743530273435,1.7286135986328124,-11.235988391113281
4962496783834,3.294761874,1,0.22026655273437498,1.707065783691406,-11.168950744628905
4962499637167,3.297615207,1,0.2262520568847656,1.7417817077636717,-11.1474029296875
4962502494563,3.300472603,1,0.2154781494140625,1.7669208251953124,-11.214440576171874
4962505353834,3.303331874,1,0.2549824768066406,1.7262193969726563,-11.220426080322264
4962508210709,3.306188749,1,0.2346317626953125,1.7262193969726563,-11.207257971191405
4962511065553,3.309043593,1,0.22864625854492185,1.7657237243652342,-11.179724652099608
4962513923574,3.311901614,1,0.23343466186523437,1.7501614135742187,-11.18571015625
4962516782792,3.314760832,1,0.26695348510742184,1.7357962036132812,-11.159373937988281
4962519637949,3.317615989,1,0.26695348510742184,1.7274164978027342,-11.162965240478515
4962522494094,3.320472134,1,0.20949264526367187,1.744175909423828,-11.164162341308593
4962525354772,3.323332812,1,0.20709844360351562,1.744175909423828,-11.186907257080078
4962528211490,3.32618953,1,0.24899697265624998,1.7262193969726563,-11.227608685302734
4962531066074,3.329044114,1,0.23343466186523437,1.7573440185546874,-11.227608685302734
4962533923834,3.331901874,1,0.23582886352539062,1.7489643127441405,-11.203666668701171
4962536782584,3.334760624,1,0.22505495605468748,1.7501614135742187,-11.170147845458983
4962539636594,3.337614634,1,0.19512743530273435,1.715445489501953,-11.148600030517578
4962542494719,3.340472759,1,0.19871873779296872,1.7082628845214842,-11.130643518066405
4962545352167,3.343330207,1,0.2561795776367187,1.7238251953125,-11.220426080322264
4962548211855,3.346189895,1,0.258573779296875,1.7896657409667969,-11.174936248779296
4962551066282,3.349044322,1,0.229843359375,1.6927005737304686,-11.188104357910156
4962553924719,3.351902759,1,0.19632453613281248,1.7274164978027342,-11.173739147949219
4962556783990,3.35476203,1,0.20709844360351562,1.7381904052734374,-11.246762298583985
4962559638001,3.357616041,1,0.1640028137207031,1.7118541870117185,-11.171344946289063
4962562494303,3.360472343,1,0.25139117431640623,1.715445489501953,-11.201272467041015
4962565354407,3.363332447,1,0.27293898925781246,1.7561469177246092,-11.148600030517578
4962568211178,3.366189218,1,0.2214636535644531,1.744175909423828,-11.197681164550781
4962571066594,3.369044634,1,0.22266075439453123,1.7513585144042967,-11.176133349609374
4962573923157,3.371901197,1,0.2154781494140625,1.7022773803710936,-11.189301458740234
4962576783365,3.374761405,1,0.21188684692382811,1.7274164978027342,-11.14022032470703
4962579637063,3.377615103,1,0.21188684692382811,1.7190367919921874,-11.194089862060546
4962582495449,3.380473489,1,0.21428104858398436,1.8267758666992187,-11.189301458740234
4962585355136,3.383333176,1,0.21428104858398436,1.600523809814453,-11.109095703125
4962588211907,3.386189947,1,0.2214636535644531,1.753752716064453,-11.196484063720703
4962591066386,3.389044426,1,0.22385785522460935,1.7238251953125,-11.195286962890624
4962593922897,3.391900937,1,0.24899697265624998,1.697488977050781,-11.195286962890624
4962596782740,3.39476078,1,0.19033903198242186,1.7214309936523438,-11.159373937988281
4962599637011,3.397615051,1,0.1771709228515625,1.7381904052734374,-11.166556542968749
4962602500501,3.400478541,1,0.2657563842773437,1.7489643127441405,-11.197681164550781
4962605358469,3.403336509,1,0.2693476867675781,1.70467158203125,-11.154585534667968
4962608211751,3.406189791,1,0.2442085693359375,1.7393875061035156,-11.214440576171874
4962611066230,3.40904427,1,0.2059013427734375,1.7286135986328124,-11.150994232177734
4962613924303,3.411902343,1,0.229843359375,1.7800889343261719,-11.170147845458983
4962616783261,3.414761301,1,0.18555062866210936,1.753752716064453,-11.155782635498046
4962619637324,3.417615364,1,0.2214636535644531,1.7357962036132812,-11.171344946289063
4962622495553,3.420473593,1,0.24181436767578124,1.7872715393066405,-11.136629022216797
4962625354511,3.423332551,1,0.23104046020507812,1.7741034301757812,-11.15338843383789
4962628210761,3.426188801,1,0.21068974609375,1.696291876220703,-11.208455072021483
4962631066386,3.429044426,1,0.2609679809570312,1.6915034729003906,-11.226411584472656
4962633923886,3.431901926,1,0.21787235107421873,1.7609353210449217,-11.215637677001952
4962636782949,3.434760989,1,0.2442085693359375,1.7118541870117185,-11.16057103881836
4962639638834,3.437616874,1,0.2980781066894531,1.744175909423828,-11.239579693603515
4962642495032,3.440473072,1,0.2980781066894531,1.7322049011230467,-11.183315954589844
4962645354876,3.443332916,1,0.22026655273437498,1.714248388671875,-11.250353601074218
4962648210865,3.446188905,1,0.239420166015625,1.714248388671875,-11.15338843383789
4962651065605,3.449043645,1,0.2346317626953125,1.7741034301757812,-11.119869610595703
4962653924615,3.451902655,1,0.1867477294921875,1.7214309936523438,-11.119869610595703
4962656783053,3.454761093,1,0.22385785522460935,1.725022296142578,-11.135431921386719
4962659636959,3.457614999,1,0.1975216369628906,1.7274164978027342,-11.165359442138671
4962662493990,3.46047203,1,0.22026655273437498,1.714248388671875,-11.209652172851563
4962665353938,3.463331978,1,0.23223756103515625,1.725022296142578,-11.200075366210937
4962668210657,3.466188697,1,0.20949264526367187,1.7238251953125,-11.180921752929686
4962671065969,3.469044009,1,0.27174188842773433,1.7597382202148437,-11.176133349609374
4962673923730,3.47190177,1,0.181959326171875,1.7741034301757812,-11.192892761230468
4962676783469,3.474761509,1,0.21188684692382811,1.7621324218749999,-11.221623181152344
4962679637792,3.477615832,1,0.21906945190429686,1.7585411193847655,-11.186907257080078
4962682494094,3.480472134,1,0.2262520568847656,1.715445489501953,-11.13423482055664
4962685353730,3.48333177,1,0.229843359375,1.7417817077636717,-11.166556542968749
4962688211282,3.486189322,1,0.2765302917480469,1.734599102783203,-11.118672509765624
4962691065917,3.489043957,1,0.25737667846679685,1.687912170410156,-11.21683477783203
4962693923678,3.491901718,1,0.1927332336425781,1.7130512878417967,-11.189301458740234
4962696783105,3.494761145,1,0.19871873779296872,1.7573440185546874,-11.218031878662108
4962699637792,3.497615832,1,0.26695348510742184,1.744175909423828,-11.145008728027342
4962702494459,3.500472499,1,0.26695348510742184,1.7202338928222656,-11.168950744628905
4962705354615,3.503332655,1,0.22266075439453123,1.7657237243652342,-11.182118853759764
4962708212011,3.506190051,1,0.20829554443359374,1.7657237243652342,-11.274295617675781
4962711066334,3.509044374,1,0.22266075439453123,1.7657237243652342,-11.202469567871093
4962713922532,3.511900572,1,0.22505495605468748,1.6938976745605467,-11.324573852539062
4962716782480,3.51476052,1,0.2262520568847656,1.697488977050781,-11.171344946289063
4962719637115,3.517615155,1,0.25258827514648435,1.7453730102539062,-11.214440576171874
4962722494876,3.520472916,1,0.19153613281249998,1.744175909423828,-11.167753643798827
4962725354199,3.523332239,1,0.24660277099609373,1.7322049011230467,-11.149797131347656
4962728210501,3.526188541,1,0.23343466186523437,1.7357962036132812,-11.18571015625
4962731063938,3.529041978,1,0.2693476867675781,1.705868682861328,-11.213243475341796
4962733923365,3.531901405,1,0.21787235107421873,1.70467158203125,-11.197681164550781
4962736783261,3.534761301,1,0.30885201416015623,1.7106570861816406,-11.201272467041015
4962739637949,3.537615989,1,0.22266075439453123,1.7705121276855467,-11.194089862060546
4962742494563,3.540472603,1,0.258573779296875,1.7585411193847655,-11.174936248779296
4962745354094,3.543332134,1,0.2753331909179687,1.7034744812011717,-11.221623181152344
4962748211386,3.546189426,1,0.2214636535644531,1.7274164978027342,-11.182118853759764
4962751065917,3.549043957,1,0.2262520568847656,1.7465701110839842,-11.186907257080078
4962753923626,3.551901666,1,0.19033903198242186,1.7369933044433592,-11.192892761230468
4962756782844,3.554760884,1,0.2166752502441406,1.7082628845214842,-11.195286962890624
4962759637063,3.557615103,1,0.21068974609375,1.7453730102539062,-11.173739147949219
4962762494511,3.560472551,1,0.239420166015625,1.68551796875,-11.197681164550781
4962765354355,3.563332395,1,0.239420166015625,1.7369933044433592,-11.182118853759764
4962768210917,3.566188957,1,0.21787235107421873,1.7022773803710936,-11.149797131347656
4962771066021,3.569044061,1,0.2154781494140625,1.7022773803710936,-11.152191333007812
4962773923365,3.571901405,1,0.239420166015625,1.7585411193847655,-11.040860955810546
4962776782115,3.574760155,1,0.20231004028320312,1.705868682861328,-11.194089862060546
4962779636699,3.577614739,1,0.2609679809570312,1.7381904052734374,-11.099518896484375
4962782494199,3.580472239,1,0.20350714111328125,1.7286135986328124,-11.174936248779296
4962785354199,3.583332239,1,0.27174188842773433,1.7645266235351562,-11.218031878662108
4962788210136,3.586188176,1,0.2154781494140625,1.7022773803710936,-11.190498559570312
4962791065292,3.589043332,1,0.2059013427734375,1.7010802795410156,-11.106701501464842
4962793940605,3.591918645,1,0.21188684692382811,1.725022296142578,-11.17254204711914
4962796801074,3.594779114,1,0.26336218261718747,1.7393875061035156,-11.184513055419922
4962799653521,3.597631561,1,0.2549824768066406,1.714248388671875,-11.166556542968749
4962802510865,3.600488905,1,0.22026655273437498,1.7549498168945312,-11.107898602294922
4962805367740,3.60334578,1,0.19871873779296872,1.7262193969726563,-11.124658013916015
4962808228678,3.606206718,1,0.26815058593749996,1.7525556152343749,-11.174936248779296
4962811082324,3.609060364,1,0.2059013427734375,1.695094775390625,-11.227608685302734
4962813940657,3.611918697,1,0.258573779296875,1.7669208251953124,-11.188104357910156
4962816799511,3.614777551,1,0.18076222534179687,1.7322049011230467,-11.206060870361327
4962819652844,3.617630884,1,0.20350714111328125,1.7465701110839842,-11.192892761230468
4962822510344,3.620488384,1,0.23343466186523437,1.6807295654296874,-11.173739147949219
4962825368053,3.623346093,1,0.2609679809570312,1.7549498168945312,-11.17254204711914
4962828228938,3.626206978,1,0.2609679809570312,1.7286135986328124,-11.207257971191405
4962831082271,3.629060311,1,0.20709844360351562,1.7214309936523438,-11.15338843383789
4962833939459,3.631917499,1,0.21906945190429686,1.7369933044433592,-11.164162341308593
4962836800084,3.634778124,1,0.22864625854492185,1.7369933044433592,-11.222820281982422
4962839653521,3.637631561,1,0.19153613281249998,1.7034744812011717,-11.21683477783203
4962842506542,3.640484582,1,0.2442085693359375,1.7357962036132812,-11.214440576171874
4962845380449,3.643358489,1,0.19393033447265623,1.7501614135742187,-11.214440576171874
4962848229771,3.646207811,1,0.22266075439453123,1.7489643127441405,-11.26831011352539
4962851079199,3.649057239,1,0.229843359375,1.7489643127441405,-11.14022032470703
4962853937271,3.651915311,1,0.2154781494140625,1.7298106994628906,-11.189301458740234
4962856797636,3.654775676,1,0.20231004028320312,1.7429788085937499,-11.165359442138671
4962859649303,3.657627343,1,0.23343466186523437,1.7477672119140624,-11.180921752929686
4962862507011,3.660485051,1,0.181959326171875,1.7393875061035156,-11.19887826538086
4962865365917,3.663343957,1,0.19512743530273435,1.7369933044433592,-11.123460913085937
4962868226334,3.666204374,1,0.201112939453125,1.7405846069335937,-11.176133349609374
4962871085865,3.669063905,1,0.21188684692382811,1.7178396911621092,-11.073182678222656
4962873939199,3.671917239,1,0.21068974609375,1.714248388671875,-11.16057103881836
4962876796021,3.674774061,1,0.24899697265624998,1.6915034729003906,-11.168950744628905
4962879647844,3.677625884,1,0.24181436767578124,1.7417817077636717,-11.19887826538086
4962882508261,3.680486301,1,0.19871873779296872,1.7357962036132812,-11.180921752929686
4962885364615,3.683342655,1,0.24660277099609373,1.7393875061035156,-11.200075366210937
4962888225553,3.686203593,1,0.20949264526367187,1.7274164978027342,-11.240776794433593
4962891079563,3.689057603,1,0.20949264526367187,1.7501614135742187,-11.246762298583985
4962893941282,3.691919322,1,0.22505495605468748,1.7501614135742187,-11.146205828857422
4962896801334,3.694779374,1,0.2454056701660156,1.8291700683593748,-11.219228979492186
4962899653313,3.697631353,1,0.22744915771484372,1.675941162109375,-11.164162341308593
4962902510501,3.700488541,1,0.23343466186523437,1.7513585144042967,-11.143811627197264
4962905378157,3.703356197,1,0.2645592834472656,1.7322049011230467,-11.064802972412108
4962908228834,3.706206874,1,0.28490999755859375,1.7381904052734374,-11.218031878662108
4962911080292,3.709058332,1,0.17956512451171874,1.7357962036132812,-11.156979736328124
4962913939146,3.711917186,1,0.181959326171875,1.7238251953125,-11.190498559570312
4962916799355,3.714777395,1,0.21068974609375,1.7513585144042967,-11.212046374511718
4962919651542,3.717629582,1,0.2549824768066406,1.734599102783203,-11.180921752929686
4962922508053,3.720486093,1,0.2813186950683594,1.7022773803710936,-11.186907257080078
4962925365136,3.723343176,1,0.2346317626953125,1.7298106994628906,-11.118672509765624
4962928225657,3.726203697,1,0.24660277099609373,1.715445489501953,-11.232397088623046
4962931078313,3.729056353,1,0.2059013427734375,1.753752716064453,-11.2240173828125
4962933935917,3.731913957,1,0.229843359375,1.6831237670898436,-11.117475408935546
4962936798521,3.734776561,1,0.24899697265624998,1.7178396911621092,-11.196484063720703
4962939651438,3.737629478,1,0.2346317626953125,1.7621324218749999,-11.202469567871093
4962942508313,3.740486353,1,0.2214636535644531,1.7453730102539062,-11.188104357910156
4962945364563,3.743342603,1,0.2537853759765625,1.6819266662597656,-11.182118853759764
4962948226126,3.746204166,1,0.229843359375,1.705868682861328,-11.180921752929686
4962951078261,3.749056301,1,0.229843359375,1.7178396911621092,-11.154585534667968
4962953937063,3.751915103,1,0.1927332336425781,1.7561469177246092,-11.131840618896483
4962956798053,3.754776093,1,0.22864625854492185,1.7429788085937499,-11.17852755126953
4962959650292,3.757628332,1,0.2346317626953125,1.7429788085937499,-11.206060870361327
4962962507896,3.760485936,1,0.17357962036132812,1.7657237243652342,-11.218031878662108
4962965365032,3.763343072,1,0.20709844360351562,1.7477672119140624,-11.285069525146485
4962968226230,3.76620427,1,0.1771709228515625,1.753752716064453,-11.131840618896483
4962971079771,3.769057811,1,0.21068974609375,1.715445489501953,-11.195286962890624
4962973937428,3.771915468,1,0.20949264526367187,1.707065783691406,-11.262324609375
4962976797844,3.774775884,1,0.20829554443359374,1.7693150268554687,-11.164162341308593
4962979650084,3.777628124,1,0.1867477294921875,1.6927005737304686,-11.148600030517578
4962982508469,3.780486509,1,0.28012159423828126,1.6927005737304686,-11.197681164550781
4962985364615,3.783342655,1,0.23104046020507812,1.7369933044433592,-11.176133349609374
4962988226907,3.786204947,1,0.2346317626953125,1.7010802795410156,-11.17852755126953
4962991079303,3.789057343,1,0.2346317626953125,1.7286135986328124,-11.228805786132812
4962993938001,3.791916041,1,0.24061726684570311,1.696291876220703,-11.202469567871093
4962996798573,3.794776613,1,0.2454056701660156,1.7393875061035156,-11.177330450439452
4962999651073,3.797629113,1,0.25139117431640623,1.675941162109375,-11.142614526367186
4963002508626,3.800486666,1,0.17238251953125,1.763329522705078,-11.196484063720703
4963005363782,3.803341822,1,0.22744915771484372,1.7393875061035156,-11.141417425537108
4963008226803,3.806204843,1,0.23223756103515625,1.7561469177246092,-11.184513055419922
4963011079355,3.809057395,1,0.23223756103515625,1.7262193969726563,-11.219228979492186
4963013936542,3.811914582,1,0.23582886352539062,1.734599102783203,-11.265915911865234
4963016797532,3.814775572,1,0.24899697265624998,1.7417817077636717,-11.218031878662108
4963019651073,3.817629113,1,0.16759411621093748,1.7082628845214842,-11.195286962890624
4963022508261,3.820486301,1,0.17357962036132812,1.7082628845214842,-11.227608685302734
4963025364094,3.823342134,1,0.21906945190429686,1.7393875061035156,-11.298237634277344
4963028224980,3.82620302,1,0.24061726684570311,1.6891092712402342,-11.073182678222656
4963031078417,3.829056457,1,0.2705447875976562,1.6998831787109374,-11.226411584472656
4963033934094,3.831912134,1,0.23822306518554687,1.7226280944824217,-11.188104357910156
4963036793521,3.834771561,1,0.2609679809570312,1.7513585144042967,-11.186907257080078
4963039652740,3.83763078,1,0.22505495605468748,1.7417817077636717,-11.19887826538086
4963042509042,3.840487082,1,0.2597708801269531,1.7214309936523438,-11.214440576171874
4963045364355,3.843342395,1,0.22026655273437498,1.697488977050781,-11.213243475341796
4963048225501,3.846203541,1,0.21906945190429686,1.659181750488281,-11.174936248779296
4963051078886,3.849056926,1,0.23582886352539062,1.6903063720703124,-11.136629022216797
4963053936178,3.851914218,1,0.19512743530273435,1.7597382202148437,-11.231199987792968
4963056798105,3.854776145,1,0.23582886352539062,1.7717092285156248,-11.184513055419922
4963059650761,3.857628801,1,0.24660277099609373,1.7465701110839842,-11.099518896484375
4963062507948,3.860485988,1,0.15442600708007811,1.7357962036132812,-11.173739147949219
4963065365396,3.863343436,1,0.20949264526367187,1.7489643127441405,-11.192892761230468
4963068225761,3.866203801,1,0.229843359375,1.7094599853515624,-11.088744989013671
4963071078782,3.869056822,1,0.19512743530273435,1.7298106994628906,-11.21084927368164
4963073937480,3.87191552,1,0.19512743530273435,1.7369933044433592,-11.158176837158203
4963076796907,3.874774947,1,0.22864625854492185,1.70467158203125,-11.183315954589844
4963079650917,3.877628957,1,0.2154781494140625,1.7286135986328124,-11.149797131347656
4963082507844,3.880485884,1,0.2214636535644531,1.7286135986328124,-11.129446417236327
4963085364615,3.883342655,1,0.20829554443359374,1.7764976318359373,-11.204863769531249
4963088224980,3.88620302,1,0.2741360900878906,1.7238251953125,-11.329362255859374
4963091079042,3.889057082,1,0.26336218261718747,1.7334020019531249,-11.176133349609374
4963093976178,3.891954218,1,0.22385785522460935,1.7393875061035156,-11.155782635498046
4963096798417,3.894776457,1,0.24181436767578124,1.7381904052734374,-11.196484063720703
4963099650969,3.897629009,1,0.23822306518554687,1.782483135986328,-11.111489904785156
4963102508469,3.900486509,1,0.23343466186523437,1.7238251953125,-11.110292803955078
4963105364928,3.903342968,1,0.229843359375,1.7310078002929687,-11.156979736328124
4963108226230,3.90620427,1,0.229843359375,1.7334020019531249,-11.146205828857422
4963111077740,3.90905578,1,0.201112939453125,1.7022773803710936,-11.196484063720703
4963113936073,3.911914113,1,0.229843359375,1.7310078002929687,-11.238382592773437
4963116799250,3.91477729,1,0.2166752502441406,1.7657237243652342,-11.166556542968749
4963119651073,3.917629113,1,0.229843359375,1.7130512878417967,-11.174936248779296
4963122508313,3.920486353,1,0.27174188842773433,1.7393875061035156,-11.133037719726563
4963125364511,3.923342551,1,0.23104046020507812,1.7848773376464844,-11.143811627197264
4963128222636,3.926200676,1,0.2346317626953125,1.7597382202148437,-11.141417425537108
4963131077115,3.929055155,1,0.23104046020507812,1.7274164978027342,-11.143811627197264
4963133937532,3.931915572,1,0.23104046020507812,1.7298106994628906,-11.209652172851563
4963136798000,3.93477604,1,0.2501940734863281,1.7010802795410156,-11.243170996093749
4963139657219,3.937635259,1,0.17238251953125,1.7381904052734374,-11.176133349609374
4963142509823,3.940487863,1,0.22266075439453123,1.7310078002929687,-11.17852755126953
4963145363261,3.943341301,1,0.21906945190429686,1.7310078002929687,-11.244368096923827
4963148224667,3.946202707,1,0.18914193115234373,1.7166425903320313,-11.202469567871093
4963151078938,3.949056978,1,0.2346317626953125,1.7741034301757812,-11.246762298583985
4963153936542,3.951914582,1,0.22266075439453123,1.697488977050781,-11.246762298583985
4963156796907,3.954774947,1,0.19871873779296872,1.7178396911621092,-11.171344946289063
4963159650032,3.957628072,1,0.21068974609375,1.7788918334960937,-11.13423482055664
4963162508834,3.960486874,1,0.19153613281249998,1.7334020019531249,-11.09592759399414
4963165366698,3.963344738,1,0.20829554443359374,1.697488977050781,-11.234791290283203
4963168227063,3.966205103,1,0.2154781494140625,1.7178396911621092,-11.225214483642578
4963171080396,3.969058436,1,0.1927332336425781,1.725022296142578,-11.200075366210937
4963173935292,3.971913332,1,0.26336218261718747,1.6986860778808592,-11.170147845458983
4963176797375,3.974775415,1,0.21428104858398436,1.7334020019531249,-11.184513055419922
4963179651073,3.977629113,1,0.181959326171875,1.7393875061035156,-11.143811627197264
4963182507844,3.980485884,1,0.21188684692382811,1.705868682861328,-11.133037719726563
4963185365240,3.98334328,1,0.24660277099609373,1.7609353210449217,-11.195286962890624
4963188225917,3.986203957,1,0.26216508178710934,1.7190367919921874,-11.189301458740234
4963191078209,3.989056249,1,0.2501940734863281,1.7298106994628906,-11.177330450439452
4963193936750,3.99191479,1,0.22385785522460935,1.7429788085937499,-11.21683477783203
4963196799407,3.994777447,1,0.22385785522460935,1.7214309936523438,-11.271901416015623
4963199651594,3.997629634,1,0.23223756103515625,1.7788918334960937,-11.121066711425781
4963202507844,4.000485884,1,0.21787235107421873,1.7118541870117185,-11.159373937988281
4963205364250,4.00334229,1,0.2501940734863281,1.7118541870117185,-11.182118853759764
4963208225396,4.006203436,1,0.20709844360351562,1.7609353210449217,-11.212046374511718
4963211080292,4.009058332,1,0.22026655273437498,1.7322049011230467,-11.225214483642578
4963213936490,4.01191453,1,0.2262520568847656,1.7298106994628906,-11.225214483642578
4963216796855,4.014774895,1,0.2154781494140625,1.7286135986328124,-11.12226381225586
4963219651021,4.017629061,1,0.1879448303222656,1.744175909423828,-11.166556542968749
4963222507480,4.02048552,1,0.23822306518554687,1.7298106994628906,-11.221623181152344
4963225364198,4.023342238,1,0.22505495605468748,1.7178396911621092,-11.18571015625
4963228225292,4.026203332,1,0.17238251953125,1.7286135986328124,-11.162965240478515
4963231078469,4.029056509,1,0.20470424194335937,1.7501614135742187,-11.195286962890624
4963233937167,4.031915207,1,0.24181436767578124,1.7453730102539062,-11.183315954589844
4963236798469,4.034776509,1,0.17956512451171874,1.7465701110839842,-11.189301458740234
4963239651073,4.037629113,1,0.2454056701660156,1.7405846069335937,-11.18571015625
4963242508157,4.040486197,1,0.22026655273437498,1.7178396911621092,-11.226411584472656
4963245364250,4.04334229,1,0.23104046020507812,1.6891092712402342,-11.19169566040039
4963248226230,4.04620427,1,0.2705447875976562,1.6639701538085936,-11.196484063720703
4963251079042,4.049057082,1,0.2346317626953125,1.7298106994628906,-11.194089862060546
