timestamp_ns,t_s,sensor_id,ax,ay,az
5940901552315,0.058167917,1,-5.009866973876953,8.884882360839843,7.976282830810546
5940904845075,0.061460677,1,-5.240907434082031,8.955511309814453,8.28034644165039
5940908173409,0.064789011,1,-5.464765289306641,8.978256225585938,8.540117321777343
5940911509555,0.068125157,1,-5.761646295166015,8.967482318115234,8.811859210205078
5940914842836,0.071458438,1,-5.932831713867187,9.017760552978515,9.072827191162109
5940918174815,0.074790417,1,-6.113593939208984,8.993818536376953,9.223661895751952
5940921506638,0.07812224,1,-6.271611248779297,9.00818374633789,9.528922607421874
5940924840127,0.081455729,1,-6.361393811035156,8.96987651977539,9.872490545654296
5940928173409,0.084789011,1,-6.362590911865234,9.035717065429687,10.008960040283203
5940931503461,0.088119063,1,-6.333860491943359,9.05367357788086,10.160991845703125
5940934837784,0.091453386,1,-6.406883642578125,8.955511309814453,10.319009155273436
5940938173200,0.094788802,1,-6.191405493164062,9.221267694091797,10.237606298828124
5940941505752,0.098121354,1,-6.040570788574218,9.236830004882812,9.98501802368164
5940944839607,0.101455209,1,-6.025008477783203,8.985438830566405,9.889249957275391
5940948172471,0.104788073,1,-6.009446166992187,8.610746270751953,9.853336932373047
5940951503982,0.108119584,1,-5.84185205078125,8.371326104736328,9.6151138671875
5940954837523,0.111453125,1,-5.835866546630859,8.186972576904296,8.781931689453124
5940958173252,0.114788854,1,-5.506663818359375,7.7763669921875,8.476670977783202
5940961505544,0.118121146,1,-5.341463903808593,7.550114935302734,8.170213165283203
5940964839502,0.121455104,1,-5.070919116210937,7.416039642333984,7.715314849853515
5940968172680,0.124788282,1,-4.8494554626464845,7.285555651855469,7.198167291259765
5940971504086,0.128119688,1,-4.680664245605469,7.133523846435547,6.810306622314453
5940974837315,0.131452917,1,-4.435258575439453,6.84382544555664,6.312312677001953
5940978173461,0.134789063,1,-4.276044165039062,6.506243011474609,5.84185205078125
5940981505909,0.138121511,1,-4.2149920227050774,6.26921704711914,5.379771130371093
5940984839450,0.141455052,1,-4.10485874633789,5.857414361572265,4.477157104492187
5940988172523,0.144788125,1,-3.9312791259765625,5.6946086486816405,3.9612066467285154
5940991503617,0.148119219,1,-3.6463691284179687,5.5545478515625,3.660734338378906
5940994837159,0.151452761,1,-3.5673604736328124,5.473144995117187,3.384204046630859
5940998173148,0.15478875,1,-3.2237925354003902,5.480327600097656,3.1004911499023438
5941001505648,0.15812125,1,-3.0119056884765625,5.467159490966797,2.7653029174804686
5941004839815,0.161455417,1,-2.789244934082031,5.518634826660156,2.579752288818359
5941008172992,0.164788594,1,-2.6803087585449217,5.4887073059082025,2.3151930053710936
5941011503565,0.168119167,1,-2.437297290039062,5.534197137451171,1.5837643981933593
5941014837732,0.171453334,1,-2.3726538452148436,5.680243438720702,1.2964601989746094
5941018172732,0.174788334,1,-2.2589292663574216,5.734112976074218,1.0761936462402344
5941021506377,0.178121979,1,-2.2098481323242187,5.734112976074218,0.7613561279296874
5941024839034,0.181454636,1,-2.212242333984375,5.80953032836914,0.47165772705078124
5941028172159,0.184787761,1,-2.1607669982910154,5.9208607055664055,0.12330138549804687
5941031503825,0.188119427,1,-2.1440075866699217,5.9208607055664055,0.051475335693359374
5941034837471,0.191453073,1,-2.0087351928710935,6.075286712646484,-0.15562310791015624
5941038172888,0.19478849,1,-2.038662713623047,6.123170745849609,-0.24301146850585936
5941041506638,0.19812224,1,-1.974019268798828,6.324283685302734,-0.5135562561035156
5941044839242,0.201454844,1,-1.839943975830078,6.587645867919922,-0.5973533142089843
5941048172784,0.204788386,1,-1.7034744812011717,6.775590698242187,-0.6153098266601562
5941051503461,0.208119063,1,-1.9704279663085937,6.713341455078124,-0.5674257934570313
5941054836534,0.211452136,1,-1.7334020019531249,6.6714429260253905,-0.6308721374511719
5941058172940,0.214788542,1,-1.7525556152343749,6.777984899902344,-0.5518634826660156
5941061505596,0.218121198,1,-1.6795324645996093,6.9707181335449215,-0.47884033203125
5941064839450,0.221455052,1,-1.5215151550292967,7.145494854736327,-0.3591302490234375
5941068171690,0.224787292,1,-1.4257470886230468,7.395688928222656,-0.2609679809570312
5941071503461,0.228119063,1,-1.4257470886230468,7.411251239013671,0.003591302490234375
5941074837680,0.231453282,1,-1.4987702392578124,7.558494641113281,0.08379705810546874
5941078173200,0.234788802,1,-1.5454571716308594,7.633911993408202,0.08140285644531249
5941081505700,0.238121302,1,-1.6927005737304686,7.655459808349609,0.2154781494140625
5941084837211,0.241452813,1,-1.8124106567382812,7.654262707519531,0.3495534423828125
5941088173200,0.244788802,1,-1.9117700256347656,7.723694555664062,0.5518634826660156
5941091504034,0.248119636,1,-1.9967641845703124,7.7967177062988275,0.8415618835449218
5941094837315,0.251452917,1,-2.033874310302734,7.746439471435546,0.9935936889648437
5941098173252,0.254788854,1,-2.0841525451660154,7.7979148071289055,1.3084312072753905
5941101506430,0.258122032,1,-2.1499930908203124,7.691372833251953,1.867477294921875
5941104839398,0.261455,1,-2.1739351074218747,7.529764221191406,2.1021090576171875
5941108172523,0.264788125,1,-2.446874096679687,7.503428002929687,2.39420166015625
5941111504086,0.268119688,1,-2.568978381347656,7.522581616210937,2.6384102294921874
5941114836950,0.271452552,1,-2.7198130859375,7.465120776367187,2.9448680419921875
5941118173252,0.274788854,1,-2.806004345703125,7.517793212890624,3.1794998046874996
5941121506221,0.278121823,1,-2.913743420410156,7.5465236328125,3.465606903076172
5941124839450,0.281455052,1,-3.0418332092285154,7.558494641113281,3.8007951354980465
5941128172263,0.284787865,1,-3.1447838806152344,7.554903338623046,4.115632653808594
5941131503409,0.288119011,1,-3.2716765686035156,7.606378674316406,4.727351177978515
5941134836846,0.291452448,1,-3.333925811767578,7.64827720336914,5.04338579711914
5941138172627,0.294788229,1,-3.5589807678222654,7.64229169921875,5.179855291748047
5941141505804,0.298121406,1,-3.6739024475097652,7.639897497558593,5.5545478515625
5941144839242,0.301454844,1,-3.787627026367187,7.687781530761718,5.760449194335937
5941148172523,0.304788125,1,-3.901351605224609,7.721300354003906,6.092046124267577
5941151503669,0.308119271,1,-3.9995138732910154,7.739256866455078,6.283582257080078
5941154836742,0.311452344,1,-4.043806604003906,7.785943798828124,6.495469104003906
5941158172836,0.314788438,1,-4.225765930175781,7.78235249633789,6.849810949707031
5941161505544,0.318121146,1,-4.321533996582031,7.6614453125,6.937199310302734
5941164838304,0.321453906,1,-4.571728070068359,7.8338278320312495,7.190984686279297
5941168172471,0.324788073,1,-4.717774371337891,7.898471276855468,7.337030987548828
5941171503200,0.328118802,1,-4.838681555175781,7.951143713378905,7.491456994628906
5941174837367,0.331452969,1,-4.936843823242187,8.032546569824218,7.593210565185546
5941178172679,0.334788281,1,-4.952406134033203,8.08881030883789,7.770381488037109
5941181505440,0.338121042,1,-5.023035083007812,8.172607366943359,7.875726361083984
5941184839711,0.341455313,1,-5.102043737792968,8.215702996826172,8.111555224609374
5941188172315,0.344787917,1,-5.124788653564453,8.289923248291014,8.161833459472655
5941191503773,0.348119375,1,-5.108029241943359,8.425195642089843,8.364143499755858
5941194837679,0.351453281,1,-5.103240838623047,8.441955053710936,8.329427575683594
5941198173148,0.35478875,1,-5.103240838623047,8.479065179443358,8.418013037109375
5941201505544,0.358121146,1,-5.069722015380859,8.480262280273436,8.413224633789062
5941204839294,0.361454896,1,-5.098452435302734,8.482656481933594,8.418013037109375
5941208171794,0.364787396,1,-5.054159704589844,8.420407238769531,8.336610180664062
5941211501117,0.368116719,1,-5.0960582336425775,8.371326104736328,8.135497241210937
5941214837002,0.371452604,1,-5.05655390625,8.382100012207031,7.9846625366210935
5941218172367,0.374787969,1,-5.006275671386718,8.323442071533202,7.821856823730468
5941221504659,0.378120261,1,-4.894945294189453,8.224082702636718,7.363367205810547
5941224847888,0.38146349,1,-4.747701892089843,8.014590057373047,7.205349896240234
5941228173773,0.384789375,1,-4.605246893310547,7.887697369384765,6.926425402832031
5941231504086,0.388119688,1,-4.480748406982421,7.769184387207031,6.574477758789062
5941234838200,0.391453802,1,-4.332307904052734,7.607575775146484,6.271611248779297
5941238172836,0.394788438,1,-4.247313745117188,7.481880187988281,5.94360562133789
5941241504190,0.398119792,1,-4.12401235961914,7.353790399169921,5.663484027099609
5941244839138,0.40145474,1,-4.005499377441406,7.214926702880859,5.340266802978515
5941248172679,0.404788281,1,-3.8690298828125,7.205349896240234,4.924872814941406
5941251504242,0.408119844,1,-3.7600937072753906,7.16943687133789,4.420893365478515
5941254836898,0.4114525,1,-3.5314474487304683,6.8785413696289055,4.152742779541016
5941258172471,0.414788073,1,-3.287238879394531,6.795941412353515,3.902548706054687
5941261505700,0.418121302,1,-3.1950621154785153,6.715735656738281,3.5685575744628903
5941264839763,0.421455365,1,-3.1100679565429687,6.609193682861328,3.421314172363281
5941268172679,0.424788281,1,-2.9855694702148434,6.5026517089843745,3.153163586425781
5941271503982,0.428119584,1,-2.844311572265625,6.358999609374999,2.8574796813964842
5941274837054,0.431452656,1,-2.7234043884277344,6.2392895263671875,2.7186159851074216
5941278172523,0.434788125,1,-2.6036943054199218,6.133944653320312,2.370259643554687
5941281505127,0.438120729,1,-2.463633508300781,6.046556292724609,1.9512743530273435
5941284839554,0.441455156,1,-2.4756045166015626,6.027402679443359,1.6651672546386718
5941288172940,0.444788542,1,-2.4564509033203126,5.9962780578613275,1.448492004394531
5941291503773,0.448119375,1,-2.3965958618164063,6.03937368774414,1.2629413757324217
5941294837211,0.451452813,1,-2.3451205261230466,6.028599780273437,1.064222637939453
5941298172054,0.454787656,1,-2.2601263671875,6.03937368774414,1.0678139404296874
5941301505544,0.458121146,1,-2.2661118713378903,6.0896519226074215,0.9971849914550781
5941304838929,0.461454531,1,-2.1440075866699217,6.106411334228516,0.7793126403808593
5941308169450,0.464785052,1,-2.1224597717285154,6.190208392333984,0.7266402038574218
5941311504138,0.46811974,1,-2.0566192260742184,6.265625744628906,0.6979097839355468
5941314837367,0.471452969,1,-1.879448303222656,6.4463879699707025,0.7050923889160156
5941318171898,0.4747875,1,-1.8291700683593748,6.556521246337891,0.6165069274902344
5941321505284,0.478120886,1,-1.8698714965820311,6.6139820861816405,0.584185205078125
5941324839502,0.481455104,1,-1.8447323791503905,6.665457421875,0.55545478515625
5941328172627,0.484788229,1,-1.8914193115234375,6.701370446777343,0.5470750793457031
5941331503617,0.488119219,1,-1.8279729675292968,6.775590698242187,0.4381389038085937
5941334836690,0.491452292,1,-1.8710685974121093,6.845022546386718,0.46806642456054687
5941338172211,0.494787813,1,-1.9416975463867185,6.918045697021484,0.5925649108886718
5941341505596,0.498121198,1,-1.916558428955078,6.9898717468261715,0.7577648254394531
5941344838981,0.501454583,1,-1.9800047729492187,7.095216619873047,0.8822633117675781
5941348172523,0.504788125,1,-2.012326495361328,7.182604980468749,0.958877764892578
5941351503096,0.508118698,1,-2.067393133544922,7.273584643554687,1.1611878051757811
5941354837106,0.511452708,1,-2.1547814941406247,7.279570147705078,1.3120225097656248
5941358172471,0.514788073,1,-2.184709014892578,7.3094976684570305,1.4963760375976562
5941361506169,0.518121771,1,-2.281674182128906,7.358578802490234,1.6998831787109374
5941364839867,0.521455469,1,-2.3355437194824216,7.372944012451171,1.9309236389160156
5941368172263,0.524787865,1,-2.454056701660156,7.501033801269531,2.407369769287109
5941371503877,0.528119479,1,-2.558204473876953,7.432799053955078,2.6994623718261717
5941374836169,0.531451771,1,-2.7066449768066403,7.455543969726562,2.958036151123047
5941378172888,0.53478849,1,-2.8383260681152342,7.560888842773437,3.1878795104980466
5941381506273,0.538121875,1,-2.9077579162597655,7.581239556884765,3.380612744140625
5941384839086,0.541454688,1,-3.057395520019531,7.607575775146484,3.6822821533203123
5941388171794,0.544787396,1,-3.191470812988281,7.687781530761718,3.896563201904297
5941391503565,0.548119167,1,-3.2716765686035156,7.80150610961914,4.1766847961425775
5941394836742,0.551452344,1,-3.35188232421875,7.951143713378905,4.458003491210937
5941398172523,0.554788125,1,-3.4332851806640625,8.0062103515625,4.932055419921875
5941401505596,0.558121198,1,-3.39018955078125,8.145074047851562,5.256469744873047
5941404839086,0.561454688,1,-3.7397429931640622,8.182184173583984,5.465962390136719
5941408172002,0.564787604,1,-3.891774798583984,8.215702996826172,5.68862314453125
5941411503721,0.568119323,1,-3.938461730957031,8.231265307617187,5.84185205078125
5941414836481,0.571452083,1,-4.065354418945312,8.288726147460936,5.998672259521484
5941418173617,0.574789219,1,-4.222174627685547,8.313865264892577,6.281188055419921
5941421506325,0.578121927,1,-4.340687609863281,8.322244970703125,6.388927130126953
5941424837367,0.581452969,1,-4.347870214843749,8.346186987304687,6.551732843017578
5941428172159,0.584787761,1,-4.487931011962891,8.283937744140625,6.8402341430664055
5941431503304,0.588118906,1,-4.448426684570312,8.310273962402343,6.979097839355468
5941434836690,0.591452292,1,-4.656722229003906,8.275558038330077,7.023390570068359
5941438172159,0.594787761,1,-4.661510632324219,8.23006820678711,7.11197603149414
5941441505752,0.598121354,1,-4.691438153076172,8.134300140380859,7.175422375488281
5941444839450,0.601455052,1,-4.763264202880859,8.039729174804688,7.298723760986328
5941448171846,0.604787448,1,-4.746504791259765,8.008604553222655,7.320271575927734
5941451503409,0.608119011,1,-4.808754034423828,7.9283987976074215,7.388506323242187
5941454837211,0.611452813,1,-4.735730883789063,7.8709379577636716,7.487865692138671
5941458172731,0.614788333,1,-4.707000463867187,7.764395983886718,7.195773089599609
5941461505023,0.618120625,1,-4.619612103271484,7.510610607910156,7.113173132324218
5941464839554,0.621455156,1,-4.554968658447265,7.389703424072265,7.0281789733886715
5941468171690,0.624787292,1,-4.448426684570312,7.280767248535156,6.849810949707031
5941471503044,0.628118646,1,-4.364629626464843,7.0832456115722655,6.654683514404296
5941474837367,0.631452969,1,-4.292803576660156,7.015010864257812,6.412869146728515
5941478173200,0.634788802,1,-4.168305090332031,6.8773442687988275,6.199785198974609
5941481505804,0.638121406,1,-4.067748620605468,6.754042883300781,5.963956335449218
5941484838669,0.641454271,1,-3.9911341674804683,6.611587884521484,5.767631799316406
5941488170440,0.644786042,1,-3.9336733276367184,6.4739212890625,5.088875628662109
5941491503877,0.648119479,1,-3.7205893798828122,6.3973068359375,4.780023614501953
5941494837367,0.651452969,1,-3.6092590026855467,6.360196710205078,4.529829541015625
5941498171586,0.654787188,1,-3.517082238769531,6.324283685302734,4.276044165039062
5941501504971,0.658120573,1,-3.440467785644531,6.275202551269531,3.987542864990234
5941504839086,0.661454688,1,-3.3542765258789062,6.2584431396484375,3.7816415222167965
5941508172471,0.664788073,1,-3.2345664428710936,6.238092425537109,3.5817256835937497
5941511504138,0.66811974,1,-3.1447838806152344,6.323086584472656,3.3171664001464842
5941514837471,0.671453073,1,-2.9855694702148434,6.387730029296875,3.1783027038574216
5941518172627,0.674788229,1,-2.826355059814453,6.543353137207031,2.8107927490234372
5941521504815,0.678120417,1,-2.876633294677734,6.707355950927734,2.6001030029296874
5941524843617,0.681459219,1,-2.6216508178710938,6.779182000732422,2.501940734863281
5941528220492,0.684836094,1,-2.479195819091797,6.884526873779296,2.3439234252929686
5941531552263,0.688167865,1,-2.360682836914062,7.036558679199218,2.299630694580078
5941534844450,0.691460052,1,-2.4109610717773435,7.126341241455077,2.128445275878906
5941538172106,0.694787708,1,-2.337937921142578,7.275978845214843,2.1260510742187497
5941541504242,0.698119844,1,-2.389413256835937,7.356184600830078,1.9572598571777342
5941544842315,0.701457917,1,-2.357091534423828,7.475894683837891,1.983596075439453
5941548172471,0.704788073,1,-2.385821954345703,7.554903338623046,2.0542250244140625
5941551502992,0.708118594,1,-2.3151930053710936,7.821856823730468,2.079364141845703
5941554836586,0.711452188,1,-2.3918074584960936,7.979874133300781,2.1906945190429687
5941558170075,0.714785677,1,-2.3882161560058592,7.989450939941406,2.2158336364746094
5941561503877,0.718119479,1,-2.4480711975097655,8.03853207397461,2.2541408630371094
5941564837731,0.721453333,1,-2.4959552307128905,8.106766821289062,2.2457611572265623
5941568172419,0.724788021,1,-2.6707319519042967,8.240842114257813,2.4061726684570313
5941571503044,0.728118646,1,-2.7724855224609373,8.20373198852539,2.5917232971191404
5941574836221,0.731451823,1,-2.839523168945312,8.182184173583984,2.731784094238281
5941578172679,0.734788281,1,-2.905363714599609,8.451531860351562,3.0502129150390624
5941581505023,0.738120625,1,-2.9544448486328125,8.386888415527343,3.440467785644531
5941584839815,0.741455417,1,-3.020285394287109,8.29351455078125,3.688267657470703
5941588172575,0.744788177,1,-3.1028853515624997,8.276755139160155,3.907337109375
5941591503513,0.748119115,1,-3.1830911071777344,8.287529046630858,3.938461730957031
5941594837158,0.75145276,1,-3.3028011901855465,8.258798626708984,4.2149920227050774
5941598172367,0.754787969,1,-3.3016040893554686,8.087613208007811,4.432864373779297
5941601506117,0.758121719,1,-3.4392706848144527,7.9858596374511714,4.734533782958984
5941604839658,0.76145526,1,-3.5422213562011717,7.9846625366210935,4.917690209960937
5941608172315,0.764787917,1,-3.6188358093261717,7.7596075805664055,5.085284326171875
5941611503565,0.768119167,1,-3.775656018066406,7.597998968505859,5.176263989257812
5941614837263,0.771452865,1,-3.7301661865234372,7.560888842773437,5.250484240722656
5941618172731,0.774788333,1,-3.8558617736816405,7.34181939086914,5.482721801757812
5941621506013,0.778121615,1,-3.853467572021484,7.175422375488281,5.6024318847656245
5941624839763,0.781455365,1,-3.737348791503906,7.089231115722656,5.760449194335937
5941628171846,0.784787448,1,-4.189852905273438,6.982689141845703,5.925649108886718
5941631504919,0.788120521,1,-2.73896669921875,6.6702458251953125,5.409698651123047
5941634836950,0.791452552,1,-3.020285394287109,6.918045697021484,5.42645806274414
5941638172992,0.794788594,1,-3.2333693420410152,6.429628558349609,5.610811590576172
5941641506117,0.798121719,1,-3.3004069885253906,6.019022973632812,5.486313104248047
5941644839502,0.801455104,1,-3.3698388366699215,6.065709906005859,5.318718988037109
5941648172211,0.804787813,1,-3.470395306396484,6.295553265380859,5.080495922851562
5941651503200,0.808118802,1,-3.744531396484375,6.342240197753906,5.0014872680664055
5941654837054,0.811452656,1,-4.097676141357422,6.210559106445312,5.012261175537109
5941658172940,0.814788542,1,-3.840299462890625,5.890933184814453,4.697423657226563
5941661505023,0.818120625,1,-3.8762124877929685,6.074089611816406,4.517858532714843
5941664839086,0.821454688,1,-3.8558617736816405,6.4284314575195305,4.490325213623047
5941668172158,0.82478776,1,-3.6954502624511716,6.609193682861328,4.797980126953124
5941671503513,0.828119115,1,-3.362656231689453,6.831854437255859,4.848258361816406
5941674837315,0.831452917,1,-3.1759085021972653,7.117961535644531,4.886565588378906
5941678172940,0.834788542,1,-3.1447838806152344,7.332242584228515,4.7560815979003905
5941681505023,0.838120625,1,-3.028665100097656,7.335833886718749,4.632780212402343
5941684838825,0.841454427,1,-3.7205893798828122,7.378929516601562,4.742913488769531
5941688171742,0.844787344,1,-4.163516687011718,7.368155609130859,4.091690637207031
5941691503461,0.848119063,1,-3.7576995056152342,7.285555651855469,3.365050433349609
5941694836586,0.851452188,1,-3.6906618591308593,7.230489013671875,3.6583401367187496
5941698173304,0.854788906,1,-3.494337322998047,7.663839514160156,4.065354418945312
5941701505908,0.85812151,1,-2.452859600830078,7.9858596374511714,4.282029669189453
5941704838721,0.861454323,1,-1.9237410339355467,8.157045056152343,4.429273071289062
5941708171481,0.864787083,1,-1.8291700683593748,8.135497241210937,4.650736724853515
5941711503513,0.868119115,1,-1.944091748046875,7.976282830810546,4.465186096191406
5941714836586,0.871452188,1,-2.1440075866699217,7.934384301757812,4.182670300292968
5941718172627,0.874788229,1,-2.6850971618652344,7.885303167724609,3.7385458923339843
5941721505492,0.878121094,1,-3.1004911499023438,7.631517791748046,3.2704794677734372
5941724838304,0.881453906,1,-3.484760516357422,7.223306408691406,2.729389892578125
5941728172054,0.884787656,1,-3.7517140014648436,7.1778165771484375,2.7186159851074216
5941731503825,0.888119427,1,-3.6750995483398436,7.241262921142578,2.8107927490234372
5941734837783,0.891453385,1,-3.4584242980957027,7.417236743164062,2.9939491760253905
5941738170752,0.894786354,1,-3.1579519897460937,7.5165961120605465,3.23696064453125
5941741505544,0.898121146,1,-2.806004345703125,7.644685900878906,3.3207577026367185
5941744839346,0.901454948,1,-2.6108769104003904,7.775169891357422,3.508702532958984
5941748172106,0.904787708,1,-2.4768016174316405,7.81467421875,3.758896606445312
5941751502888,0.90811849,1,-2.4588451049804685,7.813477117919922,3.718195178222656
5941754836533,0.911452135,1,-2.501940734863281,7.791929302978515,3.787627026367187
5941758172419,0.914788021,1,-2.636016027832031,7.5142019104003905,3.6655227416992187
5941761505283,0.918120885,1,-3.076549133300781,7.4040686340332025,3.611653204345703
5941764839033,0.921454635,1,-3.24294614868164,7.314286071777343,3.5984850952148437
5941768171638,0.92478724,1,-3.2441432495117186,7.266402038574219,3.6571430358886716
5941771503877,0.928119479,1,-3.308786694335937,7.301117962646484,3.6822821533203123
5941774837367,0.931452969,1,-3.2501287536621093,7.299920861816406,3.871424084472656
5941778172471,0.934788073,1,-3.208230224609375,7.368155609130859,4.102464544677734
5941781505544,0.938121146,1,-3.1304186706542967,7.381323718261719,4.027047192382812
5941784838617,0.941454219,1,-3.017891192626953,7.449558465576171,4.301183282470703
5941788170804,0.944786406,1,-2.962824554443359,7.381323718261719,4.517858532714843
5941791504867,0.948120469,1,-3.2453403503417966,7.377732415771484,4.556165759277343
5941794836846,0.951452448,1,-3.379415643310547,7.395688928222656,4.629188909912109
5941798172471,0.954788073,1,-3.450044592285156,7.417236743164062,4.6998178588867185
5941801505335,0.958120937,1,-3.547009759521484,7.435193255615234,4.765658404541015
5941804839085,0.961454687,1,-3.508702532958984,7.498639599609374,4.945223529052734
5941808172263,0.964787865,1,-3.5410242553710933,7.593210565185546,5.027823486328125
5941811503408,0.96811901,1,-3.535038751220703,7.745242370605468,5.274426257324219
5941814837054,0.971452656,1,-3.4715924072265625,7.698555438232422,5.667075329589843
5941818172575,0.974788177,1,-3.430890979003906,7.949946612548827,5.7843912109375
5941821505179,0.978120781,1,-3.4201170715332028,8.005013250732421,5.963956335449218
5941824840231,0.981455833,1,-3.475183709716797,8.084021905517577,6.045359191894531
5941828172419,0.984788021,1,-3.2812533752441406,8.298302954101562,6.064512805175781
5941831503513,0.988119115,1,-3.465606903076172,8.522160809326172,6.0896519226074215
5941834836950,0.991452552,1,-3.499125726318359,8.541314422607421,6.246472131347656
5941838172731,0.994788333,1,-3.7038299682617186,8.488641986083984,6.131550451660156
5941841505179,0.998120781,1,-3.920505218505859,8.519766607666016,6.2009822998046875
5941844839346,1.001454948,1,-4.126406561279297,8.497021691894531,6.112396838378906
5941848172054,1.004787656,1,-4.368220928955078,8.520963708496094,6.1076084350585935
5941851500596,1.008116198,1,-4.401739752197265,8.462305767822265,6.204573602294921
5941854837263,1.011452865,1,-4.332307904052734,8.400056524658202,6.344634399414062
5941858173252,1.014788854,1,-4.2125978210449215,8.360552197265624,6.319495281982421
5941861505440,1.018121042,1,-4.131194964599609,8.336610180664062,6.303932971191406
5941864845127,1.021460729,1,-4.086902233886718,8.237250811767577,6.357802508544921
5941868173929,1.024789531,1,-4.152742779541016,8.128314636230469,6.32667788696289
5941871503200,1.028118802,1,-4.242525341796875,8.045714678955077,6.065709906005859
5941874836742,1.031452344,1,-4.266467358398438,7.682993127441406,5.858611462402344
5941878172575,1.034788177,1,-4.309562988281249,7.5345526245117185,5.662286926269531
5941881505700,1.038121302,1,-4.279635467529297,7.395688928222656,5.467159490966797
5941884838304,1.041453906,1,-4.191050006103516,7.296329559326171,5.448005877685547
5941888172992,1.044788594,1,-4.025850091552734,7.186196282958984,5.231330627441406
5941891503252,1.048118854,1,-3.861847277832031,7.1395093505859375,5.1702784851074215
5941894837054,1.051452656,1,-3.7193922790527343,7.071274603271484,5.011064074707031
5941898172419,1.054788021,1,-3.4344822814941405,6.946776116943359,4.84586416015625
5941901506169,1.058121771,1,-3.266888165283203,6.823474731445312,4.376600634765625
5941904839346,1.061454948,1,-2.9975404785156248,6.543353137207031,4.058171813964844
5941908171794,1.064787396,1,-2.7856536315917966,6.329072088623047,3.859453076171875
5941911503877,1.068119479,1,-2.73896669921875,6.161477972412109,3.5805285827636717
5941914836742,1.071452344,1,-2.6970681701660153,5.990292553710937,3.3506852233886715
5941918172054,1.074787656,1,-2.6683377502441403,5.832275244140624,3.095702746582031
5941921506950,1.078122552,1,-2.460042205810547,5.740098480224609,2.922123126220703
5941924839294,1.081454896,1,-2.3882161560058592,5.627571002197265,2.693476867675781
5941928172575,1.084788177,1,-2.3127988037109373,5.6024318847656245,2.6408044311523438
5941931503252,1.088118854,1,-2.2373814514160153,5.547365246582031,2.288856787109375
5941934836481,1.091452083,1,-2.059013427734375,5.433640667724609,2.185906115722656
5941938172367,1.094787969,1,-1.8004396484374998,5.4707507934570305,2.051830822753906
5941941505231,1.098120833,1,-1.8842367065429686,5.461173986816406,1.8267758666992187
5941944839085,1.101454687,1,-1.7549498168945312,5.486313104248047,1.7573440185546874
5941948172158,1.10478776,1,-1.7693150268554687,5.528211633300781,1.5849614990234373
5941951503617,1.108119219,1,-1.8124106567382812,5.574898565673828,1.3826514587402343
5941954837575,1.111453177,1,-1.9524714538574217,5.588066674804687,1.2701239807128906
5941958173356,1.114788958,1,-2.0973206542968748,5.5653217590332025,1.1659762084960936
5941961506013,1.118121615,1,-2.146401788330078,5.5844753723144525,0.7757213378906249
5941964839294,1.121454896,1,-2.1978771240234374,5.7520694885253905,0.6500257507324219
5941968172471,1.124788073,1,-2.1739351074218747,5.9208607055664055,0.6081272216796875
5941971503044,1.128118646,1,-2.110488763427734,6.080075115966797,0.44053310546874996
5941974837471,1.131453073,1,-1.9668366638183592,6.278793853759765,0.3902548706054687
5941978172471,1.134788073,1,-1.9033903198242186,6.475118389892578,0.4752490295410156
5941981505179,1.138120781,1,-1.830367169189453,6.771999395751953,0.430956298828125
5941984837523,1.141453125,1,-1.7190367919921874,6.9527616210937495,0.44053310546874996
5941988173408,1.14478901,1,-1.705868682861328,7.061697796630859,0.5315127685546874
5941991503617,1.148119219,1,-1.7106570861816406,7.175422375488281,0.49799394531249996
5941994837471,1.151453073,1,-1.610100616455078,7.430404852294921,0.6284779357910156
5941998172679,1.154788281,1,-1.7310078002929687,7.562085943603515,0.6189011291503906
5942001504085,1.158119687,1,-1.5646107849121094,7.745242370605468,0.718260498046875
5942004838773,1.161454375,1,-1.5801730957031248,7.912836486816405,0.9097966308593749
5942008170752,1.164786354,1,-1.5275006591796874,8.039729174804688,0.9097966308593749
5942011503044,1.168118646,1,-1.5945383056640625,8.02536396484375,0.9828197814941406
5942014837627,1.171453229,1,-1.830367169189453,7.976282830810546,1.0079588989257813
5942018170440,1.174786042,1,-1.8602946899414061,7.905653881835937,1.197100830078125
5942021502835,1.178118437,1,-1.9883844787597655,7.794323504638672,1.2773065856933592
5942024839085,1.181454687,1,-1.9955670837402342,7.68059892578125,1.504755743408203
5942028171273,1.184786875,1,-2.290053887939453,7.606378674316406,1.714248388671875
5942031502887,1.188118489,1,-2.272097375488281,7.644685900878906,1.9297265380859374
5942034836637,1.191452239,1,-2.31758720703125,7.829039428710937,2.147598889160156
5942038173460,1.194789062,1,-2.522291448974609,7.975085729980468,2.427720483398437
5942041505856,1.198121458,1,-2.6144682128906247,7.915230688476562,2.6611551452636717
5942044838773,1.201454375,1,-2.6132711120605467,8.095992913818359,2.9795839660644527
5942048171950,1.204787552,1,-2.8467057739257813,8.422801440429687,3.209427325439453
5942051502887,1.208118489,1,-2.925714428710937,8.368931903076172,3.7816415222167965
5942054837835,1.211453437,1,-3.1100679565429687,8.190563879394531,4.108450048828125
5942058172471,1.214788073,1,-3.306392492675781,8.409633331298828,4.291606475830078
5942061505335,1.218120937,1,-3.220201232910156,8.637082489013672,4.477157104492187
5942064838929,1.221454531,1,-3.27526787109375,8.777143286132812,4.649539624023437
5942068171846,1.224787448,1,-3.400963458251953,8.655039001464843,4.963180041503906
5942071503408,1.22811901,1,-3.4105402648925778,8.610746270751953,5.270834954833984
5942074836950,1.231452552,1,-3.5003228271484375,8.675389715576172,5.297171173095703
5942078170596,1.234786198,1,-3.7720647155761715,8.62511148071289,5.365405920410156
5942081506273,1.238121875,1,-3.9803602600097654,8.444349255371094,5.7077767578125
5942084838877,1.241454479,1,-3.886986395263672,8.488641986083984,5.805939025878906
5942088172575,1.244788177,1,-4.33470210571289,8.607154968261717,5.9376201171875
5942091503512,1.248119114,1,-4.483142608642578,8.547299926757812,6.005854864501953
5942094836690,1.251452292,1,-4.7201685729980465,8.279149340820313,6.112396838378906
5942098172471,1.254788073,1,-4.896142395019531,8.0828248046875,6.270414147949219
5942101506065,1.258121667,1,-5.052962603759766,8.116343627929687,6.362590911865234
5942104838460,1.261454062,1,-5.08169302368164,8.304288458251953,6.3973068359375
5942108170440,1.264786042,1,-5.011064074707031,8.30668265991211,6.443993768310547
5942111504190,1.268119792,1,-4.910507604980468,8.249221820068358,6.903680487060546
5942114836846,1.271452448,1,-4.829104748535156,8.292317449951172,7.1586629638671875
5942118172471,1.274788073,1,-4.678270043945313,8.271966735839843,7.252036828613281
5942121505908,1.27812151,1,-4.6627077331542965,8.224082702636718,7.26520493774414
5942124838929,1.281454531,1,-4.722562774658203,8.221688500976562,7.143100653076171
5942128172002,1.284787604,1,-4.800374328613281,8.10197841796875,7.151480358886718
5942131503096,1.288118698,1,-4.689043951416015,8.022969763183593,7.132326745605468
5942134836637,1.291452239,1,-4.243722442626953,7.994239343261718,7.012616662597656
5942138172158,1.29478776,1,-4.1958384094238275,8.05648858642578,7.048529687499999
5942141504919,1.298120521,1,-4.297591979980469,7.830236529541015,7.117961535644531
5942144839658,1.30145526,1,-4.605246893310547,7.644685900878906,6.836642840576172
5942148172627,1.304788229,1,-4.740519287109374,7.163451367187499,6.611587884521484
5942151502627,1.308118229,1,-4.8650177734375,6.874950067138672,6.388927130126953
5942154837054,1.311452656,1,-4.955997436523437,6.752845782470703,6.205770703124999
5942158172315,1.314787917,1,-4.777629412841796,6.7277066650390625,6.104017132568359
5942161505231,1.318120833,1,-4.613626599121093,6.5038488098144525,6.1447185607910155
5942164838565,1.321454167,1,-4.444835382080078,6.2392895263671875,6.086060620117187
5942168171585,1.324787187,1,-4.248510845947266,6.0716954101562495,5.853823059082031
5942171503200,1.328118802,1,-4.103661645507812,5.80953032836914,5.493495709228515
5942174836637,1.331452239,1,-3.8762124877929685,5.596446380615234,5.2648494506835934
5942178172471,1.334788073,1,-3.8750153869628905,5.559336254882812,5.092466931152344
5942181506117,1.338121719,1,-3.669114044189453,5.424063861083984,4.896142395019531
5942184843669,1.341459271,1,-3.6343981201171873,5.227739324951171,4.690241052246093
5942188174242,1.344789844,1,-3.526659045410156,5.098452435302734,4.2868180725097655
5942191503460,1.348119062,1,-3.5398271545410154,5.219359619140625,4.034229797363281
5942194836846,1.351452448,1,-3.518279339599609,5.324704492187499,3.8175545471191406
5942198173096,1.354788698,1,-3.4392706848144527,5.464765289306641,3.6715082458496093
5942201505335,1.358120937,1,-3.2920272827148436,5.795165118408203,3.670311145019531
5942204838565,1.361454167,1,-2.778471026611328,6.0142345703124995,3.555389465332031
5942208172054,1.364787656,1,-2.729389892578125,6.295553265380859,3.5865140869140624
5942211503877,1.368119479,1,-2.626439221191406,6.552929943847656,3.5242648437499997
5942214837679,1.371453281,1,-2.6288334228515624,6.683413934326172,3.446453289794922
5942218173252,1.374788854,1,-2.7174188842773437,6.87614716796875,3.3494881225585935
5942221506325,1.378121927,1,-2.7186159851074216,7.0832456115722655,3.1651345947265623
5942224838460,1.381454062,1,-2.527079852294922,7.321468676757812,3.008314385986328
5942228172679,1.384788281,1,-2.5857377929687497,7.542932330322265,2.8275521606445313
5942231503096,1.388118698,1,-2.568978381347656,7.611167077636718,2.8981811096191405
5942234837783,1.391453385,1,-2.883815899658203,7.738059765625,2.7557261108398436
5942238173669,1.394789271,1,-2.8981811096191405,7.9463553100585935,2.710236279296875
5942241505387,1.398120989,1,-3.010708587646484,8.078036401367187,2.653972540283203
5942244839137,1.401454739,1,-2.941276739501953,8.169016064453125,2.7377695983886716
5942248172106,1.404787708,1,-3.0035259826660154,8.167818963623047,2.664746447753906
5942251504033,1.408119635,1,-3.0166940917968748,8.258798626708984,2.530671154785156
5942254837106,1.411452708,1,-3.2261867370605466,8.267178332519531,2.328361114501953
5942258173044,1.414788646,1,-3.3542765258789062,8.364143499755858,2.04943662109375
5942261505596,1.418121198,1,-3.020285394287109,8.512584002685546,2.176329309082031
5942264839294,1.421454896,1,-3.678690850830078,8.426392742919921,2.5246856506347655
5942268172679,1.424788281,1,-3.4428619873046875,8.294711651611328,2.4061726684570313
5942271503669,1.428119271,1,-3.727771984863281,8.507795599365235,2.469619012451172
5942274837314,1.431452916,1,-3.7193922790527343,8.43956085205078,2.586934893798828
5942278172367,1.434787969,1,-3.592499591064453,8.1594392578125,2.8323405639648436
5942281504762,1.438120364,1,-3.547009759521484,8.197746484375,2.6886884643554687
5942284839189,1.441454791,1,-3.4548329956054684,8.294711651611328,2.5151088439941405
5942288171637,1.444787239,1,-3.5230677429199218,8.00022484741211,2.7198130859375
5942291503044,1.448118646,1,-3.4392706848144527,7.569268548583984,2.6324247253417967
5942294836429,1.451452031,1,-3.356670727539062,7.541735229492187,2.592920397949219
5942298172471,1.454788073,1,-3.3028011901855465,7.472303381347656,2.625242120361328
5942301505752,1.458121354,1,-3.0789433349609374,7.250839727783203,2.6862942626953124
5942304839710,1.461455312,1,-3.0789433349609374,7.26520493774414,2.934094134521484
5942308172419,1.464788021,1,-3.037044805908203,7.304709265136719,3.001131781005859
5942311503721,1.468119323,1,-2.867056488037109,7.357381701660156,3.1411925781249996
5942314837262,1.471452864,1,-2.760514514160156,7.2903440551757805,3.265691064453125
5942318172887,1.474788489,1,-2.5055320373535155,7.292738256835937,3.3961750549316405
5942321505023,1.478120625,1,-2.0254946044921875,7.333439685058593,3.547009759521484
5942324838460,1.481454062,1,-2.2924480895996093,7.0473325866699215,3.6523546325683593
5942328171585,1.484787187,1,-2.5953145996093747,6.811503723144531,3.603273498535156
5942331503617,1.488119219,1,-2.877830395507812,6.797138513183594,3.417722869873047
5942334837939,1.491453541,1,-3.0621839233398433,6.616376287841796,3.4739866088867184
5942338172262,1.494787864,1,-3.0633810241699218,6.353014105224609,3.4775779113769527
5942341504919,1.498120521,1,-3.1016882507324217,6.489483599853515,3.220201232910156
5942344838981,1.501454583,1,-3.2441432495117186,6.442796667480469,3.1639374938964844
5942348172158,1.50478776,1,-3.24294614868164,6.1459156616210935,3.379415643310547
5942351503617,1.508119219,1,-3.362656231689453,5.993883856201172,3.35188232421875
5942354836637,1.511452239,1,-3.2070331237792966,6.1076084350585935,3.3782185424804685
5942358172002,1.514787604,1,-3.1387983764648437,6.17344898071289,3.4356793823242184
5942361505492,1.518121094,1,-3.034650604248047,6.281188055419921,3.508702532958984
5942364838669,1.521454271,1,-3.0226795959472654,6.368576416015625,3.488351818847656
5942368173148,1.52478875,1,-2.834734765625,6.5397618347167965,3.7720647155761715
5942371503981,1.528119583,1,-2.7341782958984373,6.74805737915039,3.7612908081054686
5942374836585,1.531452187,1,-2.6767174560546874,6.797138513183594,3.9420530334472654
5942378172419,1.534788021,1,-3.1926679138183593,6.998251452636718,4.229357232666016
5942381505179,1.538120781,1,-3.469198205566406,6.892906579589844,4.115632653808594
5942384838617,1.541454219,1,-3.479972113037109,7.2903440551757805,3.912125512695312
5942388172314,1.544787916,1,-3.6487633300781246,7.544129431152343,3.8295255554199215
5942391503304,1.548118906,1,-4.04739790649414,7.532158422851562,4.260481854248047
5942394836221,1.551451823,1,-4.241328240966797,7.800309008789062,4.477157104492187
5942398172523,1.554788125,1,-3.5793314819335937,7.357381701660156,4.1934442077636715
5942401505544,1.558121146,1,-3.517082238769531,7.220912207031249,3.754108203125
5942404839085,1.561454687,1,-3.5685575744628903,7.38012661743164,3.6619314392089843
5942408172106,1.564787708,1,-3.535038751220703,7.52737001953125,3.9695863525390624
5942411503460,1.568119062,1,-3.465606903076172,8.143876947021484,4.611232397460937
5942414836585,1.571452187,1,-3.5613749694824217,8.277952239990235,4.815936639404296
5942418172783,1.574788385,1,-3.446453289794922,8.33780728149414,5.02423218383789
5942421505179,1.578120781,1,-3.678690850830078,8.341398583984375,4.839878656005859
5942424839502,1.581455104,1,-4.068945721435546,8.158242156982421,4.674678741455078
5942428170544,1.584786146,1,-5.297171173095703,8.134300140380859,4.622006304931641
5942431503825,1.588119427,1,-4.969165545654296,8.1594392578125,3.977966058349609
5942434836169,1.591451771,1,-4.791994622802734,8.220491400146484,3.9552211425781247
5942438171585,1.594787187,1,-4.545391851806641,8.287529046630858,4.535815045166015
5942441505075,1.598120677,1,-4.272452862548828,8.921992486572265,4.991910461425781
5942444838512,1.601454114,1,-4.062960217285156,8.947131604003905,5.090072729492187
5942448171898,1.6047875,1,-4.021061688232422,9.00100114135742,5.145139367675781
5942451503408,1.60811901,1,-4.125209460449218,8.950722906494141,5.231330627441406
5942454836325,1.611451927,1,-4.37300933227539,8.912415679931641,5.224148022460938
5942458172158,1.61478776,1,-4.280832568359375,8.916006982421875,5.161898779296875
5942461506012,1.618121614,1,-4.168305090332031,8.974664923095702,5.086481427001953
5942464840335,1.621455937,1,-4.246116644287109,8.8872765625,5.29238276977539
5942468172471,1.624788073,1,-4.374206433105469,8.506598498535157,5.190629199218749
5942471502887,1.628118489,1,-4.620809204101562,8.390479718017577,4.939238024902344
5942474836585,1.631452187,1,-4.704606262207031,8.210914593505859,4.801571429443359
5942478172158,1.63478776,1,-4.651933825683593,8.130708837890625,4.710591766357422
5942481503981,1.638119583,1,-4.5884874816894525,8.010998754882811,4.642357019042969
5942484839398,1.641455,1,-4.460397692871093,7.899668377685546,4.726154077148437
5942488171794,1.644787396,1,-4.236539837646484,7.729680059814453,4.727351177978515
5942491502679,1.648118281,1,-4.155136981201172,7.581239556884765,4.7560815979003905
5942494836169,1.651451771,1,-4.059368914794922,7.484274389648437,4.566939666748047
5942498172887,1.654788489,1,-4.068945721435546,7.256825231933593,4.50109912109375
5942501506012,1.658121614,1,-3.854664672851562,7.117961535644531,4.441244079589843
5942504837887,1.661453489,1,-3.7409400939941406,6.93959351196289,4.339490509033203
5942508178096,1.664793698,1,-3.6547488342285153,6.641515405273437,4.179078997802734
5942511504450,1.668120052,1,-3.602076397705078,6.616376287841796,4.012681982421875
5942514836898,1.6714525,1,-3.4536358947753905,6.423643054199219,3.845087866210937
5942518172419,1.674788021,1,-3.5769372802734374,6.323086584472656,3.6846763549804686
5942521505387,1.678120989,1,-3.5122938354492184,6.271611248779297,3.6104561035156246
5942524838669,1.681454271,1,-3.4644098022460934,6.282385156249999,3.3399113159179685
5942528171794,1.684787396,1,-3.3255461059570313,6.263231542968749,3.3674446350097655
5942531503304,1.688118906,1,-3.1759085021972653,6.26921704711914,3.3195606018066406
5942534837366,1.691452968,1,-3.0621839233398433,6.30752427368164,3.1076737548828124
5942538172731,1.694788333,1,-3.0119056884765625,6.400898138427734,3.1447838806152344
5942541505179,1.698120781,1,-2.971204260253906,6.460753179931641,2.9640216552734375
5942544839137,1.701454739,1,-3.1280244689941403,6.624755993652343,3.0442274108886718
5942548171637,1.704787239,1,-3.1495722839355467,6.736086370849609,2.9496564453125
5942551502887,1.708118489,1,-3.094505645751953,6.879738470458984,2.8886043029785156
5942554835596,1.711451198,1,-3.124433166503906,6.982689141845703,3.0310593017578125
5942558172262,1.714787864,1,-3.095702746582031,7.180210778808593,2.900575311279297
5942561505544,1.718121146,1,-3.1364041748046874,7.339425189208984,2.826355059814453
5942564839085,1.721454687,1,-3.104082452392578,7.444770062255859,2.7581203125
5942568171585,1.724787187,1,-3.0837317382812497,7.550114935302734,2.8203695556640622
5942571503304,1.728118906,1,-3.1100679565429687,7.650671405029296,2.749740606689453
5942574837419,1.731453021,1,-3.1854853088378903,7.78235249633789,2.7521348083496093
5942578171898,1.7347875,1,-3.2213983337402343,7.8362220336914055,2.7808652282714843
5942581506221,1.738121823,1,-3.287238879394531,7.917624890136718,2.7557261108398436
5942584838773,1.741454375,1,-3.246537451171875,7.990648040771484,2.6994623718261717
5942588170804,1.744786406,1,-3.1304186706542967,8.137891442871092,2.7353753967285153
5942591504294,1.748119896,1,-3.3674446350097655,8.164227661132813,2.798821740722656
5942594837158,1.75145276,1,-3.399766357421875,8.12711753540039,2.7928362365722657
5942598172887,1.754788489,1,-3.417722869873047,8.122329132080077,2.858676782226562
5942601505335,1.758120937,1,-3.4811692138671875,8.15345375366211,2.858676782226562
5942604837575,1.761453177,1,-3.4488474914550777,8.14627114868164,2.9448680419921875
5942608172523,1.764788125,1,-3.3877953491210935,8.176198669433592,2.9269115295410155
5942611503304,1.768118906,1,-3.451241693115234,8.245630517578125,3.0909143432617188
5942614836481,1.771452083,1,-3.3638533325195312,8.212111694335936,3.248931652832031
5942618172523,1.774788125,1,-3.489548919677734,8.188169677734374,3.3865982482910155
5942621505075,1.778120677,1,-3.496731524658203,8.169016064453125,3.446453289794922
5942624838669,1.781454271,1,-3.488351818847656,8.172607366943359,3.4763808105468748
5942628172210,1.784787812,1,-3.5673604736328124,8.078036401367187,3.649960430908203
5942631503721,1.788119323,1,-3.6583401367187496,8.00022484741211,3.6451720275878903
5942634836377,1.791451979,1,-3.6715082458496093,8.06965669555664,3.69664736328125
5942638172106,1.794787708,1,-3.7397429931640622,8.068459594726562,3.870226983642578
5942641504762,1.798120364,1,-3.840299462890625,8.100781317138672,3.921702319335937
5942644838408,1.80145401,1,-3.934870428466797,8.103175518798828,4.088099334716796
5942648172158,1.80478776,1,-4.052186309814453,7.879317663574218,4.163516687011718
5942651503825,1.808119427,1,-4.259284753417968,7.8541785461425775,4.147954376220703
5942654835596,1.811451198,1,-4.207809417724609,7.82065972290039,4.217386224365234
5942658172679,1.814788281,1,-4.188655804443359,7.736862664794922,4.440046978759765
5942661505179,1.818120781,1,-4.165910888671875,7.732074261474609,4.483142608642578
5942664838564,1.821454166,1,-4.077325427246094,7.751227874755859,4.528632440185547
5942668172106,1.824787708,1,-4.080916729736328,7.723694555664062,4.571728070068359
5942671503148,1.82811875,1,-3.9564182434082027,7.654262707519531,4.576516473388671
5942674836689,1.831452291,1,-3.9564182434082027,7.643488800048828,4.57771357421875
5942678171793,1.834787395,1,-3.934870428466797,7.431601953125,4.533420843505859
5942681505700,1.838121302,1,-3.8989574035644528,7.40526573486328,4.527435339355469
5942684839762,1.841455364,1,-3.88818349609375,7.297526660156249,4.431667272949219
5942688172210,1.844787812,1,-3.7433342956542965,7.218518005371093,4.33470210571289
5942691503616,1.848119218,1,-3.6906618591308593,7.145494854736327,4.338293408203125
5942694836950,1.851452552,1,-3.566163372802734,7.143100653076171,4.3071687866210935
5942698171793,1.854787395,1,-3.4811692138671875,7.05451519165039,4.271255761718749
5942701505491,1.858121093,1,-3.383006945800781,7.022193469238281,4.2880151733398435
5942704838929,1.861454531,1,-3.306392492675781,6.940790612792968,4.084508032226562
5942708172262,1.864787864,1,-3.333925811767578,6.861781958007812,4.049792108154296
5942711503564,1.868119166,1,-3.123236065673828,6.848613848876953,3.801992236328125
5942714836533,1.871452135,1,-3.114856359863281,6.874950067138672,3.736151690673828
5942718172783,1.874788385,1,-3.0992940490722654,6.841431243896484,3.6667198425292966
5942721506429,1.878122031,1,-3.0538042175292968,6.773196496582031,3.5721488769531247
5942724839189,1.881454791,1,-3.0633810241699218,6.8402341430664055,3.4548329956054684
5942728171533,1.884787135,1,-3.0801404357910154,6.827066033935546,3.385401147460937
5942731503616,1.888119218,1,-3.075352032470703,6.872555865478515,3.4296938781738278
5942734836481,1.891452083,1,-3.0789433349609374,6.968323931884766,3.294421484375
5942738172314,1.894787916,1,-3.015496990966797,7.005434057617187,3.1974563171386716
5942741505856,1.898121458,1,-3.0238766967773434,7.125144140624999,3.257311358642578
5942744839554,1.901455156,1,-3.034650604248047,7.205349896240234,3.19865341796875
5942748171533,1.904787135,1,-3.0980969482421874,7.30351216430664,3.2537200561523436
5942751503512,1.908119114,1,-3.1124621582031247,7.332242584228515,3.258508459472656
5942754837366,1.911452968,1,-3.114856359863281,7.4208280456542965,3.199850518798828
5942758172366,1.914787968,1,-3.2046389221191403,7.436390356445312,3.209427325439453
5942761505179,1.918120781,1,-3.289633081054687,7.592013464355468,3.35188232421875
5942764838773,1.921454375,1,-3.412934466552734,7.352593298339843,3.4524387939453125
5942768172158,1.92478776,1,-3.621230010986328,7.636306195068359,3.381809844970703
5942771503043,1.928118645,1,-3.5482068603515624,7.924807495117187,3.4931402221679684
5942774836898,1.9314525,1,-3.4632127014160154,8.012195855712891,3.6296097167968746
5942778173148,1.93478875,1,-3.345896820068359,8.122329132080077,3.881000891113281
5942781505752,1.938121354,1,-3.2597055603027343,8.134300140380859,3.938461730957031
5942784838981,1.941454583,1,-3.299209887695312,8.289923248291014,3.9707834533691404
5942788172106,1.944787708,1,-3.4835634155273434,8.300697155761718,3.8989574035644528
5942791502887,1.948118489,1,-3.5721488769531247,8.189366778564453,3.7014357666015623
5942794837627,1.951453229,1,-3.5877111877441403,8.055291485595703,3.6475662292480466
5942798172366,1.954787968,1,-3.388992449951172,8.0828248046875,3.5793314819335937
5942801505283,1.958120885,1,-3.324349005126953,8.019378460693359,3.6750995483398436
5942804838773,1.961454375,1,-3.3506852233886715,7.931990100097655,3.7421371948242186
5942808171533,1.964787135,1,-3.381809844970703,7.893682873535155,3.689464758300781
5942811500752,1.968116354,1,-3.361459130859375,7.885303167724609,3.7481226989746093
5942814838043,1.971453645,1,-3.3399113159179685,7.848193041992187,3.7158009765625
5942818173460,1.974789062,1,-3.391386651611328,7.784746697998046,3.7241806823730466
5942821505127,1.978120729,1,-3.42849677734375,7.690175732421874,3.6954502624511716
5942824838304,1.981453906,1,-3.365050433349609,7.673416320800781,3.725377783203125
5942828177939,1.984793541,1,-3.375824340820312,7.556100439453124,3.801992236328125
5942831504554,1.988120156,1,-3.355473626708984,7.536946826171874,3.7325603881835936
5942834836846,1.991452448,1,-3.5110967346191404,7.521384515380859,3.708618371582031
5942838173721,1.994789323,1,-3.436876483154297,7.558494641113281,3.7708676147460936
5942841505179,1.998120781,1,-3.489548919677734,7.556100439453124,3.7146038757324216
5942844838356,2.001453958,1,-3.384204046630859,7.435193255615234,3.7529111022949215
5942848174085,2.004789687,1,-3.422511273193359,7.4579381713867186,3.707421270751953
5942851503721,2.008119323,1,-3.3542765258789062,7.410054138183593,3.7529111022949215
5942854837106,2.011452708,1,-3.4452561889648434,7.333439685058593,3.796006732177734
5942858172418,2.01478802,1,-3.268085266113281,7.292738256835937,3.7481226989746093
5942861503668,2.01811927,1,-3.2549171569824216,7.262810736083984,3.670311145019531
5942864839450,2.021455052,1,-3.2034418212890623,7.236474517822265,3.592499591064453
5942868172158,2.02478776,1,-3.277662072753906,7.170633972167968,3.5877111877441403
5942871503616,2.028119218,1,-3.268085266113281,7.096413720703125,3.5015199279785154
5942874837679,2.031453281,1,-3.295618585205078,7.1586629638671875,3.4775779113769527
5942878173095,2.034788697,1,-3.2728736694335936,7.152677459716797,3.4775779113769527
5942881505439,2.038121041,1,-3.3099837951660156,7.126341241455077,3.4572271972656248
5942884839502,2.041455104,1,-3.484760516357422,7.198167291259765,3.362656231689453
5942888171585,2.044787187,1,-3.2716765686035156,7.20774409790039,3.460818499755859
5942891503356,2.048118958,1,-3.287238879394531,7.344213592529297,3.5494039611816404
5942894836950,2.051452552,1,-3.2046389221191403,7.432799053955078,3.7098154724121093
5942898174033,2.054789635,1,-3.1076737548828124,7.467514978027343,3.7289690856933593
5942901507314,2.058122916,1,-3.1471780822753903,7.572859851074218,3.7158009765625
5942904839137,2.061454739,1,-3.1483751831054687,7.587225061035156,3.7205893798828122
5942908172523,2.064788125,1,-3.132812872314453,7.650671405029296,3.754108203125
5942911503356,2.068118958,1,-3.1579519897460937,7.709329345703124,3.6236242126464844
5942914837523,2.071453125,1,-3.3494881225585935,7.663839514160156,3.622427111816406
5942918171950,2.074787552,1,-3.2597055603027343,7.605181573486328,3.5482068603515624
5942921505804,2.078121406,1,-3.2225954345703123,7.589619262695312,3.398569256591797
5942924839554,2.081455156,1,-3.239354846191406,7.632714892578124,3.4931402221679684
5942928172002,2.084787604,1,-3.21780703125,7.586027960205078,3.499125726318359
5942931503043,2.088118645,1,-3.116053460693359,7.606378674316406,3.5290532470703124
5942934836898,2.0914525,1,-3.113659259033203,7.558494641113281,3.5589807678222654
5942938171689,2.094787291,1,-3.0801404357910154,7.557297540283202,3.478775012207031
5942941505543,2.098121145,1,-3.076549133300781,7.630320690917968,3.494337322998047
5942944839345,2.101454947,1,-3.1854853088378903,7.456741070556641,3.4632127014160154
5942948172470,2.104788072,1,-3.1974563171386716,7.4232222473144525,3.4668040039062498
5942951503408,2.10811901,1,-3.143586779785156,7.410054138183593,3.5290532470703124
5942954836533,2.111452135,1,-3.189076611328125,7.449558465576171,3.5577836669921874
5942958172627,2.114788229,1,-3.2142157287597652,7.376535314941406,3.5051112304687497
5942961505491,2.118121093,1,-3.286041778564453,7.4208280456542965,3.592499591064453
5942964839189,2.121454791,1,-3.31357509765625,7.48906279296875,3.5697546752929687
5942968172106,2.124787708,1,-3.3590649291992185,7.48906279296875,3.6655227416992187
5942971502731,2.128118333,1,-3.3411084167480465,7.394491827392578,3.7900212280273435
5942974836585,2.131452187,1,-3.314772198486328,7.605181573486328,3.919308117675781
5942978170439,2.134786041,1,-3.333925811767578,7.624335186767578,3.8295255554199215
5942981505960,2.138121562,1,-3.3171664001464842,7.68059892578125,3.938461730957031
5942984839033,2.141454635,1,-3.327940307617187,7.714117749023437,3.9624037475585934
5942988171793,2.144787395,1,-3.3399113159179685,7.733271362304687,3.977966058349609
5942991503512,2.148119114,1,-3.4344822814941405,7.692569934082031,4.033032696533203
5942994836481,2.151452083,1,-3.3782185424804685,7.750030773925781,4.027047192382812
5942998173304,2.154788906,1,-3.446453289794922,7.753622076416015,4.048595007324218
5943001506377,2.158121979,1,-3.432088079833984,7.71890615234375,4.083310931396484
5943004838825,2.161454427,1,-3.4739866088867184,7.6997525390625,4.049792108154296
5943008172054,2.164787656,1,-3.478775012207031,7.62912359008789,4.072537023925781
5943011503564,2.168119166,1,-3.469198205566406,7.753622076416015,4.016273284912109
5943014836793,2.171452395,1,-3.5003228271484375,7.666233715820312,3.997119671630859
5943018173200,2.174788802,1,-3.372233038330078,7.655459808349609,4.045003704833984
5943021505387,2.178120989,1,-3.384204046630859,7.62912359008789,3.9791631591796874
5943024838720,2.181454322,1,-3.306392492675781,7.60398447265625,3.9659950500488277
5943028171533,2.184787135,1,-3.3602620300292965,7.584830859375,3.949235638427734
5943031503564,2.188119166,1,-3.323151904296875,7.5525091369628905,3.7995980346679685
5943034836689,2.191452291,1,-3.3171664001464842,7.475894683837891,3.73495458984375
5943038173408,2.19478901,1,-3.277662072753906,7.4603323730468745,3.6332010192871094
5943041505335,2.198120937,1,-3.2920272827148436,7.4220251464843745,3.7146038757324216
5943044839137,2.201454739,1,-3.2620997619628906,7.338228088378906,3.6463691284179687
5943048171898,2.2047875,1,-3.258508459472656,7.279570147705078,3.6679169433593746
5943051503564,2.208119166,1,-3.208230224609375,7.254431030273437,3.6176387084960937
5943054835856,2.211451458,1,-3.181894006347656,7.340622290039062,3.5098996337890624
5943058172679,2.214788281,1,-3.276464971923828,7.343016491699219,3.5506010620117183
5943061505595,2.218121197,1,-3.1878795104980466,7.32266577758789,3.515885137939453
5943064838252,2.221453854,1,-3.1208418640136717,7.3094976684570305,3.5386300537109374
5943068171533,2.224787135,1,-3.106476654052734,7.377732415771484,3.4057518615722655
5943071503356,2.228118958,1,-3.1543606872558594,7.372944012451171,3.470395306396484
5943074837314,2.231452916,1,-3.1220389648437497,7.416039642333984,3.489548919677734
5943078172158,2.23478776,1,-3.1352070739746094,7.425616448974609,3.4524387939453125
5943081505023,2.238120625,1,-3.162740393066406,7.5165961120605465,3.379415643310547
5943084838877,2.241454479,1,-3.1280244689941403,7.526172918701171,3.446453289794922
5943088171897,2.244787499,1,-3.1316157714843746,7.524975817871093,3.4332851806640625
5943091503095,2.248118697,1,-3.1172505615234374,7.651868505859374,3.4811692138671875
5943094837575,2.251453177,1,-3.1208418640136717,7.659051110839843,3.494337322998047
5943098172939,2.254788541,1,-3.1507693847656246,7.668627917480468,3.5326445495605467
5943101503929,2.258119531,1,-3.1771056030273437,7.709329345703124,3.5134909362792968
5943104839345,2.261454947,1,-3.161543292236328,7.733271362304687,3.5805285827636717
5943108172054,2.264787656,1,-3.180696905517578,7.729680059814453,3.6822821533203123
5943111502991,2.268118593,1,-3.209427325439453,7.72489165649414,3.6655227416992187
5943114836585,2.271452187,1,-3.2441432495117186,7.742848168945312,3.712209674072265
5943118172054,2.274787656,1,-3.3482910217285156,7.698555438232422,3.7517140014648436
5943121504918,2.27812052,1,-3.374627239990234,7.777564093017578,3.786429925537109
5943124838512,2.281454114,1,-3.4201170715332028,7.716511950683593,3.816357446289062
5943128171481,2.284787083,1,-3.394977954101562,7.750030773925781,3.806780639648437
5943131503929,2.288119531,1,-3.446453289794922,7.728482958984374,4.035426898193359
5943134836637,2.291452239,1,-3.469198205566406,7.756016278076172,3.9719805541992184
5943138172887,2.294788489,1,-3.4584242980957027,7.773972790527344,4.001908074951172
5943141505856,2.298121458,1,-3.4536358947753905,7.799111907958984,4.126406561279297
5943144838304,2.301453906,1,-3.380612744140625,7.9104422851562495,4.145560174560547
5943148172366,2.304787968,1,-3.299209887695312,7.915230688476562,4.285620971679688
5943151503929,2.308119531,1,-3.3446997192382812,7.78235249633789,4.299986181640625
5943154836741,2.311452343,1,-3.423708374023437,7.769184387207031,4.244919543457031
5943158172106,2.314787708,1,-3.5206735412597654,7.769184387207031,4.3251252990722655
5943161505491,2.318121093,1,-3.5529952636718747,7.675810522460937,4.383783239746093
5943164838616,2.321454218,1,-3.5422213562011717,7.673416320800781,4.2880151733398435
5943168173304,2.324788906,1,-3.465606903076172,7.669825018310546,4.369418029785156
5943171503147,2.328118749,1,-3.517082238769531,7.659051110839843,4.331110803222656
5943174836481,2.331452083,1,-3.496731524658203,7.621940985107422,4.260481854248047
5943178172002,2.334787604,1,-3.4835634155273434,7.5716627502441405,4.291606475830078
5943181505231,2.338120833,1,-3.3865982482910155,7.5525091369628905,4.14316597290039
5943184838668,2.34145427,1,-3.3327287109375,7.513004809570312,4.077325427246094
5943188171845,2.344787447,1,-3.2261867370605466,7.45075556640625,4.030638494873046
5943191503356,2.348118958,1,-3.208230224609375,7.364564306640625,3.967192150878906
5943194836793,2.351452395,1,-3.106476654052734,7.271190441894531,3.7888241271972656
5943198172366,2.354787968,1,-3.1124621582031247,7.267599139404297,3.7576995056152342
5943201505022,2.358120624,1,-3.0526071166992184,7.22689771118164,3.687070556640625
5943204838668,2.36145427,1,-3.015496990966797,7.20774409790039,3.5673604736328124
5943208172158,2.36478776,1,-2.9831752685546875,7.110778930664062,3.345896820068359
5943211502783,2.368118385,1,-3.056198419189453,7.125144140624999,3.2836475769042965
5943214836272,2.371451874,1,-2.9173347229003905,7.134720947265625,3.294421484375
5943218172522,2.374788124,1,-2.986766571044922,7.176619476318359,3.23696064453125
5943221512158,2.37812776,1,-2.9472622436523435,7.182604980468749,3.2704794677734372
5943224838043,2.381453645,1,-2.905363714599609,7.289146954345703,3.306392492675781
5943228173668,2.38478927,1,-2.9089550170898435,7.370549810791015,3.287238879394531
5943231503460,2.388119062,1,-2.8886043029785156,7.444770062255859,3.366247534179687
5943234836897,2.391452499,1,-2.807201446533203,7.461529473876952,3.5098996337890624
5943238172627,2.394788229,1,-2.883815899658203,7.517793212890624,3.4775779113769527
5943241505022,2.398120624,1,-3.0430303100585934,7.636306195068359,3.564966271972656
5943244839033,2.401454635,1,-3.1447838806152344,7.668627917480468,3.6188358093261717
5943248172366,2.404787968,1,-3.161543292236328,7.735665563964844,3.6092590026855467
5943251503095,2.408118697,1,-3.0992940490722654,7.830236529541015,3.726574884033203
5943254836168,2.41145177,1,-3.258508459472656,7.8529814453124995,3.669114044189453
5943258171012,2.414786614,1,-3.181894006347656,7.8900915710449215,3.6930560607910152
5943261506168,2.41812177,1,-3.265691064453125,7.860164050292968,3.7624879089355465
5943264838929,2.421454531,1,-3.305195391845703,7.914033587646484,3.8893805969238278
5943268172522,2.424788124,1,-3.305195391845703,8.051700183105469,4.011484881591796
5943271503095,2.428118697,1,-3.2728736694335936,8.09479581298828,4.10485874633789
5943274836272,2.431451874,1,-3.3075895935058592,8.08881030883789,4.036623999023437
5943278172522,2.434788124,1,-3.324349005126953,8.045714678955077,4.068945721435546
5943281505595,2.438121197,1,-3.2525229553222657,8.010998754882811,4.029441394042968
5943284838668,2.44145427,1,-3.2728736694335936,7.880514764404296,4.145560174560547
5943288171689,2.444787291,1,-3.209427325439453,7.738059765625,4.205415216064453
5943291502991,2.448118593,1,-3.1771056030273437,7.806294512939453,4.140771771240234
5943294836897,2.451452499,1,-3.162740393066406,7.812280017089844,4.012681982421875
5943298172158,2.45478776,1,-3.1651345947265623,7.669825018310546,4.00310517578125
5943301505022,2.458120624,1,-2.942473840332031,7.416039642333984,3.9612066467285154
5943304838824,2.461454426,1,-2.8526912780761715,7.435193255615234,3.821145849609375
5943308170439,2.464786041,1,-2.881421697998047,7.310694769287109,3.803189337158203
5943311502887,2.468118489,1,-2.912546319580078,7.168239770507812,3.7014357666015623
5943314836324,2.471451926,1,-2.8718448913574215,7.116764434814453,3.708618371582031
5943318172574,2.474788176,1,-2.896984008789062,7.09282241821289,3.6739024475097652
5943321505491,2.478121093,1,-2.845508673095703,6.994660150146484,3.5517981628417967
5943324839137,2.481454739,1,-2.986766571044922,6.928819604492187,3.392583752441406
5943328172054,2.484787656,1,-2.883815899658203,7.032967376708984,3.6068648010253903
5943331503668,2.48811927,1,-2.6695348510742187,7.138312249755859,3.687070556640625
5943334837054,2.491452656,1,-2.6192566162109374,7.143100653076171,3.7134067749023436
5943338172731,2.494788333,1,-2.608482708740234,7.249642626953125,3.821145849609375
5943341505231,2.498120833,1,-2.7257985900878903,7.311891870117187,3.9360675292968748
5943344838408,2.50145401,1,-2.877830395507812,7.314286071777343,3.958812445068359
5943348171949,2.504787551,1,-3.0418332092285154,7.400477331542969,3.9564182434082027
5943351502679,2.508118281,1,-3.180696905517578,7.431601953125,4.058171813964844
5943354836845,2.511452447,1,-3.380612744140625,7.521384515380859,4.170699291992188
5943358171116,2.514786718,1,-3.404554760742187,7.762001782226562,4.265270257568359
5943361505804,2.518121406,1,-3.427299676513672,7.884106066894531,4.475960003662109
5943364838564,2.521454166,1,-3.362656231689453,7.991845141601562,4.583699078369141
5943368171897,2.524787499,1,-3.3961750549316405,8.175001568603514,4.716577270507813
5943371502783,2.528118385,1,-3.3602620300292965,8.25520732421875,4.820725042724609
5943374837002,2.531452604,1,-3.343502618408203,8.292317449951172,4.771643908691406
5943378172991,2.534788593,1,-3.3961750549316405,8.309076861572265,4.8698061767578125
5943381504814,2.538120416,1,-3.4584242980957027,8.291120349121094,4.818330841064453
5943384838356,2.541453958,1,-3.518279339599609,8.329427575683594,4.7022120605468745
5943388171689,2.544787291,1,-3.526659045410156,8.273163836669921,4.65432802734375
5943391503616,2.548119218,1,-3.603273498535156,8.093598712158203,4.69263525390625
5943394837054,2.551452656,1,-3.5422213562011717,7.9846625366210935,4.480748406982421
5943398171585,2.554787187,1,-3.488351818847656,7.970297326660156,4.390965844726562
5943401505179,2.558120781,1,-3.356670727539062,7.869740856933594,4.311957189941406
5943404838720,2.561454322,1,-3.219004132080078,7.733271362304687,4.188655804443359
5943408171741,2.564787343,1,-3.228580938720703,7.656656909179687,4.1383775695800775
5943411503564,2.568119166,1,-2.972401361083984,7.618349682617187,4.169502191162109
5943414837002,2.571452604,1,-2.901772412109375,7.5465236328125,4.06655151977539
5943418172210,2.574787812,1,-2.7377695983886716,7.426813549804687,3.867832781982422
5943421505387,2.578120989,1,-2.4947581298828125,7.280767248535156,3.7301661865234372
5943424839502,2.581455104,1,-2.559401574707031,7.162254266357421,3.7205893798828122
5943428172679,2.584788281,1,-2.3355437194824216,7.040149981689453,3.4249054748535155
5943431503095,2.588118697,1,-2.370259643554687,6.945579016113281,3.365050433349609
5943434836741,2.591452343,1,-2.422932080078125,6.860584857177734,3.1866824096679687
5943438172158,2.59478776,1,-2.437297290039062,6.768408093261718,3.010708587646484
5943441503095,2.598118697,1,-2.3546973327636715,6.756437084960937,3.037044805908203
5943444838356,2.601453958,1,-2.416946575927734,6.74805737915039,3.1004911499023438
5943448172314,2.604787916,1,-2.433705987548828,6.9156514953613275,3.265691064453125
5943451503460,2.608119062,1,-2.39420166015625,7.049726788330077,3.380612744140625
5943454836637,2.611452239,1,-2.460042205810547,7.204152795410156,3.499125726318359
5943458172314,2.614787916,1,-2.404975567626953,7.363367205810547,3.745728497314453
5943461504502,2.618120104,1,-2.385821954345703,7.586027960205078,3.967192150878906
5943464839293,2.621454895,1,-2.460042205810547,7.639897497558593,4.1958384094238275
5943468172418,2.62478802,1,-2.70065947265625,7.805097412109374,4.339490509033203
5943471503616,2.628119218,1,-2.834734765625,7.823053924560546,4.43047017211914
5943474836429,2.631452031,1,-2.886210101318359,7.850587243652344,4.680664245605469
5943478172158,2.63478776,1,-3.0310593017578125,8.086416107177733,4.722562774658203
5943481505231,2.638120833,1,-2.978386865234375,8.155847955322265,4.8326960510253905
5943484838460,2.641454062,1,-3.0406361083984375,8.109161022949218,4.782417816162109
5943488171793,2.644787395,1,-3.1687258972167966,8.091204510498047,4.911704705810546
5943491503877,2.648119479,1,-3.2549171569824216,8.040926275634765,4.994304663085937
5943494836845,2.651452447,1,-3.286041778564453,8.060079888916015,4.96078583984375
5943498171793,2.654787395,1,-3.4093431640625,8.084021905517577,4.983530755615234
5943501505595,2.658121197,1,-3.3602620300292965,8.010998754882811,4.959588739013672
5943504839085,2.661454687,1,-3.356670727539062,7.958326318359375,4.977545251464844
5943508172106,2.664787708,1,-3.2333693420410152,7.868543756103515,4.987122058105468
5943511503043,2.668118645,1,-3.2249896362304686,7.789535101318359,5.0206408813476555
5943514836585,2.671452187,1,-3.2417490478515623,7.802703210449218,4.920084411621094
5943518171949,2.674787551,1,-3.171120098876953,7.772775689697265,4.800374328613281
5943521504970,2.678120572,1,-3.066972326660156,7.581239556884765,4.911704705810546
5943524838981,2.681454583,1,-2.961627453613281,7.501033801269531,4.833893151855468
5943528171481,2.684787083,1,-2.826355059814453,7.4411787597656245,4.763264202880859
5943531502991,2.688118593,1,-2.825157958984375,7.387309222412109,4.707000463867187
5943534836116,2.691451718,1,-2.8562825805664063,7.304709265136719,4.389768743896484
5943538172158,2.69478776,1,-2.6384102294921874,7.137115148925781,4.180276098632812
5943541505647,2.698121249,1,-2.5570073730468748,7.173028173828125,4.062960217285156
5943544844762,2.701460364,1,-2.6611551452636717,7.090428216552734,4.1192239562988275
5943548173929,2.704789531,1,-2.703053674316406,6.992265948486327,4.135983367919922
5943551503720,2.708119322,1,-2.6910826660156246,6.941987713623046,4.031835595703125
5943554836949,2.711452551,1,-2.645592834472656,7.043741284179687,3.9600095458984375
5943558172366,2.714787968,1,-2.6048914062499997,7.1407064514160155,3.9312791259765625
5943561505022,2.718120624,1,-2.5809493896484375,7.231686114501953,4.132392065429687
5943564837991,2.721453593,1,-2.527079852294922,7.317877374267578,4.217386224365234
5943568171533,2.724787135,1,-2.3044190979003907,7.606378674316406,4.452017987060547
5943571503199,2.728118801,1,-2.2278046447753903,7.68658442993164,4.431667272949219
5943574836429,2.731452031,1,-2.2936451904296873,7.7416510681152335,4.531026641845703
5943578172574,2.734788176,1,-2.3870190551757813,7.732074261474609,4.570530969238281
5943581504658,2.73812026,1,-2.522291448974609,7.775169891357422,4.65432802734375
5943584838720,2.741454322,1,-2.6312276245117188,7.837419134521484,4.671087438964843
5943588172470,2.744788072,1,-2.597708801269531,7.9283987976074215,4.5968671875
5943591502991,2.748118593,1,-2.7042507751464844,7.930792999267577,4.629188909912109
5943594836793,2.751452395,1,-2.7353753967285153,7.841010437011718,4.811148236083984
5943598173043,2.754788645,1,-2.6479870361328124,8.14028564453125,4.7955859252929685
5943601505387,2.758120989,1,-2.3906103576660156,8.067262493896484,4.7572786987304685
5943604838616,2.761454218,1,-2.3882161560058592,7.995436444091796,4.790797521972656
5943608172939,2.764788541,1,-2.262520568847656,7.923610394287109,4.742913488769531
5943611503616,2.768119218,1,-2.3307553161621093,7.922413293457031,4.704606262207031
5943614836533,2.771452135,1,-2.3032219970703123,7.765593084716796,4.520252734375
5943618172939,2.774788541,1,-2.3439234252929686,7.692569934082031,4.3634325256347655
5943621504814,2.778120416,1,-2.3487118286132813,7.572859851074218,4.314351391601562
5943624838251,2.781453853,1,-2.157175695800781,7.624335186767578,4.2892122741699215
5943628170960,2.784786562,1,-1.7717092285156248,7.4591352722167965,4.2700586608886715
5943631502470,2.788118072,1,-1.619677423095703,7.3657614074707025,4.285620971679688
5943634837418,2.79145302,1,-1.5837643981933593,7.2903440551757805,4.2137949218749995
5943638172939,2.794788541,1,-1.5478513732910155,7.1215528381347655,4.025850091552734
5943641505439,2.798121041,1,-1.695094775390625,6.995857250976562,3.902548706054687
5943644838720,2.801454322,1,-1.9788076721191405,6.874950067138672,3.852270471191406
5943648171689,2.804787291,1,-2.070984436035156,6.754042883300781,3.725377783203125
5943651503668,2.80811927,1,-1.8710685974121093,6.788758807373046,3.7002386657714843
5943654836949,2.811452551,1,-1.7178396911621092,7.043741284179687,3.9564182434082027
5943658172054,2.814787656,1,-1.2641384765625,7.105990527343749,4.183867401123047
5943661505022,2.818120624,1,-1.1647791076660157,7.126341241455077,4.347870214843749
5943664838616,2.821454218,1,-1.149216796875,7.164648468017577,4.516661431884765
5943668171533,2.824787135,1,-1.2521674682617188,7.210138299560547,4.440046978759765
5943671503564,2.828119166,1,-1.3204022155761719,7.307103466796875,4.491522314453125
5943674836585,2.831452187,1,-1.3742717529296875,7.237671618652343,4.507084625244141
5943678171637,2.834787239,1,-1.456871710205078,7.2903440551757805,4.537012145996093
5943681506064,2.838121666,1,-1.4867992309570313,7.244854223632812,4.638765716552734
5943684839085,2.841454687,1,-1.5634136840820312,7.261613635253906,4.667496136474609
5943688171533,2.844787135,1,-1.6400281372070311,7.204152795410156,4.723759875488281
5943691503304,2.848118906,1,-1.5634136840820312,7.089231115722656,4.619612103271484
5943694836741,2.851452343,1,-1.6531962463378904,6.969521032714844,4.557362860107421
5943698172418,2.85478802,1,-1.715445489501953,6.892906579589844,4.592078784179687
5943701504814,2.858120416,1,-1.7561469177246092,6.927622503662109,4.484339709472656
5943704838824,2.861454426,1,-1.62805712890625,7.0078282592773435,4.492719415283203
5943708171481,2.864787083,1,-1.4688427185058592,7.060500695800781,4.651933825683593
5943711503199,2.868118801,1,-1.2856862915039062,7.104793426513671,4.823119244384765
5943714837001,2.871452603,1,-1.1276689819335937,7.135918048095703,4.862623571777344
5943718171949,2.874787551,1,-1.0283096130371092,7.220912207031249,4.76924970703125
5943721503668,2.87811927,1,-1.0594342346191405,7.170633972167968,4.7369279846191406
5943724839554,2.881455156,1,-1.024718310546875,7.1395093505859375,4.7572786987304685
5943728172314,2.884787916,1,-1.0773907470703123,7.094019519042968,4.6351744140625
5943731502991,2.888118593,1,-1.092953057861328,7.050923889160156,4.572925170898437
5943734836272,2.891451874,1,-1.1947066284179686,6.986280444335937,4.331110803222656
5943738172314,2.894787916,1,-1.2234370483398436,6.941987713623046,4.3059716857910155
5943741505647,2.898121249,1,-1.246181964111328,6.926425402832031,4.314351391601562
5943744838512,2.901454114,1,-1.177947216796875,6.9360022094726554,4.337096307373047
5943748172470,2.904788072,1,-1.0295067138671874,7.023390570068359,4.389768743896484
5943751502835,2.908118437,1,-0.9792284790039062,7.068880401611327,4.429273071289062
5943754835803,2.911451405,1,-0.9337386474609375,7.097610821533203,4.497507818603515
5943758171533,2.914787135,1,-0.8858546142578124,7.13112964477539,4.57771357421875
5943761504033,2.918119635,1,-0.9744400756835937,7.122749938964843,4.678270043945313
5943764842522,2.921458124,1,-1.2018892333984375,7.114370233154297,4.716577270507813
5943768171689,2.924787291,1,-1.3395558288574219,7.053318090820312,4.661510632324219
5943771503043,2.928118645,1,-1.5538368774414062,7.0461354858398435,4.642357019042969
5943774836064,2.931451666,1,-1.7166425903320313,7.200561492919921,4.759672900390624
5943778172366,2.934787968,1,-1.8315642700195311,7.110778930664062,4.811148236083984
5943781505543,2.938121145,1,-2.023100402832031,7.323862878417969,4.994304663085937
5943784839085,2.941454687,1,-2.1691467041015624,7.509413507080078,5.124788653564453
5943788172366,2.944787968,1,-2.1715409057617188,7.529764221191406,5.21576831665039
5943791503095,2.948118697,1,-2.250549560546875,7.56567724609375,5.2433016357421875
5943794837053,2.951452655,1,-2.127248175048828,7.6279264892578125,5.298368273925781
5943798172210,2.954787812,1,-2.146401788330078,7.832630731201172,5.294776971435547
5943801505439,2.958121041,1,-2.310404602050781,7.875726361083984,5.31153638305664
5943804838408,2.96145401,1,-2.443282794189453,7.9858596374511714,5.299565374755859
5943808172001,2.964787603,1,-2.088940948486328,8.015787158203125,5.184643695068359
5943811502522,2.968118124,1,-2.2649147705078123,8.194155181884765,5.222950921630859
5943814836793,2.971452395,1,-2.2385785522460937,8.24203921508789,5.1523219726562495
5943818172731,2.974788333,1,-2.142810485839844,8.214505895996094,5.157110375976562
5943821505803,2.978121405,1,-2.072181536865234,8.196549383544921,5.172672686767577
5943824838928,2.98145453,1,-1.8914193115234375,8.24203921508789,4.989516259765625
5943828171324,2.984786926,1,-1.792059942626953,8.30668265991211,4.961982940673828
5943831502939,2.988118541,1,-1.7298106994628906,8.021772662353515,4.760870001220703
5943834833928,2.99144953,1,-1.8160019592285155,8.027758166503906,4.589684582519531
5943838170803,2.994786405,1,-1.6508020446777343,7.888894470214844,4.447229583740234
5943841506376,2.998121978,1,-1.5693991882324219,7.662642413330078,4.267664459228516
5943844839553,3.001455155,1,-1.5945383056640625,7.631517791748046,4.132392065429687
5943848171637,3.004787239,1,-1.6412252380371093,7.650671405029296,3.9827544616699218
5943851502835,3.008118437,1,-1.7322049011230467,7.607575775146484,3.9612066467285154
5943854836741,3.011452343,1,-1.618480322265625,7.432799053955078,4.030638494873046
5943858173095,3.014788697,1,-1.4377180969238281,7.41244833984375,3.852270471191406
5943861504293,3.018119895,1,-1.2785036865234374,7.474697583007812,3.9719805541992184
5943864842887,3.021458489,1,-1.1863269226074218,7.572859851074218,4.14316597290039
5943868172678,3.02478828,1,-1.0378864196777342,7.580042456054687,4.248510845947266
5943871504866,3.028120468,1,-1.0390835205078124,7.617152581787109,4.253299249267578
5943874836012,3.031451614,1,-1.0905588562011719,7.685387329101562,4.1934442077636715
5943878172991,3.034788593,1,-1.112106671142578,7.587225061035156,4.393360046386719
5943881506533,3.038122135,1,-1.2126631408691406,7.490259893798828,4.460397692871093
5943884838981,3.041454583,1,-1.3634978454589843,7.548917834472656,4.513070129394531
5943888171845,3.044787447,1,-1.4724340209960938,7.574056951904296,4.511873028564453
5943891502835,3.048118437,1,-1.5693991882324219,7.558494641113281,4.7931917236328125
5943894837158,3.05145276,1,-1.5598223815917969,7.679401824951172,4.950011932373046
5943898172991,3.054788593,1,-1.7405846069335937,7.771578588867187,5.1319712585449215
5943901505491,3.058121093,1,-1.7405846069335937,7.8709379577636716,5.31153638305664
5943904839189,3.061454791,1,-1.734599102783203,7.886500268554687,5.386953735351562
5943908172678,3.06478828,1,-3.614047406005859,8.125920434570313,5.802347723388672
5943911502210,3.068117812,1,-1.4317325927734375,7.74404526977539,4.697423657226563
5943914837783,3.071453385,1,-1.209071838378906,7.7596075805664055,4.3430818115234375
5943918172626,3.074788228,1,-1.9620482604980467,7.875726361083984,4.6651019348144525
5943921505283,3.078120885,1,-1.9141642272949217,7.700949639892578,5.701791253662109
5943924839345,3.081454947,1,-1.254561669921875,8.030152368164062,5.874173773193359
5943928171741,3.084787343,1,-1.22583125,8.192958081054687,5.787982513427734
5943931503876,3.088119478,1,-1.3539210388183593,7.808688714599609,5.917269403076172
5943934836324,3.091451926,1,-1.5322890624999999,7.739256866455078,5.728127471923828
5943938172366,3.094787968,1,-1.543062969970703,7.926004595947266,5.42047255859375
5943941505439,3.098121041,1,-1.7118541870117185,7.586027960205078,5.373785626220703
5943944838772,3.101454374,1,-1.5155296508789062,7.061697796630859,5.5545478515625
5943948172106,3.104787708,1,-1.6112977172851561,7.0640919982910155,5.346252307128906
5943951503720,3.108119322,1,-1.5286977600097655,7.307103466796875,5.284003063964843
5943954836793,3.111452395,1,-1.2521674682617188,7.107187628173827,5.406107348632812
5943958172522,3.114788124,1,-1.024718310546875,7.052120989990234,5.365405920410156
5943961505126,3.118120728,1,-0.8846575134277344,7.152677459716797,5.4013189453125
5943964838460,3.121454062,1,-1.0606313354492187,7.222109307861328,5.373785626220703
5943968170803,3.124786405,1,-0.7769184387207031,7.038952880859375,5.324704492187499
5943971503668,3.12811927,1,-0.6560112548828124,6.87614716796875,5.154716174316406
5943974836533,3.131452135,1,-0.5805939025878906,6.884526873779296,5.0960582336425775
5943978172783,3.134788385,1,-0.5327098693847656,6.806715319824218,4.967968444824218
5943981505491,3.138121093,1,-0.5997475158691405,6.834248638916015,4.92846411743164
5943984838720,3.141454322,1,-0.8319850769042968,6.865373260498046,4.936843823242187
5943988172314,3.144787916,1,-0.9074024291992187,6.861781958007812,5.002684368896484
5943991503564,3.148119166,1,-0.8786720092773437,7.005434057617187,5.109226342773437
5943994836845,3.151452447,1,-0.9241618408203125,7.017405065917968,5.110423443603516
5943998171949,3.154787551,1,-0.8259995727539062,7.030573175048827,5.194220501708984
5944001505230,3.158120832,1,-0.8128314636230468,7.133523846435547,5.305550878906249
5944004860387,3.161475989,1,-0.7733271362304687,7.308300567626953,5.3761798278808595
5944008206793,3.164822395,1,-0.7565677246093749,7.4794859863281244,5.567715960693359
5944011512366,3.168127968,1,-0.7134720947265625,7.493851196289062,5.589263775634765
5944014838251,3.171453853,1,-0.7793126403808593,7.467514978027343,5.518634826660156
5944018172522,3.174788124,1,-0.8678981018066406,7.483077288818359,5.370194323730469
5944021504137,3.178119739,1,-0.9074024291992187,7.463923675537109,5.270834954833984
5944024839397,3.181454999,1,-1.8435352783203125,7.517793212890624,5.482721801757812
5944028171793,3.184787395,1,-1.0558429321289062,7.38012661743164,4.784812017822265
5944031503772,3.188119374,1,-0.5458779785156249,7.400477331542969,4.406528155517578
5944034837522,3.191453124,1,-0.21906945190429686,7.24605132446289,4.274847064208984
5944038171272,3.194786874,1,-0.15562310791015624,7.211335400390625,4.752490295410156
5944041506637,3.198122239,1,-0.09576806640624999,7.060500695800781,5.0206408813476555
5944044839501,3.201455103,1,-0.21906945190429686,7.356184600830078,5.055356805419922
5944048172366,3.204787968,1,-0.24181436767578124,7.407659936523437,4.915296008300781
5944051502991,3.208118593,1,-0.38786066894531246,7.168239770507812,4.950011932373046
5944054837210,3.211452812,1,-0.3387795349121094,6.858190655517578,4.98592495727539
5944058172001,3.214787603,1,-0.21428104858398436,6.769605194091796,4.765658404541015
5944061505022,3.218120624,1,-0.1592144104003906,6.775590698242187,4.491522314453125
5944064839710,3.221455312,1,-0.2454056701660156,6.733692169189453,4.458003491210937
5944068171376,3.224786978,1,-0.3651157531738281,6.491877801513671,4.639962817382812
5944071502991,3.228118593,1,-0.3327940307617187,6.639121203613281,4.600458489990234
5944074836533,3.231452135,1,-0.2501940734863281,6.807912420654296,4.667496136474609
5944078172001,3.234787603,1,0.016759411621093748,6.873752966308594,4.771643908691406
5944081505647,3.238121249,1,0.00718260498046875,6.95874712524414,4.861426470947265
5944084838824,3.241454426,1,0.1304839904785156,7.040149981689453,4.965574243164062
5944088171220,3.244786822,1,0.1352723937988281,7.1215528381347655,5.052962603759766
5944091502730,3.248118332,1,0.10414777221679687,7.149086157226562,5.118803149414062
5944094836897,3.251452499,1,0.14724340209960937,7.159860064697265,5.1128176452636716
5944098173251,3.254788853,1,0.11731588134765625,7.176619476318359,5.182249493408203
5944101505647,3.258121249,1,0.10654197387695312,7.128735443115234,5.136759661865234
5944104839241,3.261454843,1,-0.09576806640624999,7.133523846435547,5.1343654602050774
5944108171897,3.264787499,1,-0.19871873779296872,7.123947039794921,5.157110375976562
5944111502783,3.268118385,1,-0.2442085693359375,7.104793426513671,5.063736511230468
5944114836272,3.271451874,1,0.01915361328125,7.0832456115722655,5.017049578857422
5944118172105,3.274787707,1,0.08020575561523437,7.1215528381347655,5.03740029296875
5944121504710,3.278120312,1,0.033518823242187495,7.0652890991210935,5.093664031982422
5944124836741,3.281452343,1,0.07422025146484375,7.089231115722656,5.197811804199218
5944128172210,3.284787812,1,0.14245499877929688,7.108384729003906,5.123591552734375
5944131503251,3.288118853,1,0.22744915771484372,6.959944226074218,5.200206005859375
5944134836220,3.291451822,1,0.26216508178710934,7.0473325866699215,5.309142181396484
5944138172939,3.294788541,1,0.277727392578125,7.01620796508789,5.1714755859374995
5944141505647,3.298121249,1,0.27174188842773433,6.848613848876953,5.045779998779296
5944144838564,3.301454166,1,0.2501940734863281,6.733692169189453,5.052962603759766
5944148171480,3.304787082,1,0.18914193115234373,6.660669018554687,4.96677134399414
5944151502835,3.308118437,1,0.2346317626953125,6.750451580810546,4.915296008300781
5944154836845,3.311452447,1,0.3016694091796875,6.6510922119140625,5.033808990478516
5944158170751,3.314786353,1,0.3902548706054687,6.530185028076171,5.063736511230468
5944161505491,3.318121093,1,0.5518634826660156,6.556521246337891,5.08169302368164
5944164838616,3.321454218,1,0.5267243652343749,6.490680700683593,5.050568402099609
5944168172053,3.324787655,1,0.4070142822265625,6.494272003173828,5.0577510070800775
5944171502678,3.32811828,1,0.2825157958984375,6.4272343566894525,5.042188696289062
5944174836845,3.331452447,1,0.26695348510742184,6.387730029296875,4.955997436523437
5944178172053,3.334787655,1,0.2705447875976562,6.421248852539062,5.006275671386718
5944181504501,3.338120103,1,0.4908113403320312,6.3709706176757805,5.118803149414062
5944184842939,3.341458541,1,0.16998831787109375,6.495469104003906,5.258863946533203
5944188173824,3.344789426,1,0.010773907470703125,6.624755993652343,5.178658190917968
5944191503095,3.348118697,1,-0.1484405029296875,6.5206082214355465,5.142745166015625
5944194837678,3.35145328,1,-0.32561142578124996,6.568492254638672,5.199008905029297
5944198171845,3.354787447,1,-0.33039982910156246,6.676231329345702,5.210979913330078
5944201504866,3.358120468,1,-0.28371289672851563,6.74805737915039,5.257666845703125
5944204839241,3.361454843,1,-0.11252747802734374,6.888118176269531,5.404910247802734
5944208171897,3.364787499,1,0.009576806640625,7.080851409912109,5.553350750732421
5944211504657,3.368120259,1,0.08140285644531249,7.174225274658203,5.7149593627929685
5944214836897,3.371452499,1,0.0909796630859375,7.210138299560547,5.8226984375
5944218170439,3.374786041,1,0.12210428466796874,7.189787585449218,5.748478186035156
5944221505960,3.378121562,1,-0.12569558715820311,7.1778165771484375,5.4899044067382805
5944224839449,3.381455051,1,-0.26815058593749996,7.0844427124023435,5.679046337890624
5944228172157,3.384787759,1,-0.34117373657226563,7.055712292480468,5.480327600097656
5944231502678,3.38811828,1,-0.34715924072265625,7.032967376708984,5.476736297607421
5944234837001,3.391452603,1,-0.4070142822265625,7.01620796508789,5.431246466064453
5944238172418,3.39478802,1,-0.42497079467773435,6.988674645996094,5.279214660644531
5944241505439,3.398121041,1,-0.3459621398925781,6.982689141845703,5.461173986816406
5944244838876,3.401454478,1,-0.33518823242187495,7.043741284179687,5.404910247802734
5944248171116,3.404786718,1,-0.3387795349121094,7.05451519165039,5.378574029541015
5944251503668,3.40811927,1,-0.3112462158203125,7.006631158447266,5.431246466064453
5944254836793,3.411452395,1,-0.41060558471679687,6.987477545166016,5.404910247802734
5944258171897,3.414787499,1,-0.354341845703125,7.085639813232421,5.3390697021484375
5944261504918,3.41812052,1,-0.6212953308105469,7.060500695800781,5.397727642822265
5944264838720,3.421454322,1,-0.853532891845703,7.017405065917968,5.436034869384765
5944268172730,3.424788332,1,-0.6404489440917969,6.922834100341796,5.219359619140625
5944271503616,3.428119218,1,-0.48243163452148435,6.964732629394531,5.084087225341796
5944274836532,3.431452134,1,-0.2741360900878906,7.0090253601074215,5.157110375976562
5944278171949,3.434787551,1,-0.15203180541992187,7.005434057617187,5.122394451904297
5944281504710,3.438120312,1,-0.3399766357421875,7.1395093505859375,5.079298822021484
5944284838928,3.44145453,1,-0.35314474487304687,7.187393383789062,4.96677134399414
5944288172782,3.444788384,1,-0.47764323120117186,7.134720947265625,4.8877626892089845
5944291503928,3.44811953,1,-0.6212953308105469,7.129932543945312,4.902127899169922
5944294836689,3.451452291,1,-0.5829881042480468,7.165845568847656,4.847061260986328
5944298172470,3.454788072,1,-0.55545478515625,7.243657122802734,4.791994622802734
5944301505022,3.458120624,1,-0.5398924743652344,7.319074475097656,4.908113403320312
5944304839397,3.461454999,1,-0.430956298828125,7.429207751464843,4.9416322265625
5944308172262,3.464787864,1,-0.35194764404296874,7.542932330322265,4.92846411743164
5944311502574,3.468118176,1,-0.3938461730957031,7.544129431152343,4.94761773071289
5944314836272,3.471451874,1,-0.42497079467773435,7.485471490478515,4.824316345214844
5944318173147,3.474788749,1,-0.5315127685546874,7.4782888854980465,4.920084411621094
5944321505751,3.478121353,1,-0.6332663391113281,7.448361364746093,4.885368487548828
5944324839293,3.481454895,1,-0.7314286071777343,7.4040686340332025,4.872200378417968
5944328171897,3.484787499,1,-0.6787561706542968,7.454346868896484,4.8877626892089845
5944331503147,3.488118749,1,-0.6751648681640625,7.5153990112304685,5.035006091308594
5944334835699,3.491451301,1,-0.6093243225097655,7.5153990112304685,5.364208819580078
5944338171949,3.494787551,1,-0.5710170959472656,7.687781530761718,5.528211633300781
5944341504553,3.498120155,1,-0.4704606262207031,7.727285858154296,5.6383449096679685
5944344838043,3.501453645,1,-0.4848258361816406,7.80150610961914,5.773617303466796
5944348171324,3.504786926,1,-0.5207388610839844,7.769184387207031,5.764040496826172
5944351503772,3.508119374,1,-0.6356605407714844,7.753622076416015,5.728127471923828
5944354836689,3.511452291,1,-0.6943184814453125,7.678204724121093,5.754463690185546
5944358171741,3.514787343,1,-0.7733271362304687,7.607575775146484,5.785588311767578
5944361505751,3.518121353,1,-0.7841010437011718,7.570465649414062,5.799953521728515
5944364839032,3.521454634,1,-0.8008604553222656,7.539341027832031,5.893327386474609
5944368171324,3.524786926,1,-0.6955155822753906,7.449558465576171,5.917269403076172
5944371502678,3.52811828,1,-0.6883329772949218,7.437587457275391,6.019022973632812
5944374836012,3.531451614,1,-0.6691793640136718,7.349001995849609,5.98191284790039
5944378172210,3.534787812,1,-0.6452373474121094,7.250839727783203,5.91846650390625
5944381503928,3.53811953,1,-0.6236895324707031,7.174225274658203,5.945999822998046
5944384839345,3.541454947,1,-0.6081272216796875,7.056909393310547,5.881356378173828
5944388172210,3.544787812,1,-0.5961562133789062,6.968323931884766,5.896918688964844
5944391503147,3.548118749,1,-0.5781997009277343,6.924031201171875,5.798756420898437
5944394836116,3.551451718,1,-0.5961562133789062,6.763619689941406,5.728127471923828
5944398173199,3.554788801,1,-0.6739677673339843,6.7839704040527335,5.747281085205078
5944401580595,3.558196197,1,-0.6332663391113281,6.755239984130859,5.6946086486816405
5944404855230,3.561470832,1,-0.6009446166992187,6.775590698242187,5.76523759765625
5944408186741,3.564802343,1,-0.5434837768554687,6.734889270019531,5.597643481445312
5944411515126,3.568130728,1,-0.5363011718749999,6.819883428955078,5.644330413818359
5944414849553,3.571465155,1,-0.5386953735351562,6.756437084960937,5.691017346191406
5944418182366,3.574797968,1,-0.5279214660644531,6.835445739746094,5.548562347412109
5944421519032,3.578134634,1,-0.44891281127929683,6.801926916503906,5.615599993896484
5944424852834,3.581468436,1,-0.469263525390625,6.925228302001953,5.711368060302734
5944428187262,3.584802864,1,-0.5303156677246094,6.957550024414062,5.742492681884765
5944431516480,3.588132082,1,-0.6105214233398437,7.049726788330077,5.779602807617187
5944434849553,3.591465155,1,-0.6464344482421874,7.126341241455077,5.883750579833984
5944438182470,3.594798072,1,-0.6835445739746093,7.186196282958984,5.971138940429687
5944441518772,3.598134374,1,-0.7230489013671875,7.242460021972656,6.054935998535156
5944444850022,3.601465624,1,-0.709880792236328,7.3466077941894525,6.092046124267577
5944448184970,3.604800572,1,-0.6811503723144531,7.364564306640625,6.167463476562499
5944451516637,3.608132239,1,-0.7050923889160156,7.429207751464843,6.19260259399414
5944454849345,3.611464947,1,-0.7134720947265625,7.433996154785156,6.157886669921875
5944458183720,3.614799322,1,-0.7565677246093749,7.395688928222656,6.087257720947266
5944461518928,3.61813453,1,-0.709880792236328,7.357381701660156,6.010643267822266
5944464849814,3.621465416,1,-0.8044517578125,7.362170104980469,5.934028814697265
5944468186220,3.624801822,1,-0.7852981445312499,7.30351216430664,5.900509991455078
5944471515751,3.628131353,1,-0.8367734802246093,7.236474517822265,5.823895538330078
5944474848980,3.631464582,1,-0.7613561279296874,7.2915411560058585,5.663484027099609
5944478183459,3.634799061,1,-0.6428431457519531,7.181407879638671,5.561730456542969
5944481520439,3.638136041,1,-0.5494692810058593,7.1778165771484375,5.495889910888671
5944484853720,3.641469322,1,-0.4429273071289062,7.145494854736327,5.439626171875
5944488185699,3.644801301,1,-0.2920926025390625,7.132326745605468,5.33068999633789
5944491515751,3.648131353,1,-0.1592144104003906,7.079654309082031,5.272032055664062
5944494849084,3.651464686,1,-0.18315642700195311,7.097610821533203,5.213374114990234
5944498182157,3.654797759,1,-0.20350714111328125,6.986280444335937,5.060145208740234
5944501556428,3.65817203,1,-0.17597382202148437,6.988674645996094,4.997895965576172
5944504861168,3.66147677,1,-0.22266075439453123,6.924031201171875,4.917690209960937
5944508188512,3.664804114,1,-0.23343466186523437,6.864176159667968,4.891353991699218
5944511517262,3.668132864,1,-0.19512743530273435,6.817489227294922,4.724956976318359
5944514850334,3.671465936,1,-0.22744915771484372,6.768408093261718,4.675875842285156
5944518182626,3.674798228,1,-0.10773907470703124,6.8210805297851556,4.693832354736328
5944521519397,3.678134999,1,-0.029927520751953124,6.836642840576172,4.745307690429687
5944524853147,3.681468749,1,-0.020350714111328123,6.845022546386718,4.786009118652344
5944528185387,3.684800989,1,-0.010773907470703125,6.842628344726562,4.653130926513672
5944531516116,3.688131718,1,-0.001197100830078125,6.792350109863281,4.69263525390625
5944534849084,3.691464686,1,0.009576806640625,6.771999395751953,4.744110589599609
5944538182626,3.694798228,1,0.0047884033203125,6.789955908203124,4.708197564697265
5944541518459,3.698134061,1,-0.033518823242187495,6.762422589111328,4.762067102050781
5944544856220,3.701471822,1,-0.10414777221679687,6.811503723144531,4.854243865966796
5944548185334,3.704800936,1,-0.020350714111328123,6.807912420654296,4.9069163024902345
5944551515803,3.708131405,1,-0.12449848632812499,6.8569935546875,4.938040924072265
5944554849241,3.711464843,1,-0.12330138549804687,6.854599353027344,4.969165545654296
5944558182730,3.714798332,1,-0.07781155395507812,6.848613848876953,5.090072729492187
5944561520074,3.718135676,1,-0.19033903198242186,6.84382544555664,5.195417602539062
5944564852314,3.721467916,1,-0.15682020874023436,6.894103680419922,5.1690813842773435
5944568186116,3.724801718,1,-0.19153613281249998,6.89530078125,5.342661004638671
5944571515907,3.728131509,1,-0.20709844360351562,6.907271789550781,5.385756634521484
5944574850491,3.731466093,1,-0.2861070983886719,6.9360022094726554,5.419275457763671
5944578183303,3.734798905,1,-0.2741360900878906,6.926425402832031,5.467159490966797
5944581519189,3.738134791,1,-0.3447650390625,6.962338427734375,5.471947894287109
5944584852157,3.741467759,1,-0.38307226562499996,6.9898717468261715,5.5270145324707025
5944588185126,3.744800728,1,-0.3268085266113281,7.0090253601074215,5.523423229980469
5944591515855,3.748131457,1,-0.3746925598144531,7.004236956787109,5.577292767333984
5944594849032,3.751464634,1,-0.3794809631347656,7.000645654296875,5.53539423828125
5944598182366,3.754797968,1,-0.41539398803710936,7.055712292480468,5.589263775634765
5944601561272,3.758176874,1,-0.40462008056640625,7.088034014892577,5.536591339111328
5944604853303,3.761468905,1,-0.4034229797363281,7.094019519042968,5.542576843261719
5944608186584,3.764802186,1,-0.4417302062988281,7.097610821533203,5.662286926269531
5944611515647,3.768131249,1,-0.5111620544433594,7.1203557373046875,5.6024318847656245
5944614850022,3.771465624,1,-0.51714755859375,7.174225274658203,5.673060833740234
5944618182886,3.774798488,1,-0.51714755859375,7.173028173828125,5.625176800537109
5944621518772,3.778134374,1,-0.5829881042480468,7.208941198730468,5.724536169433593
5944624852782,3.781468384,1,-0.5446808776855468,7.214926702880859,5.813121630859374
5944628185074,3.784800676,1,-0.5255272644042969,7.285555651855469,5.829881042480468
5944631515647,3.788131249,1,-0.48243163452148435,7.224503509521484,5.805939025878906
5944634850022,3.791465624,1,-0.37708676147460934,7.32266577758789,5.792770916748046
5944638184032,3.794799634,1,-0.37229835815429685,7.389703424072265,5.831078143310546
5944641519241,3.798134843,1,-0.3854664672851562,7.357381701660156,5.705382556152343
5944644852105,3.801467707,1,-0.34117373657226563,7.279570147705078,5.728127471923828
5944648185230,3.804800832,1,-0.3495534423828125,7.196970190429687,5.736507177734374
5944651515751,3.808131353,1,-0.33039982910156246,7.176619476318359,5.589263775634765
5944654850439,3.811466041,1,-0.34117373657226563,7.11197603149414,5.499481213378906
5944658182782,3.814798384,1,-0.29089550170898437,7.061697796630859,5.374982727050781
5944661519241,3.818134843,1,-0.258573779296875,6.963535528564453,5.343858105468749
5944664853407,3.821469009,1,-0.30406361083984373,6.965929730224609,5.371391424560547
5944668185647,3.824801249,1,-0.1484405029296875,6.918045697021484,5.348646508789062
5944671516168,3.82813177,1,-0.16998831787109375,6.890512377929687,5.391742138671875
5944674849189,3.831464791,1,-0.11133037719726561,6.851008050537109,5.312733483886719
5944678182314,3.834797916,1,-0.12090718383789062,6.846219647216796,5.266046551513671
5944681519241,3.838134843,1,-0.17118541870117188,6.823474731445312,5.284003063964843
5944684851845,3.841467447,1,-0.14604630126953125,6.750451580810546,5.078101721191406
5944688184709,3.844800311,1,-0.16160861206054686,6.72890376586914,5.129577056884766
5944691515907,3.848131509,1,-0.239420166015625,6.68461103515625,5.147533569335937
5944694849605,3.851465207,1,-0.2657563842773437,6.673837127685546,5.106832141113281
5944698182574,3.854798176,1,-0.30406361083984373,6.7277066650390625,5.0960582336425775
5944701518407,3.858134009,1,-0.239420166015625,6.751648681640624,5.118803149414062
5944704853980,3.861469582,1,-0.23822306518554687,6.754042883300781,5.167884283447266
5944708187261,3.864802863,1,-0.22744915771484372,6.813897924804687,5.236119030761718
5944711516584,3.868132186,1,-0.20829554443359374,6.909665991210937,5.1511248718261715
5944714849345,3.871464947,1,-0.15203180541992187,6.883329772949218,5.187037896728516
5944718183876,3.874799478,1,-0.1197100830078125,6.945579016113281,5.305550878906249
5944721518772,3.878134374,1,-0.15562310791015624,7.0269818725585935,5.270834954833984
5944724852366,3.881467968,1,-0.2825157958984375,7.038952880859375,5.197811804199218
5944728185074,3.884800676,1,-0.34715924072265625,7.034164477539062,5.210979913330078
5944731515751,3.888131353,1,-0.3399766357421875,7.07366880493164,5.346252307128906
5944734849501,3.891465103,1,-0.4525041137695312,7.041347082519531,5.257666845703125
5944738183199,3.894798801,1,-0.4644751220703125,7.137115148925781,5.295974072265625
5944741518824,3.898134426,1,-0.5518634826660156,7.1407064514160155,5.342661004638671
5944744852886,3.901468488,1,-0.5662286926269531,7.214926702880859,5.463568188476562
5944748185386,3.904800988,1,-0.4991910461425781,7.213729602050781,5.49708701171875
5944751516168,3.90813177,1,-0.507570751953125,7.37414111328125,5.501875415039062
5944754850022,3.911465624,1,-0.5889736083984375,7.37414111328125,5.61200869140625
5944758182782,3.914798384,1,-0.5063736511230469,7.394491827392578,5.655104321289063
5944761519605,3.918135207,1,-0.47285482788085936,7.408857037353515,5.664681127929687
5944764853928,3.92146953,1,-0.4752490295410156,7.414842541503906,5.699397052001952
5944768186532,3.924802134,1,-0.5662286926269531,7.350199096679687,5.7329158752441405
5944771515803,3.928131405,1,-0.5758054992675781,7.308300567626953,5.649118817138672
5944774849397,3.931464999,1,-0.6619967590332031,7.293935357666015,5.6563014221191406
5944778182834,3.934798436,1,-0.7481880187988281,7.358578802490234,5.722141967773437
5944781519241,3.938134843,1,-0.7242460021972655,7.280767248535156,5.759252093505859
5944784853095,3.941468697,1,-0.7805097412109374,7.287949853515625,5.708973858642578
5944788186272,3.944801874,1,-0.7529764221191406,7.297526660156249,5.717353564453124
5944791515959,3.948131561,1,-0.699106884765625,7.279570147705078,5.7520694885253905
5944794849084,3.951464686,1,-0.6967126831054687,7.310694769287109,5.7520694885253905
5944798183407,3.954799009,1,-0.6739677673339843,7.264007836914062,5.7520694885253905
5944801519605,3.958135207,1,-0.6332663391113281,7.296329559326171,5.652710119628906
5944804853616,3.961469218,1,-0.6607996582031249,7.2723875427246085,5.79037671508789
5944808185595,3.964801197,1,-0.5925649108886718,7.264007836914062,5.607220288085937
5944811516584,3.968132186,1,-0.5901707092285156,7.193378887939453,5.5270145324707025
5944814849814,3.971465416,1,-0.5363011718749999,7.22689771118164,5.482721801757812
5944818183251,3.974798853,1,-0.5243301635742187,7.204152795410156,5.413289953613281
5944821527991,3.978143593,1,-0.47285482788085936,7.126341241455077,5.398924743652343
5944824854449,3.981470051,1,-0.4261678955078125,7.168239770507812,5.240907434082031
5944828185439,3.984801041,1,-0.3842693664550781,7.167042669677734,5.1511248718261715
5944831516793,3.988132395,1,-0.48123453369140623,7.050923889160156,5.176263989257812
5944834849657,3.991465259,1,-0.430956298828125,7.088034014892577,5.123591552734375
5944838183043,3.994798645,1,-0.3555389465332031,7.145494854736327,4.984727856445312
5944841520230,3.998135832,1,-0.17597382202148437,7.080851409912109,5.102043737792968
5944844852470,4.001468072,1,-0.19153613281249998,6.988674645996094,5.272032055664062
5944848185282,4.004800884,1,-0.2549824768066406,7.167042669677734,4.98592495727539
5944851515959,4.008131561,1,-0.20231004028320312,7.211335400390625,4.837484454345703
5944854849813,4.011465415,1,-0.19512743530273435,7.159860064697265,4.929661218261718
5944858180386,4.014795988,1,-0.08499415893554688,7.041347082519531,5.049371301269531
5944861518251,4.018133853,1,-0.05626373901367187,7.082048510742187,4.984727856445312
5944864853720,4.021469322,1,0.025139117431640625,7.175422375488281,4.799177227783203
5944868185438,4.02480104,1,0.1388636962890625,7.100005023193359,5.064933612060546
5944871515699,4.028131301,1,0.07302315063476562,6.950367419433594,4.964377142333984
5944874845126,4.031460728,1,0.10175357055664062,6.930016705322266,4.9069163024902345
5944878185334,4.034800936,1,0.12449848632812499,6.924031201171875,4.881777185058594
5944881519866,4.038135468,1,0.10175357055664062,6.845022546386718,4.910507604980468
5944884852678,4.04146828,1,0.0430956298828125,6.754042883300781,4.971559747314453
5944888185022,4.044800624,1,-0.028730419921875,6.739677673339843,4.916493109130859
5944891515386,4.048130988,1,-0.02633621826171875,6.804321118164062,4.939238024902344
5944894850959,4.051466561,1,-0.04668693237304687,6.7803791015625,5.058948107910156
5944898184918,4.05480052,1,-0.05626373901367187,6.818686328125,5.146336468505859
5944901520178,4.05813578,1,-0.1352723937988281,6.658274816894531,5.097255334472656
5944904856949,4.061472551,1,-0.1867477294921875,6.695384942626953,5.0769046203613275
5944908189241,4.064804843,1,-0.17238251953125,6.623558892822265,5.1331683593749995
5944911518928,4.06813453,1,-0.3124433166503906,6.582857464599609,5.2444987365722655
5944914852991,4.071468593,1,-0.3746925598144531,6.6343328002929685,5.2073886108398435
5944918185855,4.074801457,1,-0.40940848388671874,6.718129858398437,5.287594366455078
5944921522001,4.078137603,1,-0.44891281127929683,6.6893994384765625,5.347449407958984
5944924855022,4.081470624,1,-0.5566518859863281,6.653486413574218,5.403713146972656
5944928188668,4.08480427,1,-0.6619967590332031,6.511031414794921,5.256469744873047
5944931519136,4.088134738,1,-0.6859387756347656,6.629544396972656,5.218162518310547
5944934852418,4.09146802,1,-0.8990227233886718,6.58884296875,5.274426257324219
5944938185438,4.09480104,1,-0.9421183532714843,6.584054565429687,5.31153638305664
5944941522053,4.098137655,1,-0.9959878906249999,6.619967590332031,5.280411761474609
5944944854813,4.101470415,1,-0.9133879333496093,6.696582043457031,5.2265422241210935
5944948187730,4.104803332,1,-1.0187328063964842,6.692990740966796,5.1343654602050774
5944951518824,4.108134426,1,-1.006761798095703,6.719326959228515,5.143942266845703
5944954852522,4.111468124,1,-1.131260284423828,6.769605194091796,5.048174200439453
5944958181636,4.114797238,1,-1.1097124694824219,6.817489227294922,4.953603234863281
5944961517730,4.118133332,1,-1.0953472595214844,6.985083343505859,4.991910461425781
5944964855491,4.121471093,1,-1.2641384765625,7.127538342285156,4.905719201660156
5944968188616,4.124804218,1,-1.3072341064453123,7.218518005371093,4.900930798339844
5944971518928,4.12813453,1,-1.3646949462890625,7.339425189208984,4.930858319091796
5944974851897,4.131467499,1,-1.4377180969238281,7.4782888854980465,4.904522100830078
5944978187261,4.134802863,1,-1.4772224243164063,7.619546783447265,4.994304663085937
5944981521636,4.138137238,1,-1.476025323486328,7.756016278076172,4.964377142333984
5944984855334,4.141470936,1,-1.5370774658203123,7.920019091796875,5.103240838623047
5944988188563,4.144804165,1,-1.6328455322265625,8.225279803466796,5.149927770996094
5944991518459,4.148134061,1,-1.6675614562988281,8.352172491455077,5.1152118469238275
5944994852261,4.151467863,1,-1.6747440612792968,8.513781103515624,5.237316131591797
5944998185959,4.154801561,1,-1.6675614562988281,8.649053497314453,5.239710333251953
5945001521636,4.158137238,1,-1.618480322265625,8.738836059570312,5.25407554321289
5945004854918,4.16147052,1,-1.562216583251953,8.786720092773438,5.275623358154297
5945008189032,4.164804634,1,-1.5095441467285156,8.781931689453124,5.173869787597656
5945011519084,4.168134686,1,-1.4532804077148436,8.798691101074219,5.08169302368164
5945014851845,4.171467447,1,-1.4413093994140624,8.754398370361328,4.988319158935546
5945018185282,4.174800884,1,-1.388636962890625,8.681375219726561,4.908113403320312
5945021521011,4.178136613,1,-1.291671795654297,8.582015850830077,4.7201685729980465
5945024855178,4.18147078,1,-1.246181964111328,8.461108666992187,4.659116430664063
5945028188043,4.184803645,1,-1.22583125,8.315062365722655,4.557362860107421
5945031518095,4.188133697,1,-1.1875240234375,8.197746484375,4.396951348876953
5945034851688,4.19146729,1,-1.0857704528808594,8.118737829589843,4.39216294555664
5945038184605,4.194800207,1,-1.064222637939453,7.9092451843261715,4.356249920654297
5945041521480,4.198137082,1,-1.052251629638672,7.851784344482422,4.33470210571289
5945044854918,4.20147052,1,-0.9935936889648437,7.739256866455078,4.3610383239746096
5945048189084,4.204804686,1,-0.9469067565917968,7.708132244873046,4.416104962158203
5945051518720,4.208134322,1,-0.9121908325195311,7.633911993408202,4.544194750976562
5945054852886,4.211468488,1,-0.6739677673339843,7.581239556884765,4.675875842285156
5945058184918,4.21480052,1,-0.5746083984375,7.518990313720702,4.791994622802734
5945061521272,4.218136874,1,-0.5482721801757812,7.453149768066406,4.7955859252929685
5945064855699,4.221471301,1,-0.5494692810058593,7.3669585083007805,4.823119244384765
5945068188199,4.224803801,1,-0.5291185668945312,7.271190441894531,4.819527941894531
5945071518407,4.228134009,1,-0.6069301208496093,7.167042669677734,5.00507857055664
5945074851845,4.231467447,1,-0.6883329772949218,7.173028173828125,5.039794494628906
5945078185386,4.234800988,1,-0.6811503723144531,6.87614716796875,5.193023400878906
5945081521740,4.238137342,1,-0.7481880187988281,6.791153009033203,5.3007624755859375
5945084855022,4.241470624,1,-0.7110778930664062,6.726509564208984,5.345055206298828
5945088187418,4.24480302,1,-0.689530078125,6.726509564208984,5.432443566894531
5945091518303,4.248133905,1,-0.6643909606933593,6.696582043457031,5.6024318847656245
5945094852365,4.251467967,1,-0.6296750366210937,6.6510922119140625,5.685031842041015
5945098185282,4.254800884,1,-0.5913678100585937,6.640318304443359,5.692214447021484
5945101521480,4.258137082,1,-0.6344634399414062,6.563703851318359,5.6766521362304685
5945104855022,4.261470624,1,-0.6165069274902344,6.451176373291015,5.762843395996094
5945108188407,4.264804009,1,-0.7278373046875,6.415263348388671,5.7317187744140625
5945111518824,4.268134426,1,-0.8499415893554687,6.368576416015625,5.693411547851563
5945114852782,4.271468384,1,-0.8499415893554687,6.32667788696289,5.623979699707031
5945118185543,4.274801145,1,-0.8918401184082031,6.336254693603515,5.553350750732421
5945121521897,4.278137499,1,-0.834379278564453,6.320692382812499,5.553350750732421
5945124855178,4.28147078,1,-0.7912836486816406,6.297947467041015,5.513846423339843
5945128188199,4.284803801,1,-0.7757213378906249,6.356605407714843,5.421669659423828
5945131518303,4.288133905,1,-0.6751648681640625,6.373364819335937,5.221753820800781
5945134852053,4.291467655,1,-0.7505822204589844,6.318298181152343,5.214571215820312
5945138185751,4.294801353,1,-0.8056488586425781,6.491877801513671,5.105635040283203
5945141521897,4.298137499,1,-0.7649474304199219,6.612784985351562,4.96677134399414
5945144854397,4.301469999,1,-0.6931213806152343,6.701370446777343,4.965574243164062
5945148183095,4.304798697,1,-0.679953271484375,6.828263134765624,4.96078583984375
5945151518824,4.308134426,1,-0.7829039428710937,6.9348051086425775,4.855440966796874
5945154852834,4.311468436,1,-0.7553706237792969,7.037755780029296,4.809951135253906
5945158185543,4.314801145,1,-0.8667010009765624,7.062894897460937,4.715380169677734
5945161521063,4.318136665,1,-1.0199299072265624,7.206546997070312,4.695029455566406
5945164855438,4.32147104,1,-1.0666168395996094,7.271190441894531,4.669890338134765
5945168187938,4.32480354,1,-0.9516951599121093,7.569268548583984,4.714183068847656
5945171518876,4.328134478,1,-0.8403647827148437,7.659051110839843,4.783614916992187
5945174852209,4.331467811,1,-0.8786720092773437,7.785943798828124,4.899733697509765
5945178182209,4.334797811,1,-0.8678981018066406,7.868543756103515,4.856638067626953
5945181518720,4.338134322,1,-0.968454571533203,7.937975604248046,4.716577270507813
5945184857678,4.34147328,1,-1.0965443603515623,7.845798840332031,4.671087438964843
5945188188615,4.344804217,1,-1.2737152832031249,7.922413293457031,4.547786053466797
5945191519605,4.348135207,1,-1.3778630554199218,7.785943798828124,4.408922357177734
5945194852313,4.351467915,1,-1.504755743408203,7.769184387207031,4.364629626464843
5945198185490,4.354801092,1,-1.5801730957031248,7.770381488037109,4.358644122314453
5945201521220,4.358136822,1,-1.600523809814453,7.7224974548339835,4.412513659667969
5945204855751,4.361471353,1,-1.600523809814453,7.742848168945312,4.405331054687499
5945208184449,4.364800051,1,-1.495178936767578,7.808688714599609,4.384980340576171
5945211518563,4.368134165,1,-1.438915197753906,7.679401824951172,4.434061474609375
5945214851897,4.371467499,1,-1.4018050720214843,7.621940985107422,4.448426684570312
5945218186115,4.374801717,1,-1.3946224670410154,7.674613421630859,4.364629626464843
5945221522313,4.378137915,1,-1.4065934753417968,7.615955480957031,4.332307904052734
5945224866897,4.381482499,1,-1.4425065002441406,7.596801867675781,4.3801919372558595
5945228189709,4.384805311,1,-1.426944189453125,7.371746911621093,4.237736938476562
5945231518772,4.388134374,1,-1.7310078002929687,7.349001995849609,4.188655804443359
5945234851949,4.391467551,1,-1.6460136413574218,7.292738256835937,4.110844250488281
5945238185699,4.394801301,1,-1.5035586425781249,7.2915411560058585,4.152742779541016
5945241522053,4.398137655,1,-1.4377180969238281,7.204152795410156,4.225765930175781
5945244855438,4.40147104,1,-1.3407529296874998,7.159860064697265,4.291606475830078
5945248188095,4.404803697,1,-1.3730746520996093,7.128735443115234,4.1934442077636715
5945251518407,4.408134009,1,-1.3263877197265623,7.144297753906249,4.165910888671875
5945254852470,4.411468072,1,-1.291671795654297,7.116764434814453,4.114435552978516
5945258185230,4.414800832,1,-1.3730746520996093,7.011419561767577,4.052186309814453
5945261521011,4.418136613,1,-1.1575965026855468,6.982689141845703,4.059368914794922
5945264855022,4.421470624,1,-1.1552023010253905,6.8785413696289055,4.056974713134766
5945268187990,4.424803592,1,-1.1827356201171875,6.924031201171875,3.9911341674804683
5945271519761,4.428135363,1,-1.064222637939453,6.97790073852539,3.9707834533691404
5945274852365,4.431467967,1,-1.2737152832031249,7.186196282958984,4.078522528076172
5945278185855,4.434801457,1,-0.7278373046875,7.194575988769531,3.8391023620605464
5945281521063,4.438136665,1,-0.86191259765625,7.180210778808593,3.8762124877929685
5945284855126,4.441470728,1,-0.8451531860351562,7.1778165771484375,3.906140008544922
5945288188355,4.444803957,1,-1.0079588989257813,7.229291912841797,3.8762124877929685
5945291518824,4.448134426,1,-1.0462661254882812,7.217320904541015,3.8798037902832028
5945294852417,4.451468019,1,-1.102529864501953,7.286752752685547,3.9085342102050777
5945298185282,4.454800884,1,-1.121683477783203,7.302315063476562,3.949235638427734
5945301521897,4.458137499,1,-1.158793603515625,7.271190441894531,4.053383410644531
5945304855959,4.461471561,1,-1.218648645019531,7.307103466796875,4.164713787841797
5945308183042,4.464798644,1,-1.2988544006347655,7.378929516601562,4.273649963378906
5945311517938,4.46813354,1,-1.3754688537597655,7.411251239013671,4.483142608642578
5945314852313,4.471467915,1,-1.3730746520996093,7.467514978027343,4.734533782958984
5945318185542,4.474801144,1,-1.4796166259765624,7.485471490478515,4.7752352111816405
5945321522105,4.478137707,1,-1.7585411193847655,7.583633758544922,4.866214874267578
5945324855438,4.48147104,1,-1.905784521484375,7.612364178466796,5.061342309570312
5945328188303,4.484803905,1,-2.0470424194335934,7.6614453125,5.142745166015625
5945331519188,4.48813479,1,-2.1906945190429687,7.697358337402343,5.266046551513671
5945334852365,4.491467967,1,-2.175132208251953,7.7967177062988275,5.424063861083984
5945338185334,4.494800936,1,-2.3319524169921872,7.80150610961914,5.5545478515625
5945341521688,4.49813729,1,-2.424129180908203,7.860164050292968,5.853823059082031
5945344855490,4.501471092,1,-2.492363928222656,7.902062579345703,5.925649108886718
5945348188355,4.504803957,1,-2.6970681701660153,8.003816149902343,6.035782385253906
5945351518824,4.508134426,1,-2.7904420349121093,8.00022484741211,6.05852730102539
5945354852001,4.511467603,1,-2.932897033691406,7.995436444091796,6.093243225097656
5945358185074,4.514800676,1,-2.961627453613281,7.990648040771484,6.156689569091797
5945361521220,4.518136822,1,-3.0166940917968748,8.01818135986328,6.224924316406249
5945364854501,4.521470103,1,-3.086125939941406,8.03134946899414,6.268019946289062
5945368187574,4.524803176,1,-3.1028853515624997,7.9295958984374995,6.23090982055664
5945371519084,4.528134686,1,-3.1974563171386716,7.884106066894531,6.177040283203125
5945374852209,4.531467811,1,-3.2788591735839843,7.9272016967773435,6.0345852844238275
5945378185022,4.534800624,1,-3.2740707702636715,7.9272016967773435,6.098031628417968
5945381521220,4.538136822,1,-3.2836475769042965,7.970297326660156,6.046556292724609
5945384855178,4.54147078,1,-3.114856359863281,7.988253839111327,5.919663604736328
5945388188563,4.544804165,1,-3.034650604248047,8.03134946899414,5.919663604736328
5945391519449,4.548135051,1,-3.0214824951171875,8.060079888916015,5.759252093505859
5945394852522,4.551468124,1,-2.914940521240234,8.02416686401367,5.693411547851563
5945398185438,4.55480104,1,-3.037044805908203,8.03134946899414,5.6012347839355465
5945401521740,4.558137342,1,-3.0214824951171875,8.050503082275391,5.147533569335937
5945404852053,4.561467655,1,-3.0502129150390624,7.9834654357910155,4.984727856445312
5945408190595,4.564806197,1,-2.981978167724609,7.977479931640625,4.944026428222656
5945411519084,4.568134686,1,-2.825157958984375,7.989450939941406,4.7943888244628905
5945414852261,4.571467863,1,-2.798821740722656,8.040926275634765,4.604049792480469
5945418185074,4.574800676,1,-2.7461493041992187,8.039729174804688,4.519055633544921
5945421521740,4.578137342,1,-2.6324247253417967,8.117540728759765,4.413710760498047
5945424855855,4.581471457,1,-2.615665313720703,8.046911779785155,4.328716601562499
5945428187782,4.584803384,1,-2.6036943054199218,8.003816149902343,4.113238452148437
5945431517782,4.588133384,1,-2.5941174987792968,7.8709379577636716,3.8235400512695312
5945434852522,4.591468124,1,-2.5342624572753905,7.995436444091796,3.6679169433593746
5945438185490,4.594801092,1,-2.3391350219726563,8.033743670654296,3.575740179443359
5945441521480,4.598137082,1,-2.31758720703125,7.970297326660156,3.5122938354492184
5945444855178,4.60147078,1,-2.2661118713378903,7.9092451843261715,3.404554760742187
5945448187938,4.60480354,1,-2.1021090576171875,7.845798840332031,3.342305517578125
5945451518511,4.608134113,1,-2.0841525451660154,7.805097412109374,3.151966485595703
5945454848355,4.611463957,1,-2.096123553466797,7.775169891357422,3.068169427490234
5945458186220,4.614801822,1,-1.9919757812499999,7.81467421875,2.940079638671875
5945461522001,4.618137603,1,-1.8279729675292968,7.698555438232422,2.864662286376953
5945464856688,4.62147229,1,-1.9237410339355467,7.632714892578124,2.8215666564941406
5945468188303,4.624803905,1,-1.68551796875,7.611167077636718,2.779668127441406
5945471518772,4.628134374,1,-1.6735469604492186,7.607575775146484,2.8095956481933593
5945474851376,4.631466978,1,-1.6244658264160154,7.558494641113281,2.711433380126953
5945478185803,4.634801405,1,-1.6915034729003906,7.495048297119141,2.6779145568847653
5945481521324,4.638136926,1,-1.590947003173828,7.50821640625,2.73896669921875
5945484854553,4.641470155,1,-1.6651672546386718,7.467514978027343,2.7246014892578123
5945488187782,4.644803384,1,-1.6436194396972654,7.499836700439452,2.9496564453125
5945491518667,4.648134269,1,-1.6747440612792968,7.572859851074218,3.019088293457031
5945494852678,4.65146828,1,-1.8327613708496093,7.568071447753906,3.1555577880859373
5945498185386,4.654800988,1,-1.8411410766601561,7.6470801025390625,3.239354846191406
5945501521636,4.658137238,1,-1.8614917907714843,7.706935144042968,3.5122938354492184
5945504872678,4.66148828,1,-1.9285294372558592,7.791929302978515,3.6679169433593746
5945508188772,4.664804374,1,-1.9859902770996092,7.845798840332031,3.84987626953125
5945511517886,4.668133488,1,-2.041056915283203,7.893682873535155,4.011484881591796
5945514851897,4.671467499,1,-2.090138049316406,7.95473501586914,4.151545678710937
5945518185126,4.674800728,1,-2.1595698974609374,7.951143713378905,4.495113616943359
5945521522053,4.678137655,1,-2.1787235107421874,8.092401611328125,4.704606262207031
5945524855126,4.681470728,1,-2.165555401611328,8.021772662353515,4.754884497070313
5945528187522,4.684803124,1,-2.3965958618164063,7.949946612548827,4.859032269287109
5945531519084,4.688134686,1,-2.4444798950195312,7.860164050292968,4.978742352294922
5945534851584,4.691467186,1,-2.5055320373535155,7.825448126220703,5.002684368896484
5945538185022,4.694800624,1,-2.5342624572753905,7.7787611938476555,5.08169302368164
5945541522053,4.698137655,1,-2.579752288818359,7.7033438415527336,5.121197351074218
5945544867053,4.701482655,1,-2.548627667236328,7.635109094238281,5.136759661865234
5945548190647,4.704806249,1,-2.5450363647460934,7.626729388427734,5.191826300048827
5945551519865,4.708135467,1,-2.5953145996093747,7.532158422851562,5.154716174316406
5945554852001,4.711467603,1,-2.469619012451172,7.502230902099609,5.216965417480468
5945558185647,4.714801249,1,-2.440888592529297,7.456741070556641,5.1882349975585935
5945561522053,4.718137655,1,-2.3774422485351563,7.4699091796875,5.199008905029297
5945564855334,4.721470936,1,-2.2924480895996093,7.44357296142578,5.097255334472656
5945568188042,4.724803644,1,-2.262520568847656,7.429207751464843,5.103240838623047
5945571519292,4.728134894,1,-2.1823148132324217,7.454346868896484,5.04338579711914
5945574852990,4.731468592,1,-2.1739351074218747,7.442375860595702,4.994304663085937
5945578185282,4.734800884,1,-2.157175695800781,7.357381701660156,4.862623571777344
5945581522001,4.738137603,1,-2.1416133850097654,7.353790399169921,4.853046765136718
5945584855022,4.741470624,1,-2.081758343505859,7.287949853515625,4.768052606201172
5945588188824,4.744804426,1,-2.068590234375,7.369352709960937,4.7201685729980465
5945591518824,4.748134426,1,-2.081758343505859,7.313088970947265,4.632780212402343
5945594851740,4.751467342,1,-1.9847931762695312,7.289146954345703,4.61602080078125
5945598185647,4.754801249,1,-2.0554221252441405,7.304709265136719,4.562151263427734
5945601521792,4.758137394,1,-2.019509100341797,7.316680273437499,4.401739752197265
5945604898667,4.761514269,1,-2.041056915283203,7.321468676757812,4.294000677490234
5945608188459,4.764804061,1,-2.0183119995117185,7.333439685058593,4.299986181640625
5945611518563,4.768134165,1,-2.0757728393554684,7.416039642333984,4.333505004882812
5945614851740,4.771467342,1,-2.1308394775390624,7.465120776367187,4.347870214843749
5945618185594,4.774801196,1,-2.1990742248535153,7.5153990112304685,4.316745593261719
5945621521740,4.778137342,1,-2.166752502441406,7.576451153564452,4.244919543457031
5945624856011,4.781471613,1,-2.2756886779785157,7.673416320800781,4.256890551757812
5945628187886,4.784803488,1,-2.5043349365234375,7.721300354003906,4.311957189941406
5945631518459,4.788134061,1,-2.5629928771972654,7.773972790527344,4.309562988281249
5945634852469,4.791468071,1,-2.5761609863281247,7.8709379577636716,4.203021014404297
5945638185386,4.794800988,1,-2.7246014892578123,7.848193041992187,4.3263223999023435
5945641521219,4.798136821,1,-2.577358087158203,8.048108880615233,4.266467358398438
5945644855959,4.801471561,1,-2.5534160705566404,8.169016064453125,4.349067315673828
5945648188303,4.804803905,1,-2.4875755249023435,8.239645013427733,4.341884710693359
5945651518980,4.808134582,1,-2.3127988037109373,8.323442071533202,4.435258575439453
5945654851844,4.811467446,1,-2.3151930053710936,8.391676818847655,4.484339709472656
5945658181324,4.814796926,1,-2.3032219970703123,8.389282617187499,4.402936853027343
5945661517469,4.818133071,1,-2.2960393920898436,8.372523205566406,4.389768743896484
5945664855907,4.821471509,1,-1.9943699829101562,8.373720306396484,4.359841223144531
5945668188251,4.824803853,1,-2.1906945190429687,8.457517364501953,4.592078784179687
5945671519136,4.828134738,1,-2.1787235107421874,8.22288560180664,4.690241052246093
5945674852938,4.83146854,1,-2.176329309082031,8.134300140380859,4.601655590820312
5945678185438,4.83480104,1,-2.2780828796386716,8.119934930419921,4.541800549316406
