timestamp_ns,t_s,sensor_id,ax,ay,az
5009030331368,0.056797447,1,0.21068974609375,1.7130512878417967,-11.154585534667968
5009032284754,0.058750833,1,0.2262520568847656,1.7226280944824217,-11.156979736328124
5009034283348,0.060749427,1,0.20231004028320312,1.753752716064453,-11.14022032470703
5009036285900,0.062751979,1,0.21068974609375,1.7573440185546874,-11.036072552490234
5009038280691,0.06474677,1,0.2657563842773437,1.7561469177246092,-11.251550701904296
5009040283920,0.066749999,1,0.23104046020507812,1.7489643127441405,-11.225214483642578
5009042282462,0.068748541,1,0.2166752502441406,1.725022296142578,-11.089942089843749
5009044285275,0.070751354,1,0.21787235107421873,1.7166425903320313,-11.141417425537108
5009046282098,0.072748177,1,0.2561795776367187,1.734599102783203,-11.192892761230468
5009048282358,0.074748437,1,0.23104046020507812,1.7130512878417967,-11.204863769531249
5009050280639,0.076746718,1,0.24181436767578124,1.705868682861328,-11.162965240478515
5009052283608,0.078749687,1,0.2537853759765625,1.7178396911621092,-11.215637677001952
5009054281525,0.080747604,1,0.2597708801269531,1.7573440185546874,-11.158176837158203
5009056283764,0.082749843,1,0.2442085693359375,1.7238251953125,-11.208455072021483
5009058281733,0.084747812,1,0.1927332336425781,1.7525556152343749,-11.207257971191405
5009060283139,0.086749218,1,0.2059013427734375,1.7357962036132812,-11.208455072021483
5009062279702,0.088745781,1,0.21906945190429686,1.70467158203125,-11.212046374511718
5009064283816,0.090749895,1,0.23582886352539062,1.7190367919921874,-11.133037719726563
5009066281056,0.092747135,1,0.20350714111328125,1.7130512878417967,-11.173739147949219
5009068283295,0.094749374,1,0.21428104858398436,1.7298106994628906,-11.200075366210937
5009070281473,0.096747552,1,0.24181436767578124,1.7298106994628906,-11.17254204711914
5009072283139,0.098749218,1,0.1975216369628906,1.7178396911621092,-11.180921752929686
5009074281525,0.100747604,1,0.2154781494140625,1.7393875061035156,-11.23718549194336
5009076283504,0.102749583,1,0.24660277099609373,1.6998831787109374,-11.177330450439452
5009078280900,0.104746979,1,0.21068974609375,1.7501614135742187,-11.267113012695312
5009080283973,0.106750052,1,0.18435352783203124,1.7274164978027342,-11.197681164550781
5009082281264,0.108747343,1,0.2501940734863281,1.7369933044433592,-11.207257971191405
5009084281837,0.110747916,1,0.3064578125,1.7322049011230467,-11.158176837158203
5009086280170,0.112746249,1,0.24660277099609373,1.6891092712402342,-11.189301458740234
5009088284598,0.114750677,1,0.22266075439453123,1.696291876220703,-11.200075366210937
5009090280795,0.116746874,1,0.2166752502441406,1.7262193969726563,-11.226411584472656
5009092283868,0.118749947,1,0.19393033447265623,1.7082628845214842,-11.173739147949219
5009094281056,0.120747135,1,0.2657563842773437,1.7322049011230467,-11.161768139648437
5009096283400,0.122749479,1,0.2454056701660156,1.7106570861816406,-11.215637677001952
5009098280431,0.12474651,1,0.229843359375,1.7477672119140624,-11.203666668701171
5009100283191,0.12674927,1,0.17357962036132812,1.7753005310058592,-11.11508120727539
5009102281212,0.128747291,1,0.2442085693359375,1.7405846069335937,-11.213243475341796
5009104282618,0.130748697,1,0.20709844360351562,1.7477672119140624,-11.234791290283203
5009106279650,0.132745729,1,0.201112939453125,1.6938976745605467,-11.200075366210937
5009108283243,0.134749322,1,0.2549824768066406,1.7465701110839842,-11.161768139648437
5009110281264,0.136747343,1,0.201112939453125,1.7501614135742187,-11.19887826538086
5009112283295,0.138749374,1,0.22744915771484372,1.7501614135742187,-11.245565197753905
5009114280691,0.14074677,1,0.20231004028320312,1.7453730102539062,-11.174936248779296
5009116283139,0.142749218,1,0.23343466186523437,1.7477672119140624,-11.112687005615234
5009118281837,0.144747916,1,0.258573779296875,1.7130512878417967,-11.094730493164063
5009120284077,0.146750156,1,0.17597382202148437,1.725022296142578,-11.124658013916015
5009122280327,0.148746406,1,0.20470424194335937,1.707065783691406,-11.19887826538086
5009124283608,0.150749687,1,0.2214636535644531,1.7573440185546874,-11.171344946289063
5009126280848,0.152746927,1,0.23822306518554687,1.8088193542480469,-11.194089862060546
5009128283868,0.154749947,1,0.2537853759765625,1.7405846069335937,-11.162965240478515
5009130280795,0.156746874,1,0.20829554443359374,1.7357962036132812,-11.186907257080078
5009132283295,0.158749374,1,0.21308394775390624,1.7166425903320313,-11.136629022216797
5009134280535,0.160746614,1,0.21188684692382811,1.7477672119140624,-11.227608685302734
5009136284025,0.162750104,1,0.23223756103515625,1.744175909423828,-11.252747802734374
5009138280743,0.164746822,1,0.201112939453125,1.7561469177246092,-11.215637677001952
5009140282566,0.166748645,1,0.19632453613281248,1.7501614135742187,-11.19887826538086
5009142281108,0.168747187,1,0.21188684692382811,1.7202338928222656,-11.155782635498046
5009144282983,0.170749062,1,0.21906945190429686,1.6891092712402342,-11.177330450439452
5009146281473,0.172747552,1,0.24660277099609373,1.7118541870117185,-11.154585534667968
5009148283243,0.174749322,1,0.20350714111328125,1.7106570861816406,-11.189301458740234
5009150280639,0.176746718,1,0.2609679809570312,1.7513585144042967,-11.113884106445312
5009152284858,0.178750937,1,0.22026655273437498,1.7190367919921874,-11.182118853759764
5009154281473,0.180747552,1,0.20231004028320312,1.7322049011230467,-11.176133349609374
5009156283504,0.182749583,1,0.2166752502441406,1.7429788085937499,-11.15338843383789
5009158281108,0.184747187,1,0.23582886352539062,1.7417817077636717,-11.26831011352539
5009160283295,0.186749374,1,0.23822306518554687,1.7812860351562498,-11.197681164550781
5009162280900,0.188746979,1,0.2561795776367187,1.7705121276855467,-11.203666668701171
5009164283400,0.190749479,1,0.2442085693359375,1.7094599853515624,-11.162965240478515
5009166280587,0.192746666,1,0.22744915771484372,1.7106570861816406,-11.141417425537108
5009168283243,0.194749322,1,0.18435352783203124,1.7621324218749999,-11.183315954589844
5009170279129,0.196745208,1,0.21068974609375,1.7118541870117185,-11.207257971191405
5009172283608,0.198749687,1,0.2262520568847656,1.7465701110839842,-11.204863769531249
5009174280795,0.200746874,1,0.2346317626953125,1.696291876220703,-11.189301458740234
5009176283660,0.202749739,1,0.20829554443359374,1.7226280944824217,-11.167753643798827
5009178280848,0.204746927,1,0.2454056701660156,1.7357962036132812,-11.226411584472656
5009180284441,0.20675052,1,0.28012159423828126,1.696291876220703,-11.173739147949219
5009182281837,0.208747916,1,0.22864625854492185,1.753752716064453,-11.171344946289063
5009184284389,0.210750468,1,0.24899697265624998,1.7489643127441405,-11.149797131347656
5009186280691,0.21274677,1,0.30526071166992186,1.7322049011230467,-11.180921752929686
5009188283608,0.214749687,1,0.21787235107421873,1.7453730102539062,-11.196484063720703
5009190280691,0.21674677,1,0.17597382202148437,1.7166425903320313,-11.207257971191405
5009192282150,0.218748229,1,0.2166752502441406,1.7286135986328124,-11.162965240478515
5009194280952,0.220747031,1,0.24301146850585936,1.7393875061035156,-11.170147845458983
5009196283504,0.222749583,1,0.21906945190429686,1.753752716064453,-11.145008728027342
5009198280847,0.224746926,1,0.23822306518554687,1.7214309936523438,-11.143811627197264
5009200283191,0.22674927,1,0.22026655273437498,1.696291876220703,-11.135431921386719
5009202281212,0.228747291,1,0.20709844360351562,1.7274164978027342,-11.135431921386719
5009204283920,0.230749999,1,0.17956512451171874,1.7130512878417967,-11.17254204711914
5009206280587,0.232746666,1,0.18076222534179687,1.70467158203125,-11.251550701904296
5009208283816,0.234749895,1,0.1975216369628906,1.7226280944824217,-11.222820281982422
5009210280327,0.236746406,1,0.2932897033691406,1.7334020019531249,-11.241973895263671
5009212282618,0.238748697,1,0.2346317626953125,1.695094775390625,-11.173739147949219
5009214280170,0.240746249,1,0.23702596435546874,1.7357962036132812,-11.176133349609374
5009216284493,0.242750572,1,0.239420166015625,1.8171990600585937,-11.176133349609374
5009218288556,0.244754635,1,0.19871873779296872,1.5682020874023437,-11.150994232177734
5009220287202,0.246753281,1,0.239420166015625,1.7525556152343749,-11.180921752929686
5009222280639,0.248746718,1,0.22385785522460935,1.7465701110839842,-11.166556542968749
5009224282983,0.250749062,1,0.25258827514648435,1.7130512878417967,-11.116278308105468
5009226280379,0.252746458,1,0.25139117431640623,1.7214309936523438,-11.247959399414063
5009228282670,0.254748749,1,0.23582886352539062,1.7118541870117185,-11.195286962890624
5009230280431,0.25674651,1,0.22266075439453123,1.7106570861816406,-11.173739147949219
5009232283347,0.258749426,1,0.2262520568847656,1.763329522705078,-11.179724652099608
5009234279754,0.260745833,1,0.2154781494140625,1.7106570861816406,-11.143811627197264
5009236283816,0.262749895,1,0.2346317626953125,1.686715069580078,-11.125855114746093
5009238277670,0.264743749,1,0.22385785522460935,1.7214309936523438,-11.188104357910156
5009240276993,0.266743072,1,0.21068974609375,1.7166425903320313,-11.170147845458983
5009242281785,0.268747864,1,0.24301146850585936,1.6998831787109374,-11.154585534667968
5009244279754,0.270745833,1,0.20709844360351562,1.7022773803710936,-11.192892761230468
5009246281056,0.272747135,1,0.2154781494140625,1.7310078002929687,-11.232397088623046
5009248283660,0.274749739,1,0.20470424194335937,1.725022296142578,-11.2240173828125
5009250280222,0.276746301,1,0.23223756103515625,1.7776947326660155,-11.131840618896483
5009252283452,0.278749531,1,0.21068974609375,1.6986860778808592,-11.188104357910156
5009254278035,0.280744114,1,0.2657563842773437,1.7298106994628906,-11.222820281982422
5009256281472,0.282747551,1,0.2262520568847656,1.7573440185546874,-11.212046374511718
5009258280847,0.284746926,1,0.19871873779296872,1.7369933044433592,-11.220426080322264
5009260283035,0.286749114,1,0.24779987182617186,1.7693150268554687,-11.166556542968749
5009262281264,0.288747343,1,0.2561795776367187,1.7513585144042967,-11.159373937988281
5009264283764,0.290749843,1,0.2442085693359375,1.7453730102539062,-11.195286962890624
5009266281004,0.292747083,1,0.2214636535644531,1.7166425903320313,-11.176133349609374
5009268282670,0.294748749,1,0.239420166015625,1.734599102783203,-11.208455072021483
5009270280795,0.296746874,1,0.2346317626953125,1.7453730102539062,-11.215637677001952
5009272283035,0.298749114,1,0.201112939453125,1.734599102783203,-11.213243475341796
5009274280066,0.300746145,1,0.20470424194335937,1.7286135986328124,-11.176133349609374
5009276283972,0.302750051,1,0.24899697265624998,1.70467158203125,-11.174936248779296
5009278279389,0.304745468,1,0.25258827514648435,1.715445489501953,-11.081562384033202
5009280282722,0.306748801,1,0.258573779296875,1.7274164978027342,-11.161768139648437
5009282280691,0.30874677,1,0.24181436767578124,1.7118541870117185,-11.19887826538086
5009284283608,0.310749687,1,0.24660277099609373,1.7429788085937499,-11.2240173828125
5009286280847,0.312746926,1,0.19512743530273435,1.7645266235351562,-11.234791290283203
5009288282566,0.314748645,1,0.23582886352539062,1.7417817077636717,-11.207257971191405
5009290279910,0.316745989,1,0.20949264526367187,1.7884686401367187,-11.212046374511718
5009292282827,0.318748906,1,0.19512743530273435,1.7609353210449217,-11.17254204711914
5009294281212,0.320747291,1,0.24181436767578124,1.7178396911621092,-11.135431921386719
5009296283087,0.322749166,1,0.229843359375,1.7214309936523438,-11.179724652099608
5009298280847,0.324746926,1,0.20350714111328125,1.7453730102539062,-11.215637677001952
5009300281629,0.326747708,1,0.21787235107421873,1.8028338500976562,-11.154585534667968
5009302280795,0.328746874,1,0.19871873779296872,1.7705121276855467,-11.135431921386719
5009304283452,0.330749531,1,0.24181436767578124,1.7381904052734374,-11.135431921386719
5009306281368,0.332747447,1,0.20949264526367187,1.7561469177246092,-11.14022032470703
5009308283295,0.334749374,1,0.18914193115234373,1.7477672119140624,-11.16057103881836
5009310281785,0.336747864,1,0.229843359375,1.7741034301757812,-11.235988391113281
5009312283191,0.33874927,1,0.229843359375,1.7322049011230467,-11.250353601074218
5009314279910,0.340745989,1,0.24779987182617186,1.7106570861816406,-11.167753643798827
5009316282879,0.342748958,1,0.23822306518554687,1.7082628845214842,-11.190498559570312
5009318280743,0.344746822,1,0.22505495605468748,1.7334020019531249,-11.150994232177734
5009320282670,0.346748749,1,0.19512743530273435,1.715445489501953,-11.156979736328124
5009322278347,0.348744426,1,0.27174188842773433,1.7453730102539062,-11.139023223876952
5009324282827,0.350748906,1,0.23702596435546874,1.6938976745605467,-11.15338843383789
5009326281004,0.352747083,1,0.2501940734863281,1.7274164978027342,-11.155782635498046
5009328283920,0.354749999,1,0.2262520568847656,1.7513585144042967,-11.204863769531249
5009330280379,0.356746458,1,0.1640028137207031,1.7717092285156248,-11.207257971191405
5009332282983,0.358749062,1,0.24061726684570311,1.7549498168945312,-11.192892761230468
5009334280535,0.360746614,1,0.2442085693359375,1.753752716064453,-11.209652172851563
5009336283243,0.362749322,1,0.2059013427734375,1.7010802795410156,-11.231199987792968
5009338280014,0.364746093,1,0.2214636535644531,1.7501614135742187,-11.200075366210937
5009340282775,0.366748854,1,0.21308394775390624,1.7776947326660155,-11.150994232177734
5009342281004,0.368747083,1,0.22266075439453123,1.7393875061035156,-11.195286962890624
5009344283087,0.370749166,1,0.2693476867675781,1.753752716064453,-11.195286962890624
5009346280118,0.372746197,1,0.21068974609375,1.7657237243652342,-11.226411584472656
5009348283816,0.374749895,1,0.26216508178710934,1.7549498168945312,-11.142614526367186
5009350281525,0.376747604,1,0.2454056701660156,1.753752716064453,-11.219228979492186
5009352282983,0.378749062,1,0.24301146850585936,1.744175909423828,-11.245565197753905
5009354281056,0.380747135,1,0.23343466186523437,1.715445489501953,-11.195286962890624
5009356282722,0.382748801,1,0.21308394775390624,1.7298106994628906,-11.222820281982422
5009358280483,0.384746562,1,0.2059013427734375,1.7274164978027342,-11.225214483642578
5009360282670,0.386748749,1,0.21787235107421873,1.7573440185546874,-11.212046374511718
5009362280327,0.388746406,1,0.2154781494140625,1.7310078002929687,-11.218031878662108
5009364282410,0.390748489,1,0.28012159423828126,1.7465701110839842,-11.14022032470703
5009366280691,0.39274677,1,0.30047230834960936,1.7286135986328124,-11.192892761230468
5009368283139,0.394749218,1,0.22026655273437498,1.725022296142578,-11.192892761230468
5009370281108,0.396747187,1,0.21906945190429686,1.7130512878417967,-11.201272467041015
5009372283243,0.398749322,1,0.2537853759765625,1.734599102783203,-11.156979736328124
5009374280795,0.400746874,1,0.21906945190429686,1.70467158203125,-11.220426080322264
5009376283608,0.402749687,1,0.21787235107421873,1.70467158203125,-11.182118853759764
5009378280535,0.404746614,1,0.239420166015625,1.697488977050781,-11.186907257080078
5009380283087,0.406749166,1,0.21428104858398436,1.697488977050781,-11.19887826538086
5009382280691,0.40874677,1,0.23702596435546874,1.7106570861816406,-11.218031878662108
5009384282618,0.410748697,1,0.22864625854492185,1.7214309936523438,-11.158176837158203
5009386278764,0.412744843,1,0.20949264526367187,1.7657237243652342,-11.19887826538086
5009388282983,0.414749062,1,0.24660277099609373,1.7369933044433592,-11.146205828857422
5009390280014,0.416746093,1,0.23822306518554687,1.7477672119140624,-11.179724652099608
5009392283243,0.418749322,1,0.229843359375,1.7453730102539062,-11.209652172851563
5009394280691,0.42074677,1,0.19991583862304688,1.7693150268554687,-11.158176837158203
5009396282879,0.422748958,1,0.17357962036132812,1.7262193969726563,-11.200075366210937
5009398280743,0.424746822,1,0.2537853759765625,1.7525556152343749,-11.202469567871093
5009400282931,0.42674901,1,0.19512743530273435,1.7393875061035156,-11.200075366210937
5009402280118,0.428746197,1,0.1927332336425781,1.7310078002929687,-11.204863769531249
5009404283035,0.430749114,1,0.22385785522460935,1.715445489501953,-11.189301458740234
5009406286681,0.43275276,1,0.2059013427734375,1.7489643127441405,-11.244368096923827
5009408286004,0.434752083,1,0.20470424194335937,1.7525556152343749,-11.214440576171874
5009410281681,0.43674776,1,0.21906945190429686,1.7238251953125,-11.220426080322264
5009412284181,0.43875026,1,0.19871873779296872,1.753752716064453,-11.189301458740234
5009414280431,0.44074651,1,0.21068974609375,1.7381904052734374,-11.165359442138671
5009416283452,0.442749531,1,0.20350714111328125,1.7381904052734374,-11.19169566040039
5009418280743,0.444746822,1,0.22744915771484372,1.7477672119140624,-11.119869610595703
5009420283556,0.446749635,1,0.23582886352539062,1.744175909423828,-11.171344946289063
5009422280535,0.448746614,1,0.2262520568847656,1.7513585144042967,-11.165359442138671
5009424282931,0.45074901,1,0.2262520568847656,1.7549498168945312,-11.145008728027342
5009426280014,0.452746093,1,0.2454056701660156,1.7298106994628906,-11.212046374511718
5009428283608,0.454749687,1,0.22266075439453123,1.7405846069335937,-11.142614526367186
5009430279077,0.456745156,1,0.229843359375,1.6986860778808592,-11.19169566040039
5009432283035,0.458749114,1,0.2454056701660156,1.7429788085937499,-11.194089862060546
5009434281056,0.460747135,1,0.24061726684570311,1.7465701110839842,-11.15338843383789
5009436283920,0.462749999,1,0.25258827514648435,1.7381904052734374,-11.103110198974608
5009438281160,0.464747239,1,0.23343466186523437,1.6795324645996093,-11.093533392333983
5009440283087,0.466749166,1,0.2262520568847656,1.7298106994628906,-11.203666668701171
5009442280535,0.468746614,1,0.18914193115234373,1.7166425903320313,-11.136629022216797
5009444283191,0.47074927,1,0.1975216369628906,1.725022296142578,-11.10191309814453
5009446280952,0.472747031,1,0.2609679809570312,1.7166425903320313,-11.182118853759764
5009448282983,0.474749062,1,0.25139117431640623,1.7561469177246092,-11.213243475341796
5009450280639,0.476746718,1,0.22266075439453123,1.7561469177246092,-11.17852755126953
5009452282670,0.478748749,1,0.2537853759765625,1.7465701110839842,-11.155782635498046
5009454280535,0.480746614,1,0.24061726684570311,1.7286135986328124,-11.165359442138671
5009456282827,0.482748906,1,0.22505495605468748,1.7274164978027342,-11.149797131347656
5009458280847,0.484746926,1,0.2214636535644531,1.6903063720703124,-11.189301458740234
5009460283452,0.486749531,1,0.229843359375,1.7369933044433592,-11.107898602294922
5009462280587,0.488746666,1,0.2262520568847656,1.7298106994628906,-11.148600030517578
5009464283764,0.490749843,1,0.2214636535644531,1.792059942626953,-11.221623181152344
5009466280431,0.49274651,1,0.24181436767578124,1.7405846069335937,-11.171344946289063
5009468281004,0.494747083,1,0.16639701538085935,1.7657237243652342,-11.1474029296875
5009470281681,0.49674776,1,0.40462008056640625,1.7549498168945312,-11.113884106445312
5009472282618,0.498748697,1,0.2346317626953125,1.7573440185546874,-11.137826123046874
5009474281004,0.500747083,1,0.239420166015625,1.7381904052734374,-11.079168182373046
5009476282410,0.502748489,1,0.21188684692382811,1.7465701110839842,-11.164162341308593
5009478280639,0.504746718,1,0.229843359375,1.7573440185546874,-11.207257971191405
5009480283608,0.506749687,1,0.24061726684570311,1.7621324218749999,-11.227608685302734
5009482280066,0.508746145,1,0.21906945190429686,1.7226280944824217,-11.226411584472656
5009484283868,0.510749947,1,0.2262520568847656,1.7178396911621092,-11.167753643798827
5009486280535,0.512746614,1,0.22505495605468748,1.7369933044433592,-11.171344946289063
5009488284077,0.514750156,1,0.22505495605468748,1.7118541870117185,-11.174936248779296
5009490280587,0.516746666,1,0.20949264526367187,1.7501614135742187,-11.176133349609374
5009492282774,0.518748853,1,0.24779987182617186,1.7369933044433592,-11.226411584472656
5009494278972,0.520745051,1,0.2609679809570312,1.7525556152343749,-11.1474029296875
5009496283816,0.522749895,1,0.23104046020507812,1.7681179260253905,-11.125855114746093
5009498280847,0.524746926,1,0.19991583862304688,1.7118541870117185,-11.21683477783203
5009500282931,0.52674901,1,0.19393033447265623,1.7334020019531249,-11.227608685302734
5009502278139,0.528744218,1,0.19991583862304688,1.7214309936523438,-11.204863769531249
5009504279597,0.530745676,1,0.22385785522460935,1.7525556152343749,-11.225214483642578
5009506280327,0.532746406,1,0.2501940734863281,1.7214309936523438,-11.186907257080078
5009508283087,0.534749166,1,0.2262520568847656,1.734599102783203,-11.182118853759764
5009510280327,0.536746406,1,0.19991583862304688,1.7705121276855467,-11.206060870361327
5009512283087,0.538749166,1,0.18435352783203124,1.70467158203125,-11.16057103881836
5009514280327,0.540746406,1,0.2346317626953125,1.734599102783203,-11.194089862060546
5009516281524,0.542747603,1,0.23822306518554687,1.7190367919921874,-11.180921752929686
5009518281004,0.544747083,1,0.20829554443359374,1.6938976745605467,-11.168950744628905
5009520283868,0.546749947,1,0.23343466186523437,1.7226280944824217,-11.192892761230468
5009522280431,0.54874651,1,0.22505495605468748,1.7226280944824217,-11.218031878662108
5009524283139,0.550749218,1,0.23104046020507812,1.7286135986328124,-11.148600030517578
5009526280066,0.552746145,1,0.2932897033691406,1.744175909423828,-11.145008728027342
5009528283452,0.554749531,1,0.2262520568847656,1.7214309936523438,-11.130643518066405
5009530280952,0.556747031,1,0.229843359375,1.707065783691406,-11.137826123046874
5009532283556,0.558749635,1,0.20231004028320312,1.7393875061035156,-11.131840618896483
5009534281056,0.560747135,1,0.25258827514648435,1.7357962036132812,-11.227608685302734
5009536283295,0.562749374,1,0.22744915771484372,1.6771382629394531,-11.133037719726563
5009538279493,0.564745572,1,0.19393033447265623,1.7369933044433592,-11.150994232177734
5009540283452,0.566749531,1,0.22744915771484372,1.744175909423828,-11.17852755126953
5009542281004,0.568747083,1,0.21906945190429686,1.7489643127441405,-11.258733306884764
5009544283972,0.570750051,1,0.20231004028320312,1.7585411193847655,-11.203666668701171
5009546280691,0.57274677,1,0.24660277099609373,1.7465701110839842,-11.19887826538086
5009548283556,0.574749635,1,0.29089550170898437,1.7034744812011717,-11.165359442138671
5009550281108,0.576747187,1,0.24181436767578124,1.7202338928222656,-11.089942089843749
5009552282827,0.578748906,1,0.25139117431640623,1.7453730102539062,-11.174936248779296
5009554280170,0.580746249,1,0.20709844360351562,1.7561469177246092,-11.212046374511718
5009556282514,0.582748593,1,0.23343466186523437,1.7489643127441405,-11.188104357910156
5009558279858,0.584745937,1,0.21308394775390624,1.7573440185546874,-11.167753643798827
5009560282774,0.586748853,1,0.21787235107421873,1.7489643127441405,-11.219228979492186
5009562280014,0.588746093,1,0.20949264526367187,1.7705121276855467,-11.194089862060546
5009564283556,0.590749635,1,0.25139117431640623,1.7226280944824217,-11.207257971191405
5009566281681,0.59274776,1,0.2501940734863281,1.7429788085937499,-11.202469567871093
5009568283139,0.594749218,1,0.17956512451171874,1.7082628845214842,-11.243170996093749
5009570280795,0.596746874,1,0.24660277099609373,1.7178396911621092,-11.195286962890624
5009572283243,0.598749322,1,0.21188684692382811,1.7226280944824217,-11.194089862060546
5009574280483,0.600746562,1,0.22864625854492185,1.7214309936523438,-11.19169566040039
5009576282670,0.602748749,1,0.2549824768066406,1.6651672546386718,-11.207257971191405
5009578280795,0.604746874,1,0.23104046020507812,1.7310078002929687,-11.264718811035156
5009580283295,0.606749374,1,0.17357962036132812,1.734599102783203,-11.226411584472656
5009582280535,0.608746614,1,0.1927332336425781,1.7357962036132812,-11.235988391113281
5009584282514,0.610748593,1,0.24301146850585936,1.7501614135742187,-11.21084927368164
5009586280847,0.612746926,1,0.20829554443359374,1.7262193969726563,-11.192892761230468
5009588283608,0.614749687,1,0.2442085693359375,1.734599102783203,-11.233594189453123
5009590280170,0.616746249,1,0.18914193115234373,1.7609353210449217,-11.200075366210937
5009592283139,0.618749218,1,0.16160861206054686,1.7369933044433592,-11.11508120727539
5009594283816,0.620749895,1,0.22744915771484372,1.7465701110839842,-11.159373937988281
5009596286160,0.622752239,1,0.258573779296875,1.7178396911621092,-11.135431921386719
5009598281681,0.62474776,1,0.23702596435546874,1.7214309936523438,-11.167753643798827
5009600282618,0.626748697,1,0.26815058593749996,1.7226280944824217,-11.231199987792968
5009602278816,0.628744895,1,0.22744915771484372,1.7465701110839842,-11.219228979492186
5009604283556,0.630749635,1,0.2753331909179687,1.7621324218749999,-11.202469567871093
5009606281264,0.632747343,1,0.22864625854492185,1.7381904052734374,-11.149797131347656
5009608283816,0.634749895,1,0.20949264526367187,1.7453730102539062,-11.133037719726563
5009610280587,0.636746666,1,0.19871873779296872,1.7082628845214842,-11.214440576171874
5009612282931,0.63874901,1,0.23822306518554687,1.7226280944824217,-11.154585534667968
5009614280952,0.640747031,1,0.25258827514648435,1.7118541870117185,-11.109095703125
5009616283295,0.642749374,1,0.24061726684570311,1.7274164978027342,-11.264718811035156
5009618280170,0.644746249,1,0.20350714111328125,1.7298106994628906,-11.240776794433593
5009620283243,0.646749322,1,0.2501940734863281,1.7274164978027342,-11.168950744628905
5009622280327,0.648746406,1,0.17477672119140625,1.7477672119140624,-11.188104357910156
5009624281264,0.650747343,1,0.19991583862304688,1.744175909423828,-11.139023223876952
5009626281004,0.652747083,1,0.24301146850585936,1.7369933044433592,-11.14022032470703
5009628283347,0.654749426,1,0.2442085693359375,1.696291876220703,-11.225214483642578
5009630281420,0.656747499,1,0.2549824768066406,1.7298106994628906,-11.26831011352539
5009632283295,0.658749374,1,0.23582886352539062,1.7549498168945312,-11.137826123046874
5009634280274,0.660746353,1,0.20470424194335937,1.7657237243652342,-11.232397088623046
5009636283087,0.662749166,1,0.24660277099609373,1.7453730102539062,-11.142614526367186
5009638280483,0.664746562,1,0.22385785522460935,1.696291876220703,-11.167753643798827
5009640282514,0.666748593,1,0.23104046020507812,1.715445489501953,-11.190498559570312
5009642280587,0.668746666,1,0.22385785522460935,1.7022773803710936,-11.164162341308593
5009644283295,0.670749374,1,0.22505495605468748,1.7262193969726563,-11.1474029296875
5009646279858,0.672745937,1,0.19871873779296872,1.7465701110839842,-11.150994232177734
5009648282618,0.674748697,1,0.1879448303222656,1.7226280944824217,-11.179724652099608
5009650281472,0.676747551,1,0.21428104858398436,1.7214309936523438,-11.143811627197264
5009652283295,0.678749374,1,0.23822306518554687,1.7513585144042967,-11.18571015625
5009654280743,0.680746822,1,0.21188684692382811,1.7393875061035156,-11.179724652099608
5009656283712,0.682749791,1,0.23223756103515625,1.7202338928222656,-11.17254204711914
5009658280483,0.684746562,1,0.24061726684570311,1.7501614135742187,-11.117475408935546
5009660282462,0.686748541,1,0.17597382202148437,1.7286135986328124,-11.192892761230468
5009662280951,0.68874703,1,0.1927332336425781,1.7381904052734374,-11.234791290283203
5009664282826,0.690748905,1,0.1975216369628906,1.7322049011230467,-11.109095703125
5009666280274,0.692746353,1,0.22505495605468748,1.7753005310058592,-11.180921752929686
5009668283347,0.694749426,1,0.24779987182617186,1.7357962036132812,-11.239579693603515
5009670280743,0.696746822,1,0.23582886352539062,1.7453730102539062,-11.15338843383789
5009672283556,0.698749635,1,0.24899697265624998,1.7561469177246092,-11.206060870361327
5009674280587,0.700746666,1,0.20350714111328125,1.7417817077636717,-11.171344946289063
5009676283399,0.702749478,1,0.22505495605468748,1.70467158203125,-11.141417425537108
5009678280326,0.704746405,1,0.22864625854492185,1.7034744812011717,-11.166556542968749
5009680283347,0.706749426,1,0.2442085693359375,1.7465701110839842,-11.167753643798827
5009682280222,0.708746301,1,0.23582886352539062,1.7405846069335937,-11.133037719726563
5009684282826,0.710748905,1,0.23822306518554687,1.7118541870117185,-11.189301458740234
5009686280691,0.71274677,1,0.17836802368164062,1.6998831787109374,-11.182118853759764
5009688281212,0.714747291,1,0.19991583862304688,1.7298106994628906,-11.21683477783203
5009690280743,0.716746822,1,0.2657563842773437,1.7381904052734374,-11.188104357910156
5009692283868,0.718749947,1,0.21787235107421873,1.7693150268554687,-11.162965240478515
5009694280899,0.720746978,1,0.18435352783203124,1.7872715393066405,-11.12226381225586
5009696283868,0.722749947,1,0.20949264526367187,1.772906329345703,-11.14022032470703
5009698280118,0.724746197,1,0.19393033447265623,1.7274164978027342,-11.222820281982422
5009700283556,0.726749635,1,0.22385785522460935,1.7022773803710936,-11.16057103881836
5009702281733,0.728747812,1,0.2154781494140625,1.7106570861816406,-11.174936248779296
5009704283399,0.730749478,1,0.26336218261718747,1.6831237670898436,-11.177330450439452
5009706280535,0.732746614,1,0.24779987182617186,1.687912170410156,-11.158176837158203
5009708283868,0.734749947,1,0.18435352783203124,1.7166425903320313,-11.131840618896483
5009710278660,0.736744739,1,0.2705447875976562,1.707065783691406,-11.197681164550781
5009712283764,0.738749843,1,0.21308394775390624,1.734599102783203,-11.207257971191405
5009714281160,0.740747239,1,0.23582886352539062,1.7214309936523438,-11.174936248779296
5009716283504,0.742749583,1,0.20829554443359374,1.6711527587890624,-11.104307299804686
5009718280222,0.744746301,1,0.20470424194335937,1.7034744812011717,-11.174936248779296
5009720282618,0.746748697,1,0.24660277099609373,1.7286135986328124,-11.180921752929686
5009722278920,0.748744999,1,0.22505495605468748,1.7453730102539062,-11.245565197753905
5009724281733,0.750747812,1,0.229843359375,1.7393875061035156,-11.18571015625
5009726281629,0.752747708,1,0.2549824768066406,1.678335363769531,-11.219228979492186
5009728283451,0.75474953,1,0.21068974609375,1.7489643127441405,-11.167753643798827
5009730280483,0.756746562,1,0.24899697265624998,1.715445489501953,-11.190498559570312
5009732278764,0.758744843,1,0.19871873779296872,1.7274164978027342,-11.176133349609374
5009734280326,0.760746405,1,0.2346317626953125,1.7106570861816406,-11.142614526367186
5009736283868,0.762749947,1,0.2154781494140625,1.7166425903320313,-11.227608685302734
5009738281629,0.764747708,1,0.26216508178710934,1.7130512878417967,-11.23718549194336
5009740282826,0.766748905,1,0.23822306518554687,1.7010802795410156,-11.222820281982422
5009742280326,0.768746405,1,0.21308394775390624,1.7334020019531249,-11.197681164550781
5009744282618,0.770748697,1,0.2214636535644531,1.7357962036132812,-11.161768139648437
5009746280431,0.77274651,1,0.2885013000488281,1.7106570861816406,-11.167753643798827
5009748283712,0.774749791,1,0.25139117431640623,1.7609353210449217,-11.234791290283203
5009750277566,0.776743645,1,0.2645592834472656,1.7477672119140624,-11.213243475341796
5009752280951,0.77874703,1,0.27174188842773433,1.707065783691406,-11.257536206054686
5009754280326,0.780746405,1,0.2454056701660156,1.697488977050781,-11.21084927368164
5009756283608,0.782749687,1,0.22026655273437498,1.7238251953125,-11.247959399414063
5009758281576,0.784747655,1,0.2549824768066406,1.7214309936523438,-11.149797131347656
5009760284233,0.786750312,1,0.26336218261718747,1.7094599853515624,-11.221623181152344
5009762280483,0.788746562,1,0.23223756103515625,1.7465701110839842,-11.099518896484375
5009764283035,0.790749114,1,0.24660277099609373,1.7549498168945312,-11.142614526367186
5009766281056,0.792747135,1,0.23822306518554687,1.7214309936523438,-11.165359442138671
5009768282566,0.794748645,1,0.21188684692382811,1.7274164978027342,-11.119869610595703
5009770280222,0.796746301,1,0.2597708801269531,1.7405846069335937,-11.17254204711914
5009772281524,0.798747603,1,0.24301146850585936,1.7274164978027342,-11.159373937988281
5009774280170,0.800746249,1,0.22744915771484372,1.6711527587890624,-11.189301458740234
5009776282722,0.802748801,1,0.21428104858398436,1.7310078002929687,-11.179724652099608
5009778279910,0.804745989,1,0.2813186950683594,1.7561469177246092,-11.152191333007812
5009780283608,0.806749687,1,0.24779987182617186,1.705868682861328,-11.170147845458983
5009782285691,0.80875177,1,0.22266075439453123,1.6903063720703124,-11.17254204711914
5009784286472,0.810752551,1,0.23702596435546874,1.6915034729003906,-11.156979736328124
5009786279858,0.812745937,1,0.229843359375,1.6555904479980468,-11.145008728027342
5009788283295,0.814749374,1,0.20829554443359374,1.7501614135742187,-11.184513055419922
5009790280691,0.81674677,1,0.239420166015625,1.734599102783203,-11.228805786132812
5009792282983,0.818749062,1,0.25258827514648435,1.7381904052734374,-11.226411584472656
5009794280222,0.820746301,1,0.19871873779296872,1.7130512878417967,-11.245565197753905
5009796282410,0.822748489,1,0.22744915771484372,1.763329522705078,-11.197681164550781
5009798280483,0.824746562,1,0.22266075439453123,1.734599102783203,-11.202469567871093
5009800282983,0.826749062,1,0.2442085693359375,1.7369933044433592,-11.136629022216797
5009802281160,0.828747239,1,0.23223756103515625,1.7405846069335937,-11.159373937988281
5009804282983,0.830749062,1,0.23343466186523437,1.7788918334960937,-11.1474029296875
5009806279806,0.832745885,1,0.2454056701660156,1.7202338928222656,-11.196484063720703
5009808282879,0.834748958,1,0.296881005859375,1.763329522705078,-11.196484063720703
5009810280326,0.836746405,1,0.27892449340820313,1.7525556152343749,-11.166556542968749
5009812283191,0.83874927,1,0.2262520568847656,1.7657237243652342,-11.166556542968749
5009814280899,0.840746978,1,0.23343466186523437,1.7298106994628906,-11.106701501464842
5009816282931,0.84274901,1,0.2442085693359375,1.7118541870117185,-11.18571015625
5009818278451,0.84474453,1,0.27892449340820313,1.7429788085937499,-11.213243475341796
5009820283556,0.846749635,1,0.21308394775390624,1.7286135986328124,-11.194089862060546
5009822280222,0.848746301,1,0.27293898925781246,1.7585411193847655,-11.232397088623046
5009824283504,0.850749583,1,0.2920926025390625,1.7741034301757812,-11.156979736328124
5009826280535,0.852746614,1,0.2454056701660156,1.7082628845214842,-11.184513055419922
5009828282306,0.854748385,1,0.25258827514648435,1.6807295654296874,-11.202469567871093
5009830280743,0.856746822,1,0.2501940734863281,1.7585411193847655,-11.173739147949219
5009832282566,0.858748645,1,0.2609679809570312,1.7082628845214842,-11.184513055419922
5009834279701,0.86074578,1,0.24899697265624998,1.7597382202148437,-11.231199987792968
5009836283139,0.862749218,1,0.24660277099609373,1.707065783691406,-11.188104357910156
5009838280691,0.86474677,1,0.21308394775390624,1.7118541870117185,-11.213243475341796
5009840281160,0.866747239,1,0.23223756103515625,1.707065783691406,-11.19169566040039
5009842281420,0.868747499,1,0.22864625854492185,1.7453730102539062,-11.166556542968749
5009844283660,0.870749739,1,0.23582886352539062,1.7489643127441405,-11.212046374511718
5009846281004,0.872747083,1,0.229843359375,1.7334020019531249,-11.190498559570312
5009848283035,0.874749114,1,0.20829554443359374,1.7585411193847655,-11.200075366210937
5009850279858,0.876745937,1,0.22266075439453123,1.734599102783203,-11.176133349609374
5009852282410,0.878748489,1,0.201112939453125,1.7262193969726563,-11.250353601074218
5009854281316,0.880747395,1,0.21787235107421873,1.7585411193847655,-11.202469567871093
5009856283295,0.882749374,1,0.2154781494140625,1.7489643127441405,-11.165359442138671
5009858280483,0.884746562,1,0.23822306518554687,1.7369933044433592,-11.165359442138671
5009860282670,0.886748749,1,0.21188684692382811,1.7513585144042967,-11.112687005615234
5009862280274,0.888746353,1,0.2262520568847656,1.696291876220703,-11.182118853759764
5009864283503,0.890749582,1,0.22266075439453123,1.7082628845214842,-11.209652172851563
5009866281003,0.892747082,1,0.19393033447265623,1.7022773803710936,-11.206060870361327
5009868283503,0.894749582,1,0.24181436767578124,1.7262193969726563,-11.146205828857422
5009870279910,0.896745989,1,0.21428104858398436,1.772906329345703,-11.182118853759764
5009872282670,0.898748749,1,0.24660277099609373,1.7106570861816406,-11.136629022216797
5009874280847,0.900746926,1,0.22026655273437498,1.7585411193847655,-11.182118853759764
5009876283035,0.902749114,1,0.18555062866210936,1.7118541870117185,-11.189301458740234
5009878280014,0.904746093,1,0.2059013427734375,1.7118541870117185,-11.10191309814453
5009880283035,0.906749114,1,0.20949264526367187,1.707065783691406,-11.176133349609374
5009882280066,0.908746145,1,0.20949264526367187,1.686715069580078,-11.165359442138671
5009884280847,0.910746926,1,0.23702596435546874,1.7393875061035156,-11.18571015625
5009886280847,0.912746926,1,0.17357962036132812,1.744175909423828,-11.186907257080078
5009888284285,0.914750364,1,0.21188684692382811,1.7393875061035156,-11.167753643798827
5009890280587,0.916746666,1,0.181959326171875,1.7082628845214842,-11.123460913085937
5009892282826,0.918748905,1,0.20949264526367187,1.7513585144042967,-11.156979736328124
5009894280431,0.92074651,1,0.2645592834472656,1.705868682861328,-11.208455072021483
5009896283139,0.922749218,1,0.25258827514648435,1.70467158203125,-11.196484063720703
5009898280691,0.92474677,1,0.22385785522460935,1.7573440185546874,-11.174936248779296
5009900282826,0.926748905,1,0.19632453613281248,1.7369933044433592,-11.184513055419922
5009902280274,0.928746353,1,0.19033903198242186,1.7106570861816406,-11.182118853759764
5009904281316,0.930747395,1,0.21188684692382811,1.734599102783203,-11.171344946289063
5009906280483,0.932746562,1,0.2537853759765625,1.7429788085937499,-11.182118853759764
5009908283139,0.934749218,1,0.2705447875976562,1.7417817077636717,-11.182118853759764
5009910281160,0.936747239,1,0.23582886352539062,1.7310078002929687,-11.219228979492186
5009912283556,0.938749635,1,0.23822306518554687,1.7657237243652342,-11.086350787353515
5009914280483,0.940746562,1,0.20829554443359374,1.7645266235351562,-11.231199987792968
5009916283451,0.94274953,1,0.24301146850585936,1.7405846069335937,-11.176133349609374
5009918281316,0.944747395,1,0.2214636535644531,1.772906329345703,-11.129446417236327
5009920283712,0.946749791,1,0.24061726684570311,1.744175909423828,-11.170147845458983
5009922280431,0.94874651,1,0.2442085693359375,1.7776947326660155,-11.207257971191405
5009924281160,0.950747239,1,0.19153613281249998,1.7286135986328124,-11.215637677001952
5009926280118,0.952746197,1,0.20829554443359374,1.6747440612792968,-11.219228979492186
5009928284649,0.954750728,1,0.24301146850585936,1.695094775390625,-11.167753643798827
5009930280274,0.956746353,1,0.277727392578125,1.7178396911621092,-11.116278308105468
5009932283191,0.95874927,1,0.2597708801269531,1.6998831787109374,-11.179724652099608
5009934280378,0.960746457,1,0.18315642700195311,1.7489643127441405,-11.168950744628905
5009936283243,0.962749322,1,0.2059013427734375,1.7597382202148437,-11.136629022216797
5009938280587,0.964746666,1,0.21787235107421873,1.7489643127441405,-11.188104357910156
5009940282931,0.96674901,1,0.2059013427734375,1.7561469177246092,-11.148600030517578
5009942280378,0.968746457,1,0.21428104858398436,1.6998831787109374,-11.1474029296875
5009944282670,0.970748749,1,0.22266075439453123,1.6938976745605467,-11.15338843383789
5009946280014,0.972746093,1,0.22505495605468748,1.7130512878417967,-11.207257971191405
5009948279806,0.974745885,1,0.2597708801269531,1.686715069580078,-11.166556542968749
5009950280483,0.976746562,1,0.239420166015625,1.725022296142578,-11.16057103881836
5009952284389,0.978750468,1,0.21068974609375,1.7322049011230467,-11.161768139648437
5009954280951,0.98074703,1,0.25139117431640623,1.7621324218749999,-11.14022032470703
5009956283243,0.982749322,1,0.2561795776367187,1.734599102783203,-11.222820281982422
5009958280378,0.984746457,1,0.20829554443359374,1.715445489501953,-11.244368096923827
5009960283191,0.98674927,1,0.24181436767578124,1.7178396911621092,-11.196484063720703
5009962280274,0.988746353,1,0.23104046020507812,1.7190367919921874,-11.209652172851563
5009964282306,0.990748385,1,0.19871873779296872,1.70467158203125,-11.194089862060546
5009966279858,0.992745937,1,0.21906945190429686,1.7417817077636717,-11.204863769531249
5009968282514,0.994748593,1,0.2214636535644531,1.7657237243652342,-11.19169566040039
5009970285378,0.996751457,1,0.2166752502441406,1.7417817077636717,-11.206060870361327
5009972286733,0.998752812,1,0.19512743530273435,1.714248388671875,-11.221623181152344
5009974280951,1.00074703,1,0.20709844360351562,1.7513585144042967,-11.155782635498046
5009976282983,1.002749062,1,0.2262520568847656,1.6998831787109374,-11.182118853759764
5009978280118,1.004746197,1,0.201112939453125,1.7238251953125,-11.218031878662108
5009980280118,1.006746197,1,0.2454056701660156,1.7621324218749999,-11.190498559570312
5009982280795,1.008746874,1,0.2154781494140625,1.7357962036132812,-11.182118853759764
5009984283503,1.010749582,1,0.2214636535644531,1.7597382202148437,-11.177330450439452
5009986280066,1.012746145,1,0.19033903198242186,1.744175909423828,-11.170147845458983
5009988282774,1.014748853,1,0.21787235107421873,1.7190367919921874,-11.235988391113281
5009990280639,1.016746718,1,0.19512743530273435,1.7405846069335937,-11.1474029296875
5009992282149,1.018748228,1,0.24061726684570311,1.7741034301757812,-11.188104357910156
5009994280378,1.020746457,1,0.239420166015625,1.6998831787109374,-11.182118853759764
5009996283451,1.02274953,1,0.2059013427734375,1.7477672119140624,-11.21683477783203
5009998279024,1.024745103,1,0.20949264526367187,1.7501614135742187,-11.146205828857422
5010000279545,1.026745624,1,0.1867477294921875,1.7561469177246092,-11.17852755126953
5010002280014,1.028746093,1,0.2262520568847656,1.7369933044433592,-11.257536206054686
5010004283139,1.030749218,1,0.19991583862304688,1.68551796875,-11.167753643798827
5010006280847,1.032746926,1,0.23343466186523437,1.715445489501953,-11.158176837158203
5010008280847,1.034746926,1,0.28371289672851563,1.7609353210449217,-11.167753643798827
5010010279597,1.036745676,1,0.22026655273437498,1.7202338928222656,-11.1474029296875
5010012277931,1.03874401,1,0.229843359375,1.7106570861816406,-11.188104357910156
5010014278764,1.040744843,1,0.2454056701660156,1.7525556152343749,-11.162965240478515
5010016280587,1.042746666,1,0.18076222534179687,1.7298106994628906,-11.177330450439452
5010018280795,1.044746874,1,0.16998831787109375,1.7286135986328124,-11.215637677001952
5010020280431,1.04674651,1,0.22864625854492185,1.675941162109375,-11.167753643798827
5010022280066,1.048746145,1,0.23104046020507812,1.7094599853515624,-11.150994232177734
5010024282462,1.050748541,1,0.22385785522460935,1.7645266235351562,-11.228805786132812
5010026279962,1.052746041,1,0.2454056701660156,1.7525556152343749,-11.251550701904296
5010028282149,1.054748228,1,0.1879448303222656,1.7286135986328124,-11.189301458740234
5010030279441,1.05674552,1,0.25139117431640623,1.7238251953125,-11.167753643798827
5010032282878,1.058748957,1,0.2501940734863281,1.707065783691406,-11.2240173828125
5010034278816,1.060744895,1,0.26336218261718747,1.7082628845214842,-11.203666668701171
5010036282931,1.06274901,1,0.19153613281249998,1.7106570861816406,-11.161768139648437
5010038280639,1.064746718,1,0.2813186950683594,1.7357962036132812,-11.184513055419922
5010040283660,1.066749739,1,0.20470424194335937,1.7166425903320313,-11.23718549194336
5010042279806,1.068745885,1,0.17836802368164062,1.7214309936523438,-11.214440576171874
5010044282253,1.070748332,1,0.19991583862304688,1.7513585144042967,-11.200075366210937
5010046281003,1.072747082,1,0.21188684692382811,1.7274164978027342,-11.239579693603515
5010048282983,1.074749062,1,0.24301146850585936,1.7106570861816406,-11.184513055419922
5010050280274,1.076746353,1,0.24301146850585936,1.7094599853515624,-11.233594189453123
5010052283920,1.078749999,1,0.2825157958984375,1.7010802795410156,-11.165359442138671
5010054279753,1.080745832,1,0.2561795776367187,1.7369933044433592,-11.171344946289063
5010056283399,1.082749478,1,0.2537853759765625,1.7082628845214842,-11.150994232177734
5010058280066,1.084746145,1,0.25139117431640623,1.7262193969726563,-11.16057103881836
5010060282774,1.086748853,1,0.24899697265624998,1.7357962036132812,-11.238382592773437
5010062280326,1.088746405,1,0.2154781494140625,1.7681179260253905,-11.270704315185545
5010064283087,1.090749166,1,0.2166752502441406,1.7214309936523438,-11.279084020996093
5010066280170,1.092746249,1,0.239420166015625,1.7286135986328124,-11.19887826538086
5010068283191,1.09474927,1,0.21308394775390624,1.7429788085937499,-11.155782635498046
5010070280118,1.096746197,1,0.2693476867675781,1.7860744384765623,-11.196484063720703
5010072282462,1.098748541,1,0.17357962036132812,1.7226280944824217,-11.139023223876952
5010074279962,1.100746041,1,0.2262520568847656,1.70467158203125,-11.183315954589844
5010076282045,1.102748124,1,0.21428104858398436,1.7525556152343749,-11.252747802734374
5010078279701,1.10474578,1,0.23822306518554687,1.714248388671875,-11.203666668701171
5010080282514,1.106748593,1,0.24301146850585936,1.7286135986328124,-11.19169566040039
5010082280430,1.108746509,1,0.22026655273437498,1.725022296142578,-11.137826123046874
5010084282826,1.110748905,1,0.22266075439453123,1.7238251953125,-11.176133349609374
5010086279962,1.112746041,1,0.17238251953125,1.7106570861816406,-11.23000288696289
5010088282618,1.114748697,1,0.2454056701660156,1.7118541870117185,-11.159373937988281
5010090280222,1.116746301,1,0.2549824768066406,1.714248388671875,-11.213243475341796
5010092282670,1.118748749,1,0.2454056701660156,1.7334020019531249,-11.225214483642578
5010094280118,1.120746197,1,0.1927332336425781,1.7262193969726563,-11.165359442138671
5010096282983,1.122749062,1,0.24061726684570311,1.7501614135742187,-11.225214483642578
5010098280222,1.124746301,1,0.2454056701660156,1.7202338928222656,-11.202469567871093
5010100283347,1.126749426,1,0.2549824768066406,1.70467158203125,-11.256339105224608
5010102280118,1.128746197,1,0.23223756103515625,1.7453730102539062,-11.233594189453123
5010104283503,1.130749582,1,0.21787235107421873,1.7609353210449217,-11.21084927368164
5010106280118,1.132746197,1,0.22266075439453123,1.697488977050781,-11.17852755126953
5010108282618,1.134748697,1,0.22864625854492185,1.678335363769531,-11.2240173828125
5010110280743,1.136746822,1,0.22505495605468748,1.7310078002929687,-11.174936248779296
5010112282670,1.138748749,1,0.239420166015625,1.7226280944824217,-11.188104357910156
5010114279858,1.140745937,1,0.24899697265624998,1.7262193969726563,-11.222820281982422
5010116282462,1.142748541,1,0.2645592834472656,1.7753005310058592,-11.183315954589844
5010118279858,1.144745937,1,0.23582886352539062,1.7322049011230467,-11.239579693603515
5010120280847,1.146746926,1,0.22266075439453123,1.7214309936523438,-11.226411584472656
5010122280378,1.148746457,1,0.26216508178710934,1.714248388671875,-11.176133349609374
5010124283503,1.150749582,1,0.23343466186523437,1.7178396911621092,-11.227608685302734
5010126280483,1.152746562,1,0.22864625854492185,1.7357962036132812,-11.15338843383789
5010128282826,1.154748905,1,0.2609679809570312,1.6903063720703124,-11.14022032470703
5010130280378,1.156746457,1,0.21906945190429686,1.7585411193847655,-11.21683477783203
5010132282722,1.158748801,1,0.28490999755859375,1.7429788085937499,-11.218031878662108
5010134279597,1.160745676,1,0.18315642700195311,1.744175909423828,-11.250353601074218
5010136283087,1.162749166,1,0.22026655273437498,1.6938976745605467,-11.213243475341796
5010138280066,1.164746145,1,0.2454056701660156,1.686715069580078,-11.24915650024414
5010140282722,1.166748801,1,0.23343466186523437,1.7310078002929687,-11.256339105224608
5010142279441,1.16874552,1,0.2825157958984375,1.734599102783203,-11.200075366210937
5010144283399,1.170749478,1,0.2693476867675781,1.7872715393066405,-11.15338843383789
5010146281316,1.172747395,1,0.22266075439453123,1.7106570861816406,-11.127052215576171
5010148283764,1.174749843,1,0.22266075439453123,1.686715069580078,-11.197681164550781
5010150280430,1.176746509,1,0.20709844360351562,1.7322049011230467,-11.2240173828125
5010152282566,1.178748645,1,0.21068974609375,1.7274164978027342,-11.213243475341796
5010154280639,1.180746718,1,0.21188684692382811,1.7034744812011717,-11.247959399414063
5010156282253,1.182748332,1,0.24181436767578124,1.7190367919921874,-11.212046374511718
5010158283816,1.184749895,1,0.23343466186523437,1.7214309936523438,-11.21683477783203
5010160286368,1.186752447,1,0.21906945190429686,1.70467158203125,-11.117475408935546
5010162280118,1.188746197,1,0.24061726684570311,1.7262193969726563,-11.152191333007812
5010164282201,1.19074828,1,0.2214636535644531,1.7429788085937499,-11.123460913085937
5010166279858,1.192745937,1,0.22864625854492185,1.7022773803710936,-11.212046374511718
5010168282826,1.194748905,1,0.2501940734863281,1.753752716064453,-11.190498559570312
5010170280483,1.196746562,1,0.2166752502441406,1.7944541442871094,-11.194089862060546
5010172282305,1.198748384,1,0.22385785522460935,1.744175909423828,-11.179724652099608
5010174280430,1.200746509,1,0.22026655273437498,1.707065783691406,-11.168950744628905
5010176282722,1.202748801,1,0.30885201416015623,1.7621324218749999,-11.141417425537108
5010178280170,1.204746249,1,0.2442085693359375,1.7477672119140624,-11.180921752929686
5010180282045,1.206748124,1,0.24301146850585936,1.7022773803710936,-11.17852755126953
5010182279597,1.208745676,1,0.25258827514648435,1.715445489501953,-11.158176837158203
5010184282045,1.210748124,1,0.2166752502441406,1.7405846069335937,-11.188104357910156
5010186279962,1.212746041,1,0.2609679809570312,1.7669208251953124,-11.166556542968749
5010188282930,1.214749009,1,0.24181436767578124,1.7286135986328124,-11.166556542968749
5010190281420,1.216747499,1,0.19393033447265623,1.7717092285156248,-11.184513055419922
5010192283399,1.218749478,1,0.21428104858398436,1.7417817077636717,-11.142614526367186
5010194280170,1.220746249,1,0.2765302917480469,1.7381904052734374,-11.121066711425781
5010196282410,1.222748489,1,0.2861070983886719,1.7106570861816406,-11.145008728027342
5010198280639,1.224746718,1,0.2597708801269531,1.705868682861328,-11.17852755126953
5010200283399,1.226749478,1,0.22026655273437498,1.715445489501953,-11.274295617675781
5010202280066,1.228746145,1,0.24061726684570311,1.763329522705078,-11.170147845458983
5010204282462,1.230748541,1,0.1879448303222656,1.725022296142578,-11.206060870361327
5010206280639,1.232746718,1,0.22505495605468748,1.707065783691406,-11.171344946289063
5010208283035,1.234749114,1,0.21308394775390624,1.734599102783203,-11.137826123046874
5010210279701,1.23674578,1,0.24061726684570311,1.734599102783203,-11.188104357910156
5010212283399,1.238749478,1,0.23822306518554687,1.7226280944824217,-11.179724652099608
5010214280743,1.240746822,1,0.2214636535644531,1.7262193969726563,-11.176133349609374
5010216283191,1.24274927,1,0.20949264526367187,1.7549498168945312,-11.203666668701171
5010218280066,1.244746145,1,0.24061726684570311,1.7561469177246092,-11.19887826538086
5010220282930,1.246749009,1,0.239420166015625,1.7357962036132812,-11.201272467041015
5010222280639,1.248746718,1,0.239420166015625,1.7238251953125,-11.206060870361327
5010224282305,1.250748384,1,0.23223756103515625,1.7561469177246092,-11.183315954589844
5010226279649,1.252745728,1,0.2561795776367187,1.7022773803710936,-11.125855114746093
5010228281576,1.254747655,1,0.2166752502441406,1.7489643127441405,-11.145008728027342
5010230280326,1.256746405,1,0.16639701538085935,1.7501614135742187,-11.228805786132812
5010232283451,1.25874953,1,0.239420166015625,1.725022296142578,-11.200075366210937
5010234281212,1.260747291,1,0.22744915771484372,1.7310078002929687,-11.182118853759764
5010236281680,1.262747759,1,0.2442085693359375,1.7908628417968748,-11.166556542968749
5010238281472,1.264747551,1,0.1640028137207031,1.7753005310058592,-11.192892761230468
5010240283972,1.266750051,1,0.23104046020507812,1.697488977050781,-11.206060870361327
5010242280378,1.268746457,1,0.22026655273437498,1.7477672119140624,-11.18571015625
5010244283295,1.270749374,1,0.20949264526367187,1.7130512878417967,-11.17254204711914
5010246277983,1.272744062,1,0.23343466186523437,1.7489643127441405,-11.21084927368164
5010248280899,1.274746978,1,0.22744915771484372,1.7118541870117185,-11.09592759399414
5010250279076,1.276745155,1,0.20470424194335937,1.7286135986328124,-11.218031878662108
5010252283451,1.27874953,1,0.22266075439453123,1.7381904052734374,-11.197681164550781
5010254281212,1.280747291,1,0.21068974609375,1.714248388671875,-11.190498559570312
5010256284128,1.282750207,1,0.17597382202148437,1.7310078002929687,-11.192892761230468
5010258280430,1.284746509,1,0.26336218261718747,1.7393875061035156,-11.176133349609374
5010260283035,1.286749114,1,0.2262520568847656,1.7693150268554687,-11.215637677001952
5010262279701,1.28874578,1,0.21308394775390624,1.7393875061035156,-11.239579693603515
5010264283139,1.290749218,1,0.27892449340820313,1.7106570861816406,-11.158176837158203
5010266280170,1.292746249,1,0.24301146850585936,1.714248388671875,-11.154585534667968
5010268281160,1.294747239,1,0.19512743530273435,1.763329522705078,-11.231199987792968
5010270280691,1.29674677,1,0.21188684692382811,1.707065783691406,-11.15338843383789
5010272282514,1.298748593,1,0.21906945190429686,1.734599102783203,-11.204863769531249
5010274280430,1.300746509,1,0.23223756103515625,1.7202338928222656,-11.231199987792968
5010276283243,1.302749322,1,0.25258827514648435,1.7118541870117185,-11.162965240478515
5010278280951,1.30474703,1,0.20829554443359374,1.715445489501953,-11.24915650024414
5010280283451,1.30674953,1,0.2537853759765625,1.7238251953125,-11.173739147949219
5010282280274,1.308746353,1,0.24899697265624998,1.7549498168945312,-11.208455072021483
5010284284024,1.310750103,1,0.21188684692382811,1.7429788085937499,-11.188104357910156
5010286280118,1.312746197,1,0.24181436767578124,1.7489643127441405,-11.200075366210937
5010288283347,1.314749426,1,0.258573779296875,1.7238251953125,-11.154585534667968
5010290280118,1.316746197,1,0.2597708801269531,1.7465701110839842,-11.164162341308593
5010292283139,1.318749218,1,0.2561795776367187,1.7130512878417967,-11.174936248779296
5010294279910,1.320745989,1,0.24779987182617186,1.7705121276855467,-11.234791290283203
5010296282982,1.322749061,1,0.21308394775390624,1.744175909423828,-11.195286962890624
5010298280743,1.324746822,1,0.239420166015625,1.7357962036132812,-11.251550701904296
5010300283347,1.326749426,1,0.27293898925781246,1.7501614135742187,-11.159373937988281
5010302280535,1.328746614,1,0.23702596435546874,1.7334020019531249,-11.143811627197264
5010304283607,1.330749686,1,0.22385785522460935,1.725022296142578,-11.182118853759764
5010306280274,1.332746353,1,0.19871873779296872,1.7322049011230467,-11.18571015625
5010308282618,1.334748697,1,0.1771709228515625,1.6998831787109374,-11.125855114746093
5010310280066,1.336746145,1,0.22266075439453123,1.6915034729003906,-11.15338843383789
5010312283087,1.338749166,1,0.1867477294921875,1.7585411193847655,-11.220426080322264
5010314278139,1.340744218,1,0.21068974609375,1.7405846069335937,-11.170147845458983
5010316283607,1.342749686,1,0.22266075439453123,1.697488977050781,-11.190498559570312
5010318279753,1.344745832,1,0.23343466186523437,1.7489643127441405,-11.176133349609374
5010320283868,1.346749947,1,0.24899697265624998,1.7381904052734374,-11.235988391113281
5010322280639,1.348746718,1,0.23822306518554687,1.7310078002929687,-11.231199987792968
5010324282930,1.350749009,1,0.23223756103515625,1.7597382202148437,-11.19169566040039
5010326280170,1.352746249,1,0.20709844360351562,1.7501614135742187,-11.165359442138671
5010328282930,1.354749009,1,0.23582886352539062,1.707065783691406,-11.207257971191405
5010330280795,1.356746874,1,0.20949264526367187,1.7489643127441405,-11.21084927368164
5010332282982,1.358749061,1,0.19393033447265623,1.7513585144042967,-11.158176837158203
5010334280743,1.360746822,1,0.19393033447265623,1.7202338928222656,-11.201272467041015
5010336282201,1.36274828,1,0.22385785522460935,1.7262193969726563,-11.190498559570312
5010338281003,1.364747082,1,0.22266075439453123,1.7106570861816406,-11.177330450439452
5010340284285,1.366750364,1,0.18914193115234373,1.7178396911621092,-11.17852755126953
5010342281472,1.368747551,1,0.23582886352539062,1.7465701110839842,-11.209652172851563
5010344283503,1.370749582,1,0.24779987182617186,1.7764976318359373,-11.15338843383789
5010346284076,1.372750155,1,0.2214636535644531,1.7334020019531249,-11.188104357910156
5010348286107,1.374752186,1,0.2154781494140625,1.6903063720703124,-11.186907257080078
5010350281680,1.376747759,1,0.2262520568847656,1.7226280944824217,-11.180921752929686
5010352282826,1.378748905,1,0.2214636535644531,1.7357962036132812,-11.165359442138671
5010354281160,1.380747239,1,0.20829554443359374,1.7238251953125,-11.189301458740234
5010356283191,1.38274927,1,0.2537853759765625,1.7310078002929687,-11.195286962890624
5010358279389,1.384745468,1,0.2561795776367187,1.7585411193847655,-11.207257971191405
5010360283139,1.386749218,1,0.258573779296875,1.7357962036132812,-11.161768139648437
5010362281212,1.388747291,1,0.21068974609375,1.7417817077636717,-11.196484063720703
5010364283712,1.390749791,1,0.22385785522460935,1.7609353210449217,-11.158176837158203
5010366281003,1.392747082,1,0.2214636535644531,1.7322049011230467,-11.183315954589844
5010368282774,1.394748853,1,0.23822306518554687,1.7226280944824217,-11.161768139648437
5010370280274,1.396746353,1,0.19871873779296872,1.6927005737304686,-11.14022032470703
5010372283555,1.398749634,1,0.22864625854492185,1.7322049011230467,-11.162965240478515
5010374281107,1.400747186,1,0.24779987182617186,1.7202338928222656,-11.166556542968749
5010376282826,1.402748905,1,0.201112939453125,1.7705121276855467,-11.143811627197264
5010378280587,1.404746666,1,0.24660277099609373,1.7202338928222656,-11.168950744628905
5010380282878,1.406748957,1,0.23822306518554687,1.705868682861328,-11.186907257080078
5010382280482,1.408746561,1,0.2549824768066406,1.6927005737304686,-11.253944903564452
5010384282410,1.410748489,1,0.1975216369628906,1.7334020019531249,-11.231199987792968
5010386280587,1.412746666,1,0.258573779296875,1.7477672119140624,-11.207257971191405
5010388283347,1.414749426,1,0.26815058593749996,1.7501614135742187,-11.19887826538086
5010390281107,1.416747186,1,0.21188684692382811,1.725022296142578,-11.135431921386719
5010392283035,1.418749114,1,0.2597708801269531,1.7334020019531249,-11.143811627197264
5010394280795,1.420746874,1,0.2214636535644531,1.7405846069335937,-11.183315954589844
5010396284232,1.422750311,1,0.21308394775390624,1.7429788085937499,-11.200075366210937
5010398280691,1.42474677,1,0.22385785522460935,1.7788918334960937,-11.218031878662108
5010400282930,1.426749009,1,0.23223756103515625,1.7274164978027342,-11.141417425537108
5010402280430,1.428746509,1,0.24061726684570311,1.7094599853515624,-11.19887826538086
5010404283087,1.430749166,1,0.2166752502441406,1.7238251953125,-11.143811627197264
5010406280951,1.43274703,1,0.23343466186523437,1.70467158203125,-11.251550701904296
5010408283816,1.434749895,1,0.21787235107421873,1.7525556152343749,-11.200075366210937
5010410281212,1.436747291,1,0.20350714111328125,1.7262193969726563,-11.133037719726563
5010412283555,1.438749634,1,0.18914193115234373,1.6795324645996093,-11.145008728027342
5010414280743,1.440746822,1,0.20470424194335937,1.6831237670898436,-11.154585534667968
5010416281055,1.442747134,1,0.24181436767578124,1.7561469177246092,-11.14022032470703
5010418280795,1.444746874,1,0.229843359375,1.7513585144042967,-11.133037719726563
5010420282462,1.446748541,1,0.2597708801269531,1.7381904052734374,-11.148600030517578
5010422279337,1.448745416,1,0.14125789794921875,1.744175909423828,-11.161768139648437
5010424283347,1.450749426,1,0.18076222534179687,1.7130512878417967,-11.182118853759764
5010426280170,1.452746249,1,0.1975216369628906,1.7166425903320313,-11.19169566040039
5010428283660,1.454749739,1,0.1771709228515625,1.6986860778808592,-11.125855114746093
5010430281055,1.456747134,1,0.23104046020507812,1.753752716064453,-11.220426080322264
5010432283087,1.458749166,1,0.258573779296875,1.7800889343261719,-11.156979736328124
5010434280691,1.46074677,1,0.21428104858398436,1.7525556152343749,-11.186907257080078
5010436283243,1.462749322,1,0.258573779296875,1.7118541870117185,-11.197681164550781
5010438280222,1.464746301,1,0.239420166015625,1.7597382202148437,-11.162965240478515
5010440282045,1.466748124,1,0.24061726684570311,1.7274164978027342,-11.233594189453123
5010442280691,1.46874677,1,0.2262520568847656,1.7094599853515624,-11.168950744628905
5010444281420,1.470747499,1,0.258573779296875,1.7369933044433592,-11.196484063720703
5010446280691,1.47274677,1,0.23104046020507812,1.7106570861816406,-11.16057103881836
5010448283347,1.474749426,1,0.23702596435546874,1.687912170410156,-11.196484063720703
5010450281003,1.476747082,1,0.24899697265624998,1.7118541870117185,-11.170147845458983
5010452282982,1.478749061,1,0.2813186950683594,1.7513585144042967,-11.158176837158203
5010454280639,1.480746718,1,0.2537853759765625,1.70467158203125,-11.135431921386719
5010456283035,1.482749114,1,0.1927332336425781,1.6915034729003906,-11.156979736328124
5010458280118,1.484746197,1,0.20829554443359374,1.705868682861328,-11.180921752929686
5010460283347,1.486749426,1,0.20829554443359374,1.668758557128906,-11.228805786132812
5010462281160,1.488747239,1,0.2501940734863281,1.725022296142578,-11.21683477783203
5010464284076,1.490750155,1,0.19512743530273435,1.7429788085937499,-11.170147845458983
5010466278503,1.492744582,1,0.17357962036132812,1.7417817077636717,-11.179724652099608
5010468283139,1.494749218,1,0.2059013427734375,1.7202338928222656,-11.188104357910156
5010470280795,1.496746874,1,0.2645592834472656,1.707065783691406,-11.146205828857422
5010472283243,1.498749322,1,0.2693476867675781,1.678335363769531,-11.17852755126953
5010474280170,1.500746249,1,0.22864625854492185,1.678335363769531,-11.225214483642578
5010476282514,1.502748593,1,0.21906945190429686,1.7166425903320313,-11.214440576171874
5010478280482,1.504746561,1,0.22864625854492185,1.7322049011230467,-11.2240173828125
5010480283191,1.50674927,1,0.22026655273437498,1.7369933044433592,-11.188104357910156
5010482280326,1.508746405,1,0.21787235107421873,1.7286135986328124,-11.188104357910156
5010484282201,1.51074828,1,0.24301146850585936,1.7202338928222656,-11.21084927368164
5010486280639,1.512746718,1,0.26336218261718747,1.744175909423828,-11.186907257080078
5010488283035,1.514749114,1,0.22744915771484372,1.7393875061035156,-11.155782635498046
5010490280743,1.516746822,1,0.2501940734863281,1.7178396911621092,-11.155782635498046
5010492281055,1.518747134,1,0.17357962036132812,1.7764976318359373,-11.203666668701171
5010494279128,1.520745207,1,0.20470424194335937,1.744175909423828,-11.155782635498046
5010496279076,1.522745155,1,0.22744915771484372,1.7010802795410156,-11.177330450439452
5010498280899,1.524746978,1,0.2645592834472656,1.7525556152343749,-11.19887826538086
5010500282774,1.526748853,1,0.26336218261718747,1.7202338928222656,-11.257536206054686
5010502280535,1.528746614,1,0.24061726684570311,1.7226280944824217,-11.195286962890624
5010504282462,1.530748541,1,0.19871873779296872,1.6891092712402342,-11.195286962890624
5010506279649,1.532745728,1,0.22864625854492185,1.7405846069335937,-11.167753643798827
5010508282045,1.534748124,1,0.23822306518554687,1.7776947326660155,-11.192892761230468
5010510280795,1.536746874,1,0.24899697265624998,1.687912170410156,-11.162965240478515
5010512283087,1.538749166,1,0.2609679809570312,1.7310078002929687,-11.168950744628905
5010514281368,1.540747447,1,0.24660277099609373,1.7585411193847655,-11.150994232177734
5010516283607,1.542749686,1,0.22864625854492185,1.7010802795410156,-11.170147845458983
5010518280378,1.544746457,1,0.2166752502441406,1.734599102783203,-11.200075366210937
5010520283347,1.546749426,1,0.2166752502441406,1.7393875061035156,-11.239579693603515
5010522280378,1.548746457,1,0.2154781494140625,1.7190367919921874,-11.17254204711914
5010524281264,1.550747343,1,0.22266075439453123,1.7788918334960937,-11.166556542968749
5010526281420,1.552747499,1,0.2549824768066406,1.7561469177246092,-11.16057103881836
5010528282618,1.554748697,1,0.17956512451171874,1.7477672119140624,-11.18571015625
5010530278555,1.556744634,1,0.2154781494140625,1.6915034729003906,-11.197681164550781
5010532283139,1.558749218,1,0.21308394775390624,1.7226280944824217,-11.189301458740234
5010534284545,1.560750624,1,0.18076222534179687,1.695094775390625,-11.202469567871093
5010536286784,1.562752863,1,0.24779987182617186,1.7094599853515624,-11.26831011352539
5010538280118,1.564746197,1,0.24779987182617186,1.7034744812011717,-11.150994232177734
5010540283347,1.566749426,1,0.24061726684570311,1.7034744812011717,-11.227608685302734
5010542280014,1.568746093,1,0.23343466186523437,1.7429788085937499,-11.110292803955078
5010544283191,1.57074927,1,0.229843359375,1.7489643127441405,-11.119869610595703
5010546280951,1.57274703,1,0.21906945190429686,1.734599102783203,-11.19169566040039
5010548283243,1.574749322,1,0.25737667846679685,1.6998831787109374,-11.264718811035156
5010550281316,1.576747395,1,0.22505495605468748,1.7262193969726563,-11.227608685302734
5010552281107,1.578747186,1,0.2166752502441406,1.7513585144042967,-11.174936248779296
5010554281107,1.580747186,1,0.2262520568847656,1.7190367919921874,-11.174936248779296
5010556283868,1.582749947,1,0.23223756103515625,1.7429788085937499,-11.183315954589844
5010558281941,1.58474802,1,0.25258827514648435,1.7226280944824217,-11.179724652099608
5010560283295,1.586749374,1,0.21308394775390624,1.7274164978027342,-11.164162341308593
5010562281159,1.588747238,1,0.2765302917480469,1.7178396911621092,-11.192892761230468
5010564283191,1.59074927,1,0.229843359375,1.7322049011230467,-11.113884106445312
5010566281524,1.592747603,1,0.24779987182617186,1.7657237243652342,-11.218031878662108
5010568283607,1.594749686,1,0.23343466186523437,1.7597382202148437,-11.197681164550781
5010570280170,1.596746249,1,0.23702596435546874,1.6891092712402342,-11.164162341308593
5010572282982,1.598749061,1,0.28969840087890625,1.8004396484374998,-11.203666668701171
5010574277670,1.600743749,1,0.18555062866210936,1.7585411193847655,-11.188104357910156
5010576283243,1.602749322,1,0.21188684692382811,1.7310078002929687,-11.186907257080078
5010578281264,1.604747343,1,0.1867477294921875,1.695094775390625,-11.239579693603515
5010580283764,1.606749843,1,0.22744915771484372,1.7621324218749999,-11.239579693603515
5010582281680,1.608747759,1,0.20231004028320312,1.7465701110839842,-11.170147845458983
5010584282670,1.610748749,1,0.25737667846679685,1.7010802795410156,-11.226411584472656
5010586280482,1.612746561,1,0.24061726684570311,1.7310078002929687,-11.195286962890624
5010588282618,1.614748697,1,0.22505495605468748,1.7166425903320313,-11.213243475341796
5010590280430,1.616746509,1,0.2262520568847656,1.734599102783203,-11.190498559570312
5010592283764,1.618749843,1,0.22026655273437498,1.70467158203125,-11.18571015625
5010594280482,1.620746561,1,0.2059013427734375,1.7106570861816406,-11.174936248779296
5010596283295,1.622749374,1,0.19632453613281248,1.753752716064453,-11.15338843383789
5010598280326,1.624746405,1,0.23343466186523437,1.7609353210449217,-11.182118853759764
5010600283764,1.626749843,1,0.21906945190429686,1.7022773803710936,-11.162965240478515
5010602281264,1.628747343,1,0.24061726684570311,1.725022296142578,-11.128249316406249
5010604282878,1.630748957,1,0.2645592834472656,1.7286135986328124,-11.165359442138671
5010606280795,1.632746874,1,0.20350714111328125,1.705868682861328,-11.170147845458983
5010608279232,1.634745311,1,0.21188684692382811,1.7262193969726563,-11.218031878662108
5010610280795,1.636746874,1,0.21428104858398436,1.7226280944824217,-11.18571015625
5010612282878,1.638748957,1,0.26216508178710934,1.7214309936523438,-11.25514200439453
5010614279753,1.640745832,1,0.23223756103515625,1.697488977050781,-11.168950744628905
5010616282618,1.642748697,1,0.23582886352539062,1.7381904052734374,-11.133037719726563
5010618280639,1.644746718,1,0.22505495605468748,1.7417817077636717,-11.152191333007812
5010620282930,1.646749009,1,0.17956512451171874,1.7106570861816406,-11.222820281982422
5010622281732,1.648747811,1,0.24779987182617186,1.7405846069335937,-11.168950744628905
5010624282253,1.650748332,1,0.24779987182617186,1.7717092285156248,-11.16057103881836
5010626281472,1.652747551,1,0.2059013427734375,1.734599102783203,-11.14022032470703
5010628283764,1.654749843,1,0.2501940734863281,1.7166425903320313,-11.086350787353515
5010630280587,1.656746666,1,0.27293898925781246,1.7477672119140624,-11.089942089843749
5010632283087,1.658749166,1,0.22744915771484372,1.7429788085937499,-11.188104357910156
5010634280326,1.660746405,1,0.201112939453125,1.6998831787109374,-11.184513055419922
5010636281889,1.662747968,1,0.181959326171875,1.7178396911621092,-11.162965240478515
5010638278295,1.664744374,1,0.21068974609375,1.7513585144042967,-11.184513055419922
5010640283347,1.666749426,1,0.20470424194335937,1.7262193969726563,-11.127052215576171
5010642279857,1.668745936,1,0.21308394775390624,1.744175909423828,-11.177330450439452
5010644283295,1.670749374,1,0.20949264526367187,1.7334020019531249,-11.139023223876952
5010646281159,1.672747238,1,0.1771709228515625,1.7238251953125,-11.098321795654297
5010648282618,1.674748697,1,0.17597382202148437,1.7286135986328124,-11.197681164550781
5010650279493,1.676745572,1,0.22744915771484372,1.7417817077636717,-11.214440576171874
5010652282462,1.678748541,1,0.24301146850585936,1.7597382202148437,-11.143811627197264
5010654280795,1.680746874,1,0.24301146850585936,1.7357962036132812,-11.168950744628905
5010656283243,1.682749322,1,0.21188684692382811,1.7369933044433592,-11.200075366210937
5010658280691,1.68474677,1,0.21428104858398436,1.7274164978027342,-11.206060870361327
5010660281420,1.686747499,1,0.24181436767578124,1.695094775390625,-11.212046374511718
5010662279805,1.688745884,1,0.21906945190429686,1.697488977050781,-11.16057103881836
5010664283764,1.690749843,1,0.23223756103515625,1.6819266662597656,-11.170147845458983
5010666281107,1.692747186,1,0.28490999755859375,1.7369933044433592,-11.170147845458983
5010668283555,1.694749634,1,0.24899697265624998,1.7310078002929687,-11.127052215576171
5010670280691,1.69674677,1,0.23582886352539062,1.6891092712402342,-11.171344946289063
5010672282878,1.698748957,1,0.28969840087890625,1.714248388671875,-11.060014569091797
5010674280014,1.700746093,1,0.2537853759765625,1.7202338928222656,-11.195286962890624
5010676282774,1.702748853,1,0.1927332336425781,1.7238251953125,-11.192892761230468
5010678280587,1.704746666,1,0.21188684692382811,1.7238251953125,-11.304223138427734
5010680282253,1.706748332,1,0.2454056701660156,1.7274164978027342,-11.091139190673827
5010682278868,1.708744947,1,0.23702596435546874,1.7202338928222656,-11.314997045898437
5010684283555,1.710749634,1,0.23582886352539062,1.7525556152343749,-11.135431921386719
5010686280899,1.712746978,1,0.2645592834472656,1.7788918334960937,-11.166556542968749
5010688284128,1.714750207,1,0.16160861206054686,1.7381904052734374,-11.062408770751953
5010690280170,1.716746249,1,0.20231004028320312,1.714248388671875,-11.30661734008789
5010692282462,1.718748541,1,0.2549824768066406,1.7214309936523438,-11.042058056640624
5010694279962,1.720746041,1,0.22026655273437498,1.70467158203125,-11.294646331787108
5010696282930,1.722749009,1,0.2454056701660156,1.6938976745605467,-11.079168182373046
5010698279649,1.724745728,1,0.2693476867675781,1.715445489501953,-11.246762298583985
5010700282618,1.726748697,1,0.29448680419921874,1.7477672119140624,-11.208455072021483
5010702280170,1.728746249,1,0.24181436767578124,1.7645266235351562,-11.310208642578125
5010704282566,1.730748645,1,0.21906945190429686,1.772906329345703,-11.061211669921875
5010706279805,1.732745884,1,0.2537853759765625,1.7705121276855467,-11.195286962890624
5010708283347,1.734749426,1,0.23104046020507812,1.7489643127441405,-11.207257971191405
5010710280587,1.736746666,1,0.21068974609375,1.7741034301757812,-11.33175645751953
5010712282722,1.738748801,1,0.24899697265624998,1.725022296142578,-11.071985577392578
5010714280118,1.740746197,1,0.1927332336425781,1.7764976318359373,-11.253944903564452
5010716282930,1.742749009,1,0.2442085693359375,1.753752716064453,-11.222820281982422
5010718281576,1.744747655,1,0.27293898925781246,1.7298106994628906,-11.206060870361327
5010720282774,1.746748853,1,0.2059013427734375,1.7034744812011717,-11.240776794433593
5010722285118,1.748751197,1,0.2059013427734375,1.7417817077636717,-11.312602844238281
5010724285795,1.750751874,1,0.20829554443359374,1.7381904052734374,-11.044452258300781
5010726279962,1.752746041,1,0.20231004028320312,1.7585411193847655,-11.202469567871093
5010728283191,1.75474927,1,0.22744915771484372,1.7334020019531249,-11.318588348388671
5010730280586,1.756746665,1,0.229843359375,1.7501614135742187,-11.158176837158203
5010732283607,1.758749686,1,0.24061726684570311,1.7262193969726563,-11.152191333007812
5010734281107,1.760747186,1,0.22385785522460935,1.695094775390625,-11.080365283203124
5010736282618,1.762748697,1,0.28012159423828126,1.7393875061035156,-11.288660827636718
5010738280274,1.764746353,1,0.22505495605468748,1.7034744812011717,-11.036072552490234
5010740282618,1.766748697,1,0.20350714111328125,1.7310078002929687,-11.220426080322264
5010742277982,1.768744061,1,0.24061726684570311,1.7381904052734374,-11.309011541748045
5010744277461,1.77074354,1,0.229843359375,1.7369933044433592,-11.061211669921875
5010746279493,1.772745572,1,0.239420166015625,1.7106570861816406,-11.251550701904296
5010748280743,1.774746822,1,0.258573779296875,1.744175909423828,-11.24915650024414
5010750282045,1.776748124,1,0.2059013427734375,1.7357962036132812,-11.337741961669922
5010752283972,1.778750051,1,0.23223756103515625,1.7465701110839842,-11.168950744628905
5010754280378,1.780746457,1,0.27174188842773433,1.6915034729003906,-11.056423266601563
5010756283816,1.782749895,1,0.17956512451171874,1.705868682861328,-11.19169566040039
5010758280378,1.784746457,1,0.24181436767578124,1.7238251953125,-11.197681164550781
5010760283347,1.786749426,1,0.18435352783203124,1.725022296142578,-11.314997045898437
5010762280534,1.788746613,1,0.22864625854492185,1.7226280944824217,-11.149797131347656
5010764282982,1.790749061,1,0.28012159423828126,1.7274164978027342,-11.155782635498046
5010766279805,1.792745884,1,0.19871873779296872,1.7214309936523438,-11.034875451660156
5010768281628,1.794747707,1,0.229843359375,1.707065783691406,-11.220426080322264
5010770280534,1.796746613,1,0.23104046020507812,1.725022296142578,-11.19887826538086
5010772283191,1.79874927,1,0.26815058593749996,1.7776947326660155,-11.335347760009764
5010774280639,1.800746718,1,0.2537853759765625,1.714248388671875,-11.123460913085937
5010776282045,1.802748124,1,0.23702596435546874,1.7501614135742187,-11.200075366210937
5010778280691,1.80474677,1,0.2609679809570312,1.7561469177246092,-11.209652172851563
5010780283399,1.806749478,1,0.2765302917480469,1.7417817077636717,-11.311405743408203
5010782280586,1.808746665,1,0.23223756103515625,1.7453730102539062,-11.141417425537108
5010784283191,1.81074927,1,0.23702596435546874,1.7214309936523438,-11.164162341308593
5010786279909,1.812745988,1,0.19153613281249998,1.7764976318359373,-11.046846459960937
5010788283191,1.81474927,1,0.26216508178710934,1.7286135986328124,-11.320982550048827
5010790280326,1.816746405,1,0.201112939453125,1.7980454467773437,-11.0707884765625
5010792282566,1.818748645,1,0.15322890625,1.7860744384765623,-11.235988391113281
5010794280586,1.820746665,1,0.17118541870117188,1.7549498168945312,-11.243170996093749
5010796282982,1.822749061,1,0.24061726684570311,1.678335363769531,-11.23000288696289
5010798280691,1.82474677,1,0.20829554443359374,1.734599102783203,-11.218031878662108
5010800282878,1.826748957,1,0.1771709228515625,1.7513585144042967,-11.184513055419922
5010802280639,1.828746718,1,0.2657563842773437,1.7621324218749999,-11.221623181152344
5010804283764,1.830749843,1,0.22026655273437498,1.7106570861816406,-11.190498559570312
5010806280430,1.832746509,1,0.21906945190429686,1.7094599853515624,-11.17852755126953
5010808283086,1.834749165,1,0.21906945190429686,1.7334020019531249,-11.21084927368164
5010810280430,1.836746509,1,0.2454056701660156,1.7573440185546874,-11.17254204711914
5010812283816,1.838749895,1,0.20829554443359374,1.7429788085937499,-11.167753643798827
5010814280639,1.840746718,1,0.18914193115234373,1.7334020019531249,-11.189301458740234
5010816283972,1.842750051,1,0.21188684692382811,1.7238251953125,-11.128249316406249
5010818281524,1.844747603,1,0.18315642700195311,1.6843208679199217,-11.1474029296875
5010820283347,1.846749426,1,0.20709844360351562,1.772906329345703,-11.155782635498046
5010822280066,1.848746145,1,0.21428104858398436,1.7513585144042967,-11.156979736328124
5010824283816,1.850749895,1,0.16759411621093748,1.7465701110839842,-11.158176837158203
5010826280534,1.852746613,1,0.21308394775390624,1.7944541442871094,-11.177330450439452
5010828282774,1.854748853,1,0.2597708801269531,1.772906329345703,-11.195286962890624
5010830280326,1.856746405,1,0.2609679809570312,1.7657237243652342,-11.170147845458983
5010832283086,1.858749165,1,0.21428104858398436,1.7561469177246092,-11.177330450439452
5010834280586,1.860746665,1,0.23582886352539062,1.8028338500976562,-11.209652172851563
5010836282826,1.862748905,1,0.21787235107421873,1.7298106994628906,-11.279084020996093
5010838280847,1.864746926,1,0.23104046020507812,1.7453730102539062,-11.225214483642578
5010840282774,1.866748853,1,0.2214636535644531,1.7166425903320313,-11.174936248779296
5010842280326,1.868746405,1,0.21428104858398436,1.7573440185546874,-11.156979736328124
5010844283034,1.870749113,1,0.19632453613281248,1.7393875061035156,-11.124658013916015
5010846280899,1.872746978,1,0.1975216369628906,1.7573440185546874,-11.174936248779296
5010848283034,1.874749113,1,0.2597708801269531,1.7190367919921874,-11.155782635498046
5010850280586,1.876746665,1,0.2549824768066406,1.7393875061035156,-11.21683477783203
5010852283451,1.87874953,1,0.19632453613281248,1.7549498168945312,-11.164162341308593
5010854278920,1.880744999,1,0.26695348510742184,1.7764976318359373,-11.129446417236327
5010856283659,1.882749738,1,0.17597382202148437,1.7393875061035156,-11.168950744628905
5010858280743,1.884746822,1,0.20949264526367187,1.7645266235351562,-11.17852755126953
5010860283659,1.886749738,1,0.24301146850585936,1.7453730102539062,-11.194089862060546
5010862280951,1.88874703,1,0.17357962036132812,1.7717092285156248,-11.173739147949219
5010864283399,1.890749478,1,0.24779987182617186,1.6938976745605467,-11.21683477783203
5010866280795,1.892746874,1,0.1879448303222656,1.7800889343261719,-11.197681164550781
5010868282774,1.894748853,1,0.20709844360351562,1.7549498168945312,-11.161768139648437
5010870280639,1.896746718,1,0.20470424194335937,1.7202338928222656,-11.150994232177734
5010872283399,1.898749478,1,0.22385785522460935,1.7417817077636717,-11.200075366210937
5010874279909,1.900745988,1,0.18315642700195311,1.7178396911621092,-11.209652172851563
5010876281524,1.902747603,1,0.2166752502441406,1.6903063720703124,-11.166556542968749
5010878279597,1.904745676,1,0.2454056701660156,1.7298106994628906,-11.142614526367186
5010880283972,1.906750051,1,0.2166752502441406,1.7166425903320313,-11.208455072021483
5010882281159,1.908747238,1,0.21428104858398436,1.7561469177246092,-11.146205828857422
5010884282774,1.910748853,1,0.23822306518554687,1.7369933044433592,-11.159373937988281
5010886280899,1.912746978,1,0.24061726684570311,1.7860744384765623,-11.194089862060546
5010888282722,1.914748801,1,0.21068974609375,1.7717092285156248,-11.180921752929686
5010890280795,1.916746874,1,0.18914193115234373,1.7226280944824217,-11.183315954589844
5010892282461,1.91874854,1,0.27174188842773433,1.7106570861816406,-11.219228979492186
5010894280482,1.920746561,1,0.22026655273437498,1.7226280944824217,-11.170147845458983
5010896283139,1.922749218,1,0.18555062866210936,1.7118541870117185,-11.180921752929686
5010898280534,1.924746613,1,0.20949264526367187,1.7262193969726563,-11.225214483642578
5010900283139,1.926749218,1,0.21188684692382811,1.7262193969726563,-11.208455072021483
5010902280899,1.928746978,1,0.22026655273437498,1.7381904052734374,-11.182118853759764
5010904283555,1.930749634,1,0.23104046020507812,1.68551796875,-11.240776794433593
5010906280534,1.932746613,1,0.20470424194335937,1.7357962036132812,-11.195286962890624
5010908283659,1.934749738,1,0.20709844360351562,1.753752716064453,-11.148600030517578
5010910285534,1.936751613,1,0.2657563842773437,1.7764976318359373,-11.182118853759764
5010912286420,1.938752499,1,0.229843359375,1.7705121276855467,-11.195286962890624
5010914281159,1.940747238,1,0.19512743530273435,1.7238251953125,-11.188104357910156
5010916282774,1.942748853,1,0.2442085693359375,1.6986860778808592,-11.15338843383789
5010918280691,1.94474677,1,0.17477672119140625,1.7597382202148437,-11.133037719726563
5010920282826,1.946748905,1,0.2214636535644531,1.7453730102539062,-11.214440576171874
5010922280639,1.948746718,1,0.20350714111328125,1.7034744812011717,-11.170147845458983
5010924283868,1.950749947,1,0.2454056701660156,1.7381904052734374,-11.186907257080078
5010926280430,1.952746509,1,0.22266075439453123,1.6986860778808592,-11.125855114746093
5010928283034,1.954749113,1,0.25258827514648435,1.7369933044433592,-11.201272467041015
5010930280430,1.956746509,1,0.21906945190429686,1.7585411193847655,-11.259930407714844
5010932282618,1.958748697,1,0.23104046020507812,1.6723498596191406,-11.207257971191405
5010934280899,1.960746978,1,0.20470424194335937,1.734599102783203,-11.125855114746093
5010936283399,1.962749478,1,0.19871873779296872,1.7094599853515624,-11.170147845458983
5010938280326,1.964746405,1,0.2597708801269531,1.7094599853515624,-11.150994232177734
5010940282461,1.96674854,1,0.2657563842773437,1.6986860778808592,-11.176133349609374
5010942279180,1.968745259,1,0.22385785522460935,1.7585411193847655,-11.184513055419922
5010944283764,1.970749843,1,0.18076222534179687,1.7501614135742187,-11.11508120727539
5010946281732,1.972747811,1,0.19871873779296872,1.7322049011230467,-11.141417425537108
5010948283868,1.974749947,1,0.19512743530273435,1.6998831787109374,-11.219228979492186
5010950280274,1.976746353,1,0.26216508178710934,1.7238251953125,-11.17254204711914
5010952284076,1.978750155,1,0.25258827514648435,1.7298106994628906,-11.167753643798827
5010954279857,1.980745936,1,0.20949264526367187,1.7932570434570312,-11.189301458740234
5010956283607,1.982749686,1,0.2537853759765625,1.6735469604492186,-11.165359442138671
5010958281159,1.984747238,1,0.24779987182617186,1.5753846923828123,-11.221623181152344
5010960283243,1.986749322,1,0.24061726684570311,1.7381904052734374,-11.13423482055664
5010962279336,1.988745415,1,0.2059013427734375,1.715445489501953,-11.131840618896483
5010964282774,1.990748853,1,0.19632453613281248,1.7405846069335937,-11.118672509765624
5010966280951,1.99274703,1,0.24899697265624998,1.7453730102539062,-11.149797131347656
5010968283451,1.99474953,1,0.2262520568847656,1.7501614135742187,-11.156979736328124
5010970280586,1.996746665,1,0.2932897033691406,1.7489643127441405,-11.112687005615234
5010972280638,1.998746717,1,0.26695348510742184,1.6927005737304686,-11.188104357910156
5010974281316,2.000747395,1,0.25737667846679685,1.7178396911621092,-11.194089862060546
5010976284441,2.00275052,1,0.23104046020507812,1.7106570861816406,-11.267113012695312
5010978280378,2.004746457,1,0.22864625854492185,1.7130512878417967,-11.204863769531249
5010980283243,2.006749322,1,0.2442085693359375,1.7118541870117185,-11.15338843383789
5010982280430,2.008746509,1,0.26695348510742184,1.744175909423828,-11.097124694824219
5010984281524,2.010747603,1,0.25139117431640623,1.7405846069335937,-11.17852755126953
5010986280534,2.012746613,1,0.2932897033691406,1.7585411193847655,-11.056423266601563
5010988283399,2.014749478,1,0.22864625854492185,1.7334020019531249,-11.232397088623046
5010990278607,2.016744686,1,0.21068974609375,1.7956512451171873,-11.192892761230468
5010992279180,2.018745259,1,0.22026655273437498,1.7082628845214842,-11.218031878662108
5010994280691,2.02074677,1,0.22744915771484372,1.7202338928222656,-11.26831011352539
5010996283659,2.022749738,1,0.258573779296875,1.7190367919921874,-11.241973895263671
5010998281211,2.02474729,1,0.2741360900878906,1.7405846069335937,-11.19169566040039
5011000283295,2.026749374,1,0.2442085693359375,1.7118541870117185,-11.21683477783203
5011002280326,2.028746405,1,0.20709844360351562,1.7106570861816406,-11.165359442138671
5011004280795,2.030746874,1,0.21308394775390624,1.7477672119140624,-11.0707884765625
5011006280638,2.032746717,1,0.2454056701660156,1.7082628845214842,-11.13423482055664
5011008283659,2.034749738,1,0.24779987182617186,1.7513585144042967,-11.219228979492186
5011010280378,2.036746457,1,0.19632453613281248,1.6998831787109374,-11.231199987792968
5011012283503,2.038749582,1,0.22744915771484372,1.7334020019531249,-11.221623181152344
5011014280222,2.040746301,1,0.23343466186523437,1.7453730102539062,-11.182118853759764
5011016282461,2.04274854,1,0.2454056701660156,1.7094599853515624,-11.19887826538086
5011018280795,2.044746874,1,0.20350714111328125,1.7094599853515624,-11.117475408935546
5011020282774,2.046748853,1,0.2214636535644531,1.8028338500976562,-11.214440576171874
5011022280482,2.048746561,1,0.22744915771484372,1.7226280944824217,-11.247959399414063
5011024283138,2.050749217,1,0.22864625854492185,1.7022773803710936,-11.174936248779296
5011026280430,2.052746509,1,0.3220201232910156,1.7106570861816406,-11.166556542968749
5011028288191,2.05475427,1,0.2262520568847656,1.7956512451171873,-11.085153686523437
5011030282461,2.05674854,1,0.24779987182617186,1.7884686401367187,-11.166556542968749
5011032284024,2.058750103,1,0.23822306518554687,1.7334020019531249,-11.21683477783203
5011034278659,2.060744738,1,0.22266075439453123,1.7226280944824217,-11.220426080322264
5011036279649,2.062745728,1,0.21308394775390624,1.7477672119140624,-11.202469567871093
5011038281888,2.064747967,1,0.26336218261718747,1.7501614135742187,-11.17254204711914
5011040283972,2.066750051,1,0.21308394775390624,1.7489643127441405,-11.135431921386719
5011042280222,2.068746301,1,0.17836802368164062,1.7178396911621092,-11.174936248779296
5011044283972,2.070750051,1,0.258573779296875,1.7214309936523438,-11.14022032470703
5011046280691,2.07274677,1,0.23582886352539062,1.7597382202148437,-11.173739147949219
5011048282097,2.074748176,1,0.2454056701660156,1.70467158203125,-11.17852755126953
5011050280534,2.076746613,1,0.21428104858398436,1.7357962036132812,-11.17852755126953
5011052283295,2.078749374,1,0.22505495605468748,1.7800889343261719,-11.167753643798827
5011054280951,2.08074703,1,0.20949264526367187,1.7369933044433592,-11.1474029296875
5011056283972,2.082750051,1,0.25139117431640623,1.7657237243652342,-11.127052215576171
5011058280222,2.084746301,1,0.239420166015625,1.7405846069335937,-11.133037719726563
5011060283086,2.086749165,1,0.19393033447265623,1.7106570861816406,-11.137826123046874
5011062281003,2.088747082,1,0.2537853759765625,1.7381904052734374,-11.16057103881836
5011064283243,2.090749322,1,0.21787235107421873,1.7453730102539062,-11.19887826538086
5011066281003,2.092747082,1,0.2501940734863281,1.7214309936523438,-11.167753643798827
5011068282826,2.094748905,1,0.21428104858398436,1.715445489501953,-11.19169566040039
5011070279805,2.096745884,1,0.24899697265624998,1.7585411193847655,-11.164162341308593
5011072283816,2.098749895,1,0.25139117431640623,1.7357962036132812,-11.213243475341796
5011074281420,2.100747499,1,0.20829554443359374,1.7357962036132812,-11.200075366210937
5011076283347,2.102749426,1,0.19153613281249998,1.7776947326660155,-11.17852755126953
5011078280795,2.104746874,1,0.23822306518554687,1.7501614135742187,-11.100715997314452
5011080282253,2.106748332,1,0.239420166015625,1.7417817077636717,-11.156979736328124
5011082281263,2.108747342,1,0.21906945190429686,1.7453730102539062,-11.123460913085937
5011084283399,2.110749478,1,0.2059013427734375,1.7429788085937499,-11.23000288696289
5011086280691,2.11274677,1,0.23822306518554687,1.7286135986328124,-11.221623181152344
5011088282878,2.114748957,1,0.21428104858398436,1.7381904052734374,-11.219228979492186
5011090280430,2.116746509,1,0.21906945190429686,1.7334020019531249,-11.192892761230468
5011092281211,2.11874729,1,0.23223756103515625,1.7214309936523438,-11.17852755126953
5011094280743,2.120746822,1,0.2705447875976562,1.7310078002929687,-11.250353601074218
5011096283868,2.122749947,1,0.2442085693359375,1.7753005310058592,-11.200075366210937
5011098280378,2.124746457,1,0.2454056701660156,1.7393875061035156,-11.171344946289063
5011100281524,2.126747603,1,0.22026655273437498,1.744175909423828,-11.228805786132812
5011102280691,2.12874677,1,0.2657563842773437,1.7274164978027342,-11.16057103881836
5011104283086,2.130749165,1,0.21068974609375,1.6615759521484375,-11.180921752929686
5011106280691,2.13274677,1,0.21428104858398436,1.7465701110839842,-11.196484063720703
5011108282774,2.134748853,1,0.19393033447265623,1.7417817077636717,-11.220426080322264
5011110280378,2.136746457,1,0.20470424194335937,1.753752716064453,-11.154585534667968
5011112283295,2.138749374,1,0.19393033447265623,1.7274164978027342,-11.21084927368164
5011114280638,2.140746717,1,0.20949264526367187,1.7322049011230467,-11.21084927368164
5011116282618,2.142748697,1,0.258573779296875,1.7405846069335937,-11.156979736328124
5011118280899,2.144746978,1,0.20709844360351562,1.7322049011230467,-11.158176837158203
5011120283868,2.146749947,1,0.23582886352539062,1.7764976318359373,-11.209652172851563
5011122280482,2.148746561,1,0.2262520568847656,1.7310078002929687,-11.182118853759764
5011124284284,2.150750363,1,0.26336218261718747,1.6903063720703124,-11.177330450439452
5011126280170,2.152746249,1,0.22505495605468748,1.6938976745605467,-11.203666668701171
5011128283295,2.154749374,1,0.18315642700195311,1.734599102783203,-11.174936248779296
5011130280326,2.156746405,1,0.201112939453125,1.7357962036132812,-11.133037719726563
5011132283399,2.158749478,1,0.2561795776367187,1.7561469177246092,-11.182118853759764
5011134280586,2.160746665,1,0.201112939453125,1.7573440185546874,-11.166556542968749
5011136283555,2.162749634,1,0.20949264526367187,1.744175909423828,-11.166556542968749
5011138280795,2.164746874,1,0.3028665100097656,1.763329522705078,-11.225214483642578
5011140283920,2.166749999,1,0.20231004028320312,1.7298106994628906,-11.081562384033202
5011142280899,2.168746978,1,0.22385785522460935,1.686715069580078,-11.164162341308593
5011144283711,2.17074979,1,0.20709844360351562,1.7118541870117185,-11.137826123046874
5011146280899,2.172746978,1,0.22266075439453123,1.7513585144042967,-11.16057103881836
5011148282774,2.174748853,1,0.22864625854492185,1.7286135986328124,-11.146205828857422
5011150280951,2.17674703,1,0.22505495605468748,1.7190367919921874,-11.183315954589844
5011152283399,2.178749478,1,0.2885013000488281,1.7405846069335937,-11.180921752929686
5011154280430,2.180746509,1,0.23822306518554687,1.7094599853515624,-11.206060870361327
5011156281420,2.182747499,1,0.17357962036132812,1.6915034729003906,-11.226411584472656
5011158280326,2.184746405,1,0.2059013427734375,1.7106570861816406,-11.212046374511718
5011160282930,2.186749009,1,0.2262520568847656,1.696291876220703,-11.143811627197264
5011162281055,2.188747134,1,0.22744915771484372,1.68551796875,-11.203666668701171
5011164284232,2.190750311,1,0.229843359375,1.7226280944824217,-11.285069525146485
5011166280690,2.192746769,1,0.2154781494140625,1.7130512878417967,-11.23718549194336
5011168283243,2.194749322,1,0.20350714111328125,1.7525556152343749,-11.209652172851563
5011170280430,2.196746509,1,0.19632453613281248,1.7334020019531249,-11.155782635498046
5011172283451,2.19874953,1,0.22385785522460935,1.725022296142578,-11.137826123046874
5011174280378,2.200746457,1,0.21428104858398436,1.7369933044433592,-11.1474029296875
5011176282513,2.202748592,1,0.26336218261718747,1.6998831787109374,-11.152191333007812
5011178278972,2.204745051,1,0.2262520568847656,1.734599102783203,-11.159373937988281
5011180282722,2.206748801,1,0.24301146850585936,1.695094775390625,-11.206060870361327
5011182280534,2.208746613,1,0.21308394775390624,1.7010802795410156,-11.231199987792968
5011184282826,2.210748905,1,0.18914193115234373,1.744175909423828,-11.180921752929686
5011186280170,2.212746249,1,0.2346317626953125,1.7429788085937499,-11.221623181152344
5011188282513,2.214748592,1,0.2765302917480469,1.7214309936523438,-11.118672509765624
5011190280326,2.216746405,1,0.23343466186523437,1.7310078002929687,-11.184513055419922
5011192283503,2.218749582,1,0.20709844360351562,1.772906329345703,-11.137826123046874
5011194281003,2.220747082,1,0.20470424194335937,1.7621324218749999,-11.17254204711914
5011196283034,2.222749113,1,0.25139117431640623,1.7226280944824217,-11.21084927368164
5011198280795,2.224746874,1,0.25737667846679685,1.7202338928222656,-11.180921752929686
5011200281628,2.226747707,1,0.22266075439453123,1.7836802368164062,-11.162965240478515
5011202280795,2.228746874,1,0.19871873779296872,1.7597382202148437,-11.113884106445312
5011204283399,2.230749478,1,0.24061726684570311,1.7357962036132812,-11.222820281982422
5011206280690,2.232746769,1,0.23702596435546874,1.7489643127441405,-11.154585534667968
5011208283034,2.234749113,1,0.2932897033691406,1.7549498168945312,-11.165359442138671
5011210280222,2.236746301,1,0.24181436767578124,1.7717092285156248,-11.110292803955078
5011212283451,2.23874953,1,0.2059013427734375,1.7717092285156248,-11.190498559570312
5011214281003,2.240747082,1,0.20470424194335937,1.7621324218749999,-11.244368096923827
5011216283659,2.242749738,1,0.2645592834472656,1.7717092285156248,-11.251550701904296
5011218287513,2.244753592,1,0.2346317626953125,1.7130512878417967,-11.159373937988281
5011220287409,2.246753488,1,0.2741360900878906,1.7166425903320313,-11.245565197753905
5011222281263,2.248747342,1,0.21906945190429686,1.7513585144042967,-11.139023223876952
5011224283347,2.250749426,1,0.2442085693359375,1.675941162109375,-11.129446417236327
5011226281420,2.252747499,1,0.22744915771484372,1.7357962036132812,-11.089942089843749
5011228283920,2.254749999,1,0.2537853759765625,1.7238251953125,-11.233594189453123
5011230280378,2.256746457,1,0.22266075439453123,1.7178396911621092,-11.154585534667968
5011232283295,2.258749374,1,0.21188684692382811,1.707065783691406,-11.165359442138671
5011234280274,2.260746353,1,0.20829554443359374,1.7549498168945312,-11.238382592773437
5011236283295,2.262749374,1,0.2561795776367187,1.7549498168945312,-11.15338843383789
5011238277982,2.264744061,1,0.21787235107421873,1.7357962036132812,-11.18571015625
5011240280534,2.266746613,1,0.2262520568847656,1.6807295654296874,-11.231199987792968
5011242281472,2.268747551,1,0.2813186950683594,1.734599102783203,-11.156979736328124
5011244283243,2.270749322,1,0.2597708801269531,1.7393875061035156,-11.174936248779296
5011246280222,2.272746301,1,0.19033903198242186,1.7286135986328124,-11.197681164550781
5011248283399,2.274749478,1,0.22864625854492185,1.7429788085937499,-11.23000288696289
5011250280534,2.276746613,1,0.20709844360351562,1.7489643127441405,-11.197681164550781
5011252282826,2.278748905,1,0.2454056701660156,1.7453730102539062,-11.189301458740234
5011254280013,2.280746092,1,0.24061726684570311,1.7501614135742187,-11.219228979492186
5011256282253,2.282748332,1,0.28371289672851563,1.7513585144042967,-11.182118853759764
5011258280274,2.284746353,1,0.2765302917480469,1.7585411193847655,-11.107898602294922
5011260280847,2.286746926,1,0.22864625854492185,1.744175909423828,-11.232397088623046
5011262281628,2.288747707,1,0.20470424194335937,1.715445489501953,-11.171344946289063
5011264281993,2.290748072,1,0.2549824768066406,1.7286135986328124,-11.19887826538086
5011266281472,2.292747551,1,0.24301146850585936,1.7561469177246092,-11.131840618896483
5011268283555,2.294749634,1,0.21188684692382811,1.7429788085937499,-11.17852755126953
5011270281159,2.296747238,1,0.1867477294921875,1.7381904052734374,-11.137826123046874
5011272283086,2.298749165,1,0.2059013427734375,1.7405846069335937,-11.215637677001952
5011274280743,2.300746822,1,0.2346317626953125,1.7489643127441405,-11.152191333007812
5011276283034,2.302749113,1,0.22026655273437498,1.7381904052734374,-11.285069525146485
5011278280430,2.304746509,1,0.2059013427734375,1.7178396911621092,-11.265915911865234
5011280282826,2.306748905,1,0.22744915771484372,1.697488977050781,-11.212046374511718
5011282280378,2.308746457,1,0.24899697265624998,1.714248388671875,-11.262324609375
5011284282097,2.310748176,1,0.2645592834472656,1.7429788085937499,-11.262324609375
5011286278815,2.312744894,1,0.22744915771484372,1.7645266235351562,-11.177330450439452
5011288283295,2.314749374,1,0.2214636535644531,1.7381904052734374,-11.158176837158203
5011290281055,2.316747134,1,0.24181436767578124,1.753752716064453,-11.174936248779296
5011292279805,2.318745884,1,0.2154781494140625,1.7860744384765623,-11.180921752929686
5011294281263,2.320747342,1,0.21787235107421873,1.7525556152343749,-11.17852755126953
5011296283347,2.322749426,1,0.1867477294921875,1.7477672119140624,-11.200075366210937
5011298280378,2.324746457,1,0.2214636535644531,1.7417817077636717,-11.200075366210937
5011300283138,2.326749217,1,0.27892449340820313,1.7405846069335937,-11.206060870361327
5011302280013,2.328746092,1,0.22266075439453123,1.6938976745605467,-11.19169566040039
5011304282618,2.330748697,1,0.2166752502441406,1.725022296142578,-11.17852755126953
5011306279909,2.332745988,1,0.20709844360351562,1.7465701110839842,-11.23718549194336
5011308282149,2.334748228,1,0.20231004028320312,1.7405846069335937,-11.21683477783203
5011310280378,2.336746457,1,0.19512743530273435,1.725022296142578,-11.226411584472656
5011312283243,2.338749322,1,0.23822306518554687,1.705868682861328,-11.184513055419922
5011314280274,2.340746353,1,0.2166752502441406,1.7357962036132812,-11.088744989013671
5011316283086,2.342749165,1,0.1771709228515625,1.7166425903320313,-11.142614526367186
5011318280795,2.344746874,1,0.2825157958984375,1.7226280944824217,-11.118672509765624
5011320282618,2.346748697,1,0.19991583862304688,1.7334020019531249,-11.23000288696289
5011322280482,2.348746561,1,0.21906945190429686,1.7429788085937499,-11.212046374511718
5011324282513,2.350748592,1,0.21308394775390624,1.7405846069335937,-11.213243475341796
5011326280638,2.352746717,1,0.21787235107421873,1.7022773803710936,-11.164162341308593
5011328283399,2.354749478,1,0.25737667846679685,1.753752716064453,-11.130643518066405
5011330280118,2.356746197,1,0.2645592834472656,1.7681179260253905,-11.212046374511718
5011332282982,2.358749061,1,0.2154781494140625,1.7573440185546874,-11.165359442138671
5011334280118,2.360746197,1,0.21428104858398436,1.7166425903320313,-11.143811627197264
5011336283451,2.36274953,1,0.19033903198242186,1.6938976745605467,-11.196484063720703
5011338279753,2.364745832,1,0.229843359375,1.70467158203125,-11.196484063720703
5011340283086,2.366749165,1,0.2561795776367187,1.7322049011230467,-11.196484063720703
5011342280326,2.368746405,1,0.26695348510742184,1.7525556152343749,-11.23000288696289
5011344282826,2.370748905,1,0.26695348510742184,1.7034744812011717,-11.166556542968749
5011346280586,2.372746665,1,0.26695348510742184,1.7561469177246092,-11.154585534667968
5011348283815,2.374749894,1,0.239420166015625,1.772906329345703,-11.196484063720703
5011350279857,2.376745936,1,0.2059013427734375,1.7310078002929687,-11.164162341308593
5011352282253,2.378748332,1,0.26216508178710934,1.7094599853515624,-11.180921752929686
5011354280170,2.380746249,1,0.22385785522460935,1.7417817077636717,-11.221623181152344
5011356282982,2.382749061,1,0.18555062866210936,1.6938976745605467,-11.182118853759764
5011358281628,2.384747707,1,0.1867477294921875,1.744175909423828,-11.208455072021483
5011360282982,2.386749061,1,0.20470424194335937,1.7645266235351562,-11.201272467041015
5011362280065,2.388746144,1,0.2501940734863281,1.7549498168945312,-11.195286962890624
5011364282878,2.390748957,1,0.21308394775390624,1.7501614135742187,-11.171344946289063
5011366279857,2.392745936,1,0.21906945190429686,1.7573440185546874,-11.182118853759764
5011368282774,2.394748853,1,0.23822306518554687,1.7106570861816406,-11.184513055419922
5011370280378,2.396746457,1,0.21308394775390624,1.7214309936523438,-11.183315954589844
5011372281159,2.398747238,1,0.22505495605468748,1.7334020019531249,-11.204863769531249
5011374280118,2.400746197,1,0.21906945190429686,1.6998831787109374,-11.17254204711914
5011376281888,2.402747967,1,0.21428104858398436,1.7298106994628906,-11.125855114746093
5011378280690,2.404746769,1,0.2705447875976562,1.7573440185546874,-11.174936248779296
5011380282826,2.406748905,1,0.20350714111328125,1.7322049011230467,-11.142614526367186
5011382279857,2.408745936,1,0.23582886352539062,1.725022296142578,-11.21683477783203
5011384282617,2.410748696,1,0.2059013427734375,1.7238251953125,-11.156979736328124
5011386279857,2.412745936,1,0.21068974609375,1.6903063720703124,-11.152191333007812
5011388282253,2.414748332,1,0.21068974609375,1.6903063720703124,-11.174936248779296
5011390281367,2.416747446,1,0.20350714111328125,1.7322049011230467,-11.100715997314452
5011392281836,2.418747915,1,0.20949264526367187,1.7322049011230467,-11.194089862060546
5011394279024,2.420745103,1,0.22744915771484372,1.715445489501953,-11.19887826538086
5011396282722,2.422748801,1,0.27293898925781246,1.7968483459472655,-11.195286962890624
5011398280378,2.424746457,1,0.19991583862304688,1.7034744812011717,-11.226411584472656
5011400282513,2.426748592,1,0.17357962036132812,1.7274164978027342,-11.190498559570312
5011402279545,2.428745624,1,0.2454056701660156,1.714248388671875,-11.241973895263671
5011404282930,2.430749009,1,0.2597708801269531,1.7238251953125,-11.218031878662108
5011406284388,2.432750467,1,0.181959326171875,1.7609353210449217,-11.203666668701171
5011408286367,2.434752446,1,0.21068974609375,1.7118541870117185,-11.194089862060546
5011410280899,2.436746978,1,0.2262520568847656,1.763329522705078,-11.190498559570312
5011412282826,2.438748905,1,0.20949264526367187,1.7262193969726563,-11.221623181152344
5011414280430,2.440746509,1,0.24061726684570311,1.7369933044433592,-11.275492718505859
5011416283920,2.442749999,1,0.23104046020507812,1.7381904052734374,-11.262324609375
5011418280065,2.444746144,1,0.21428104858398436,1.7082628845214842,-11.162965240478515
5011420283242,2.446749321,1,0.23702596435546874,1.6807295654296874,-11.136629022216797
5011422280742,2.448746821,1,0.20350714111328125,1.7166425903320313,-11.214440576171874
5011424283555,2.450749634,1,0.2597708801269531,1.7381904052734374,-11.173739147949219
5011426279753,2.452745832,1,0.22266075439453123,1.7166425903320313,-11.148600030517578
5011428282670,2.454748749,1,0.24181436767578124,1.705868682861328,-11.177330450439452
5011430280690,2.456746769,1,0.23223756103515625,1.7238251953125,-11.183315954589844
5011432283242,2.458749321,1,0.2166752502441406,1.7130512878417967,-11.135431921386719
5011434279492,2.460745571,1,0.25737667846679685,1.725022296142578,-11.146205828857422
5011436282930,2.462749009,1,0.2166752502441406,1.7693150268554687,-11.18571015625
5011438279597,2.464745676,1,0.22266075439453123,1.7298106994628906,-11.203666668701171
5011440283034,2.466749113,1,0.277727392578125,1.7573440185546874,-11.189301458740234
5011442280586,2.468746665,1,0.18914193115234373,1.7741034301757812,-11.203666668701171
5011444283295,2.470749374,1,0.21188684692382811,1.7369933044433592,-11.179724652099608
5011446280170,2.472746249,1,0.23582886352539062,1.7465701110839842,-11.25514200439453
5011448282565,2.474748644,1,0.2657563842773437,1.7561469177246092,-11.215637677001952
5011450280690,2.476746769,1,0.29448680419921874,1.763329522705078,-11.189301458740234
5011452282774,2.478748853,1,0.20470424194335937,1.7645266235351562,-11.219228979492186
5011454280482,2.480746561,1,0.2609679809570312,1.7477672119140624,-11.165359442138671
5011456282461,2.48274854,1,0.2501940734863281,1.7405846069335937,-11.130643518066405
5011458279857,2.484745936,1,0.23223756103515625,1.7106570861816406,-11.161768139648437
5011460283451,2.48674953,1,0.19871873779296872,1.7082628845214842,-11.190498559570312
5011462280847,2.488746926,1,0.2214636535644531,1.6986860778808592,-11.257536206054686
5011464284336,2.490750415,1,0.21308394775390624,1.7034744812011717,-11.261127508544922
5011466280274,2.492746353,1,0.2154781494140625,1.696291876220703,-11.225214483642578
5011468283347,2.494749426,1,0.229843359375,1.7393875061035156,-11.1474029296875
5011470280378,2.496746457,1,0.16879121704101563,1.7369933044433592,-11.241973895263671
5011472282722,2.498748801,1,0.19512743530273435,1.7405846069335937,-11.174936248779296
5011474280690,2.500746769,1,0.24301146850585936,1.7429788085937499,-11.213243475341796
5011476283295,2.502749374,1,0.2454056701660156,1.7585411193847655,-11.214440576171874
5011478280482,2.504746561,1,0.18435352783203124,1.7334020019531249,-11.218031878662108
5011480281159,2.506747238,1,0.23822306518554687,1.7477672119140624,-11.235988391113281
5011482279597,2.508745676,1,0.2442085693359375,1.7597382202148437,-11.148600030517578
5011484283555,2.510749634,1,0.2501940734863281,1.7693150268554687,-11.162965240478515
5011486279649,2.512745728,1,0.18555062866210936,1.7525556152343749,-11.184513055419922
5011488279180,2.514745259,1,0.22505495605468748,1.714248388671875,-11.17254204711914
5011490280742,2.516746821,1,0.16160861206054686,1.7609353210449217,-11.146205828857422
5011492283399,2.518749478,1,0.19393033447265623,1.7405846069335937,-11.133037719726563
5011494280899,2.520746978,1,0.2214636535644531,1.7417817077636717,-11.121066711425781
5011496282565,2.522748644,1,0.19393033447265623,1.7453730102539062,-11.156979736328124
5011498280274,2.524746353,1,0.18435352783203124,1.7286135986328124,-11.183315954589844
5011500282826,2.526748905,1,0.2693476867675781,1.7417817077636717,-11.155782635498046
5011502278972,2.528745051,1,0.28012159423828126,1.6927005737304686,-11.190498559570312
5011504282565,2.530748644,1,0.25258827514648435,1.7010802795410156,-11.170147845458983
5011506280586,2.532746665,1,0.2609679809570312,1.6986860778808592,-11.164162341308593
5011508283607,2.534749686,1,0.24899697265624998,1.7657237243652342,-11.171344946289063
5011510280586,2.536746665,1,0.25139117431640623,1.7238251953125,-11.265915911865234
5011512282930,2.538749009,1,0.20231004028320312,1.7094599853515624,-11.256339105224608
5011514280951,2.54074703,1,0.21428104858398436,1.7896657409667969,-11.19169566040039
5011516280378,2.542746457,1,0.24301146850585936,1.705868682861328,-11.195286962890624
5011518281472,2.544747551,1,0.26336218261718747,1.725022296142578,-11.17254204711914
5011520283607,2.546749686,1,0.17956512451171874,1.7561469177246092,-11.183315954589844
5011522279753,2.548745832,1,0.2214636535644531,1.7465701110839842,-11.159373937988281
5011524283242,2.550749321,1,0.1975216369628906,1.7393875061035156,-11.246762298583985
5011526281159,2.552747238,1,0.2705447875976562,1.707065783691406,-11.227608685302734
5011528282930,2.554749009,1,0.26815058593749996,1.7310078002929687,-11.274295617675781
5011530280326,2.556746405,1,0.2561795776367187,1.7645266235351562,-11.19169566040039
5011532282670,2.558748749,1,0.239420166015625,1.734599102783203,-11.226411584472656
5011534280326,2.560746405,1,0.229843359375,1.714248388671875,-11.19887826538086
5011536283295,2.562749374,1,0.2166752502441406,1.7082628845214842,-11.188104357910156
5011538280638,2.564746717,1,0.22744915771484372,1.7334020019531249,-11.161768139648437
5011540283034,2.566749113,1,0.17597382202148437,1.7489643127441405,-11.194089862060546
5011542280222,2.568746301,1,0.20829554443359374,1.7501614135742187,-11.233594189453123
5011544282409,2.570748488,1,0.21308394775390624,1.7369933044433592,-11.239579693603515
5011546280430,2.572746509,1,0.24660277099609373,1.7513585144042967,-11.23718549194336
5011548282826,2.574748905,1,0.21308394775390624,1.7609353210449217,-11.204863769531249
5011550281628,2.576747707,1,0.2609679809570312,1.7525556152343749,-11.19887826538086
5011552283503,2.578749582,1,0.2609679809570312,1.7286135986328124,-11.109095703125
5011554280534,2.580746613,1,0.2154781494140625,1.7489643127441405,-11.228805786132812
5011556283034,2.582749113,1,0.1975216369628906,1.7106570861816406,-11.171344946289063
5011558279597,2.584745676,1,0.18914193115234373,1.707065783691406,-11.225214483642578
5011560283295,2.586749374,1,0.24181436767578124,1.7274164978027342,-11.173739147949219
5011562280638,2.588746717,1,0.21068974609375,1.7082628845214842,-11.215637677001952
5011564282513,2.590748592,1,0.22026655273437498,1.695094775390625,-11.1474029296875
5011566278763,2.592744842,1,0.20470424194335937,1.6519991455078125,-11.226411584472656
5011568283086,2.594749165,1,0.24181436767578124,1.68551796875,-11.179724652099608
5011570279961,2.59674604,1,0.1927332336425781,1.7705121276855467,-11.107898602294922
5011572283086,2.598749165,1,0.16639701538085935,1.7465701110839842,-11.2240173828125
5011574280951,2.60074703,1,0.1771709228515625,1.7322049011230467,-11.215637677001952
5011576282409,2.602748488,1,0.22266075439453123,1.7322049011230467,-11.12226381225586
5011578279909,2.604745988,1,0.2537853759765625,1.7166425903320313,-11.184513055419922
5011580282617,2.606748696,1,0.22505495605468748,1.7274164978027342,-11.156979736328124
5011582280065,2.608746144,1,0.2154781494140625,1.6795324645996093,-11.139023223876952
5011584283138,2.610749217,1,0.23343466186523437,1.6639701538085936,-11.207257971191405
5011586280170,2.612746249,1,0.22026655273437498,1.7094599853515624,-11.152191333007812
5011588281472,2.614747551,1,0.26336218261718747,1.7585411193847655,-11.17254204711914
5011590279961,2.61674604,1,0.2501940734863281,1.7429788085937499,-11.1474029296875
5011592283555,2.618749634,1,0.21308394775390624,1.7393875061035156,-11.162965240478515
5011594285222,2.620751301,1,0.2561795776367187,1.734599102783203,-11.180921752929686
5011596285638,2.622751717,1,0.26336218261718747,1.7525556152343749,-11.184513055419922
5011598281107,2.624747186,1,0.2166752502441406,1.7501614135742187,-11.215637677001952
5011600283972,2.626750051,1,0.24181436767578124,1.7274164978027342,-11.218031878662108
5011602280326,2.628746405,1,0.22266075439453123,1.7956512451171873,-11.180921752929686
5011604282826,2.630748905,1,0.239420166015625,1.7549498168945312,-11.121066711425781
5011606280586,2.632746665,1,0.19991583862304688,1.6915034729003906,-11.179724652099608
5011608282982,2.634749061,1,0.20350714111328125,1.678335363769531,-11.26831011352539
5011610279492,2.636745571,1,0.24061726684570311,1.7130512878417967,-11.244368096923827
5011612282669,2.638748748,1,0.21068974609375,1.725022296142578,-11.222820281982422
5011614281419,2.640747498,1,0.20949264526367187,1.7357962036132812,-11.251550701904296
5011616283399,2.642749478,1,0.23343466186523437,1.7166425903320313,-11.17254204711914
5011618280690,2.644746769,1,0.20350714111328125,1.7645266235351562,-11.18571015625
5011620283503,2.646749582,1,0.20829554443359374,1.7669208251953124,-11.240776794433593
5011622280222,2.648746301,1,0.19632453613281248,1.7130512878417967,-11.222820281982422
5011624283294,2.650749373,1,0.22266075439453123,1.7609353210449217,-11.167753643798827
5011626280117,2.652746196,1,0.2214636535644531,1.7286135986328124,-11.21084927368164
5011628282357,2.654748436,1,0.25737667846679685,1.7202338928222656,-11.174936248779296
5011630280169,2.656746248,1,0.19512743530273435,1.7190367919921874,-11.158176837158203
5011632283190,2.658749269,1,0.21188684692382811,1.7310078002929687,-11.192892761230468
5011634279805,2.660745884,1,0.2262520568847656,1.7322049011230467,-11.13423482055664
5011636283972,2.662750051,1,0.24181436767578124,1.7190367919921874,-11.18571015625
5011638280690,2.664746769,1,0.22026655273437498,1.7369933044433592,-11.200075366210937
5011640282409,2.666748488,1,0.20829554443359374,1.7202338928222656,-11.206060870361327
5011642280742,2.668746821,1,0.239420166015625,1.7645266235351562,-11.184513055419922
5011644282982,2.670749061,1,0.28371289672851563,1.7681179260253905,-11.197681164550781
5011646280899,2.672746978,1,0.20949264526367187,1.70467158203125,-11.074379779052734
5011648283763,2.674749842,1,0.19991583862304688,1.7357962036132812,-11.194089862060546
5011650279961,2.67674604,1,0.2059013427734375,1.7585411193847655,-11.143811627197264
5011652282930,2.678749009,1,0.23582886352539062,1.6938976745605467,-11.161768139648437
5011654281003,2.680747082,1,0.2561795776367187,1.7417817077636717,-11.21683477783203
5011656283451,2.68274953,1,0.22385785522460935,1.7561469177246092,-11.158176837158203
5011658281576,2.684747655,1,0.22266075439453123,1.7130512878417967,-11.168950744628905
5011660284440,2.686750519,1,0.28969840087890625,1.7657237243652342,-11.182118853759764
5011662280847,2.688746926,1,0.21906945190429686,1.7525556152343749,-11.156979736328124
5011664282878,2.690748957,1,0.2059013427734375,1.715445489501953,-11.141417425537108
5011666279701,2.69274578,1,0.19153613281249998,1.7417817077636717,-11.251550701904296
5011668282722,2.694748801,1,0.2609679809570312,1.7190367919921874,-11.182118853759764
5011670280638,2.696746717,1,0.2741360900878906,1.7489643127441405,-11.197681164550781
5011672282461,2.69874854,1,0.2861070983886719,1.7369933044433592,-11.188104357910156
5011674278347,2.700744426,1,0.20949264526367187,1.7178396911621092,-11.202469567871093
5011676282878,2.702748957,1,0.2262520568847656,1.7298106994628906,-11.13423482055664
5011678280482,2.704746561,1,0.24779987182617186,1.7178396911621092,-11.156979736328124
5011680283138,2.706749217,1,0.23582886352539062,1.7178396911621092,-11.129446417236327
5011682280638,2.708746717,1,0.23104046020507812,1.7417817077636717,-11.145008728027342
5011684283399,2.710749478,1,0.26695348510742184,1.7501614135742187,-11.19169566040039
5011686280847,2.712746926,1,0.24061726684570311,1.7166425903320313,-11.182118853759764
5011688282826,2.714748905,1,0.2454056701660156,1.7190367919921874,-11.15338843383789
5011690280586,2.716746665,1,0.23822306518554687,1.7094599853515624,-11.16057103881836
5011692282930,2.718749009,1,0.24301146850585936,1.7429788085937499,-11.195286962890624
5011694280690,2.720746769,1,0.20470424194335937,1.7190367919921874,-11.184513055419922
5011696281159,2.722747238,1,0.22744915771484372,1.7298106994628906,-11.1474029296875
5011698280222,2.724746301,1,0.2214636535644531,1.7082628845214842,-11.188104357910156
5011700282930,2.726749009,1,0.19991583862304688,1.7393875061035156,-11.192892761230468
5011702280586,2.728746665,1,0.23223756103515625,1.744175909423828,-11.133037719726563
5011704283503,2.730749582,1,0.24061726684570311,1.7166425903320313,-11.161768139648437
5011706279597,2.732745676,1,0.1867477294921875,1.7274164978027342,-11.13423482055664
5011708282669,2.734748748,1,0.20949264526367187,1.734599102783203,-11.080365283203124
5011710280378,2.736746457,1,0.23223756103515625,1.7106570861816406,-11.106701501464842
5011712283138,2.738749217,1,0.24779987182617186,1.715445489501953,-11.171344946289063
5011714279909,2.740745988,1,0.2346317626953125,1.7286135986328124,-11.253944903564452
5011716282617,2.742748696,1,0.24899697265624998,1.725022296142578,-11.238382592773437
5011718278034,2.744744113,1,0.24061726684570311,1.7501614135742187,-11.189301458740234
5011720282878,2.746748957,1,0.2753331909179687,1.7334020019531249,-11.233594189453123
5011722280690,2.748746769,1,0.2442085693359375,1.763329522705078,-11.15338843383789
5011724283503,2.750749582,1,0.24061726684570311,1.7369933044433592,-11.208455072021483
5011726280690,2.752746769,1,0.25139117431640623,1.7549498168945312,-11.186907257080078
5011728282513,2.754748592,1,0.21188684692382811,1.7429788085937499,-11.288660827636718
5011730280430,2.756746509,1,0.2442085693359375,1.7130512878417967,-11.164162341308593
5011732283294,2.758749373,1,0.24899697265624998,1.7381904052734374,-11.161768139648437
5011734278190,2.760744269,1,0.17238251953125,1.7214309936523438,-11.195286962890624
5011736280899,2.762746978,1,0.18914193115234373,1.7657237243652342,-11.196484063720703
5011738280586,2.764746665,1,0.23104046020507812,1.7788918334960937,-11.180921752929686
5011740283607,2.766749686,1,0.19512743530273435,1.7645266235351562,-11.197681164550781
5011742281055,2.768747134,1,0.2214636535644531,1.7262193969726563,-11.1474029296875
5011744284076,2.770750155,1,0.2262520568847656,1.7477672119140624,-11.148600030517578
5011746280847,2.772746926,1,0.22385785522460935,1.7405846069335937,-11.18571015625
5011748282409,2.774748488,1,0.21188684692382811,1.715445489501953,-11.219228979492186
5011750280013,2.776746092,1,0.2501940734863281,1.7274164978027342,-11.116278308105468
5011752283242,2.778749321,1,0.23223756103515625,1.7501614135742187,-11.23718549194336
5011754280378,2.780746457,1,0.24660277099609373,1.7166425903320313,-11.189301458740234
5011756282513,2.782748592,1,0.22385785522460935,1.715445489501953,-11.141417425537108
5011758279857,2.784745936,1,0.2645592834472656,1.7453730102539062,-11.127052215576171
5011760283451,2.78674953,1,0.258573779296875,1.7812860351562498,-11.196484063720703
5011762280742,2.788746821,1,0.19632453613281248,1.7465701110839842,-11.180921752929686
5011764282930,2.790749009,1,0.17836802368164062,1.7621324218749999,-11.209652172851563
5011766281211,2.79274729,1,0.22266075439453123,1.7369933044433592,-11.203666668701171
5011768284128,2.794750207,1,0.229843359375,1.7393875061035156,-11.219228979492186
5011770280378,2.796746457,1,0.1771709228515625,1.7429788085937499,-11.220426080322264
5011772280951,2.79874703,1,0.21428104858398436,1.7130512878417967,-11.225214483642578
5011774282409,2.800748488,1,0.23343466186523437,1.7274164978027342,-11.21084927368164
5011776283190,2.802749269,1,0.23104046020507812,1.6843208679199217,-11.158176837158203
5011778280586,2.804746665,1,0.258573779296875,1.7166425903320313,-11.077971081542968
5011780282982,2.806749061,1,0.26815058593749996,1.7501614135742187,-11.173739147949219
5011782282774,2.808748853,1,0.2214636535644531,1.7753005310058592,-11.184513055419922
5011784282409,2.810748488,1,0.2214636535644531,1.763329522705078,-11.148600030517578
5011786280638,2.812746717,1,0.25139117431640623,1.7417817077636717,-11.17254204711914
5011788284492,2.814750571,1,0.22505495605468748,1.7357962036132812,-11.165359442138671
5011790281576,2.816747655,1,0.2262520568847656,1.7034744812011717,-11.220426080322264
5011792282930,2.818749009,1,0.16519991455078123,1.763329522705078,-11.166556542968749
5011794280847,2.820746926,1,0.2549824768066406,1.7118541870117185,-11.202469567871093
5011796283242,2.822749321,1,0.20709844360351562,1.7657237243652342,-11.239579693603515
5011798281576,2.824747655,1,0.277727392578125,1.7369933044433592,-11.227608685302734
5011800283242,2.826749321,1,0.23104046020507812,1.753752716064453,-11.145008728027342
5011802280482,2.828746561,1,0.2609679809570312,1.7429788085937499,-11.200075366210937
5011804281732,2.830747811,1,0.2609679809570312,1.7334020019531249,-11.139023223876952
5011806279857,2.832745936,1,0.23822306518554687,1.7417817077636717,-11.17254204711914
5011808283919,2.834749998,1,0.20231004028320312,1.7274164978027342,-11.123460913085937
5011810281055,2.836747134,1,0.20709844360351562,1.7429788085937499,-11.182118853759764
5011812282722,2.838748801,1,0.239420166015625,1.7190367919921874,-11.225214483642578
5011814279753,2.840745832,1,0.23104046020507812,1.7118541870117185,-11.170147845458983
5011816282930,2.842749009,1,0.2597708801269531,1.7130512878417967,-11.164162341308593
5011818279909,2.844745988,1,0.23343466186523437,1.7178396911621092,-11.188104357910156
