timestamp_ns,t_s,sensor_id,ax,ay,az
4892675285111,0.061493802,1,0.23223756103515625,1.7298106994628906,-11.165359442138671
4892681911986,0.068120677,1,0.2597708801269531,1.7573440185546874,-11.130643518066405
4892688577454,0.074786145,1,0.22744915771484372,1.7513585144042967,-11.142614526367186
4892695245111,0.081453802,1,0.19393033447265623,1.7621324218749999,-11.213243475341796
4892701905840,0.088114531,1,0.20231004028320312,1.7561469177246092,-11.150994232177734
4892708571048,0.094779739,1,0.20829554443359374,1.70467158203125,-11.12226381225586
4892715237298,0.101445989,1,0.2166752502441406,1.7357962036132812,-11.183315954589844
4892721903861,0.108112552,1,0.22744915771484372,1.763329522705078,-11.174936248779296
4892728569798,0.114778489,1,0.2059013427734375,1.7657237243652342,-11.206060870361327
4892735234798,0.121443489,1,0.19153613281249998,1.7010802795410156,-11.19887826538086
4892741903809,0.1281125,1,0.19153613281249998,1.7010802795410156,-11.235988391113281
4892748569434,0.134778125,1,0.21906945190429686,1.7405846069335937,-11.235988391113281
4892755236465,0.141445156,1,0.201112939453125,1.6938976745605467,-11.17852755126953
4892761902871,0.148111562,1,0.20829554443359374,1.7238251953125,-11.10191309814453
4892768569954,0.154778645,1,0.22385785522460935,1.7621324218749999,-11.238382592773437
4892775236100,0.161444791,1,0.201112939453125,1.7621324218749999,-11.243170996093749
4892781903027,0.168111718,1,0.19033903198242186,1.7298106994628906,-11.21683477783203
4892788569486,0.174778177,1,0.2537853759765625,1.7453730102539062,-11.143811627197264
4892795235579,0.18144427,1,0.1975216369628906,1.7022773803710936,-11.127052215576171
4892801902871,0.188111562,1,0.2262520568847656,1.714248388671875,-11.206060870361327
4892808569381,0.194778072,1,0.24061726684570311,1.7657237243652342,-11.251550701904296
4892815236204,0.201444895,1,0.2214636535644531,1.7202338928222656,-11.137826123046874
4892821903652,0.208112343,1,0.2346317626953125,1.678335363769531,-11.105504400634764
4892828567767,0.214776458,1,0.21188684692382811,1.7501614135742187,-11.25514200439453
4892835236361,0.221445052,1,0.20709844360351562,1.7166425903320313,-11.164162341308593
4892841904694,0.228113385,1,0.23343466186523437,1.7262193969726563,-11.139023223876952
4892848569277,0.234777968,1,0.16998831787109375,1.7322049011230467,-11.19887826538086
4892855236100,0.241444791,1,0.20829554443359374,1.7453730102539062,-11.227608685302734
4892861903600,0.248112291,1,0.17477672119140625,1.6986860778808592,-11.125855114746093
4892868569538,0.254778229,1,0.22266075439453123,1.7369933044433592,-11.124658013916015
4892875236204,0.261444895,1,0.24660277099609373,1.7609353210449217,-11.155782635498046
4892881902715,0.268111406,1,0.24660277099609373,1.7717092285156248,-11.24915650024414
4892888569329,0.27477802,1,0.20231004028320312,1.7717092285156248,-11.330559356689452
4892895236569,0.28144526,1,0.181959326171875,1.7800889343261719,-11.177330450439452
4892901902142,0.288110833,1,0.23343466186523437,1.7202338928222656,-11.162965240478515
4892908569381,0.294778072,1,0.19991583862304688,1.7262193969726563,-11.194089862060546
4892915236361,0.301445052,1,0.2262520568847656,1.7381904052734374,-11.158176837158203
4892921903079,0.30811177,1,0.20829554443359374,1.7657237243652342,-11.131840618896483
4892928570006,0.314778697,1,0.2442085693359375,1.7094599853515624,-11.184513055419922
4892935236829,0.32144552,1,0.23343466186523437,1.7465701110839842,-11.208455072021483
4892941903079,0.32811177,1,0.22744915771484372,1.697488977050781,-11.218031878662108
4892948571204,0.334779895,1,0.2166752502441406,1.7609353210449217,-11.243170996093749
4892955237194,0.341445885,1,0.22266075439453123,1.715445489501953,-11.186907257080078
4892961902298,0.348110989,1,0.18076222534179687,1.7202338928222656,-11.17852755126953
4892968569381,0.354778072,1,0.25258827514648435,1.7106570861816406,-11.116278308105468
4892975236413,0.361445104,1,0.2549824768066406,1.7082628845214842,-11.221623181152344
4892981903183,0.368111874,1,0.22385785522460935,1.734599102783203,-11.143811627197264
4892988567819,0.37477651,1,0.2693476867675781,1.6998831787109374,-11.220426080322264
4892995236152,0.381444843,1,0.25737667846679685,1.7477672119140624,-11.184513055419922
4893001902715,0.388111406,1,0.20829554443359374,1.7549498168945312,-11.196484063720703
4893008569121,0.394777812,1,0.229843359375,1.725022296142578,-11.207257971191405
4893015236204,0.401444895,1,0.19512743530273435,1.7286135986328124,-11.189301458740234
4893021904069,0.40811276,1,0.16998831787109375,1.7693150268554687,-11.17852755126953
4893028569121,0.414777812,1,0.16998831787109375,1.7693150268554687,-11.194089862060546
4893035236413,0.421445104,1,0.24660277099609373,1.7489643127441405,-11.194089862060546
4893041903131,0.428111822,1,0.23582886352539062,1.6819266662597656,-11.2240173828125
4893048568756,0.434777447,1,0.2346317626953125,1.7549498168945312,-11.196484063720703
4893055235527,0.441444218,1,0.26216508178710934,1.7310078002929687,-11.133037719726563
4893061902194,0.448110885,1,0.24061726684570311,1.7322049011230467,-11.231199987792968
4893068569329,0.45477802,1,0.25737667846679685,1.7274164978027342,-11.25514200439453
4893075236152,0.461444843,1,0.20829554443359374,1.70467158203125,-11.207257971191405
4893081903913,0.468112604,1,0.21428104858398436,1.7561469177246092,-11.17852755126953
4893088568756,0.474777447,1,0.24181436767578124,1.7238251953125,-11.15338843383789
4893095236361,0.481445052,1,0.23223756103515625,1.7214309936523438,-11.250353601074218
4893101902611,0.488111302,1,0.22744915771484372,1.7381904052734374,-11.197681164550781
4893108569538,0.494778229,1,0.20829554443359374,1.7549498168945312,-11.128249316406249
4893115235788,0.501444479,1,0.19153613281249998,1.7298106994628906,-11.215637677001952
4893121903965,0.508112656,1,0.2454056701660156,1.707065783691406,-11.17254204711914
4893128568600,0.514777291,1,0.18435352783203124,1.7597382202148437,-11.17852755126953
4893135235788,0.521444479,1,0.28012159423828126,1.7489643127441405,-11.17852755126953
4893141902506,0.528111197,1,0.2154781494140625,1.7118541870117185,-11.13423482055664
4893148568548,0.534777239,1,0.20829554443359374,1.753752716064453,-11.196484063720703
4893155235058,0.541443749,1,0.21428104858398436,1.772906329345703,-11.186907257080078
4893161902663,0.548111354,1,0.2501940734863281,1.7405846069335937,-11.195286962890624
4893168569069,0.55477776,1,0.2501940734863281,1.714248388671875,-11.192892761230468
4893175236204,0.561444895,1,0.23343466186523437,1.714248388671875,-11.291055029296874
4893181902663,0.568111354,1,0.23343466186523437,1.753752716064453,-11.137826123046874
4893188569486,0.574778177,1,0.2501940734863281,1.7465701110839842,-11.227608685302734
4893195234225,0.581442916,1,0.23582886352539062,1.70467158203125,-11.171344946289063
4893201903808,0.588112499,1,0.21068974609375,1.7525556152343749,-11.200075366210937
4893208569538,0.594778229,1,0.15562310791015624,1.7262193969726563,-11.177330450439452
4893215234538,0.601443229,1,0.23343466186523437,1.7417817077636717,-11.222820281982422
4893221903600,0.608112291,1,0.21787235107421873,1.7405846069335937,-11.123460913085937
4893228569277,0.614777968,1,0.2059013427734375,1.7525556152343749,-11.202469567871093
4893235235683,0.621444374,1,0.22266075439453123,1.7393875061035156,-11.162965240478515
4893241903235,0.628111926,1,0.24301146850585936,1.7800889343261719,-11.143811627197264
4893248569850,0.634778541,1,0.22026655273437498,1.7118541870117185,-11.182118853759764
4893255235579,0.64144427,1,0.1927332336425781,1.7717092285156248,-11.103110198974608
4893261903079,0.64811177,1,0.20829554443359374,1.6747440612792968,-11.180921752929686
4893268569433,0.654778124,1,0.21188684692382811,1.7393875061035156,-11.174936248779296
4893275235944,0.661444635,1,0.2346317626953125,1.7489643127441405,-11.19887826538086
4893281903756,0.668112447,1,0.20709844360351562,1.7166425903320313,-11.208455072021483
4893288569277,0.674777968,1,0.23223756103515625,1.744175909423828,-11.24915650024414
4893295235319,0.68144401,1,0.23343466186523437,1.744175909423828,-11.137826123046874
4893301910006,0.688118697,1,0.2262520568847656,1.7238251953125,-11.202469567871093
4893308572090,0.694780781,1,0.23104046020507812,1.7274164978027342,-11.119869610595703
4893315236152,0.701444843,1,0.23104046020507812,1.7274164978027342,-11.204863769531249
4893321902298,0.708110989,1,0.21787235107421873,1.705868682861328,-11.204863769531249
4893328569381,0.714778072,1,0.18914193115234373,1.6747440612792968,-11.180921752929686
4893335235527,0.721444218,1,0.27293898925781246,1.7286135986328124,-11.2240173828125
4893341903496,0.728112187,1,0.1867477294921875,1.7082628845214842,-11.179724652099608
4893348570110,0.734778801,1,0.21188684692382811,1.7082628845214842,-11.257536206054686
4893355235840,0.741444531,1,0.21428104858398436,1.7561469177246092,-11.189301458740234
4893361902610,0.748111301,1,0.229843359375,1.8004396484374998,-11.136629022216797
4893368569590,0.754778281,1,0.21188684692382811,1.7310078002929687,-11.173739147949219
4893375236308,0.761444999,1,0.239420166015625,1.7262193969726563,-11.23000288696289
4893381903704,0.768112395,1,0.2154781494140625,1.7393875061035156,-11.164162341308593
4893388569225,0.774777916,1,0.229843359375,1.6843208679199217,-11.152191333007812
4893395235788,0.781444479,1,0.239420166015625,1.7334020019531249,-11.176133349609374
4893401903027,0.788111718,1,0.25258827514648435,1.7298106994628906,-11.213243475341796
4893408569798,0.794778489,1,0.2454056701660156,1.7298106994628906,-11.152191333007812
4893415235788,0.801444479,1,0.25258827514648435,1.7453730102539062,-11.156979736328124
4893421902871,0.808111562,1,0.22864625854492185,1.7609353210449217,-11.176133349609374
4893428568704,0.814777395,1,0.2537853759765625,1.744175909423828,-11.196484063720703
4893435235840,0.821444531,1,0.25258827514648435,1.7369933044433592,-11.182118853759764
4893441901308,0.828109999,1,0.21308394775390624,1.7262193969726563,-11.15338843383789
4893448569746,0.834778437,1,0.19991583862304688,1.7214309936523438,-11.162965240478515
4893455235787,0.841444478,1,0.19991583862304688,1.7621324218749999,-11.182118853759764
4893461902350,0.848111041,1,0.2537853759765625,1.7621324218749999,-11.049240661621093
4893468570944,0.854779635,1,0.26815058593749996,1.7262193969726563,-11.202469567871093
4893475235944,0.861444635,1,0.2537853759765625,1.7274164978027342,-11.146205828857422
4893481902402,0.868111093,1,0.26695348510742184,1.7106570861816406,-11.182118853759764
4893488569017,0.874777708,1,0.19991583862304688,1.7405846069335937,-11.245565197753905
4893495235735,0.881444426,1,0.21188684692382811,1.7334020019531249,-11.194089862060546
4893501900944,0.888109635,1,0.22744915771484372,1.7393875061035156,-11.214440576171874
4893508570319,0.89477901,1,0.239420166015625,1.7525556152343749,-11.174936248779296
4893515235579,0.90144427,1,0.22864625854492185,1.7166425903320313,-11.156979736328124
4893521902871,0.908111562,1,0.19991583862304688,1.715445489501953,-11.179724652099608
4893528569590,0.914778281,1,0.2705447875976562,1.7226280944824217,-11.201272467041015
4893535233965,0.921442656,1,0.17118541870117188,1.7489643127441405,-11.12226381225586
4893541904121,0.928112812,1,0.22505495605468748,1.7657237243652342,-11.215637677001952
4893548569902,0.934778593,1,0.1867477294921875,1.7322049011230467,-11.180921752929686
4893555235267,0.941443958,1,0.2561795776367187,1.763329522705078,-11.158176837158203
4893561903652,0.948112343,1,0.24899697265624998,1.734599102783203,-11.186907257080078
4893568569485,0.954778176,1,0.23104046020507812,1.7334020019531249,-11.176133349609374
4893575236152,0.961444843,1,0.22505495605468748,1.7118541870117185,-11.184513055419922
4893581902610,0.968111301,1,0.25258827514648435,1.7094599853515624,-11.19169566040039
4893588569121,0.974777812,1,0.2657563842773437,1.7310078002929687,-11.206060870361327
4893595236256,0.981444947,1,0.2657563842773437,1.7022773803710936,-11.173739147949219
4893601902923,0.988111614,1,0.1975216369628906,1.7022773803710936,-11.155782635498046
4893608569746,0.994778437,1,0.21068974609375,1.7274164978027342,-11.155782635498046
4893615236048,1.001444739,1,0.2657563842773437,1.7405846069335937,-11.247959399414063
4893621902975,1.008111666,1,0.1867477294921875,1.7262193969726563,-11.208455072021483
4893628570267,1.014778958,1,0.24779987182617186,1.7238251953125,-11.16057103881836
4893635236725,1.021445416,1,0.21428104858398436,1.6603788513183593,-11.121066711425781
4893641903235,1.028111926,1,0.201112939453125,1.7118541870117185,-11.156979736328124
4893648569902,1.034778593,1,0.2645592834472656,1.715445489501953,-11.129446417236327
4893655237142,1.041445833,1,0.19153613281249998,1.7573440185546874,-11.17254204711914
4893661972610,1.048181301,1,0.239420166015625,1.7465701110839842,-11.231199987792968
4893668576152,1.054784843,1,0.21308394775390624,1.7310078002929687,-11.168950744628905
4893675236048,1.061444739,1,0.23223756103515625,1.7202338928222656,-11.194089862060546
4893681904277,1.068112968,1,0.2501940734863281,1.7609353210449217,-11.170147845458983
4893688569537,1.074778228,1,0.277727392578125,1.7166425903320313,-11.197681164550781
4893695236621,1.081445312,1,0.23582886352539062,1.753752716064453,-11.275492718505859
4893701904642,1.088113333,1,0.24301146850585936,1.7106570861816406,-11.14022032470703
4893708571308,1.094779999,1,0.2549824768066406,1.7357962036132812,-11.145008728027342
4893715237975,1.101446666,1,0.22266075439453123,1.7010802795410156,-11.159373937988281
4893721905162,1.108113853,1,0.2765302917480469,1.7094599853515624,-11.142614526367186
4893728571256,1.114779947,1,0.2214636535644531,1.7322049011230467,-11.19169566040039
4893735239121,1.121447812,1,0.23343466186523437,1.734599102783203,-11.148600030517578
4893741904642,1.128113333,1,0.23343466186523437,1.7322049011230467,-11.17254204711914
4893748571569,1.13478026,1,0.201112939453125,1.7322049011230467,-11.167753643798827
4893755238287,1.141446978,1,0.2537853759765625,1.7106570861816406,-11.167753643798827
4893761905371,1.148114062,1,0.18914193115234373,1.7226280944824217,-11.176133349609374
4893768572142,1.154780833,1,0.2214636535644531,1.7369933044433592,-11.1474029296875
4893775238287,1.161446978,1,0.19512743530273435,1.7274164978027342,-11.201272467041015
4893781903964,1.168112655,1,0.2154781494140625,1.7513585144042967,-11.234791290283203
4893788570996,1.174779687,1,0.2346317626953125,1.7429788085937499,-11.194089862060546
4893795238235,1.181446926,1,0.22744915771484372,1.744175909423828,-11.203666668701171
4893801904642,1.188113333,1,0.2442085693359375,1.715445489501953,-11.183315954589844
4893808571517,1.194780208,1,0.23702596435546874,1.7561469177246092,-11.16057103881836
4893815238235,1.201446926,1,0.24061726684570311,1.7202338928222656,-11.200075366210937
4893821905162,1.208113853,1,0.2741360900878906,1.7214309936523438,-11.166556542968749
4893828571621,1.214780312,1,0.2262520568847656,1.7561469177246092,-11.218031878662108
4893835238808,1.221447499,1,0.18914193115234373,1.7621324218749999,-11.150994232177734
4893841904589,1.22811328,1,0.23822306518554687,1.7381904052734374,-11.201272467041015
4893848571308,1.234779999,1,0.2597708801269531,1.697488977050781,-11.258733306884764
4893855238287,1.241446978,1,0.22505495605468748,1.705868682861328,-11.182118853759764
4893861904641,1.248113332,1,0.17477672119140625,1.7549498168945312,-11.168950744628905
4893868571308,1.254779999,1,0.17956512451171874,1.7417817077636717,-11.21084927368164
4893875238391,1.261447082,1,0.22505495605468748,1.7118541870117185,-11.202469567871093
4893881904069,1.26811276,1,0.22505495605468748,1.6998831787109374,-11.218031878662108
4893888571412,1.274780103,1,0.26815058593749996,1.6998831787109374,-11.206060870361327
4893895237714,1.281446405,1,0.2262520568847656,1.7417817077636717,-11.206060870361327
4893901905058,1.288113749,1,0.21308394775390624,1.7585411193847655,-11.19169566040039
4893908571881,1.294780572,1,0.23702596435546874,1.7477672119140624,-11.25514200439453
4893915238287,1.301446978,1,0.23104046020507812,1.7286135986328124,-11.17852755126953
4893921905110,1.308113801,1,0.20470424194335937,1.695094775390625,-11.218031878662108
4893928580423,1.314789114,1,0.2346317626953125,1.7262193969726563,-11.24915650024414
4893935239902,1.321448593,1,0.2154781494140625,1.7262193969726563,-11.180921752929686
4893941907454,1.328116145,1,0.22864625854492185,1.7202338928222656,-11.180921752929686
4893948571933,1.334780624,1,0.22744915771484372,1.7609353210449217,-11.121066711425781
4893955238600,1.341447291,1,0.25139117431640623,1.7322049011230467,-11.194089862060546
4893961904954,1.348113645,1,0.16280571289062498,1.7717092285156248,-11.1474029296875
4893968571516,1.354780207,1,0.24779987182617186,1.7238251953125,-11.113884106445312
4893975238183,1.361446874,1,0.19153613281249998,1.7381904052734374,-11.204863769531249
4893981905371,1.368114062,1,0.20231004028320312,1.772906329345703,-11.15338843383789
4893988571048,1.374779739,1,0.22505495605468748,1.7549498168945312,-11.23000288696289
4893995237298,1.381445989,1,0.20949264526367187,1.7106570861816406,-11.214440576171874
4894001905110,1.388113801,1,0.20829554443359374,1.7286135986328124,-11.218031878662108
4894008593183,1.394801874,1,0.22864625854492185,1.7274164978027342,-11.197681164550781
4894015240110,1.401448801,1,0.21906945190429686,1.7238251953125,-11.17254204711914
4894021903339,1.40811203,1,0.229843359375,1.7369933044433592,-11.150994232177734
4894028568027,1.414776718,1,0.229843359375,1.734599102783203,-11.21084927368164
4894035238339,1.42144703,1,0.20470424194335937,1.734599102783203,-11.200075366210937
4894041907350,1.428116041,1,0.22266075439453123,1.7417817077636717,-11.200075366210937
4894048571256,1.434779947,1,0.20709844360351562,1.7417817077636717,-11.182118853759764
4894055237871,1.441446562,1,0.24181436767578124,1.7513585144042967,-11.105504400634764
4894061905110,1.448113801,1,0.22864625854492185,1.7190367919921874,-11.184513055419922
4894068571621,1.454780312,1,0.23223756103515625,1.725022296142578,-11.180921752929686
4894075238756,1.461447447,1,0.23104046020507812,1.7214309936523438,-11.201272467041015
4894081905423,1.468114114,1,0.20231004028320312,1.734599102783203,-11.220426080322264
4894088572402,1.474781093,1,0.21068974609375,1.7741034301757812,-11.208455072021483
4894095238339,1.48144703,1,0.23223756103515625,1.7010802795410156,-11.222820281982422
4894101904693,1.488113384,1,0.2753331909179687,1.687912170410156,-11.128249316406249
4894108567558,1.494776249,1,0.24181436767578124,1.7477672119140624,-11.098321795654297
4894115239329,1.50144802,1,0.19033903198242186,1.7369933044433592,-11.214440576171874
4894121904693,1.508113384,1,0.2154781494140625,1.7573440185546874,-11.238382592773437
4894128571725,1.514780416,1,0.23343466186523437,1.7489643127441405,-11.218031878662108
4894135238027,1.521446718,1,0.24660277099609373,1.7298106994628906,-11.206060870361327
4894141904850,1.528113541,1,0.2501940734863281,1.7764976318359373,-11.155782635498046
4894148571881,1.534780572,1,0.23702596435546874,1.714248388671875,-11.148600030517578
4894155238131,1.541446822,1,0.2561795776367187,1.7800889343261719,-11.201272467041015
4894161904173,1.548112864,1,0.23702596435546874,1.715445489501953,-11.192892761230468
4894168572350,1.554781041,1,0.23702596435546874,1.7465701110839842,-11.113884106445312
4894175238287,1.561446978,1,0.2454056701660156,1.7465701110839842,-11.213243475341796
4894181904537,1.568113228,1,0.23702596435546874,1.7357962036132812,-11.213243475341796
4894188570214,1.574778905,1,0.2454056701660156,1.70467158203125,-11.164162341308593
4894195238496,1.581447187,1,0.2059013427734375,1.7489643127441405,-11.21084927368164
4894201905006,1.588113697,1,0.23822306518554687,1.7453730102539062,-11.19887826538086
4894208571360,1.594780051,1,0.24899697265624998,1.7166425903320313,-11.183315954589844
4894215238027,1.601446718,1,0.1867477294921875,1.678335363769531,-11.2240173828125
4894221905006,1.608113697,1,0.22864625854492185,1.7226280944824217,-11.220426080322264
4894228571985,1.614780676,1,0.20350714111328125,1.7453730102539062,-11.232397088623046
4894235238079,1.62144677,1,0.229843359375,1.7753005310058592,-11.186907257080078
4894241906673,1.628115364,1,0.23822306518554687,1.7202338928222656,-11.148600030517578
4894248572141,1.634780832,1,0.22744915771484372,1.7190367919921874,-11.154585534667968
4894255238860,1.641447551,1,0.239420166015625,1.6891092712402342,-11.17254204711914
4894261904693,1.648113384,1,0.20231004028320312,1.7082628845214842,-11.156979736328124
4894268567141,1.654775832,1,0.23223756103515625,1.725022296142578,-11.207257971191405
4894275239225,1.661447916,1,0.20829554443359374,1.7405846069335937,-11.1474029296875
4894281904798,1.668113489,1,0.22026655273437498,1.7214309936523438,-11.176133349609374
4894288570996,1.674779687,1,0.2442085693359375,1.7561469177246092,-11.196484063720703
4894295238600,1.681447291,1,0.2166752502441406,1.7010802795410156,-11.201272467041015
4894301904277,1.688112968,1,0.16998831787109375,1.7465701110839842,-11.154585534667968
4894308571464,1.694780155,1,0.22385785522460935,1.7417817077636717,-11.142614526367186
4894315237662,1.701446353,1,0.22385785522460935,1.7657237243652342,-11.137826123046874
4894321904381,1.708113072,1,0.19871873779296872,1.7657237243652342,-11.162965240478515
4894328571412,1.714780103,1,0.22026655273437498,1.7322049011230467,-11.162965240478515
4894335238391,1.721447082,1,0.18315642700195311,1.7357962036132812,-11.162965240478515
4894341904589,1.72811328,1,0.21428104858398436,1.7262193969726563,-11.207257971191405
4894348571308,1.734779999,1,0.19991583862304688,1.7381904052734374,-11.201272467041015
4894355237558,1.741446249,1,0.24899697265624998,1.705868682861328,-11.159373937988281
4894361904850,1.748113541,1,0.18914193115234373,1.696291876220703,-11.128249316406249
4894368571516,1.754780207,1,0.239420166015625,1.7717092285156248,-11.152191333007812
4894375237506,1.761446197,1,0.18435352783203124,1.7585411193847655,-11.243170996093749
4894381904016,1.768112707,1,0.23104046020507812,1.7465701110839842,-11.171344946289063
4894388570631,1.774779322,1,0.21308394775390624,1.7322049011230467,-11.219228979492186
4894395237037,1.781445728,1,0.18555062866210936,1.7130512878417967,-11.110292803955078
4894401904902,1.788113593,1,0.22744915771484372,1.7657237243652342,-11.1474029296875
4894408571829,1.79478052,1,0.24899697265624998,1.7286135986328124,-11.195286962890624
4894415237662,1.801446353,1,0.20709844360351562,1.725022296142578,-11.18571015625
4894421904381,1.808113072,1,0.22744915771484372,1.7322049011230467,-11.150994232177734
4894428571048,1.814779739,1,0.23104046020507812,1.7178396911621092,-11.171344946289063
4894435235370,1.821444061,1,0.22744915771484372,1.715445489501953,-11.121066711425781
4894441904433,1.828113124,1,0.18914193115234373,1.7118541870117185,-11.176133349609374
4894448570891,1.834779582,1,0.2454056701660156,1.782483135986328,-11.2240173828125
4894455237558,1.841446249,1,0.2454056701660156,1.7106570861816406,-11.137826123046874
4894461905423,1.848114114,1,0.22266075439453123,1.7106570861816406,-11.17852755126953
4894468571933,1.854780624,1,0.2813186950683594,1.7166425903320313,-11.17852755126953
4894475238235,1.861446926,1,0.19153613281249998,1.705868682861328,-11.215637677001952
4894481904798,1.868113489,1,0.23104046020507812,1.7262193969726563,-11.146205828857422
4894488571933,1.874780624,1,0.2597708801269531,1.707065783691406,-11.188104357910156
4894495238391,1.881447082,1,0.23822306518554687,1.6938976745605467,-11.167753643798827
4894501904745,1.888113436,1,0.22744915771484372,1.7573440185546874,-11.165359442138671
4894508571516,1.894780207,1,0.2154781494140625,1.7094599853515624,-11.112687005615234
4894515237922,1.901446613,1,0.181959326171875,1.7453730102539062,-11.18571015625
4894521904745,1.908113436,1,0.22744915771484372,1.7298106994628906,-11.225214483642578
4894528569745,1.914778436,1,0.20231004028320312,1.7274164978027342,-11.23718549194336
4894535237766,1.921446457,1,0.24301146850585936,1.7489643127441405,-11.206060870361327
4894541905162,1.928113853,1,0.2813186950683594,1.7286135986328124,-11.209652172851563
4894548571933,1.934780624,1,0.19153613281249998,1.697488977050781,-11.206060870361327
4894555246152,1.941454843,1,0.23822306518554687,1.6938976745605467,-11.19169566040039
4894561907350,1.948116041,1,0.24301146850585936,1.7621324218749999,-11.161768139648437
4894568570891,1.954779582,1,0.23343466186523437,1.7453730102539062,-11.218031878662108
4894575238756,1.961447447,1,0.21068974609375,1.686715069580078,-11.17254204711914
4894581904589,1.96811328,1,0.25737667846679685,1.6986860778808592,-11.125855114746093
4894588571100,1.974779791,1,0.18435352783203124,1.7274164978027342,-11.21683477783203
4894595238495,1.981447186,1,0.19632453613281248,1.7094599853515624,-11.165359442138671
4894601904745,1.988113436,1,0.19632453613281248,1.734599102783203,-11.190498559570312
4894608571360,1.994780051,1,0.2561795776367187,1.734599102783203,-11.194089862060546
4894615238235,2.001446926,1,0.2693476867675781,1.70467158203125,-11.194089862060546
4894621904485,2.008113176,1,0.2454056701660156,1.725022296142578,-11.18571015625
4894628571620,2.014780311,1,0.2657563842773437,1.7190367919921874,-11.170147845458983
4894635235995,2.021444686,1,0.20709844360351562,1.7310078002929687,-11.170147845458983
4894641904902,2.028113593,1,0.2861070983886719,1.7190367919921874,-11.206060870361327
4894648570995,2.034779686,1,0.21906945190429686,1.7118541870117185,-11.1474029296875
4894655238547,2.041447238,1,0.26216508178710934,1.7836802368164062,-11.17254204711914
4894661904693,2.048113384,1,0.26695348510742184,1.7226280944824217,-11.203666668701171
4894668572193,2.054780884,1,0.21787235107421873,1.7477672119140624,-11.16057103881836
4894675243079,2.06145177,1,0.20949264526367187,1.7693150268554687,-11.201272467041015
4894681899381,2.068108072,1,0.229843359375,1.715445489501953,-11.235988391113281
4894688573027,2.074781718,1,0.20350714111328125,1.7166425903320313,-11.173739147949219
4894695239068,2.081447759,1,0.24779987182617186,1.7609353210449217,-11.197681164550781
4894701904693,2.088113384,1,0.201112939453125,1.7226280944824217,-11.190498559570312
4894708571933,2.094780624,1,0.22026655273437498,1.7549498168945312,-11.263521710205078
4894715237662,2.101446353,1,0.23582886352539062,1.7381904052734374,-11.165359442138671
4894721905891,2.108114582,1,0.258573779296875,1.7334020019531249,-11.12226381225586
4894728570839,2.11477953,1,0.1879448303222656,1.6915034729003906,-11.209652172851563
4894735238183,2.121446874,1,0.1771709228515625,1.7238251953125,-11.188104357910156
4894741904693,2.128113384,1,0.1771709228515625,1.7489643127441405,-11.23718549194336
4894748570995,2.134779686,1,0.2501940734863281,1.7489643127441405,-11.171344946289063
4894755238131,2.141446822,1,0.2501940734863281,1.7034744812011717,-11.171344946289063
4894761904641,2.148113332,1,0.2442085693359375,1.7178396911621092,-11.201272467041015
4894768570995,2.154779686,1,0.2166752502441406,1.695094775390625,-11.19887826538086
4894775237922,2.161446613,1,0.2262520568847656,1.668758557128906,-11.154585534667968
4894781901933,2.168110624,1,0.25139117431640623,1.7429788085937499,-11.15338843383789
4894788572506,2.174781197,1,0.2262520568847656,1.7322049011230467,-11.182118853759764
4894795237506,2.181446197,1,0.229843359375,1.7310078002929687,-11.143811627197264
4894801905370,2.188114061,1,0.24660277099609373,1.734599102783203,-11.19169566040039
4894808571568,2.194780259,1,0.21068974609375,1.70467158203125,-11.239579693603515
4894815237558,2.201446249,1,0.20829554443359374,1.7465701110839842,-11.174936248779296
4894821904693,2.208113384,1,0.258573779296875,1.7202338928222656,-11.213243475341796
4894828570891,2.214779582,1,0.26216508178710934,1.7334020019531249,-11.261127508544922
4894835237870,2.221446561,1,0.2501940734863281,1.7381904052734374,-11.228805786132812
4894841904954,2.228113645,1,0.23702596435546874,1.7453730102539062,-11.218031878662108
4894848571724,2.234780415,1,0.24181436767578124,1.7597382202148437,-11.149797131347656
4894855237506,2.241446197,1,0.20470424194335937,1.7717092285156248,-11.154585534667968
4894861904537,2.248113228,1,0.23104046020507812,1.7381904052734374,-11.179724652099608
4894868571724,2.254780415,1,0.22744915771484372,1.715445489501953,-11.182118853759764
4894875238079,2.26144677,1,0.23822306518554687,1.7262193969726563,-11.159373937988281
4894881904537,2.268113228,1,0.23702596435546874,1.7166425903320313,-11.133037719726563
4894888571152,2.274779843,1,0.23702596435546874,1.7513585144042967,-11.201272467041015
4894895238131,2.281446822,1,0.27293898925781246,1.7513585144042967,-11.233594189453123
4894901905266,2.288113957,1,0.21068974609375,1.7561469177246092,-11.233594189453123
4894908571672,2.294780363,1,0.24061726684570311,1.715445489501953,-11.159373937988281
4894915235422,2.301444113,1,0.26815058593749996,1.7645266235351562,-11.129446417236327
4894921906620,2.308115311,1,0.20350714111328125,1.7310078002929687,-11.149797131347656
4894928567766,2.314776457,1,0.1927332336425781,1.7669208251953124,-11.215637677001952
4894935239224,2.321447915,1,0.2346317626953125,1.7453730102539062,-11.196484063720703
4894941905266,2.328113957,1,0.3076549133300781,1.6891092712402342,-11.196484063720703
4894948571829,2.33478052,1,0.19871873779296872,1.7561469177246092,-11.201272467041015
4894955238183,2.341446874,1,0.28730419921875,1.697488977050781,-11.188104357910156
4894961904849,2.34811354,1,0.2657563842773437,1.744175909423828,-11.209652172851563
4894968571516,2.354780207,1,0.1879448303222656,1.7369933044433592,-11.11508120727539
4894975238079,2.36144677,1,0.23104046020507812,1.7022773803710936,-11.13423482055664
4894981904276,2.368112967,1,0.19632453613281248,1.7393875061035156,-11.21084927368164
4894988571933,2.374780624,1,0.22266075439453123,1.7178396911621092,-11.215637677001952
4894995237193,2.381445884,1,0.25139117431640623,1.7357962036132812,-11.226411584472656
4895001905370,2.388114061,1,0.22864625854492185,1.7369933044433592,-11.192892761230468
4895008571829,2.39478052,1,0.16998831787109375,1.6903063720703124,-11.146205828857422
4895015237974,2.401446665,1,0.23104046020507812,1.7166425903320313,-11.14022032470703
4895021904797,2.408113488,1,0.181959326171875,1.7717092285156248,-11.241973895263671
4895028571620,2.414780311,1,0.181959326171875,1.7082628845214842,-11.194089862060546
4895035231620,2.421440311,1,0.21188684692382811,1.7082628845214842,-11.152191333007812
4895041906360,2.428115051,1,0.20829554443359374,1.734599102783203,-11.152191333007812
4895048571933,2.434780624,1,0.201112939453125,1.705868682861328,-11.136629022216797
4895055238808,2.441447499,1,0.24061726684570311,1.7657237243652342,-11.195286962890624
4895061905370,2.448114061,1,0.181959326171875,1.7705121276855467,-11.231199987792968
4895068571099,2.45477979,1,0.2765302917480469,1.7106570861816406,-11.167753643798827
4895075238079,2.46144677,1,0.26336218261718747,1.7717092285156248,-11.18571015625
4895081905058,2.468113749,1,0.20470424194335937,1.734599102783203,-11.146205828857422
4895088571829,2.47478052,1,0.20709844360351562,1.7310078002929687,-11.161768139648437
4895095238651,2.481447342,1,0.24779987182617186,1.7238251953125,-11.150994232177734
4895101904849,2.48811354,1,0.258573779296875,1.744175909423828,-11.195286962890624
4895108571672,2.494780363,1,0.2454056701660156,1.7298106994628906,-11.270704315185545
4895115237610,2.501446301,1,0.20470424194335937,1.6938976745605467,-11.17254204711914
4895121904589,2.50811328,1,0.16280571289062498,1.7310078002929687,-11.243170996093749
4895128571933,2.514780624,1,0.22026655273437498,1.7405846069335937,-11.228805786132812
4895135238131,2.521446822,1,0.2262520568847656,1.7393875061035156,-11.197681164550781
4895141905110,2.528113801,1,0.2442085693359375,1.7082628845214842,-11.189301458740234
4895148571881,2.534780572,1,0.239420166015625,1.7226280944824217,-11.14022032470703
4895155237870,2.541446561,1,0.25737667846679685,1.7681179260253905,-11.119869610595703
4895161904849,2.54811354,1,0.22026655273437498,1.7561469177246092,-11.141417425537108
4895168571203,2.554779894,1,0.19871873779296872,1.7190367919921874,-11.228805786132812
4895175238131,2.561446822,1,0.19871873779296872,1.7034744812011717,-11.188104357910156
4895181904901,2.568113592,1,0.24061726684570311,1.7034744812011717,-11.335347760009764
4895188571568,2.574780259,1,0.23822306518554687,1.7310078002929687,-11.182118853759764
4895195237818,2.581446509,1,0.2346317626953125,1.7381904052734374,-11.204863769531249
4895201904224,2.588112915,1,0.19512743530273435,1.725022296142578,-11.194089862060546
4895208571464,2.594780155,1,0.21428104858398436,1.7501614135742187,-11.19887826538086
4895215238391,2.601447082,1,0.20709844360351562,1.725022296142578,-11.233594189453123
4895221904224,2.608112915,1,0.23822306518554687,1.6807295654296874,-11.200075366210937
4895228571933,2.614780624,1,0.2346317626953125,1.7848773376464844,-11.121066711425781
4895235237922,2.621446613,1,0.229843359375,1.7238251953125,-11.118672509765624
4895241905162,2.628113853,1,0.21068974609375,1.744175909423828,-11.220426080322264
4895248571568,2.634780259,1,0.22026655273437498,1.7310078002929687,-11.15338843383789
4895255238339,2.64144703,1,0.18914193115234373,1.7393875061035156,-11.190498559570312
4895261902401,2.648111092,1,0.2154781494140625,1.70467158203125,-11.139023223876952
4895268573078,2.654781769,1,0.24779987182617186,1.7298106994628906,-11.165359442138671
4895275237922,2.661446613,1,0.24301146850585936,1.6986860778808592,-11.174936248779296
4895281905162,2.668113853,1,0.18315642700195311,1.7094599853515624,-11.209652172851563
4895288571099,2.67477979,1,0.2705447875976562,1.7166425903320313,-11.208455072021483
4895295235058,2.681443749,1,0.2657563842773437,1.715445489501953,-11.167753643798827
4895301904485,2.688113176,1,0.28371289672851563,1.7082628845214842,-11.141417425537108
4895308579120,2.694787811,1,0.24660277099609373,1.7860744384765623,-11.174936248779296
4895315238651,2.701447342,1,0.24660277099609373,1.7238251953125,-11.261127508544922
4895321905006,2.708113697,1,0.14724340209960937,1.7238251953125,-11.139023223876952
4895328571672,2.714780363,1,0.28730419921875,1.6998831787109374,-11.139023223876952
4895335237714,2.721446405,1,0.23104046020507812,1.7190367919921874,-11.142614526367186
4895341904901,2.728113592,1,0.23223756103515625,1.7274164978027342,-11.184513055419922
4895348570787,2.734779478,1,0.24779987182617186,1.7573440185546874,-11.168950744628905
4895355237818,2.741446509,1,0.1867477294921875,1.7489643127441405,-11.18571015625
4895361905318,2.748114009,1,0.24779987182617186,1.714248388671875,-11.168950744628905
4895368570839,2.75477953,1,0.17477672119140625,1.7681179260253905,-11.131840618896483
4895375237453,2.761446144,1,0.2645592834472656,1.7393875061035156,-11.252747802734374
4895381904953,2.768113644,1,0.2537853759765625,1.7609353210449217,-11.129446417236327
4895388570839,2.77477953,1,0.2932897033691406,1.7597382202148437,-11.173739147949219
4895395237714,2.781446405,1,0.24061726684570311,1.7118541870117185,-11.123460913085937
4895401904693,2.788113384,1,0.23104046020507812,1.7082628845214842,-11.170147845458983
4895408571047,2.794779738,1,0.1771709228515625,1.7178396911621092,-11.177330450439452
4895415237922,2.801446613,1,0.23104046020507812,1.7393875061035156,-11.124658013916015
4895421905214,2.808113905,1,0.22864625854492185,1.7022773803710936,-11.19169566040039
4895428570683,2.814779374,1,0.229843359375,1.7190367919921874,-11.142614526367186
4895435238235,2.821446926,1,0.22385785522460935,1.7298106994628906,-11.208455072021483
4895441904745,2.828113436,1,0.16998831787109375,1.744175909423828,-11.111489904785156
4895448571360,2.834780051,1,0.2693476867675781,1.7513585144042967,-11.085153686523437
4895455237766,2.841446457,1,0.1975216369628906,1.7453730102539062,-11.186907257080078
4895461904901,2.848113592,1,0.1975216369628906,1.7166425903320313,-11.154585534667968
4895468572453,2.854781144,1,0.29448680419921874,1.7166425903320313,-11.170147845458983
4895475237505,2.861446196,1,0.20949264526367187,1.7585411193847655,-11.170147845458983
4895481904537,2.868113228,1,0.23822306518554687,1.7489643127441405,-11.240776794433593
4895488571047,2.874779738,1,0.26216508178710934,1.7262193969726563,-11.23718549194336
4895495238078,2.881446769,1,0.23702596435546874,1.8100164550781248,-11.124658013916015
4895501905110,2.888113801,1,0.21787235107421873,1.7094599853515624,-11.168950744628905
4895508571568,2.894780259,1,0.25737667846679685,1.6795324645996093,-11.192892761230468
4895515237349,2.90144604,1,0.22744915771484372,1.7573440185546874,-11.202469567871093
4895521904276,2.908112967,1,0.24899697265624998,1.725022296142578,-11.214440576171874
4895528571464,2.914780155,1,0.22385785522460935,1.697488977050781,-11.188104357910156
4895535238547,2.921447238,1,0.22744915771484372,1.714248388671875,-11.156979736328124
4895541905058,2.928113749,1,0.24061726684570311,1.7477672119140624,-11.23718549194336
4895548568078,2.934776769,1,0.23223756103515625,1.7118541870117185,-11.245565197753905
4895555238078,2.941446769,1,0.2154781494140625,1.70467158203125,-11.179724652099608
4895561904745,2.948113436,1,0.24660277099609373,1.753752716064453,-11.21084927368164
4895568571620,2.954780311,1,0.23104046020507812,1.7561469177246092,-11.130643518066405
4895575239276,2.961447967,1,0.22864625854492185,1.7298106994628906,-11.149797131347656
4895581902193,2.968110884,1,0.14963760375976562,1.7238251953125,-11.117475408935546
4895588571776,2.974780467,1,0.20829554443359374,1.753752716064453,-11.176133349609374
4895595238443,2.981447134,1,0.2645592834472656,1.7609353210449217,-11.176133349609374
4895601905266,2.988113957,1,0.2645592834472656,1.7262193969726563,-11.156979736328124
4895608570474,2.994779165,1,0.19991583862304688,1.7262193969726563,-11.130643518066405
4895615238182,3.001446873,1,0.21188684692382811,1.7453730102539062,-11.130643518066405
4895621903807,3.008112498,1,0.22744915771484372,1.7034744812011717,-11.19169566040039
4895628572089,3.01478078,1,0.23582886352539062,1.7190367919921874,-11.162965240478515
4895635237245,3.021445936,1,0.24061726684570311,1.714248388671875,-11.142614526367186
4895641902505,3.028111196,1,0.24660277099609373,1.675941162109375,-11.149797131347656
4895648570891,3.034779582,1,0.2166752502441406,1.7010802795410156,-11.161768139648437
4895655238182,3.041446873,1,0.20350714111328125,1.696291876220703,-11.139023223876952
4895661904589,3.04811328,1,0.24061726684570311,1.7417817077636717,-11.184513055419922
4895668571203,3.054779894,1,0.19991583862304688,1.7513585144042967,-11.159373937988281
4895675234849,3.06144354,1,0.2166752502441406,1.6986860778808592,-11.21683477783203
4895681905214,3.068113905,1,0.23104046020507812,1.7369933044433592,-11.17852755126953
4895688571412,3.074780103,1,0.2537853759765625,1.7130512878417967,-11.246762298583985
4895695237766,3.081446457,1,0.1927332336425781,1.7848773376464844,-11.207257971191405
4895701904901,3.088113592,1,0.21787235107421873,1.7322049011230467,-11.190498559570312
4895708572141,3.094780832,1,0.29568390502929687,1.7597382202148437,-11.203666668701171
4895715237662,3.101446353,1,0.26336218261718747,1.7836802368164062,-11.189301458740234
4895721904693,3.108113384,1,0.24061726684570311,1.7310078002929687,-11.21683477783203
4895728571672,3.114780363,1,0.24899697265624998,1.7298106994628906,-11.17852755126953
4895735238860,3.121447551,1,0.19512743530273435,1.705868682861328,-11.203666668701171
4895741904953,3.128113644,1,0.2346317626953125,1.7226280944824217,-11.23000288696289
4895748571724,3.134780415,1,0.2346317626953125,1.7082628845214842,-11.180921752929686
4895755237297,3.141445988,1,0.24061726684570311,1.7082628845214842,-11.137826123046874
4895761904641,3.148113332,1,0.26815058593749996,1.714248388671875,-11.137826123046874
4895768571151,3.154779842,1,0.22505495605468748,1.7310078002929687,-11.196484063720703
4895775238026,3.161446717,1,0.24181436767578124,1.7286135986328124,-11.21084927368164
4895781905162,3.168113853,1,0.21188684692382811,1.7381904052734374,-11.194089862060546
4895788571932,3.174780623,1,0.24301146850585936,1.7417817077636717,-11.13423482055664
4895795237766,3.181446457,1,0.229843359375,1.7477672119140624,-11.119869610595703
4895801904432,3.188113123,1,0.1867477294921875,1.7118541870117185,-11.148600030517578
4895808570318,3.194779009,1,0.24181436767578124,1.7573440185546874,-11.207257971191405
4895815238755,3.201447446,1,0.19871873779296872,1.7202338928222656,-11.166556542968749
4895821904693,3.208113384,1,0.24779987182617186,1.7657237243652342,-11.165359442138671
4895828571307,3.214779998,1,0.2346317626953125,1.715445489501953,-11.177330450439452
4895835237609,3.2214463,1,0.1975216369628906,1.744175909423828,-11.17254204711914
4895841904276,3.228112967,1,0.2454056701660156,1.7238251953125,-11.228805786132812
4895848571255,3.234779946,1,0.20350714111328125,1.7322049011230467,-11.21084927368164
4895855238807,3.241447498,1,0.277727392578125,1.7214309936523438,-11.16057103881836
4895861905318,3.248114009,1,0.23822306518554687,1.6986860778808592,-11.141417425537108
4895868571255,3.254779946,1,0.19512743530273435,1.7657237243652342,-11.141417425537108
4895875238130,3.261446821,1,0.23223756103515625,1.7645266235351562,-11.190498559570312
4895881904745,3.268113436,1,0.21308394775390624,1.7190367919921874,-11.182118853759764
4895888571568,3.274780259,1,0.21308394775390624,1.7357962036132812,-11.18571015625
4895895238495,3.281447186,1,0.24301146850585936,1.7357962036132812,-11.177330450439452
4895901904797,3.288113488,1,0.17956512451171874,1.7477672119140624,-11.177330450439452
4895908571828,3.294780519,1,0.23104046020507812,1.7274164978027342,-11.188104357910156
4895915238287,3.301446978,1,0.20350714111328125,1.7573440185546874,-11.170147845458983
4895921916412,3.308125103,1,0.24899697265624998,1.7262193969726563,-11.196484063720703
4895928587766,3.314796457,1,0.17836802368164062,1.7573440185546874,-11.129446417236327
4895935260370,3.321469061,1,0.22864625854492185,1.7405846069335937,-11.1474029296875
4895941920787,3.328129478,1,0.22864625854492185,1.7298106994628906,-11.168950744628905
4895948585474,3.334794165,1,0.239420166015625,1.7465701110839842,-11.195286962890624
4895955252714,3.341461405,1,0.22266075439453123,1.734599102783203,-11.155782635498046
4895961930214,3.348138905,1,0.2609679809570312,1.7381904052734374,-11.128249316406249
4895968587662,3.354796353,1,0.19632453613281248,1.7693150268554687,-11.167753643798827
4895975252193,3.361460884,1,0.20470424194335937,1.6927005737304686,-11.150994232177734
4895981919432,3.368128123,1,0.17956512451171874,1.7369933044433592,-11.159373937988281
4895988585787,3.374794478,1,0.2501940734863281,1.7645266235351562,-11.209652172851563
4895995252245,3.381460936,1,0.20949264526367187,1.7238251953125,-11.192892761230468
4896001919745,3.388128436,1,0.20949264526367187,1.7226280944824217,-11.182118853759764
4896008586464,3.394795155,1,0.2262520568847656,1.725022296142578,-11.228805786132812
4896015252453,3.401461144,1,0.19512743530273435,1.7417817077636717,-11.17852755126953
4896021919276,3.408127967,1,0.19632453613281248,1.7178396911621092,-11.174936248779296
4896028586203,3.414794894,1,0.1879448303222656,1.7130512878417967,-11.225214483642578
4896035252662,3.421461353,1,0.1879448303222656,1.7417817077636717,-11.176133349609374
4896041916672,3.428125363,1,0.20470424194335937,1.7417817077636717,-11.207257971191405
4896048587036,3.434795727,1,0.29448680419921874,1.7465701110839842,-11.303026037597656
4896055253026,3.441461717,1,0.19991583862304688,1.7908628417968748,-11.149797131347656
4896061915005,3.448123696,1,0.26695348510742184,1.7238251953125,-11.202469567871093
4896068586359,3.45479505,1,0.2154781494140625,1.7226280944824217,-11.167753643798827
4896075252661,3.461461352,1,0.2454056701660156,1.7369933044433592,-11.234791290283203
4896081919380,3.468128071,1,0.23343466186523437,1.6998831787109374,-11.145008728027342
4896088585734,3.474794425,1,0.2154781494140625,1.7202338928222656,-11.121066711425781
4896095253078,3.481461769,1,0.21787235107421873,1.705868682861328,-11.127052215576171
4896101919172,3.488127863,1,0.1927332336425781,1.7393875061035156,-11.222820281982422
4896108586724,3.494795415,1,0.1975216369628906,1.7226280944824217,-11.171344946289063
4896115253339,3.50146203,1,0.21787235107421873,1.6998831787109374,-11.18571015625
4896121927557,3.508136248,1,0.24660277099609373,1.744175909423828,-11.253944903564452
4896128594901,3.514803592,1,0.2166752502441406,1.7465701110839842,-11.17852755126953
4896135261047,3.521469738,1,0.24061726684570311,1.7106570861816406,-11.118672509765624
4896141926672,3.528135363,1,0.22026655273437498,1.7369933044433592,-11.196484063720703
4896148594797,3.534803488,1,0.2693476867675781,1.7082628845214842,-11.145008728027342
4896155260474,3.541469165,1,0.1879448303222656,1.7322049011230467,-11.1474029296875
4896161928391,3.548137082,1,0.27174188842773433,1.7405846069335937,-11.103110198974608
4896168586568,3.554795259,1,0.2454056701660156,1.7262193969726563,-11.208455072021483
4896175261620,3.561470311,1,0.22505495605468748,1.7513585144042967,-11.218031878662108
4896181927089,3.56813578,1,0.22505495605468748,1.7190367919921874,-11.189301458740234
4896188594172,3.574802863,1,0.22385785522460935,1.7190367919921874,-11.182118853759764
4896195262297,3.581470988,1,0.239420166015625,1.7262193969726563,-11.050437762451171
4896201927661,3.588136352,1,0.22385785522460935,1.7860744384765623,-11.203666668701171
4896208594120,3.594802811,1,0.23104046020507812,1.7513585144042967,-11.167753643798827
4896215260839,3.60146953,1,0.1867477294921875,1.7106570861816406,-11.146205828857422
4896221918078,3.608126769,1,0.23104046020507812,1.7465701110839842,-11.170147845458983
4896228588547,3.614797238,1,0.201112939453125,1.7226280944824217,-11.17254204711914
4896235253599,3.62146229,1,0.2597708801269531,1.744175909423828,-11.233594189453123
4896241920318,3.628129009,1,0.17836802368164062,1.6891092712402342,-11.161768139648437
4896248586411,3.634795102,1,0.2442085693359375,1.7453730102539062,-11.091139190673827
4896255253443,3.641462134,1,0.27892449340820313,1.7417817077636717,-11.192892761230468
4896261918911,3.648127602,1,0.20949264526367187,1.772906329345703,-11.150994232177734
4896268586307,3.654794998,1,0.21787235107421873,1.7489643127441405,-11.161768139648437
4896275252818,3.661461509,1,0.19153613281249998,1.6771382629394531,-11.127052215576171
4896281920734,3.668129425,1,0.19512743530273435,1.7286135986328124,-11.165359442138671
4896288586099,3.67479479,1,0.2262520568847656,1.7166425903320313,-11.215637677001952
4896295252661,3.681461352,1,0.2214636535644531,1.7645266235351562,-11.234791290283203
4896301919276,3.688127967,1,0.21787235107421873,1.7393875061035156,-11.171344946289063
4896308586099,3.69479479,1,0.22744915771484372,1.7130512878417967,-11.18571015625
4896315252974,3.701461665,1,0.2645592834472656,1.7130512878417967,-11.220426080322264
4896321935422,3.708144113,1,0.2645592834472656,1.7573440185546874,-11.220426080322264
4896328596672,3.714805363,1,0.21068974609375,1.7190367919921874,-11.137826123046874
4896335261776,3.721470467,1,0.23343466186523437,1.7190367919921874,-11.180921752929686
4896341927974,3.728136665,1,0.1879448303222656,1.7322049011230467,-11.180921752929686
4896348595786,3.734804477,1,0.2549824768066406,1.7214309936523438,-11.204863769531249
4896355260943,3.741469634,1,0.2741360900878906,1.7310078002929687,-11.189301458740234
4896361927766,3.748136457,1,0.23223756103515625,1.7465701110839842,-11.206060870361327
4896368593599,3.75480229,1,0.23582886352539062,1.744175909423828,-11.190498559570312
4896375261724,3.761470415,1,0.21428104858398436,1.7274164978027342,-11.179724652099608
4896381927713,3.768136404,1,0.277727392578125,1.7717092285156248,-11.180921752929686
4896388595213,3.774803904,1,0.24779987182617186,1.7226280944824217,-11.164162341308593
4896395260734,3.781469425,1,0.18435352783203124,1.7405846069335937,-11.214440576171874
4896401926568,3.788135259,1,0.239420166015625,1.7286135986328124,-11.206060870361327
4896408594068,3.794802759,1,0.22266075439453123,1.7238251953125,-11.16057103881836
4896415260526,3.801469217,1,0.2561795776367187,1.7106570861816406,-11.168950744628905
4896422011932,3.808220623,1,0.2214636535644531,1.6986860778808592,-11.16057103881836
4896428587453,3.814796144,1,0.24660277099609373,1.7214309936523438,-11.182118853759764
4896435253078,3.821461769,1,0.20709844360351562,1.7334020019531249,-11.188104357910156
4896441920213,3.828128904,1,0.21787235107421873,1.7489643127441405,-11.137826123046874
4896448587036,3.834795727,1,0.2561795776367187,1.7693150268554687,-11.131840618896483
4896455252818,3.841461509,1,0.2346317626953125,1.7274164978027342,-11.207257971191405
4896461918443,3.848127134,1,0.2753331909179687,1.7465701110839842,-11.194089862060546
4896468587297,3.854795988,1,0.2753331909179687,1.8136077575683593,-11.131840618896483
4896475252297,3.861460988,1,0.22026655273437498,1.8136077575683593,-11.17852755126953
4896481919015,3.868127706,1,0.2214636535644531,1.7561469177246092,-11.17852755126953
4896488586255,3.874794946,1,0.24779987182617186,1.7405846069335937,-11.137826123046874
4896495252401,3.881461092,1,0.2166752502441406,1.7585411193847655,-11.149797131347656
4896501918807,3.888127498,1,0.25258827514648435,1.714248388671875,-11.19887826538086
4896508586568,3.894795259,1,0.22026655273437498,1.7393875061035156,-11.174936248779296
4896515253130,3.901461821,1,0.28969840087890625,1.772906329345703,-11.215637677001952
4896521919588,3.908128279,1,0.1484405029296875,1.7178396911621092,-11.209652172851563
4896528586880,3.914795571,1,0.22864625854492185,1.7764976318359373,-11.170147845458983
4896535252505,3.921461196,1,0.2537853759765625,1.7106570861816406,-11.16057103881836
4896541919015,3.928127706,1,0.22744915771484372,1.7501614135742187,-11.21683477783203
4896548585734,3.934794425,1,0.18914193115234373,1.6998831787109374,-11.21084927368164
4896555252349,3.94146104,1,0.24301146850585936,1.7178396911621092,-11.167753643798827
4896561928963,3.948137654,1,0.21308394775390624,1.7286135986328124,-11.270704315185545
4896568587401,3.954796092,1,0.2609679809570312,1.7393875061035156,-11.176133349609374
4896575250057,3.961458748,1,0.27293898925781246,1.6891092712402342,-11.243170996093749
4896581919849,3.96812854,1,0.20470424194335937,1.7130512878417967,-11.18571015625
4896588585734,3.974794425,1,0.2442085693359375,1.7645266235351562,-11.136629022216797
4896595252401,3.981461092,1,0.258573779296875,1.70467158203125,-11.16057103881836
4896601919172,3.988127863,1,0.21068974609375,1.7429788085937499,-11.137826123046874
4896608585005,3.994793696,1,0.21068974609375,1.7417817077636717,-11.176133349609374
4896615253234,4.001461925,1,0.2346317626953125,1.7417817077636717,-11.209652172851563
4896621919328,4.008128019,1,0.22505495605468748,1.7214309936523438,-11.202469567871093
4896628587140,4.014795831,1,0.19991583862304688,1.7369933044433592,-11.202469567871093
4896635253911,4.021462602,1,0.21308394775390624,1.7262193969726563,-11.14022032470703
4896641919849,4.02812854,1,0.18555062866210936,1.7034744812011717,-11.165359442138671
4896648585318,4.034794009,1,0.22505495605468748,1.7202338928222656,-11.174936248779296
4896655249797,4.041458488,1,0.20231004028320312,1.7381904052734374,-11.189301458740234
4896661919328,4.048128019,1,0.20829554443359374,1.7286135986328124,-11.176133349609374
4896668584797,4.054793488,1,0.16639701538085935,1.7357962036132812,-11.19887826538086
4896675270057,4.061478748,1,0.2561795776367187,1.7705121276855467,-11.159373937988281
4896681925057,4.068133748,1,0.21308394775390624,1.7190367919921874,-11.112687005615234
4896688583234,4.074791925,1,0.24061726684570311,1.7010802795410156,-11.170147845458983
4896695253026,4.081461717,1,0.18315642700195311,1.7274164978027342,-11.166556542968749
4896701919067,4.088127758,1,0.21787235107421873,1.696291876220703,-11.195286962890624
4896708586047,4.094794738,1,0.2059013427734375,1.7573440185546874,-11.245565197753905
4896715252349,4.10146104,1,0.23822306518554687,1.7286135986328124,-11.207257971191405
4896721919536,4.108128227,1,0.2166752502441406,1.7202338928222656,-11.188104357910156
4896728585161,4.114793852,1,0.239420166015625,1.6891092712402342,-11.184513055419922
4896735249276,4.121457967,1,0.22026655273437498,1.7369933044433592,-11.166556542968749
4896741921359,4.12813005,1,0.20470424194335937,1.7334020019531249,-11.180921752929686
4896748585995,4.134794686,1,0.19153613281249998,1.7417817077636717,-11.214440576171874
4896755252192,4.141460883,1,0.19153613281249998,1.7238251953125,-11.222820281982422
4896761918599,4.14812729,1,0.1580173095703125,1.7238251953125,-11.265915911865234
4896768585474,4.154794165,1,0.23702596435546874,1.734599102783203,-11.265915911865234
4896775253234,4.161461925,1,0.24061726684570311,1.7429788085937499,-11.21084927368164
4896781918755,4.168127446,1,0.23104046020507812,1.7274164978027342,-11.119869610595703
4896788586463,4.174795154,1,0.24660277099609373,1.7274164978027342,-11.149797131347656
4896795251776,4.181460467,1,0.2765302917480469,1.715445489501953,-11.162965240478515
4896801919536,4.188128227,1,0.20350714111328125,1.7322049011230467,-11.155782635498046
4896808585422,4.194794113,1,0.229843359375,1.7381904052734374,-11.201272467041015
4896815252505,4.201461196,1,0.23822306518554687,1.7429788085937499,-11.197681164550781
4896821918911,4.208127602,1,0.1927332336425781,1.7226280944824217,-11.161768139648437
4896828588130,4.214796821,1,0.22744915771484372,1.7178396911621092,-11.12226381225586
4896835262713,4.221471404,1,0.22266075439453123,1.7693150268554687,-11.238382592773437
4896841926932,4.228135623,1,0.2166752502441406,1.714248388671875,-11.23718549194336
4896848594380,4.234803071,1,0.20231004028320312,1.6771382629394531,-11.146205828857422
4896855260630,4.241469321,1,0.23223756103515625,1.6903063720703124,-11.130643518066405
4896861927922,4.248136613,1,0.22744915771484372,1.7357962036132812,-11.212046374511718
4896868593755,4.254802446,1,0.22266075439453123,1.7334020019531249,-11.17852755126953
4896875261047,4.261469738,1,0.22385785522460935,1.7525556152343749,-11.201272467041015
4896881928234,4.268136925,1,0.22505495605468748,1.7226280944824217,-11.179724652099608
4896888594432,4.274803123,1,0.25139117431640623,1.734599102783203,-11.129446417236327
4896895259953,4.281468644,1,0.25139117431640623,1.7310078002929687,-11.17852755126953
4896901927297,4.288135988,1,0.28969840087890625,1.6891092712402342,-11.123460913085937
4896908595317,4.294804008,1,0.24061726684570311,1.6891092712402342,-11.164162341308593
4896915256047,4.301464738,1,0.2597708801269531,1.70467158203125,-11.164162341308593
4896921927244,4.308135935,1,0.20709844360351562,1.7190367919921874,-11.162965240478515
4896928587140,4.314795831,1,0.22864625854492185,1.7357962036132812,-11.21683477783203
4896935252974,4.321461665,1,0.2442085693359375,1.7525556152343749,-11.167753643798827
4896941919484,4.328128175,1,0.23343466186523437,1.7465701110839842,-11.177330450439452
4896948586776,4.334795467,1,0.2346317626953125,1.734599102783203,-11.171344946289063
4896955252922,4.341461613,1,0.2059013427734375,1.7561469177246092,-11.087547888183593
4896961919380,4.348128071,1,0.24301146850585936,1.7657237243652342,-11.139023223876952
4896968585213,4.354793904,1,0.1640028137207031,1.7585411193847655,-11.168950744628905
4896975252088,4.361460779,1,0.229843359375,1.7130512878417967,-11.202469567871093
4896981918442,4.368127133,1,0.2561795776367187,1.7393875061035156,-11.21084927368164
4896988580630,4.374789321,1,0.26336218261718747,1.678335363769531,-11.109095703125
4896995252974,4.381461665,1,0.22266075439453123,1.7453730102539062,-11.161768139648437
4897001918703,4.388127394,1,0.2154781494140625,1.7561469177246092,-11.174936248779296
4897008585682,4.394794373,1,0.21188684692382811,1.7106570861816406,-11.170147845458983
4897015252192,4.401460883,1,0.20470424194335937,1.695094775390625,-11.141417425537108
4897021919588,4.408128279,1,0.22864625854492185,1.7130512878417967,-11.203666668701171
4897028601203,4.414809894,1,0.18914193115234373,1.7788918334960937,-11.161768139648437
4897035262609,4.4214713,1,0.18076222534179687,1.753752716064453,-11.15338843383789
4897041927297,4.428135988,1,0.18076222534179687,1.7298106994628906,-11.201272467041015
4897048592974,4.434801665,1,0.19033903198242186,1.7298106994628906,-11.206060870361327
4897055255994,4.441464685,1,0.2166752502441406,1.707065783691406,-11.190498559570312
4897061927349,4.44813604,1,0.2262520568847656,1.7812860351562498,-11.190498559570312
4897068593494,4.454802185,1,0.20350714111328125,1.7226280944824217,-11.232397088623046
4897075260422,4.461469113,1,0.18914193115234373,1.7609353210449217,-11.142614526367186
4897081926932,4.468135623,1,0.2537853759765625,1.7190367919921874,-11.166556542968749
4897088590682,4.474799373,1,0.2442085693359375,1.7334020019531249,-11.209652172851563
4897095260213,4.481468904,1,0.22385785522460935,1.7082628845214842,-11.177330450439452
4897101926567,4.488135258,1,0.28012159423828126,1.7310078002929687,-11.219228979492186
4897108594015,4.494802706,1,0.16759411621093748,1.7812860351562498,-11.186907257080078
4897115261099,4.50146979,1,0.2166752502441406,1.7357962036132812,-11.206060870361327
4897121927453,4.508136144,1,0.23104046020507812,1.7310078002929687,-11.21084927368164
4897128684276,4.514892967,1,0.2825157958984375,1.7597382202148437,-11.159373937988281
4897135253963,4.521462654,1,0.20709844360351562,1.7393875061035156,-11.179724652099608
4897141919692,4.528128383,1,0.24660277099609373,1.7010802795410156,-11.18571015625
4897148583755,4.534792446,1,0.23822306518554687,1.7322049011230467,-11.152191333007812
4897155252036,4.541460727,1,0.229843359375,1.7381904052734374,-11.228805786132812
4897161914536,4.548123227,1,0.21906945190429686,1.7609353210449217,-11.166556542968749
4897168585630,4.554794321,1,0.20829554443359374,1.6723498596191406,-11.135431921386719
4897175251515,4.561460206,1,0.19991583862304688,1.7465701110839842,-11.1474029296875
4897181917661,4.568126352,1,0.19991583862304688,1.7298106994628906,-11.161768139648437
4897188585317,4.574794008,1,0.22266075439453123,1.7298106994628906,-11.188104357910156
4897195251671,4.581460362,1,0.24779987182617186,1.7334020019531249,-11.264718811035156
4897201917505,4.588126196,1,0.21308394775390624,1.7705121276855467,-11.111489904785156
4897208585474,4.594794165,1,0.2657563842773437,1.7274164978027342,-11.225214483642578
4897215252036,4.601460727,1,0.19393033447265623,1.7310078002929687,-11.253944903564452
4897222062869,4.60827156,1,0.24660277099609373,1.70467158203125,-11.222820281982422
4897228588390,4.614797081,1,0.24301146850585936,1.7393875061035156,-11.202469567871093
4897235254380,4.621463071,1,0.239420166015625,1.6903063720703124,-11.154585534667968
4897241919171,4.628127862,1,0.21906945190429686,1.7310078002929687,-11.213243475341796
4897248585734,4.634794425,1,0.24301146850585936,1.7609353210449217,-11.244368096923827
4897255252505,4.641461196,1,0.1867477294921875,1.7513585144042967,-11.228805786132812
4897261919067,4.648127758,1,0.21188684692382811,1.7860744384765623,-11.202469567871093
4897268585682,4.654794373,1,0.23822306518554687,1.7357962036132812,-11.194089862060546
4897275252817,4.661461508,1,0.24301146850585936,1.7501614135742187,-11.194089862060546
4897281919171,4.668127862,1,0.2549824768066406,1.744175909423828,-11.156979736328124
4897288585942,4.674794633,1,0.26216508178710934,1.6986860778808592,-11.221623181152344
4897295253494,4.681462185,1,0.239420166015625,1.7489643127441405,-11.21084927368164
4897301919849,4.68812854,1,0.21428104858398436,1.70467158203125,-11.171344946289063
4897308585682,4.694794373,1,0.24061726684570311,1.7298106994628906,-11.197681164550781
4897315255630,4.701464321,1,0.22505495605468748,1.7465701110839842,-11.180921752929686
4897321920005,4.708128696,1,0.24660277099609373,1.772906329345703,-11.201272467041015
4897328586776,4.714795467,1,0.24660277099609373,1.7753005310058592,-11.21084927368164
4897335253338,4.721462029,1,0.23582886352539062,1.7753005310058592,-11.204863769531249
4897341915109,4.7281238,1,0.19991583862304688,1.753752716064453,-11.204863769531249
4897348586619,4.73479531,1,0.23702596435546874,1.7202338928222656,-11.113884106445312
4897355252140,4.741460831,1,0.1580173095703125,1.7022773803710936,-11.189301458740234
4897361920578,4.748129269,1,0.20231004028320312,1.7118541870117185,-11.197681164550781
4897368585890,4.754794581,1,0.22505495605468748,1.714248388671875,-11.240776794433593
4897375253546,4.761462237,1,0.19033903198242186,1.714248388671875,-11.186907257080078
4897381919223,4.768127914,1,0.23702596435546874,1.7561469177246092,-11.17852755126953
4897388587557,4.774796248,1,0.2346317626953125,1.7489643127441405,-11.13423482055664
4897395253234,4.781461925,1,0.2442085693359375,1.763329522705078,-11.26831011352539
4897401919484,4.788128175,1,0.22505495605468748,1.763329522705078,-11.16057103881836
4897408580369,4.79478906,1,0.2166752502441406,1.7393875061035156,-11.155782635498046
4897415253078,4.801461769,1,0.21308394775390624,1.7513585144042967,-11.203666668701171
4897421919328,4.808128019,1,0.1867477294921875,1.7022773803710936,-11.155782635498046
4897428586411,4.814795102,1,0.23582886352539062,1.6531962463378904,-11.166556542968749
4897435260161,4.821468852,1,0.22505495605468748,1.7298106994628906,-11.165359442138671
4897441928807,4.828137498,1,0.23343466186523437,1.7657237243652342,-11.143811627197264
4897448595265,4.834803956,1,0.22744915771484372,1.697488977050781,-11.1474029296875
4897455262036,4.841470727,1,0.21787235107421873,1.7226280944824217,-11.176133349609374
4897461928130,4.848136821,1,0.2214636535644531,1.7597382202148437,-11.176133349609374
4897468595942,4.854804633,1,0.2214636535644531,1.7717092285156248,-11.225214483642578
4897475260994,4.861469685,1,0.2454056701660156,1.7298106994628906,-11.176133349609374
4897481927921,4.868136612,1,0.25258827514648435,1.7298106994628906,-11.180921752929686
4897488594328,4.874803019,1,0.21906945190429686,1.734599102783203,-11.180921752929686
4897495260317,4.881469008,1,0.2346317626953125,1.7513585144042967,-11.145008728027342
4897501927765,4.888136456,1,0.22385785522460935,1.7298106994628906,-11.128249316406249
4897508594588,4.894803279,1,0.2561795776367187,1.7465701110839842,-11.235988391113281
4897515260890,4.901469581,1,0.22026655273437498,1.6998831787109374,-11.190498559570312
4897521928546,4.908137237,1,0.22266075439453123,1.7274164978027342,-11.17852755126953
4897528594119,4.91480281,1,0.20350714111328125,1.744175909423828,-11.162965240478515
4897535249953,4.921458644,1,0.26336218261718747,1.7178396911621092,-11.220426080322264
4897541920369,4.92812906,1,0.24660277099609373,1.7417817077636717,-11.161768139648437
4897548586828,4.934795519,1,0.23822306518554687,1.7214309936523438,-11.215637677001952
4897555251776,4.941460467,1,0.26216508178710934,1.7178396911621092,-11.195286962890624
4897561919640,4.948128331,1,0.20470424194335937,1.7310078002929687,-11.240776794433593
4897568585578,4.954794269,1,0.2059013427734375,1.7573440185546874,-11.133037719726563
4897575253286,4.961461977,1,0.21308394775390624,1.7190367919921874,-11.161768139648437
4897581919275,4.968127966,1,0.2262520568847656,1.7262193969726563,-11.202469567871093
4897588586150,4.974794841,1,0.2501940734863281,1.7405846069335937,-11.127052215576171
4897595252505,4.981461196,1,0.2454056701660156,1.715445489501953,-11.182118853759764
4897601920161,4.988128852,1,0.21428104858398436,1.7645266235351562,-11.11508120727539
4897608585890,4.994794581,1,0.21428104858398436,1.7226280944824217,-11.226411584472656
4897615252817,5.001461508,1,0.2537853759765625,1.7298106994628906,-11.167753643798827
4897621919223,5.008127914,1,0.25139117431640623,1.7298106994628906,-11.074379779052734
4897628579640,5.014788331,1,0.21787235107421873,1.7022773803710936,-11.227608685302734
4897635267921,5.021476612,1,0.2501940734863281,1.7190367919921874,-11.162965240478515
4897641929744,5.028138435,1,0.21188684692382811,1.7621324218749999,-11.231199987792968
4897648594744,5.034803435,1,0.19632453613281248,1.6915034729003906,-11.180921752929686
4897655260734,5.041469425,1,0.24181436767578124,1.715445489501953,-11.177330450439452
4897661924900,5.048133591,1,0.22385785522460935,1.744175909423828,-11.171344946289063
4897668594900,5.054803591,1,0.22744915771484372,1.7381904052734374,-11.202469567871093
4897675261046,5.061469737,1,0.24899697265624998,1.6927005737304686,-11.085153686523437
4897681927713,5.068136404,1,0.26216508178710934,1.707065783691406,-11.148600030517578
4897688595057,5.074803748,1,0.20350714111328125,1.7202338928222656,-11.247959399414063
4897695262140,5.081470831,1,0.2442085693359375,1.7513585144042967,-11.176133349609374
4897701927192,5.088135883,1,0.18315642700195311,1.715445489501953,-11.202469567871093
4897708594119,5.09480281,1,0.2166752502441406,1.7645266235351562,-11.19887826538086
4897715259744,5.101468435,1,0.2154781494140625,1.7741034301757812,-11.180921752929686
4897721927348,5.108136039,1,0.22385785522460935,1.7238251953125,-11.19887826538086
4897728594900,5.114803591,1,0.23582886352539062,1.7238251953125,-11.19887826538086
4897735344223,5.121552914,1,0.24181436767578124,1.7286135986328124,-11.17852755126953
4897741919796,5.128128487,1,0.22505495605468748,1.7717092285156248,-11.233594189453123
4897748586359,5.13479505,1,0.24301146850585936,1.7322049011230467,-11.195286962890624
4897755252505,5.141461196,1,0.24301146850585936,1.70467158203125,-11.183315954589844
4897761919953,5.148128644,1,0.22385785522460935,1.70467158203125,-11.116278308105468
4897768586515,5.154795206,1,0.17238251953125,1.695094775390625,-11.18571015625
4897775252505,5.161461196,1,0.2166752502441406,1.7561469177246092,-11.18571015625
4897781919223,5.168127914,1,0.24301146850585936,1.7405846069335937,-11.179724652099608
4897788586515,5.174795206,1,0.239420166015625,1.7118541870117185,-11.212046374511718
4897795252348,5.181461039,1,0.24061726684570311,1.7717092285156248,-11.21084927368164
4897801919223,5.188127914,1,0.23702596435546874,1.6831237670898436,-11.137826123046874
4897808586723,5.194795414,1,0.1975216369628906,1.7741034301757812,-11.192892761230468
4897815252609,5.2014613,1,0.20350714111328125,1.7609353210449217,-11.100715997314452
4897821919796,5.208128487,1,0.22744915771484372,1.7501614135742187,-11.155782635498046
4897828585838,5.214794529,1,0.21787235107421873,1.7166425903320313,-11.179724652099608
4897835252713,5.221461404,1,0.20470424194335937,1.7465701110839842,-11.194089862060546
4897841920682,5.228129373,1,0.23582886352539062,1.744175909423828,-11.220426080322264
4897848585890,5.234794581,1,0.21308394775390624,1.7118541870117185,-11.117475408935546
4897855249484,5.241458175,1,0.24301146850585936,1.7549498168945312,-11.180921752929686
4897861919171,5.248127862,1,0.229843359375,1.7501614135742187,-11.165359442138671
4897868586880,5.254795571,1,0.22266075439453123,1.7381904052734374,-11.170147845458983
4897875252661,5.261461352,1,0.25139117431640623,1.7501614135742187,-11.173739147949219
4897881919744,5.268128435,1,0.22026655273437498,1.7334020019531249,-11.23718549194336
4897888585421,5.274794112,1,0.2645592834472656,1.7322049011230467,-11.200075366210937
4897895252400,5.281461091,1,0.2645592834472656,1.7561469177246092,-11.201272467041015
4897901919275,5.288127966,1,0.27174188842773433,1.753752716064453,-11.183315954589844
4897908584327,5.294793018,1,0.20829554443359374,1.753752716064453,-11.094730493164063
4897915251671,5.301460362,1,0.16998831787109375,1.734599102783203,-11.094730493164063
4897921919588,5.308128279,1,0.23582886352539062,1.7082628845214842,-11.208455072021483
4897928585421,5.314794112,1,0.19033903198242186,1.7453730102539062,-11.137826123046874
4897935262921,5.321471612,1,0.2693476867675781,1.715445489501953,-11.21683477783203
4897941921359,5.32813005,1,0.19512743530273435,1.7298106994628906,-11.247959399414063
4897948586515,5.334795206,1,0.18076222534179687,1.6819266662597656,-11.25514200439453
4897955251880,5.341460571,1,0.22026655273437498,1.7178396911621092,-11.18571015625
4897961919380,5.348128071,1,0.2825157958984375,1.7106570861816406,-11.197681164550781
4897968586984,5.354795675,1,0.1879448303222656,1.753752716064453,-11.186907257080078
4897975252869,5.36146156,1,0.25139117431640623,1.7417817077636717,-11.156979736328124
4897981919171,5.368127862,1,0.22385785522460935,1.715445489501953,-11.179724652099608
4897988585473,5.374794164,1,0.2262520568847656,1.695094775390625,-11.207257971191405
4897995252869,5.38146156,1,0.21787235107421873,1.7609353210449217,-11.159373937988281
4898001920005,5.388128696,1,0.2442085693359375,1.668758557128906,-11.171344946289063
4898008583807,5.394792498,1,0.22744915771484372,1.7226280944824217,-11.168950744628905
4898015248129,5.40145682,1,0.2561795776367187,1.7214309936523438,-11.168950744628905
4898021915682,5.408124373,1,0.2693476867675781,1.7393875061035156,-11.17254204711914
4898028586098,5.414794789,1,0.239420166015625,1.7226280944824217,-11.243170996093749
4898035251567,5.421460258,1,0.2214636535644531,1.7453730102539062,-11.207257971191405
4898041926515,5.428135206,1,0.2214636535644531,1.7501614135742187,-11.233594189453123
4898048594952,5.434803643,1,0.201112939453125,1.7010802795410156,-11.194089862060546
4898055259692,5.441468383,1,0.2454056701660156,1.7010802795410156,-11.28746372680664
4898061921775,5.448130466,1,0.229843359375,1.6843208679199217,-11.13423482055664
4898068594952,5.454803643,1,0.2537853759765625,1.734599102783203,-11.218031878662108
4898075260265,5.461468956,1,0.23104046020507812,1.7369933044433592,-11.164162341308593
4898081927296,5.468135987,1,0.18076222534179687,1.7764976318359373,-11.209652172851563
4898088593234,5.474801925,1,0.18076222534179687,1.7010802795410156,-11.207257971191405
4898095261411,5.481470102,1,0.22026655273437498,1.714248388671875,-11.171344946289063
4898101927973,5.488136664,1,0.239420166015625,1.697488977050781,-11.146205828857422
4898108587192,5.494795883,1,0.2166752502441406,1.7561469177246092,-11.202469567871093
4898115260317,5.501469008,1,0.16639701538085935,1.7645266235351562,-11.190498559570312
4898121923234,5.508131925,1,0.22026655273437498,1.7357962036132812,-11.194089862060546
4898128592921,5.514801612,1,0.2825157958984375,1.6819266662597656,-11.17254204711914
4898135260682,5.521469373,1,0.19393033447265623,1.7549498168945312,-11.19169566040039
4898141917504,5.528126195,1,0.2705447875976562,1.734599102783203,-11.068394274902342
4898148588182,5.534796873,1,0.16280571289062498,1.7214309936523438,-11.18571015625
4898155247192,5.541455883,1,0.24301146850585936,1.7381904052734374,-11.225214483642578
4898161919119,5.54812781,1,0.2561795776367187,1.6986860778808592,-11.270704315185545
4898168586150,5.554794841,1,0.19512743530273435,1.7381904052734374,-11.196484063720703
4898175252609,5.5614613,1,0.18555062866210936,1.7214309936523438,-11.17852755126953
4898181920004,5.568128695,1,0.18555062866210936,1.705868682861328,-11.225214483642578
4898188585369,5.57479406,1,0.2059013427734375,1.7501614135742187,-11.233594189453123
4898195253286,5.581461977,1,0.19512743530273435,1.7501614135742187,-11.323376751708985
4898201920421,5.588129112,1,0.21787235107421873,1.725022296142578,-11.170147845458983
4898208585682,5.594794373,1,0.24181436767578124,1.7405846069335937,-11.171344946289063
4898215253129,5.60146182,1,0.19871873779296872,1.7322049011230467,-11.226411584472656
4898221919119,5.60812781,1,0.21906945190429686,1.7417817077636717,-11.21084927368164
4898228586306,5.614794997,1,0.2549824768066406,1.725022296142578,-11.180921752929686
4898235252713,5.621461404,1,0.21188684692382811,1.7106570861816406,-11.247959399414063
4898241920161,5.628128852,1,0.2645592834472656,1.7501614135742187,-11.212046374511718
4898248586723,5.634795414,1,0.2537853759765625,1.7669208251953124,-11.148600030517578
4898255252244,5.641460935,1,0.22026655273437498,1.7226280944824217,-11.149797131347656
4898261919484,5.648128175,1,0.19033903198242186,1.7334020019531249,-11.162965240478515
4898268586150,5.654794841,1,0.22864625854492185,1.7465701110839842,-11.17254204711914
4898275253025,5.661461716,1,0.24899697265624998,1.7453730102539062,-11.128249316406249
4898281919692,5.668128383,1,0.21308394775390624,1.744175909423828,-11.177330450439452
4898288586150,5.674794841,1,0.2693476867675781,1.7513585144042967,-11.207257971191405
4898295252765,5.681461456,1,0.25737667846679685,1.725022296142578,-11.240776794433593
4898301918911,5.688127602,1,0.26815058593749996,1.705868682861328,-11.149797131347656
4898308586254,5.694794945,1,0.20470424194335937,1.725022296142578,-11.225214483642578
4898315252244,5.701460935,1,0.20829554443359374,1.7549498168945312,-11.252747802734374
4898321919952,5.708128643,1,0.2154781494140625,1.7166425903320313,-11.2240173828125
4898328586098,5.714794789,1,0.2154781494140625,1.7298106994628906,-11.173739147949219
4898335249692,5.721458383,1,0.22864625854492185,1.7298106994628906,-11.155782635498046
4898341927661,5.728136352,1,0.24181436767578124,1.7357962036132812,-11.06360587158203
4898348595734,5.734804425,1,0.24301146850585936,1.7214309936523438,-11.21683477783203
4898355260525,5.741469216,1,0.18435352783203124,1.7298106994628906,-11.116278308105468
4898361927713,5.748136404,1,0.24301146850585936,1.6986860778808592,-11.168950744628905
4898368592244,5.754800935,1,0.23343466186523437,1.7848773376464844,-11.206060870361327
4898375261775,5.761470466,1,0.22266075439453123,1.6998831787109374,-11.158176837158203
4898381927713,5.768136404,1,0.19512743530273435,1.7429788085937499,-11.213243475341796
4898388594327,5.774803018,1,0.2154781494140625,1.7214309936523438,-11.192892761230468
4898395260681,5.781469372,1,0.2214636535644531,1.7310078002929687,-11.182118853759764
4898401922400,5.788131091,1,0.24061726684570311,1.7501614135742187,-11.186907257080078
4898408592869,5.79480156,1,0.201112939453125,1.7166425903320313,-11.165359442138671
4898415260838,5.801469529,1,0.2501940734863281,1.7262193969726563,-11.149797131347656
4898421926879,5.80813557,1,0.21068974609375,1.725022296142578,-11.25514200439453
4898428594536,5.814803227,1,0.2442085693359375,1.7214309936523438,-11.162965240478515
4898435260369,5.82146906,1,0.2346317626953125,1.7597382202148437,-11.192892761230468
4898441920942,5.828129633,1,0.181959326171875,1.7274164978027342,-11.203666668701171
4898448586411,5.834795102,1,0.21308394775390624,1.7166425903320313,-11.262324609375
4898455252661,5.841461352,1,0.18315642700195311,1.6938976745605467,-11.197681164550781
4898461919015,5.848127706,1,0.20949264526367187,1.7106570861816406,-11.154585534667968
4898468588442,5.854797133,1,0.20949264526367187,1.7310078002929687,-11.196484063720703
4898475251931,5.861460622,1,0.21428104858398436,1.744175909423828,-11.125855114746093
4898481918754,5.868127445,1,0.26815058593749996,1.744175909423828,-11.167753643798827
4898488585942,5.874794633,1,0.1975216369628906,1.7214309936523438,-11.167753643798827
4898495252817,5.881461508,1,0.19632453613281248,1.7274164978027342,-11.215637677001952
4898501919483,5.888128174,1,0.2346317626953125,1.7369933044433592,-11.170147845458983
4898508585942,5.894794633,1,0.22385785522460935,1.7286135986328124,-11.136629022216797
4898515252765,5.901461456,1,0.201112939453125,1.7130512878417967,-11.206060870361327
4898521918806,5.908127497,1,0.2442085693359375,1.707065783691406,-11.232397088623046
4898528585629,5.91479432,1,0.21428104858398436,1.7405846069335937,-11.188104357910156
4898535253858,5.921462549,1,0.2501940734863281,1.7022773803710936,-11.213243475341796
4898541934067,5.928142758,1,0.18555062866210936,1.7573440185546874,-11.166556542968749
4898548597504,5.934806195,1,0.2861070983886719,1.7369933044433592,-11.141417425537108
4898555260421,5.941469112,1,0.22266075439453123,1.7405846069335937,-11.190498559570312
4898561940681,5.948149372,1,0.19991583862304688,1.744175909423828,-11.208455072021483
4898568598025,5.954806716,1,0.2214636535644531,1.7202338928222656,-11.225214483642578
4898575261567,5.961470258,1,0.2442085693359375,1.725022296142578,-11.263521710205078
4898581928390,5.968137081,1,0.2741360900878906,1.70467158203125,-11.087547888183593
4898588593858,5.974802549,1,0.22385785522460935,1.7753005310058592,-11.177330450439452
4898595260994,5.981469685,1,0.19153613281249998,1.6891092712402342,-11.170147845458983
4898601927504,5.988136195,1,0.2346317626953125,1.7513585144042967,-11.186907257080078
4898608593546,5.994802237,1,0.22266075439453123,1.772906329345703,-11.243170996093749
4898615261306,6.001469997,1,0.22266075439453123,1.725022296142578,-11.239579693603515
4898621922608,6.008131299,1,0.1975216369628906,1.7525556152343749,-11.186907257080078
4898628595213,6.014803904,1,0.25139117431640623,1.7525556152343749,-11.32577095336914
4898635260994,6.021469685,1,0.2693476867675781,1.7286135986328124,-11.17254204711914
4898642022192,6.028230883,1,0.22266075439453123,1.715445489501953,-11.189301458740234
4898648580525,6.034789216,1,0.1867477294921875,1.7322049011230467,-11.171344946289063
4898655249327,6.041458018,1,0.2549824768066406,1.695094775390625,-11.19887826538086
4898661919275,6.048127966,1,0.21787235107421873,1.7286135986328124,-11.17852755126953
4898668601150,6.054809841,1,0.23582886352539062,1.7465701110839842,-11.19169566040039
4898675279483,6.061488174,1,0.2442085693359375,1.7298106994628906,-11.194089862060546
4898681973129,6.06818182,1,0.24301146850585936,1.7621324218749999,-11.17852755126953
4898688588338,6.074797029,1,0.2154781494140625,1.6998831787109374,-11.197681164550781
4898695250577,6.081459268,1,0.201112939453125,1.7776947326660155,-11.1474029296875
4898701916306,6.088124997,1,0.16879121704101563,1.7381904052734374,-11.25514200439453
4898708581150,6.094789841,1,0.2346317626953125,1.734599102783203,-11.154585534667968
4898715253233,6.101461924,1,0.23223756103515625,1.725022296142578,-11.201272467041015
4898721919588,6.108128279,1,0.23822306518554687,1.7741034301757812,-11.109095703125
4898728585733,6.114794424,1,0.21787235107421873,1.7549498168945312,-11.183315954589844
4898735253650,6.121462341,1,0.23822306518554687,1.744175909423828,-11.183315954589844
4898741919119,6.12812781,1,0.22385785522460935,1.687912170410156,-11.214440576171874
4898748587452,6.134796143,1,0.22026655273437498,1.7800889343261719,-11.201272467041015
4898755252452,6.141461143,1,0.22026655273437498,1.687912170410156,-11.176133349609374
4898761920108,6.148128799,1,0.258573779296875,1.7585411193847655,-11.15338843383789
4898768585108,6.154793799,1,0.2454056701660156,1.7585411193847655,-11.162965240478515
4898775252608,6.161461299,1,0.2501940734863281,1.7262193969726563,-11.162965240478515
4898781914796,6.168123487,1,0.23343466186523437,1.7202338928222656,-11.161768139648437
4898788586254,6.174794945,1,0.22505495605468748,1.7214309936523438,-11.117475408935546
4898795252556,6.181461247,1,0.23582886352539062,1.6998831787109374,-11.150994232177734
4898801921202,6.188129893,1,0.21787235107421873,1.707065783691406,-11.212046374511718
4898808585733,6.194794424,1,0.22864625854492185,1.7226280944824217,-11.194089862060546
4898815252244,6.201460935,1,0.21308394775390624,1.7262193969726563,-11.204863769531249
4898821919900,6.208128591,1,0.16998831787109375,1.707065783691406,-11.256339105224608
4898828586723,6.214795414,1,0.22385785522460935,1.7334020019531249,-11.228805786132812
4898835252817,6.221461508,1,0.23343466186523437,1.715445489501953,-11.214440576171874
4898841919327,6.228128018,1,0.19512743530273435,1.696291876220703,-11.196484063720703
4898848593181,6.234801872,1,0.21188684692382811,1.7465701110839842,-11.159373937988281
4898855262348,6.241471039,1,0.21428104858398436,1.7082628845214842,-11.161768139648437
4898861927192,6.248135883,1,0.1927332336425781,1.7274164978027342,-11.158176837158203
4898868595213,6.254803904,1,0.25139117431640623,1.7286135986328124,-11.190498559570312
4898875260838,6.261469529,1,0.19512743530273435,1.7549498168945312,-11.201272467041015
4898881929379,6.26813807,1,0.22864625854492185,1.7669208251953124,-11.155782635498046
4898888594744,6.274803435,1,0.2059013427734375,1.772906329345703,-11.201272467041015
4898895260160,6.281468851,1,0.2454056701660156,1.744175909423828,-11.179724652099608
4898901927712,6.288136403,1,0.2454056701660156,1.697488977050781,-11.24915650024414
4898908593962,6.294802653,1,0.1975216369628906,1.7262193969726563,-11.21084927368164
4898915259275,6.301467966,1,0.17118541870117188,1.7262193969726563,-11.294646331787108
4898921926827,6.308135518,1,0.23104046020507812,1.7776947326660155,-11.141417425537108
4898928594171,6.314802862,1,0.2346317626953125,1.7202338928222656,-11.146205828857422
4898935260525,6.321469216,1,0.21787235107421873,1.7310078002929687,-11.192892761230468
4898941926931,6.328135622,1,0.24301146850585936,1.7310078002929687,-11.173739147949219
4898948586202,6.334794893,1,0.2166752502441406,1.7010802795410156,-11.17254204711914
4898955253390,6.341462081,1,0.2645592834472656,1.763329522705078,-11.24915650024414
4898961919015,6.348127706,1,0.2537853759765625,1.7082628845214842,-11.159373937988281
4898968585681,6.354794372,1,0.23343466186523437,1.7262193969726563,-11.150994232177734
4898975252660,6.361461351,1,0.201112939453125,1.714248388671875,-11.219228979492186
4898981918910,6.368127601,1,0.19393033447265623,1.714248388671875,-11.128249316406249
4898988585525,6.374794216,1,0.2166752502441406,1.7202338928222656,-11.203666668701171
4898995252348,6.381461039,1,0.2454056701660156,1.7082628845214842,-11.222820281982422
4899001919900,6.388128591,1,0.21188684692382811,1.7334020019531249,-11.203666668701171
4899008584431,6.394793122,1,0.21188684692382811,1.7417817077636717,-11.113884106445312
4899015251567,6.401460258,1,0.2059013427734375,1.7202338928222656,-11.259930407714844
4899021918129,6.40812682,1,0.23223756103515625,1.7274164978027342,-11.182118853759764
4899028585369,6.41479406,1,0.2154781494140625,1.7286135986328124,-11.235988391113281
4899035252504,6.421461195,1,0.21308394775390624,1.6831237670898436,-11.125855114746093
4899041918233,6.428126924,1,0.21308394775390624,1.744175909423828,-11.21683477783203
4899048600837,6.434809528,1,0.23822306518554687,1.7286135986328124,-11.154585534667968
4899055263129,6.44147182,1,0.20470424194335937,1.7286135986328124,-11.244368096923827
4899061927817,6.448136508,1,0.2609679809570312,1.7262193969726563,-11.189301458740234
4899068594952,6.454803643,1,0.24779987182617186,1.6927005737304686,-11.189301458740234
4899075255837,6.461464528,1,0.22505495605468748,1.7417817077636717,-11.212046374511718
4899081927192,6.468135883,1,0.24061726684570311,1.7357962036132812,-11.25514200439453
4899088593129,6.47480182,1,0.21308394775390624,1.7190367919921874,-11.200075366210937
4899095260577,6.481469268,1,0.27293898925781246,1.7106570861816406,-11.184513055419922
4899101928181,6.488136872,1,0.2932897033691406,1.7262193969726563,-11.241973895263671
4899108594535,6.494803226,1,0.1867477294921875,1.6998831787109374,-11.202469567871093
4899115260004,6.501468695,1,0.2346317626953125,1.7657237243652342,-11.214440576171874
4899121926567,6.508135258,1,0.18914193115234373,1.7477672119140624,-11.168950744628905
4899128593494,6.514802185,1,0.21428104858398436,1.7310078002929687,-11.111489904785156
4899135255525,6.521464216,1,0.23104046020507812,1.7286135986328124,-11.176133349609374
4899141928025,6.528136716,1,0.239420166015625,1.7525556152343749,-11.265915911865234
4899148682192,6.534890883,1,0.24660277099609373,1.695094775390625,-11.238382592773437
4899155252973,6.541461664,1,0.1867477294921875,1.7106570861816406,-11.212046374511718
4899161918962,6.548127653,1,0.24301146850585936,1.7405846069335937,-11.162965240478515
4899168584744,6.554793435,1,0.24061726684570311,1.7417817077636717,-11.207257971191405
4899175252608,6.561461299,1,0.22266075439453123,1.715445489501953,-11.196484063720703
4899181918442,6.568127133,1,0.25737667846679685,1.7298106994628906,-11.221623181152344
4899188585577,6.574794268,1,0.25737667846679685,1.7669208251953124,-11.167753643798827
4899195252504,6.581461195,1,0.20709844360351562,1.7669208251953124,-11.200075366210937
4899201919900,6.588128591,1,0.24301146850585936,1.7405846069335937,-11.252747802734374
4899208585264,6.594793955,1,0.26815058593749996,1.7489643127441405,-11.252747802734374
4899215252504,6.601461195,1,0.19393033447265623,1.725022296142578,-11.135431921386719
4899221918650,6.608127341,1,0.27174188842773433,1.7369933044433592,-11.225214483642578
4899228584692,6.614793383,1,0.18076222534179687,1.7286135986328124,-11.23718549194336
4899235251723,6.621460414,1,0.23223756103515625,1.707065783691406,-11.171344946289063
4899241919067,6.628127758,1,0.26216508178710934,1.7549498168945312,-11.170147845458983
4899248655785,6.634864476,1,0.21787235107421873,1.7357962036132812,-11.155782635498046
4899255260785,6.641469476,1,0.18914193115234373,1.7669208251953124,-11.19169566040039
4899261926150,6.648134841,1,0.2154781494140625,1.6436194396972654,-11.164162341308593
4899268594223,6.654802914,1,0.22864625854492185,1.7669208251953124,-11.218031878662108
4899275260577,6.661469268,1,0.20231004028320312,1.7393875061035156,-11.21683477783203
4899281928077,6.668136768,1,0.23582886352539062,1.7034744812011717,-11.21084927368164
4899288593442,6.674802133,1,0.23702596435546874,1.714248388671875,-11.228805786132812
4899295260629,6.68146932,1,0.20470424194335937,1.7573440185546874,-11.194089862060546
4899301937348,6.688146039,1,0.21787235107421873,1.7334020019531249,-11.166556542968749
4899308595942,6.694804633,1,0.26216508178710934,1.7369933044433592,-11.171344946289063
4899315260108,6.701468799,1,0.27293898925781246,1.7681179260253905,-11.206060870361327
4899321926150,6.708134841,1,0.2214636535644531,1.7262193969726563,-11.262324609375
4899328593702,6.714802393,1,0.22864625854492185,1.7226280944824217,-11.180921752929686
4899335261619,6.72147031,1,0.22864625854492185,1.7130512878417967,-11.288660827636718
4899341927556,6.728136247,1,0.23343466186523437,1.7130512878417967,-11.195286962890624
4899348614691,6.734823382,1,0.2262520568847656,1.7214309936523438,-11.202469567871093
4899355252816,6.741461507,1,0.1867477294921875,1.7310078002929687,-11.202469567871093
4899361920994,6.748129685,1,0.21308394775390624,1.7477672119140624,-11.168950744628905
4899368585889,6.75479458,1,0.24061726684570311,1.7741034301757812,-11.243170996093749
4899375251566,6.761460257,1,0.1975216369628906,1.7585411193847655,-11.231199987792968
4899381919066,6.768127757,1,0.23582886352539062,1.7106570861816406,-11.19169566040039
4899388580785,6.774789476,1,0.201112939453125,1.7369933044433592,-11.201272467041015
4899395248389,6.78145708,1,0.16998831787109375,1.7501614135742187,-11.141417425537108
4899401918702,6.788127393,1,0.19393033447265623,1.7429788085937499,-11.226411584472656
4899408584796,6.794793487,1,0.239420166015625,1.7214309936523438,-11.197681164550781
4899415252296,6.801460987,1,0.22864625854492185,1.7429788085937499,-11.21084927368164
4899421918129,6.80812682,1,0.25737667846679685,1.7465701110839842,-11.16057103881836
4899428585733,6.814794424,1,0.20470424194335937,1.7226280944824217,-11.257536206054686
4899435251775,6.821460466,1,0.2537853759765625,1.6938976745605467,-11.137826123046874
4899441919119,6.82812781,1,0.22744915771484372,1.772906329345703,-11.256339105224608
4899448586202,6.834794893,1,0.2214636535644531,1.7286135986328124,-11.137826123046874
4899455253337,6.841462028,1,0.2059013427734375,1.7609353210449217,-11.173739147949219
4899461918546,6.848127237,1,0.229843359375,1.7465701110839842,-11.149797131347656
4899468585473,6.854794164,1,0.2561795776367187,1.7429788085937499,-11.23000288696289
4899475251619,6.86146031,1,0.2561795776367187,1.7190367919921874,-11.171344946289063
4899481918806,6.868127497,1,0.19991583862304688,1.7190367919921874,-11.195286962890624
4899488586046,6.874794737,1,0.1927332336425781,1.6938976745605467,-11.195286962890624
4899495252035,6.881460726,1,0.18914193115234373,1.734599102783203,-11.180921752929686
4899501918858,6.888127549,1,0.19871873779296872,1.7082628845214842,-11.201272467041015
4899508585369,6.89479406,1,0.239420166015625,1.7597382202148437,-11.320982550048827
4899515251046,6.901459737,1,0.239420166015625,1.7034744812011717,-11.189301458740234
4899521919275,6.908127966,1,0.23582886352539062,1.7334020019531249,-11.180921752929686
4899528585785,6.914794476,1,0.21787235107421873,1.7262193969726563,-11.106701501464842
4899535251983,6.921460674,1,0.21068974609375,1.7178396911621092,-11.165359442138671
4899541918389,6.92812708,1,0.21428104858398436,1.686715069580078,-11.221623181152344
4899548586462,6.934795153,1,0.21308394775390624,1.7310078002929687,-11.238382592773437
4899555260681,6.941469372,1,0.27293898925781246,1.7310078002929687,-11.125855114746093
4899561927712,6.948136403,1,0.1879448303222656,1.7561469177246092,-11.200075366210937
4899568593806,6.954802497,1,0.21428104858398436,1.7561469177246092,-11.213243475341796
4899575259483,6.961468174,1,0.20709844360351562,1.7393875061035156,-11.146205828857422
4899581926931,6.968135622,1,0.21068974609375,1.7322049011230467,-11.195286962890624
4899588593910,6.974802601,1,0.23702596435546874,1.70467158203125,-11.173739147949219
4899595259796,6.981468487,1,0.229843359375,1.7298106994628906,-11.170147845458983
4899601927400,6.988136091,1,0.23582886352539062,1.7956512451171873,-11.194089862060546
4899608593233,6.994801924,1,0.2597708801269531,1.7645266235351562,-11.209652172851563
4899615260056,7.001468747,1,0.2597708801269531,1.715445489501953,-11.156979736328124
4899621927348,7.008136039,1,0.22026655273437498,1.7286135986328124,-11.174936248779296
4899628593962,7.014802653,1,0.2059013427734375,1.7286135986328124,-11.196484063720703
4899635260993,7.021469684,1,0.2059013427734375,1.7369933044433592,-11.318588348388671
4899641917139,7.02812583,1,0.2214636535644531,1.6807295654296874,-11.165359442138671
4899648591202,7.034799893,1,0.2346317626953125,1.7166425903320313,-11.139023223876952
4899655253650,7.041462341,1,0.17357962036132812,1.7657237243652342,-11.170147845458983
4899661920889,7.04812958,1,0.19871873779296872,1.705868682861328,-11.188104357910156
4899668585681,7.054794372,1,0.18914193115234373,1.7334020019531249,-11.233594189453123
4899675252764,7.061461455,1,0.239420166015625,1.7274164978027342,-11.162965240478515
4899681920212,7.068128903,1,0.24301146850585936,1.7322049011230467,-11.196484063720703
4899688585889,7.07479458,1,0.229843359375,1.6903063720703124,-11.195286962890624
4899695251931,7.081460622,1,0.229843359375,1.7130512878417967,-11.1474029296875
4899701918962,7.088127653,1,0.2214636535644531,1.734599102783203,-11.246762298583985
4899708586410,7.094795101,1,0.24061726684570311,1.7238251953125,-11.127052215576171
4899715252400,7.101461091,1,0.2166752502441406,1.7585411193847655,-11.195286962890624
4899721918962,7.108127653,1,0.2262520568847656,1.7465701110839842,-11.158176837158203
4899728585889,7.11479458,1,0.23223756103515625,1.6807295654296874,-11.156979736328124
4899735252191,7.121460882,1,0.22385785522460935,1.7178396911621092,-11.196484063720703
4899741918754,7.128127445,1,0.26216508178710934,1.675941162109375,-11.214440576171874
4899748585264,7.134793955,1,0.22266075439453123,1.753752716064453,-11.188104357910156
4899755251723,7.141460414,1,0.19153613281249998,1.7788918334960937,-11.18571015625
4899761919587,7.148128278,1,0.19153613281249998,1.753752716064453,-11.180921752929686
4899768585473,7.154794164,1,0.22266075439453123,1.753752716064453,-11.23718549194336
4899775252087,7.161460778,1,0.22385785522460935,1.7465701110839842,-11.23718549194336
4899781919170,7.168127861,1,0.24181436767578124,1.7238251953125,-11.149797131347656
4899788585160,7.174793851,1,0.24899697265624998,1.6807295654296874,-11.18571015625
4899795251566,7.181460257,1,0.23104046020507812,1.7501614135742187,-11.19169566040039
4899801919900,7.188128591,1,0.239420166015625,1.7573440185546874,-11.14022032470703
4899808585473,7.194794164,1,0.23822306518554687,1.7178396911621092,-11.215637677001952
4899815252712,7.201461403,1,0.19871873779296872,1.7226280944824217,-11.221623181152344
4899821918650,7.208127341,1,0.1975216369628906,1.7417817077636717,-11.152191333007812
4899828585473,7.214794164,1,0.24779987182617186,1.7405846069335937,-11.150994232177734
4899835252660,7.221461351,1,0.21308394775390624,1.7453730102539062,-11.215637677001952
4899841919014,7.228127705,1,0.31483751831054685,1.7214309936523438,-11.194089862060546
4899848585368,7.234794059,1,0.2442085693359375,1.7453730102539062,-11.159373937988281
4899855260004,7.241468695,1,0.239420166015625,1.763329522705078,-11.171344946289063
4899861927660,7.248136351,1,0.18914193115234373,1.7693150268554687,-11.146205828857422
4899868594118,7.254802809,1,0.2262520568847656,1.7561469177246092,-11.152191333007812
4899875260212,7.261468903,1,0.20949264526367187,1.686715069580078,-11.146205828857422
4899881927191,7.268135882,1,0.23104046020507812,1.7381904052734374,-11.170147845458983
4899888589639,7.27479833,1,0.24899697265624998,1.695094775390625,-11.238382592773437
4899895261358,7.281470049,1,0.229843359375,1.7465701110839842,-11.209652172851563
4899901922139,7.28813083,1,0.229843359375,1.725022296142578,-11.19169566040039
4899908594379,7.29480307,1,0.22266075439453123,1.7310078002929687,-11.125855114746093
4899915260681,7.301469372,1,0.22266075439453123,1.7310078002929687,-11.139023223876952
4899921927973,7.308136664,1,0.23104046020507812,1.714248388671875,-11.051634863281249
4899928605629,7.31481432,1,0.23223756103515625,1.7262193969726563,-11.204863769531249
4899935262816,7.321471507,1,0.22744915771484372,1.696291876220703,-11.226411584472656
4899941928285,7.328136976,1,0.2454056701660156,1.7465701110839842,-11.182118853759764
4899948594066,7.334802757,1,0.16160861206054686,1.7118541870117185,-11.238382592773437
4899955249327,7.341458018,1,0.22505495605468748,1.68551796875,-11.148600030517578
4899961919275,7.348127966,1,0.22744915771484372,1.7573440185546874,-11.165359442138671
4899968585160,7.354793851,1,0.28730419921875,1.7657237243652342,-11.192892761230468
4899975252660,7.361461351,1,0.2166752502441406,1.7609353210449217,-11.192892761230468
4899981919066,7.368127757,1,0.20949264526367187,1.7202338928222656,-11.276689819335937
4899988584900,7.374793591,1,0.22385785522460935,1.715445489501953,-11.17852755126953
4899995253077,7.381461768,1,0.2705447875976562,1.7429788085937499,-11.159373937988281
4900001919066,7.388127757,1,0.2346317626953125,1.7621324218749999,-11.168950744628905
4900008596358,7.394805049,1,0.16639701538085935,1.7322049011230467,-11.202469567871093
4900015287608,7.401496299,1,0.19393033447265623,1.7369933044433592,-11.180921752929686
4900021927712,7.408136403,1,0.22385785522460935,1.7034744812011717,-11.16057103881836
4900028585316,7.414794007,1,0.19632453613281248,1.695094775390625,-11.142614526367186
4900035249587,7.421458278,1,0.26216508178710934,1.7298106994628906,-11.17852755126953
4900041915056,7.428123747,1,0.277727392578125,1.7393875061035156,-11.113884106445312
4900048584066,7.434792757,1,0.277727392578125,1.744175909423828,-11.089942089843749
4900055271566,7.441480257,1,0.20470424194335937,1.744175909423828,-11.166556542968749
4900061919952,7.448128643,1,0.1867477294921875,1.7465701110839842,-11.166556542968749
4900068586306,7.454794997,1,0.2262520568847656,1.6986860778808592,-11.214440576171874
4900075251931,7.461460622,1,0.17956512451171874,1.7298106994628906,-11.197681164550781
4900081915004,7.468123695,1,0.1867477294921875,1.7286135986328124,-11.097124694824219
4900088586670,7.474795361,1,0.20350714111328125,1.6986860778808592,-11.246762298583985
4900095252816,7.481461507,1,0.23343466186523437,1.6891092712402342,-11.19887826538086
4900101918806,7.488127497,1,0.23104046020507812,1.725022296142578,-11.14022032470703
4900108585160,7.494793851,1,0.20949264526367187,1.7405846069335937,-11.121066711425781
4900115251879,7.50146057,1,0.2154781494140625,1.7621324218749999,-11.18571015625
4900121918702,7.508127393,1,0.229843359375,1.7322049011230467,-11.176133349609374
4900128586358,7.514795049,1,0.24660277099609373,1.7166425903320313,-11.159373937988281
4900135252191,7.521460882,1,0.21188684692382811,1.7130512878417967,-11.203666668701171
4900141921566,7.528130257,1,0.22026655273437498,1.697488977050781,-11.17254204711914
4900148586045,7.534794736,1,0.201112939453125,1.7286135986328124,-11.18571015625
4900155340941,7.541549632,1,0.24061726684570311,1.7405846069335937,-11.21683477783203
4900161931670,7.548140361,1,0.24061726684570311,1.7561469177246092,-11.214440576171874
4900168594587,7.554803278,1,0.26336218261718747,1.7202338928222656,-11.143811627197264
4900175260264,7.561468955,1,0.23702596435546874,1.7106570861816406,-11.119869610595703
4900181926722,7.568135413,1,0.2214636535644531,1.7465701110839842,-11.246762298583985
4900188593597,7.574802288,1,0.2214636535644531,1.7477672119140624,-11.225214483642578
4900195260785,7.581469476,1,0.2442085693359375,1.714248388671875,-11.209652172851563
4900201926879,7.58813557,1,0.25737667846679685,1.714248388671875,-11.188104357910156
4900208593545,7.594802236,1,0.18315642700195311,1.7393875061035156,-11.188104357910156
4900215261149,7.60146984,1,0.24660277099609373,1.7609353210449217,-11.208455072021483
4900221926462,7.608135153,1,0.22026655273437498,1.7597382202148437,-11.176133349609374
4900228593754,7.614802445,1,0.2262520568847656,1.6831237670898436,-11.146205828857422
4900235260889,7.62146958,1,0.1975216369628906,1.7118541870117185,-11.139023223876952
4900241926514,7.628135205,1,0.24181436767578124,1.707065783691406,-11.222820281982422
4900248594066,7.634802757,1,0.22505495605468748,1.7561469177246092,-11.220426080322264
4900255277139,7.64148583,1,0.22744915771484372,1.697488977050781,-11.16057103881836
4900261921566,7.648130257,1,0.24660277099609373,1.7477672119140624,-11.246762298583985
4900268586306,7.654794997,1,0.2059013427734375,1.7286135986328124,-11.16057103881836
4900275251514,7.661460205,1,0.2825157958984375,1.7166425903320313,-11.188104357910156
4900281919952,7.668128643,1,0.24061726684570311,1.7381904052734374,-11.118672509765624
4900288584847,7.674793538,1,0.23104046020507812,1.675941162109375,-11.154585534667968
4900295251879,7.68146057,1,0.2059013427734375,1.7513585144042967,-11.165359442138671
4900301918962,7.688127653,1,0.18914193115234373,1.7166425903320313,-11.165359442138671
4900308585004,7.694793695,1,0.26815058593749996,1.7381904052734374,-11.188104357910156
4900315253129,7.70146182,1,0.32082302246093747,1.7238251953125,-11.215637677001952
4900321918806,7.708127497,1,0.20350714111328125,1.7178396911621092,-11.21683477783203
4900328585264,7.714793955,1,0.24660277099609373,1.7477672119140624,-11.251550701904296
4900335252295,7.721460986,1,0.24660277099609373,1.7334020019531249,-11.197681164550781
4900341920108,7.728128799,1,0.23104046020507812,1.7334020019531249,-11.123460913085937
4900348585629,7.73479432,1,0.1927332336425781,1.7585411193847655,-11.123460913085937
4900355252660,7.741461351,1,0.23702596435546874,1.7357962036132812,-11.226411584472656
4900361927608,7.748136299,1,0.20709844360351562,1.734599102783203,-11.238382592773437
4900368594014,7.754802705,1,0.2154781494140625,1.7334020019531249,-11.155782635498046
4900375260837,7.761469528,1,0.17477672119140625,1.678335363769531,-11.142614526367186
4900381918233,7.768126924,1,0.2609679809570312,1.6986860778808592,-11.182118853759764
4900388593024,7.774801715,1,0.3112462158203125,1.7166425903320313,-11.203666668701171
4900395262295,7.781470986,1,0.258573779296875,1.7094599853515624,-11.118672509765624
4900401927347,7.788136038,1,0.24899697265624998,1.7848773376464844,-11.225214483642578
4900408592868,7.794801559,1,0.20949264526367187,1.6795324645996093,-11.232397088623046
4900415255629,7.80146432,1,0.20709844360351562,1.7274164978027342,-11.213243475341796
4900421926774,7.808135465,1,0.2214636535644531,1.7357962036132812,-11.182118853759764
4900428593337,7.814802028,1,0.20231004028320312,1.7381904052734374,-11.156979736328124
4900435259222,7.821467913,1,0.2657563842773437,1.6998831787109374,-11.189301458740234
4900441925993,7.828134684,1,0.20709844360351562,1.744175909423828,-11.188104357910156
4900448593389,7.83480208,1,0.17956512451171874,1.772906329345703,-11.177330450439452
4900455260264,7.841468955,1,0.21068974609375,1.7190367919921874,-11.183315954589844
4900461918962,7.848127653,1,0.23582886352539062,1.6903063720703124,-11.195286962890624
4900468587191,7.854795882,1,0.24779987182617186,1.7549498168945312,-11.225214483642578
4900475252504,7.861461195,1,0.24779987182617186,1.7429788085937499,-11.208455072021483
4900481919222,7.868127913,1,0.2561795776367187,1.734599102783203,-11.235988391113281
4900488585785,7.874794476,1,0.22385785522460935,1.734599102783203,-11.317391247558593
4900495253545,7.881462236,1,0.22026655273437498,1.668758557128906,-11.164162341308593
4900501918962,7.888127653,1,0.2549824768066406,1.7405846069335937,-11.184513055419922
4900508585004,7.894793695,1,0.239420166015625,1.7130512878417967,-11.238382592773437
4900515252556,7.901461247,1,0.22505495605468748,1.7226280944824217,-11.124658013916015
4900521918337,7.908127028,1,0.19512743530273435,1.7561469177246092,-11.207257971191405
4900528585576,7.914794267,1,0.22266075439453123,1.7657237243652342,-11.189301458740234
4900535252816,7.921461507,1,0.23702596435546874,1.7393875061035156,-11.159373937988281
4900541918754,7.928127445,1,0.23223756103515625,1.7717092285156248,-11.195286962890624
4900548586149,7.93479484,1,0.24061726684570311,1.7166425903320313,-11.207257971191405
4900555261931,7.941470622,1,0.22864625854492185,1.7190367919921874,-11.19887826538086
4900561921306,7.948129997,1,0.2501940734863281,1.7381904052734374,-11.180921752929686
4900568585368,7.954794059,1,0.1927332336425781,1.7214309936523438,-11.139023223876952
4900575251566,7.961460257,1,0.24779987182617186,1.714248388671875,-11.146205828857422
4900581918181,7.968126872,1,0.1927332336425781,1.7561469177246092,-11.213243475341796
4900588586097,7.974794788,1,0.20709844360351562,1.7645266235351562,-11.177330450439452
4900595251879,7.98146057,1,0.20709844360351562,1.7549498168945312,-11.250353601074218
4900601919222,7.988127913,1,0.2346317626953125,1.7800889343261719,-11.158176837158203
4900608584483,7.994793174,1,0.24660277099609373,1.7417817077636717,-11.204863769531249
4900615252451,8.001461142,1,0.2501940734863281,1.668758557128906,-11.119869610595703
4900621919222,8.008127913,1,0.2501940734863281,1.5969325073242187,-11.2240173828125
4900628586306,8.014794997,1,0.19632453613281248,1.7501614135742187,-11.195286962890624
4900635247660,8.021456351,1,0.22505495605468748,1.7274164978027342,-11.195286962890624
4900641918910,8.028127601,1,0.2262520568847656,1.68551796875,-11.174936248779296
4900648585420,8.034794111,1,0.23702596435546874,1.7262193969726563,-11.124658013916015
4900655251931,8.041460622,1,0.24779987182617186,1.7010802795410156,-11.174936248779296
4900661927556,8.048136247,1,0.21906945190429686,1.7226280944824217,-11.154585534667968
4900668589847,8.054798538,1,0.21428104858398436,1.7130512878417967,-11.166556542968749
4900675260628,8.061469319,1,0.22266075439453123,1.7393875061035156,-11.173739147949219
4900681931149,8.06813984,1,0.19632453613281248,1.7286135986328124,-11.128249316406249
4900688594274,8.074802965,1,0.2454056701660156,1.7166425903320313,-11.161768139648437
4900695261670,8.081470361,1,0.229843359375,1.6723498596191406,-11.271901416015623
4900701922243,8.088130934,1,0.21308394775390624,1.7034744812011717,-11.177330450439452
4900708594691,8.094803382,1,0.2609679809570312,1.7226280944824217,-11.166556542968749
4900715261253,8.101469944,1,0.22266075439453123,1.7381904052734374,-11.17254204711914
4900721926722,8.108135413,1,0.2059013427734375,1.744175909423828,-11.2240173828125
4900728593233,8.114801924,1,0.2537853759765625,1.714248388671875,-11.146205828857422
4900735260368,8.121469059,1,0.21068974609375,1.7573440185546874,-11.209652172851563
4900741926410,8.128135101,1,0.23343466186523437,1.7393875061035156,-11.167753643798827
4900748594431,8.134803122,1,0.2059013427734375,1.7130512878417967,-11.118672509765624
4900755260420,8.141469111,1,0.20231004028320312,1.7848773376464844,-11.195286962890624
4900761918337,8.148127028,1,0.20231004028320312,1.714248388671875,-11.209652172851563
4900768585837,8.154794528,1,0.21188684692382811,1.7094599853515624,-11.201272467041015
4900775252451,8.161461142,1,0.25139117431640623,1.7094599853515624,-11.33175645751953
4900781918493,8.168127184,1,0.24899697265624998,1.7405846069335937,-11.17852755126953
4900788585316,8.174794007,1,0.17477672119140625,1.7477672119140624,-11.182118853759764
4900795252087,8.181460778,1,0.22026655273437498,1.7669208251953124,-11.258733306884764
4900801918858,8.188127549,1,0.21428104858398436,1.6903063720703124,-11.212046374511718
4900808585420,8.194794111,1,0.24301146850585936,1.753752716064453,-11.164162341308593
4900815252347,8.201461038,1,0.22266075439453123,1.7393875061035156,-11.267113012695312
4900821919170,8.208127861,1,0.22864625854492185,1.7022773803710936,-11.194089862060546
4900828585733,8.214794424,1,0.24181436767578124,1.7489643127441405,-11.231199987792968
4900835252451,8.221461142,1,0.19632453613281248,1.7322049011230467,-11.177330450439452
4900841918962,8.228127653,1,0.24779987182617186,1.7262193969726563,-11.168950744628905
4900848585837,8.234794528,1,0.2501940734863281,1.7369933044433592,-11.21683477783203
4900855252243,8.241460934,1,0.21906945190429686,1.7274164978027342,-11.23718549194336
4900861918233,8.248126924,1,0.2537853759765625,1.7202338928222656,-11.1474029296875
4900868585889,8.25479458,1,0.26216508178710934,1.7681179260253905,-11.17852755126953
4900875251514,8.261460205,1,0.2346317626953125,1.705868682861328,-11.154585534667968
4900881914430,8.268123121,1,0.25139117431640623,1.725022296142578,-11.233594189453123
4900888585264,8.274793955,1,0.20350714111328125,1.7310078002929687,-11.154585534667968
4900895252399,8.28146109,1,0.23343466186523437,1.7717092285156248,-11.165359442138671
4900901919118,8.288127809,1,0.16759411621093748,1.7310078002929687,-11.238382592773437
4900908585420,8.294794111,1,0.16759411621093748,1.7405846069335937,-11.215637677001952
4900915251201,8.301459892,1,0.24779987182617186,1.7405846069335937,-11.215637677001952
4900921919222,8.308127913,1,0.23104046020507812,1.7561469177246092,-11.215637677001952
4900928584743,8.314793434,1,0.22266075439453123,1.687912170410156,-11.26831011352539
4900935251670,8.321460361,1,0.20829554443359374,1.725022296142578,-11.221623181152344
4900941918233,8.328126924,1,0.20829554443359374,1.714248388671875,-11.14022032470703
4900948585108,8.334793799,1,0.18315642700195311,1.70467158203125,-11.190498559570312
4900955251253,8.341459944,1,0.105344873046875,1.7094599853515624,-11.130643518066405
4900961931826,8.348140517,1,0.201112939453125,1.7621324218749999,-11.1474029296875
4900968594170,8.354802861,1,0.24301146850585936,1.7381904052734374,-11.184513055419922
4900975261305,8.361469996,1,0.1879448303222656,1.7190367919921874,-11.17254204711914
4900981925889,8.36813458,1,0.20470424194335937,1.7214309936523438,-11.166556542968749
4900988592920,8.374801611,1,0.239420166015625,1.7669208251953124,-11.179724652099608
4900995260055,8.381468746,1,0.25737667846679685,1.7405846069335937,-11.145008728027342
4901001927920,8.388136611,1,0.20470424194335937,1.725022296142578,-11.21084927368164
4901008594326,8.394803017,1,0.21308394775390624,1.7609353210449217,-11.235988391113281
4901015260733,8.401469424,1,0.2561795776367187,1.6998831787109374,-11.145008728027342
4901021927087,8.408135778,1,0.1580173095703125,1.7429788085937499,-11.204863769531249
4901028593024,8.414801715,1,0.22266075439453123,1.7429788085937499,-11.141417425537108
4901035260264,8.421468955,1,0.1867477294921875,1.7477672119140624,-11.180921752929686
4901041926514,8.428135205,1,0.22266075439453123,1.7681179260253905,-11.165359442138671
4901048594066,8.434802757,1,0.22266075439453123,1.7274164978027342,-11.183315954589844
4901055259639,8.44146833,1,0.21068974609375,1.7286135986328124,-11.173739147949219
4901062006774,8.448215465,1,0.22385785522460935,1.7286135986328124,-11.176133349609374
4901068588337,8.454797028,1,0.21068974609375,1.6843208679199217,-11.176133349609374
4901075252660,8.461461351,1,0.23343466186523437,1.7753005310058592,-11.228805786132812
4901081917972,8.468126663,1,0.2262520568847656,1.753752716064453,-11.105504400634764
4901088585889,8.47479458,1,0.20470424194335937,1.6891092712402342,-11.17254204711914
4901095248962,8.481457653,1,0.22744915771484372,1.7082628845214842,-11.208455072021483
4901101918701,8.488127392,1,0.24899697265624998,1.7286135986328124,-11.156979736328124
4901108585628,8.494794319,1,0.2154781494140625,1.7118541870117185,-11.189301458740234
4901115251566,8.501460257,1,0.20350714111328125,1.7022773803710936,-11.152191333007812
4901121918597,8.508127288,1,0.2262520568847656,1.7381904052734374,-11.202469567871093
4901128579066,8.514787757,1,0.22266075439453123,1.705868682861328,-11.222820281982422
4901135251618,8.521460309,1,0.2537853759765625,1.707065783691406,-11.16057103881836
4901141918024,8.528126715,1,0.24899697265624998,1.7190367919921874,-11.173739147949219
4901148584951,8.534793642,1,0.22744915771484372,1.7130512878417967,-11.161768139648437
4901155252087,8.541460778,1,0.229843359375,1.7166425903320313,-11.170147845458983
4901161918649,8.54812734,1,0.21906945190429686,1.7190367919921874,-11.213243475341796
4901168587139,8.55479583,1,0.22505495605468748,1.6938976745605467,-11.136629022216797
4901175252451,8.561461142,1,0.27892449340820313,1.7357962036132812,-11.192892761230468
4901181914222,8.568122913,1,0.2262520568847656,1.7274164978027342,-11.166556542968749
4901188585837,8.574794528,1,0.17836802368164062,1.7405846069335937,-11.219228979492186
4901195252868,8.581461559,1,0.17836802368164062,1.8351555725097655,-11.213243475341796
4901201918649,8.58812734,1,0.2214636535644531,1.6819266662597656,-11.17852755126953
4901208584743,8.594793434,1,0.20470424194335937,1.7298106994628906,-11.17852755126953
4901215252555,8.601461246,1,0.24899697265624998,1.7322049011230467,-11.222820281982422
4901221918597,8.608127288,1,0.17956512451171874,1.7118541870117185,-11.207257971191405
4901228586149,8.61479484,1,0.21787235107421873,1.7190367919921874,-11.227608685302734
4901235251722,8.621460413,1,0.2154781494140625,1.7381904052734374,-11.129446417236327
4901241918649,8.62812734,1,0.21308394775390624,1.811213555908203,-11.177330450439452
4901248585420,8.634794111,1,0.181959326171875,1.678335363769531,-11.174936248779296
4901255251722,8.641460413,1,0.21787235107421873,1.714248388671875,-11.156979736328124
4901261919222,8.648127913,1,0.229843359375,1.7489643127441405,-11.213243475341796
4901268590993,8.654799684,1,0.20470424194335937,1.7034744812011717,-11.232397088623046
4901275260837,8.661469528,1,0.23822306518554687,1.7214309936523438,-11.246762298583985
4901281926982,8.668135673,1,0.2214636535644531,1.7621324218749999,-11.16057103881836
4901288593753,8.674802444,1,0.2166752502441406,1.7501614135742187,-11.19887826538086
4901295259847,8.681468538,1,0.20829554443359374,1.7657237243652342,-11.1474029296875
4901301927712,8.688136403,1,0.26815058593749996,1.7322049011230467,-11.145008728027342
4901308593180,8.694801871,1,0.22864625854492185,1.772906329345703,-11.212046374511718
4901315269274,8.701477965,1,0.21188684692382811,1.7489643127441405,-11.206060870361327
4901321929639,8.70813833,1,0.22505495605468748,1.7202338928222656,-11.212046374511718
4901328594795,8.714803486,1,0.22385785522460935,1.705868682861328,-11.189301458740234
4901335260368,8.721469059,1,0.22385785522460935,1.7645266235351562,-11.170147845458983
4901341927139,8.72813583,1,0.23223756103515625,1.687912170410156,-11.275492718505859
4901348594118,8.734802809,1,0.17477672119140625,1.687912170410156,-11.121066711425781
4901355260472,8.741469163,1,0.2442085693359375,1.7166425903320313,-11.121066711425781
4901361926462,8.748135153,1,0.2442085693359375,1.7334020019531249,-11.250353601074218
4901368586097,8.754794788,1,0.19871873779296872,1.7178396911621092,-11.186907257080078
4901375253545,8.761462236,1,0.29568390502929687,1.7262193969726563,-11.142614526367186
4901381918701,8.768127392,1,0.2154781494140625,1.7657237243652342,-11.19887826538086
4901388585107,8.774793798,1,0.20350714111328125,1.7465701110839842,-11.275492718505859
4901395252347,8.781461038,1,0.24061726684570311,1.7130512878417967,-11.186907257080078
4901401919014,8.788127705,1,0.1927332336425781,1.7693150268554687,-11.158176837158203
4901408583909,8.7947926,1,0.1867477294921875,1.7525556152343749,-11.174936248779296
4901415252191,8.801460882,1,0.2214636535644531,1.7908628417968748,-11.154585534667968
4901421919222,8.808127913,1,0.2442085693359375,1.7274164978027342,-11.165359442138671
4901428586253,8.814794944,1,0.22744915771484372,1.7274164978027342,-11.137826123046874
4901435252451,8.821461142,1,0.201112939453125,1.6938976745605467,-11.23000288696289
4901441918649,8.82812734,1,0.22864625854492185,1.7274164978027342,-11.176133349609374
4901448583701,8.834792392,1,0.20231004028320312,1.696291876220703,-11.19887826538086
4901455252555,8.841461246,1,0.19393033447265623,1.744175909423828,-11.155782635498046
4901461918545,8.848127236,1,0.19991583862304688,1.7262193969726563,-11.152191333007812
4901468601253,8.854809944,1,0.22744915771484372,1.753752716064453,-11.189301458740234
4901475262972,8.861471663,1,0.239420166015625,1.7369933044433592,-11.18571015625
4901481927295,8.868135986,1,0.239420166015625,1.7764976318359373,-11.133037719726563
4901488594118,8.874802809,1,0.23582886352539062,1.7764976318359373,-11.124658013916015
4901495259587,8.881468278,1,0.2262520568847656,1.7310078002929687,-11.098321795654297
4901501926566,8.888135257,1,0.19632453613281248,1.7369933044433592,-11.251550701904296
4901508594066,8.894802757,1,0.23702596435546874,1.744175909423828,-11.159373937988281
4901515260159,8.90146885,1,0.16639701538085935,1.7381904052734374,-11.189301458740234
4901521926878,8.908135569,1,0.21188684692382811,1.7405846069335937,-11.204863769531249
4901528594639,8.91480333,1,0.23104046020507812,1.725022296142578,-11.166556542968749
4901535260524,8.921469215,1,0.22026655273437498,1.7214309936523438,-11.15338843383789
4901541926722,8.928135413,1,0.26815058593749996,1.7334020019531249,-11.204863769531249
4901548593909,8.9348026,1,0.21787235107421873,1.6639701538085936,-11.227608685302734
4901555260420,8.941469111,1,0.20949264526367187,1.7788918334960937,-11.116278308105468
4901561927399,8.94813609,1,0.27174188842773433,1.7381904052734374,-11.148600030517578
4901568673753,8.954882444,1,0.26815058593749996,1.7501614135742187,-11.17254204711914
4901575253180,8.961461871,1,0.24779987182617186,1.6998831787109374,-11.23000288696289
4901581919066,8.968127757,1,0.229843359375,1.7357962036132812,-11.1474029296875
4901588585576,8.974794267,1,0.23223756103515625,1.7513585144042967,-11.214440576171874
4901595252034,8.981460725,1,0.2861070983886719,1.7298106994628906,-11.154585534667968
4901601919014,8.988127705,1,0.17956512451171874,1.7561469177246092,-11.196484063720703
4901608585316,8.994794007,1,0.25737667846679685,1.7381904052734374,-11.170147845458983
4901615251618,9.001460309,1,0.2214636535644531,1.744175909423828,-11.204863769531249
4901621917920,9.008126611,1,0.2214636535644531,1.7417817077636717,-11.162965240478515
4901628584066,9.014792757,1,0.2501940734863281,1.7477672119140624,-11.202469567871093
4901635251149,9.02145984,1,0.1975216369628906,1.7477672119140624,-11.313799945068359
4901641918232,9.028126923,1,0.22026655273437498,1.7621324218749999,-11.16057103881836
4901648585003,9.034793694,1,0.2861070983886719,1.7405846069335937,-11.21084927368164
4901655252139,9.04146083,1,0.21308394775390624,1.7477672119140624,-11.180921752929686
4901661918024,9.048126715,1,0.2154781494140625,1.7381904052734374,-11.231199987792968
4901668585680,9.054794371,1,0.2765302917480469,1.7717092285156248,-11.206060870361327
4901675259378,9.061468069,1,0.20949264526367187,1.7609353210449217,-11.204863769531249
4901681927399,9.06813609,1,0.22744915771484372,1.7561469177246092,-11.201272467041015
4901688593180,9.074801871,1,0.2813186950683594,1.7238251953125,-11.184513055419922
4901695254326,9.081463017,1,0.20829554443359374,1.7322049011230467,-11.188104357910156
4901701927555,9.088136246,1,0.277727392578125,1.7286135986328124,-11.183315954589844
4901708593493,9.094802184,1,0.2262520568847656,1.7860744384765623,-11.200075366210937
4901715260107,9.101468798,1,0.2166752502441406,1.7489643127441405,-11.214440576171874
4901721926722,9.108135413,1,0.2166752502441406,1.7286135986328124,-11.162965240478515
4901728592243,9.114800934,1,0.22744915771484372,1.7465701110839842,-11.207257971191405
4901735260941,9.121469632,1,0.26336218261718747,1.7621324218749999,-11.204863769531249
4901741926826,9.128135517,1,0.2501940734863281,1.7214309936523438,-11.239579693603515
4901748593857,9.134802548,1,0.22026655273437498,1.7501614135742187,-11.07677398071289
4901755259638,9.141468329,1,0.201112939453125,1.725022296142578,-11.146205828857422
4901761928128,9.148136819,1,0.229843359375,1.725022296142578,-11.177330450439452
4901768593024,9.154801715,1,0.229843359375,1.705868682861328,-11.142614526367186
4901775252607,9.161461298,1,0.19393033447265623,1.705868682861328,-11.195286962890624
4901781918805,9.168127496,1,0.21787235107421873,1.68551796875,-11.195286962890624
4901788585055,9.174793746,1,0.24181436767578124,1.7322049011230467,-11.202469567871093
4901795252763,9.181461454,1,0.1975216369628906,1.714248388671875,-11.148600030517578
4901801918753,9.188127444,1,0.26815058593749996,1.7405846069335937,-11.162965240478515
4901808585211,9.194793902,1,0.2346317626953125,1.715445489501953,-11.213243475341796
4901815251826,9.201460517,1,0.24181436767578124,1.7214309936523438,-11.139023223876952
4901821919534,9.208128225,1,0.2214636535644531,1.7453730102539062,-11.206060870361327
4901828586722,9.214795413,1,0.24779987182617186,1.7334020019531249,-11.183315954589844
4901835251670,9.221460361,1,0.24660277099609373,1.7094599853515624,-11.207257971191405
4901841918701,9.228127392,1,0.17357962036132812,1.7645266235351562,-11.145008728027342
4901848585368,9.234794059,1,0.25737667846679685,1.7417817077636717,-11.247959399414063
4901855249170,9.241457861,1,0.239420166015625,1.696291876220703,-11.276689819335937
4901861919066,9.248127757,1,0.201112939453125,1.7226280944824217,-11.19169566040039
4901868585836,9.254794527,1,0.20231004028320312,1.7465701110839842,-11.21683477783203
4901875248232,9.261456923,1,0.18914193115234373,1.7106570861816406,-11.203666668701171
4901881919534,9.268128225,1,0.20949264526367187,1.7357962036132812,-11.219228979492186
4901888585993,9.274794684,1,0.20709844360351562,1.7322049011230467,-11.158176837158203
4901895253284,9.281461975,1,0.21906945190429686,1.7513585144042967,-11.149797131347656
4901901918961,9.288127652,1,0.18435352783203124,1.8076222534179687,-11.179724652099608
4901908586097,9.294794788,1,0.18435352783203124,1.7202338928222656,-11.212046374511718
4901915252347,9.301461038,1,0.20231004028320312,1.7202338928222656,-11.137826123046874
4901921919378,9.308128069,1,0.2442085693359375,1.7238251953125,-11.164162341308593
4901928586045,9.314794736,1,0.2262520568847656,1.734599102783203,-11.164162341308593
4901935252295,9.321460986,1,0.2693476867675781,1.7741034301757812,-11.196484063720703
4901941927711,9.328136402,1,0.229843359375,1.7310078002929687,-11.112687005615234
4901948580315,9.334789006,1,0.26216508178710934,1.7681179260253905,-11.202469567871093
4901955252555,9.341461246,1,0.20829554443359374,1.7178396911621092,-11.136629022216797
4901961919326,9.348128017,1,0.22266075439453123,1.7669208251953124,-11.24915650024414
4901968586618,9.354795309,1,0.2561795776367187,1.68551796875,-11.158176837158203
4901975253128,9.361461819,1,0.21068974609375,1.7334020019531249,-11.212046374511718
