timestamp_ns,t_s,sensor_id,ax,ay,az,gx,gy,gz
3842735494470,0.059844584,1,0.23343466186523437,1.7082628845214842,-11.184513055419922,-0.9389312977099237,0.6641221374045801,-1.5114503816793894
3842740453115,0.064803229,1,0.2262520568847656,1.7166425903320313,-11.182118853759764,-0.816793893129771,0.6030534351145038,-1.3206106870229009
3842745454001,0.069804115,1,0.239420166015625,1.734599102783203,-11.184513055419922,-0.7862595419847328,0.5343511450381679,-1.3435114503816794
3842750457907,0.074808021,1,0.22744915771484372,1.7202338928222656,-11.171344946289063,-0.8244274809160306,0.5648854961832062,-1.3129770992366412
3842755448636,0.07979875,1,0.22266075439453123,1.7166425903320313,-11.179724652099608,-0.8931297709923665,0.6564885496183206,-1.3893129770992367
3842760449990,0.084800104,1,0.22744915771484372,1.7226280944824217,-11.166556542968749,-0.8473282442748091,0.5954198473282443,-1.3511450381679388
3842765450303,0.089800417,1,0.2346317626953125,1.7094599853515624,-11.17852755126953,-0.7709923664122137,0.5572519083969466,-1.3511450381679388
3842770449834,0.094799948,1,0.23104046020507812,1.714248388671875,-11.184513055419922,-0.7175572519083969,0.5954198473282443,-1.3969465648854962
3842775446761,0.099796875,1,0.239420166015625,1.7417817077636717,-11.195286962890624,-0.8244274809160306,0.6335877862595419,-1.3435114503816794
3842780448324,0.104798438,1,0.2549824768066406,1.734599102783203,-11.207257971191405,-0.8625954198473282,0.5877862595419847,-1.3053435114503817
3842785447855,0.109797969,1,0.23104046020507812,1.7262193969726563,-11.174936248779296,-0.7938931297709924,0.549618320610687,-1.297709923664122
3842790448011,0.114798125,1,0.22026655273437498,1.7357962036132812,-11.19887826538086,-0.8015267175572519,0.6030534351145038,-1.2748091603053435
3842795446917,0.119797031,1,0.2262520568847656,1.725022296142578,-11.179724652099608,-0.8396946564885496,0.6030534351145038,-1.2900763358778626
3842800448115,0.124798229,1,0.23822306518554687,1.7238251953125,-11.23000288696289,-0.8244274809160306,0.5572519083969466,-1.2900763358778626
3842805448011,0.129798125,1,0.22744915771484372,1.7417817077636717,-11.195286962890624,-0.8625954198473282,0.5648854961832062,-1.3129770992366412
3842810448376,0.13479849,1,0.21188684692382811,1.7357962036132812,-11.155782635498046,-0.8549618320610687,0.5038167938931297,-1.3053435114503817
3842815446397,0.139796511,1,0.21787235107421873,1.7357962036132812,-11.189301458740234,-0.8473282442748091,0.5419847328244275,-1.2748091603053435
3842820448376,0.14479849,1,0.239420166015625,1.7585411193847655,-11.179724652099608,-0.8625954198473282,0.6335877862595419,-1.3129770992366412
3842825448167,0.149798281,1,0.2214636535644531,1.7274164978027342,-11.177330450439452,-0.8473282442748091,0.6335877862595419,-1.3129770992366412
3842830448220,0.154798334,1,0.229843359375,1.7357962036132812,-11.141417425537108,-0.7938931297709924,0.6412213740458015,-1.3206106870229009
3842835446553,0.159796667,1,0.24899697265624998,1.714248388671875,-11.155782635498046,-0.8091603053435115,0.6106870229007634,-1.3435114503816794
3842840448636,0.16479875,1,0.2537853759765625,1.7465701110839842,-11.158176837158203,-0.816793893129771,0.5801526717557252,-1.3358778625954197
3842845448063,0.169798177,1,0.24899697265624998,1.7369933044433592,-11.220426080322264,-0.7557251908396947,0.5877862595419847,-1.3282442748091603
3842850448272,0.174798386,1,0.21308394775390624,1.7286135986328124,-11.182118853759764,-0.7709923664122137,0.6259541984732825,-1.3053435114503817
3842855446136,0.17979625,1,0.2657563842773437,1.7118541870117185,-11.18571015625,-0.8473282442748091,0.6641221374045801,-1.297709923664122
3842860448324,0.184798438,1,0.23343466186523437,1.734599102783203,-11.176133349609374,-0.8931297709923665,0.5648854961832062,-1.3282442748091603
3842865447855,0.189797969,1,0.23343466186523437,1.7298106994628906,-11.161768139648437,-0.8396946564885496,0.549618320610687,-1.3435114503816794
3842870448897,0.194799011,1,0.2166752502441406,1.7190367919921874,-11.173739147949219,-0.816793893129771,0.5419847328244275,-1.282442748091603
3842875446501,0.199796615,1,0.23702596435546874,1.7262193969726563,-11.202469567871093,-0.8396946564885496,0.5954198473282443,-1.3511450381679388
3842880450563,0.204800677,1,0.229843359375,1.7190367919921874,-11.218031878662108,-0.7938931297709924,0.648854961832061,-1.3511450381679388
3842885448011,0.209798125,1,0.1867477294921875,1.7322049011230467,-11.183315954589844,-0.7862595419847328,0.5877862595419847,-1.3435114503816794
3842890448324,0.214798438,1,0.23582886352539062,1.7322049011230467,-11.222820281982422,-0.7938931297709924,0.5648854961832062,-1.3206106870229009
3842895445876,0.21979599,1,0.2166752502441406,1.7298106994628906,-11.215637677001952,-0.8549618320610687,0.6793893129770993,-1.3053435114503817
3842900447803,0.224797917,1,0.21906945190429686,1.7525556152343749,-11.190498559570312,-0.8625954198473282,0.6030534351145038,-1.3282442748091603
3842905447751,0.229797865,1,0.23104046020507812,1.7657237243652342,-11.17852755126953,-0.8625954198473282,0.6030534351145038,-1.3435114503816794
3842910444001,0.234794115,1,0.2166752502441406,1.7489643127441405,-11.17852755126953,-0.8244274809160306,0.5114503816793893,-1.3129770992366412
3842915445772,0.239795886,1,0.19871873779296872,1.7381904052734374,-11.190498559570312,-0.7633587786259542,0.5190839694656488,-1.2900763358778626
3842920448115,0.244798229,1,0.2262520568847656,1.7381904052734374,-11.19887826538086,-0.7938931297709924,0.5725190839694656,-1.3358778625954197
3842925448219,0.249798333,1,0.23702596435546874,1.7357962036132812,-11.203666668701171,-0.8015267175572519,0.549618320610687,-1.2442748091603053
3842930448011,0.254798125,1,0.25139117431640623,1.7130512878417967,-11.202469567871093,-0.8396946564885496,0.5725190839694656,-1.2442748091603053
3842935446449,0.259796563,1,0.2454056701660156,1.7298106994628906,-11.19169566040039,-0.8396946564885496,0.5801526717557252,-1.282442748091603
3842940448011,0.264798125,1,0.21906945190429686,1.7286135986328124,-11.203666668701171,-0.9007633587786259,0.5572519083969466,-1.3053435114503817
3842945448532,0.269798646,1,0.1975216369628906,1.7334020019531249,-11.174936248779296,-0.8396946564885496,0.6259541984732825,-1.3129770992366412
3842950448740,0.274798854,1,0.20350714111328125,1.7477672119140624,-11.222820281982422,-0.8091603053435115,0.6183206106870229,-1.2900763358778626
3842955446032,0.279796146,1,0.23223756103515625,1.7369933044433592,-11.197681164550781,-0.8015267175572519,0.5954198473282443,-1.3511450381679388
3842960448219,0.284798333,1,0.24779987182617186,1.7298106994628906,-11.184513055419922,-0.8473282442748091,0.5648854961832062,-1.251908396946565
3842965448167,0.289798281,1,0.22266075439453123,1.744175909423828,-11.173739147949219,-0.8320610687022901,0.5190839694656488,-1.3129770992366412
3842970448532,0.294798646,1,0.23822306518554687,1.714248388671875,-11.214440576171874,-0.8015267175572519,0.5038167938931297,-1.3206106870229009
3842975445980,0.299796094,1,0.2597708801269531,1.7238251953125,-11.194089862060546,-0.8778625954198473,0.5114503816793893,-1.3358778625954197
3842980447855,0.304797969,1,0.22864625854492185,1.7178396911621092,-11.17852755126953,-0.8549618320610687,0.5725190839694656,-1.3435114503816794
3842985445928,0.309796042,1,0.2154781494140625,1.7034744812011717,-11.156979736328124,-0.8244274809160306,0.6259541984732825,-1.3511450381679388
3842990448584,0.314798698,1,0.20949264526367187,1.7010802795410156,-11.171344946289063,-0.8015267175572519,0.6259541984732825,-1.3358778625954197
3842995445980,0.319796094,1,0.23223756103515625,1.7381904052734374,-11.17852755126953,-0.732824427480916,0.6183206106870229,-1.3053435114503817
3843000448219,0.324798333,1,0.21787235107421873,1.7202338928222656,-11.176133349609374,-0.8778625954198473,0.648854961832061,-1.282442748091603
3843005448167,0.329798281,1,0.2166752502441406,1.7322049011230467,-11.221623181152344,-0.8473282442748091,0.5725190839694656,-1.282442748091603
3843010447594,0.334797708,1,0.23223756103515625,1.715445489501953,-11.171344946289063,-0.8244274809160306,0.5419847328244275,-1.282442748091603
3843015454626,0.33980474,1,0.23582886352539062,1.7298106994628906,-11.173739147949219,-0.8320610687022901,0.5419847328244275,-1.3206106870229009
3843020449574,0.344799688,1,0.24660277099609373,1.7429788085937499,-11.225214483642578,-0.8702290076335878,0.5725190839694656,-1.3282442748091603
3843025448376,0.34979849,1,0.24061726684570311,1.7274164978027342,-11.2240173828125,-0.8320610687022901,0.5572519083969466,-1.3893129770992367
3843030448063,0.354798177,1,0.21787235107421873,1.7405846069335937,-11.19887826538086,-0.8396946564885496,0.5725190839694656,-1.3282442748091603
3843035444574,0.359794688,1,0.2214636535644531,1.7381904052734374,-11.231199987792968,-0.8091603053435115,0.5954198473282443,-1.3129770992366412
3843040449626,0.36479974,1,0.22744915771484372,1.7405846069335937,-11.21084927368164,-0.9083969465648855,0.5877862595419847,-1.3206106870229009
3843045447959,0.369798073,1,0.23822306518554687,1.7334020019531249,-11.186907257080078,-0.8931297709923665,0.6183206106870229,-1.3358778625954197
3843050447803,0.374797917,1,0.24779987182617186,1.744175909423828,-11.196484063720703,-0.8091603053435115,0.6335877862595419,-1.2748091603053435
3843055445251,0.379795365,1,0.229843359375,1.7322049011230467,-11.201272467041015,-0.8625954198473282,0.5801526717557252,-1.297709923664122
3843060447594,0.384797708,1,0.22505495605468748,1.725022296142578,-11.247959399414063,-0.9007633587786259,0.5648854961832062,-1.3053435114503817
3843065448011,0.389798125,1,0.20350714111328125,1.7214309936523438,-11.209652172851563,-0.8778625954198473,0.5877862595419847,-1.3206106870229009
3843070447803,0.394797917,1,0.20231004028320312,1.7274164978027342,-11.19169566040039,-0.7938931297709924,0.5114503816793893,-1.3282442748091603
3843075446032,0.399796146,1,0.21906945190429686,1.7238251953125,-11.195286962890624,-0.8244274809160306,0.6335877862595419,-1.3282442748091603
3843080448219,0.404798333,1,0.23104046020507812,1.707065783691406,-11.190498559570312,-0.9083969465648855,0.6183206106870229,-1.297709923664122
3843085447282,0.409797396,1,0.24301146850585936,1.7094599853515624,-11.206060870361327,-0.8625954198473282,0.6412213740458015,-1.2900763358778626
3843090446969,0.414797083,1,0.23223756103515625,1.725022296142578,-11.214440576171874,-0.8320610687022901,0.6641221374045801,-1.3282442748091603
3843095445355,0.419795469,1,0.23223756103515625,1.7190367919921874,-11.182118853759764,-0.816793893129771,0.5725190839694656,-1.3435114503816794
3843100447126,0.42479724,1,0.23822306518554687,1.7262193969726563,-11.174936248779296,-0.7938931297709924,0.5419847328244275,-1.3282442748091603
3843105446917,0.429797031,1,0.2501940734863281,1.7381904052734374,-11.214440576171874,-0.7862595419847328,0.5267175572519084,-1.366412213740458
3843110448167,0.434798281,1,0.24899697265624998,1.7525556152343749,-11.170147845458983,-0.816793893129771,0.5190839694656488,-1.3053435114503817
3843115445876,0.43979599,1,0.22026655273437498,1.734599102783203,-11.154585534667968,-0.8244274809160306,0.48854961832061067,-1.2900763358778626
3843120447386,0.4447975,1,0.22266075439453123,1.7369933044433592,-11.180921752929686,-0.8702290076335878,0.5648854961832062,-1.2671755725190839
3843125447959,0.449798073,1,0.2154781494140625,1.7621324218749999,-11.17254204711914,-0.9236641221374046,0.5877862595419847,-1.3358778625954197
3843130448219,0.454798333,1,0.21188684692382811,1.7429788085937499,-11.202469567871093,-0.8854961832061069,0.5267175572519084,-1.2900763358778626
3843135445511,0.459795625,1,0.22026655273437498,1.7334020019531249,-11.17852755126953,-0.7862595419847328,0.5419847328244275,-1.3358778625954197
3843140447021,0.464797135,1,0.24899697265624998,1.714248388671875,-11.158176837158203,-0.8320610687022901,0.5801526717557252,-1.3053435114503817
3843145448115,0.469798229,1,0.22026655273437498,1.7298106994628906,-11.186907257080078,-0.8473282442748091,0.5877862595419847,-1.2595419847328244
3843150447126,0.47479724,1,0.23582886352539062,1.7393875061035156,-11.190498559570312,-0.8549618320610687,0.5954198473282443,-1.3206106870229009
3843155445042,0.479795156,1,0.23343466186523437,1.7310078002929687,-11.174936248779296,-0.8473282442748091,0.5038167938931297,-1.3282442748091603
3843160445928,0.484796042,1,0.20829554443359374,1.7262193969726563,-11.201272467041015,-0.7862595419847328,0.5954198473282443,-1.2900763358778626
3843165448271,0.489798385,1,0.21787235107421873,1.7417817077636717,-11.200075366210937,-0.8854961832061069,0.5954198473282443,-1.2748091603053435
3843170447334,0.494797448,1,0.24181436767578124,1.7322049011230467,-11.222820281982422,-0.8244274809160306,0.5801526717557252,-1.3282442748091603
3843175446240,0.499796354,1,0.22744915771484372,1.725022296142578,-11.209652172851563,-0.7862595419847328,0.6259541984732825,-1.3740458015267176
3843180447490,0.504797604,1,0.19991583862304688,1.7190367919921874,-11.18571015625,-0.8396946564885496,0.6641221374045801,-1.3129770992366412
3843185448115,0.509798229,1,0.19871873779296872,1.7238251953125,-11.225214483642578,-0.9083969465648855,0.6335877862595419,-1.3206106870229009
3843190447646,0.51479776,1,0.21906945190429686,1.7573440185546874,-11.201272467041015,-0.8015267175572519,0.6106870229007634,-1.2900763358778626
3843195445980,0.519796094,1,0.22744915771484372,1.7381904052734374,-11.194089862060546,-0.7709923664122137,0.5725190839694656,-1.3282442748091603
3843200448219,0.524798333,1,0.21308394775390624,1.70467158203125,-11.179724652099608,-0.8625954198473282,0.5572519083969466,-1.3053435114503817
3843205446813,0.529796927,1,0.19033903198242186,1.7357962036132812,-11.174936248779296,-0.8702290076335878,0.6183206106870229,-1.3129770992366412
3843210448219,0.534798333,1,0.22026655273437498,1.7322049011230467,-11.204863769531249,-0.8702290076335878,0.5725190839694656,-1.3435114503816794
3843215444938,0.539795052,1,0.20709844360351562,1.7453730102539062,-11.182118853759764,-0.8473282442748091,0.6335877862595419,-1.3282442748091603
3843220447803,0.544797917,1,0.22266075439453123,1.715445489501953,-11.225214483642578,-0.8244274809160306,0.6030534351145038,-1.3053435114503817
3843225447490,0.549797604,1,0.23582886352539062,1.7106570861816406,-11.19887826538086,-0.8702290076335878,0.6106870229007634,-1.2900763358778626
3843230447438,0.554797552,1,0.22864625854492185,1.7298106994628906,-11.173739147949219,-0.8015267175572519,0.6641221374045801,-1.3206106870229009
3843235445459,0.559795573,1,0.23343466186523437,1.7334020019531249,-11.173739147949219,-0.7938931297709924,0.6183206106870229,-1.3435114503816794
3843240448532,0.564798646,1,0.2166752502441406,1.7118541870117185,-11.206060870361327,-0.8015267175572519,0.5343511450381679,-1.3206106870229009
3843245447907,0.569798021,1,0.21428104858398436,1.7334020019531249,-11.195286962890624,-0.8625954198473282,0.6259541984732825,-1.282442748091603
3843250447230,0.574797344,1,0.20949264526367187,1.715445489501953,-11.186907257080078,-0.8931297709923665,0.648854961832061,-1.3206106870229009
3843255444782,0.579794896,1,0.20829554443359374,1.7190367919921874,-11.196484063720703,-0.7557251908396947,0.6106870229007634,-1.3435114503816794
3843260447907,0.584798021,1,0.2262520568847656,1.7202338928222656,-11.212046374511718,-0.7633587786259542,0.5419847328244275,-1.3587786259541985
3843265447490,0.589797604,1,0.2154781494140625,1.7334020019531249,-11.166556542968749,-0.8931297709923665,0.6106870229007634,-1.3435114503816794
3843270448063,0.594798177,1,0.2262520568847656,1.7489643127441405,-11.174936248779296,-0.8854961832061069,0.549618320610687,-1.3587786259541985
3843275446188,0.599796302,1,0.22505495605468748,1.7477672119140624,-11.162965240478515,-0.8244274809160306,0.5267175572519084,-1.3206106870229009
3843280447282,0.604797396,1,0.2154781494140625,1.725022296142578,-11.1474029296875,-0.8549618320610687,0.5343511450381679,-1.3053435114503817
3843285447646,0.60979776,1,0.229843359375,1.7190367919921874,-11.170147845458983,-0.8778625954198473,0.5572519083969466,-1.2671755725190839
3843290447594,0.614797708,1,0.24061726684570311,1.705868682861328,-11.204863769531249,-0.916030534351145,0.5725190839694656,-1.297709923664122
3843295453115,0.619803229,1,0.22266075439453123,1.7166425903320313,-11.194089862060546,-0.8702290076335878,0.5725190839694656,-1.3129770992366412
3843300449938,0.624800052,1,0.21188684692382811,1.7453730102539062,-11.197681164550781,-0.8015267175572519,0.5801526717557252,-1.3282442748091603
3843305448324,0.629798438,1,0.22385785522460935,1.7310078002929687,-11.165359442138671,-0.8015267175572519,0.6106870229007634,-1.3282442748091603
3843310447699,0.634797813,1,0.2262520568847656,1.734599102783203,-11.152191333007812,-0.8244274809160306,0.6106870229007634,-1.3358778625954197
3843315445407,0.639795521,1,0.21308394775390624,1.7417817077636717,-11.180921752929686,-0.816793893129771,0.5954198473282443,-1.297709923664122
3843320448011,0.644798125,1,0.20470424194335937,1.782483135986328,-11.19169566040039,-0.8015267175572519,0.5038167938931297,-1.2748091603053435
3843325447073,0.649797187,1,0.22744915771484372,1.7609353210449217,-11.2240173828125,-0.916030534351145,0.5877862595419847,-1.2900763358778626
3843330447855,0.654797969,1,0.2214636535644531,1.7298106994628906,-11.220426080322264,-0.8931297709923665,0.6412213740458015,-1.366412213740458
3843335446188,0.659796302,1,0.20949264526367187,1.7010802795410156,-11.174936248779296,-0.8396946564885496,0.5954198473282443,-1.3511450381679388
3843340447594,0.664797708,1,0.2166752502441406,1.7310078002929687,-11.176133349609374,-0.8244274809160306,0.5572519083969466,-1.297709923664122
3843345447178,0.669797292,1,0.23702596435546874,1.7417817077636717,-11.158176837158203,-0.8702290076335878,0.6030534351145038,-1.282442748091603
3843350448532,0.674798646,1,0.2442085693359375,1.7465701110839842,-11.184513055419922,-0.8549618320610687,0.6412213740458015,-1.297709923664122
3843355445823,0.679795937,1,0.2549824768066406,1.7334020019531249,-11.2240173828125,-0.816793893129771,0.5114503816793893,-1.3282442748091603
3843360447386,0.6847975,1,0.24301146850585936,1.705868682861328,-11.2240173828125,-0.7938931297709924,0.5725190839694656,-1.2900763358778626
3843365447386,0.6897975,1,0.22026655273437498,1.7022773803710936,-11.190498559570312,-0.8091603053435115,0.5648854961832062,-1.3282442748091603
3843370448115,0.694798229,1,0.23343466186523437,1.707065783691406,-11.167753643798827,-0.8396946564885496,0.5648854961832062,-1.3282442748091603
3843375445511,0.699795625,1,0.22744915771484372,1.7022773803710936,-11.183315954589844,-0.8702290076335878,0.5877862595419847,-1.3206106870229009
3843380447490,0.704797604,1,0.2346317626953125,1.7118541870117185,-11.17852755126953,-0.8091603053435115,0.5954198473282443,-1.3435114503816794
3843385447282,0.709797396,1,0.23822306518554687,1.7298106994628906,-11.201272467041015,-0.8091603053435115,0.5648854961832062,-1.3740458015267176
3843390446292,0.714796406,1,0.23582886352539062,1.7465701110839842,-11.203666668701171,-0.8473282442748091,0.5038167938931297,-1.366412213740458
3843395446709,0.719796823,1,0.22026655273437498,1.7453730102539062,-11.225214483642578,-0.8625954198473282,0.5801526717557252,-1.2900763358778626
3843400448896,0.72479901,1,0.21068974609375,1.7334020019531249,-11.21084927368164,-0.8396946564885496,0.5267175572519084,-1.2748091603053435
3843405447126,0.72979724,1,0.20231004028320312,1.7465701110839842,-11.171344946289063,-0.8549618320610687,0.6106870229007634,-1.2900763358778626
3843410445980,0.734796094,1,0.2154781494140625,1.7501614135742187,-11.174936248779296,-0.8702290076335878,0.5954198473282443,-1.282442748091603
3843415445511,0.739795625,1,0.21308394775390624,1.744175909423828,-11.21084927368164,-0.816793893129771,0.5648854961832062,-1.3053435114503817
3843420448115,0.744798229,1,0.24899697265624998,1.7202338928222656,-11.174936248779296,-0.7404580152671756,0.5725190839694656,-1.3053435114503817
3843425447073,0.749797187,1,0.24181436767578124,1.7238251953125,-11.149797131347656,-0.7633587786259542,0.648854961832061,-1.3053435114503817
3843430446709,0.754796823,1,0.23223756103515625,1.7453730102539062,-11.149797131347656,-0.8244274809160306,0.6717557251908397,-1.3206106870229009
3843435445407,0.759795521,1,0.20949264526367187,1.7501614135742187,-11.177330450439452,-0.8244274809160306,0.6946564885496184,-1.3435114503816794
3843440447334,0.764797448,1,0.21188684692382811,1.7549498168945312,-11.182118853759764,-0.7633587786259542,0.6183206106870229,-1.381679389312977
3843445447230,0.769797344,1,0.2262520568847656,1.7405846069335937,-11.2240173828125,-0.7709923664122137,0.5419847328244275,-1.297709923664122
3843450447803,0.774797917,1,0.23702596435546874,1.7322049011230467,-11.21084927368164,-0.8625954198473282,0.6335877862595419,-1.297709923664122
3843455446396,0.77979651,1,0.22744915771484372,1.7429788085937499,-11.174936248779296,-0.8396946564885496,0.5572519083969466,-1.3358778625954197
3843460448115,0.784798229,1,0.2154781494140625,1.715445489501953,-11.200075366210937,-0.7862595419847328,0.5648854961832062,-1.3511450381679388
3843465449157,0.789799271,1,0.21428104858398436,1.7094599853515624,-11.170147845458983,-0.8015267175572519,0.5572519083969466,-1.3129770992366412
3843470448063,0.794798177,1,0.20470424194335937,1.705868682861328,-11.182118853759764,-0.8549618320610687,0.6259541984732825,-1.3206106870229009
3843475444678,0.799794792,1,0.22864625854492185,1.7214309936523438,-11.176133349609374,-0.8320610687022901,0.6564885496183206,-1.297709923664122
3843480447126,0.80479724,1,0.21188684692382811,1.7357962036132812,-11.180921752929686,-0.7633587786259542,0.5954198473282443,-1.282442748091603
3843485447178,0.809797292,1,0.2059013427734375,1.7178396911621092,-11.17852755126953,-0.7786259541984732,0.5267175572519084,-1.3358778625954197
3843490447751,0.814797865,1,0.229843359375,1.7405846069335937,-11.16057103881836,-0.8244274809160306,0.6183206106870229,-1.3358778625954197
3843495445303,0.819795417,1,0.24660277099609373,1.7477672119140624,-11.184513055419922,-0.8473282442748091,0.6412213740458015,-1.3358778625954197
3843500447438,0.824797552,1,0.24061726684570311,1.7226280944824217,-11.21084927368164,-0.7862595419847328,0.5572519083969466,-1.297709923664122
3843505447646,0.82979776,1,0.21308394775390624,1.7477672119140624,-11.226411584472656,-0.7633587786259542,0.5572519083969466,-1.297709923664122
3843510447230,0.834797344,1,0.21428104858398436,1.7465701110839842,-11.195286962890624,-0.816793893129771,0.6183206106870229,-1.282442748091603
3843515445198,0.839795312,1,0.21787235107421873,1.7381904052734374,-11.213243475341796,-0.8702290076335878,0.6412213740458015,-1.3511450381679388
3843520448115,0.844798229,1,0.2346317626953125,1.7274164978027342,-11.208455072021483,-0.7862595419847328,0.5801526717557252,-1.3206106870229009
3843525448376,0.84979849,1,0.25737667846679685,1.7118541870117185,-11.207257971191405,-0.7557251908396947,0.5801526717557252,-1.3282442748091603
3843530448115,0.854798229,1,0.22385785522460935,1.687912170410156,-11.208455072021483,-0.816793893129771,0.5648854961832062,-1.3206106870229009
3843535445771,0.859795885,1,0.26695348510742184,1.7405846069335937,-11.212046374511718,-0.8549618320610687,0.5877862595419847,-1.297709923664122
3843540448636,0.86479875,1,0.22864625854492185,1.7310078002929687,-11.209652172851563,-0.7862595419847328,0.6412213740458015,-1.3282442748091603
3843545448063,0.869798177,1,0.20949264526367187,1.7357962036132812,-11.182118853759764,-0.7709923664122137,0.5648854961832062,-1.3129770992366412
3843550448428,0.874798542,1,0.2059013427734375,1.7465701110839842,-11.176133349609374,-0.8549618320610687,0.5343511450381679,-1.282442748091603
3843555446813,0.879796927,1,0.1927332336425781,1.7334020019531249,-11.188104357910156,-0.8702290076335878,0.6335877862595419,-1.297709923664122
3843560448323,0.884798437,1,0.21068974609375,1.7202338928222656,-11.202469567871093,-0.8244274809160306,0.6641221374045801,-1.3206106870229009
3843565447907,0.889798021,1,0.2059013427734375,1.725022296142578,-11.188104357910156,-0.8015267175572519,0.5648854961832062,-1.3206106870229009
3843570447907,0.894798021,1,0.22385785522460935,1.7274164978027342,-11.183315954589844,-0.8244274809160306,0.5954198473282443,-1.3435114503816794
3843575452073,0.899802187,1,0.2214636535644531,1.7334020019531249,-11.18571015625,-0.8396946564885496,0.6183206106870229,-1.3206106870229009
3843580449990,0.904800104,1,0.22385785522460935,1.7286135986328124,-11.150994232177734,-0.7709923664122137,0.5801526717557252,-1.3282442748091603
3843585449157,0.909799271,1,0.25258827514648435,1.7334020019531249,-11.180921752929686,-0.8091603053435115,0.5343511450381679,-1.3282442748091603
3843590447750,0.914797864,1,0.2561795776367187,1.7274164978027342,-11.188104357910156,-0.8473282442748091,0.5572519083969466,-1.3053435114503817
3843595446188,0.919796302,1,0.23104046020507812,1.715445489501953,-11.192892761230468,-0.8549618320610687,0.5954198473282443,-1.2748091603053435
3843600447855,0.924797969,1,0.24061726684570311,1.7190367919921874,-11.204863769531249,-0.7786259541984732,0.5801526717557252,-1.2900763358778626
3843605448011,0.929798125,1,0.229843359375,1.7166425903320313,-11.196484063720703,-0.7557251908396947,0.6183206106870229,-1.3053435114503817
3843610447959,0.934798073,1,0.22505495605468748,1.7190367919921874,-11.167753643798827,-0.8015267175572519,0.6412213740458015,-1.3587786259541985
3843615446344,0.939796458,1,0.23822306518554687,1.7621324218749999,-11.173739147949219,-0.8778625954198473,0.6641221374045801,-1.3206106870229009
3843620447125,0.944797239,1,0.23822306518554687,1.7453730102539062,-11.203666668701171,-0.8625954198473282,0.5801526717557252,-1.3129770992366412
3843625448323,0.949798437,1,0.21428104858398436,1.734599102783203,-11.221623181152344,-0.7786259541984732,0.5954198473282443,-1.297709923664122
3843630447230,0.954797344,1,0.21068974609375,1.7310078002929687,-11.19887826538086,-0.816793893129771,0.6412213740458015,-1.3282442748091603
3843635445667,0.959795781,1,0.23104046020507812,1.7405846069335937,-11.202469567871093,-0.8320610687022901,0.6335877862595419,-1.3129770992366412
3843640447907,0.964798021,1,0.20231004028320312,1.7453730102539062,-11.190498559570312,-0.8473282442748091,0.6183206106870229,-1.3206106870229009
3843645445875,0.969795989,1,0.21787235107421873,1.7525556152343749,-11.189301458740234,-0.8244274809160306,0.5877862595419847,-1.3282442748091603
3843650448480,0.974798594,1,0.22744915771484372,1.7310078002929687,-11.208455072021483,-0.816793893129771,0.5190839694656488,-1.2900763358778626
3843655445615,0.979795729,1,0.22864625854492185,1.7429788085937499,-11.182118853759764,-0.8320610687022901,0.549618320610687,-1.3129770992366412
3843660448480,0.984798594,1,0.22385785522460935,1.7310078002929687,-11.192892761230468,-0.8625954198473282,0.5648854961832062,-1.2748091603053435
3843665447490,0.989797604,1,0.21068974609375,1.715445489501953,-11.201272467041015,-0.8625954198473282,0.5801526717557252,-1.2671755725190839
3843670447646,0.99479776,1,0.23343466186523437,1.7202338928222656,-11.19887826538086,-0.9007633587786259,0.5725190839694656,-1.3358778625954197
3843675445615,0.999795729,1,0.22744915771484372,1.715445489501953,-11.19169566040039,-0.916030534351145,0.6183206106870229,-1.3053435114503817
3843680448115,1.004798229,1,0.23104046020507812,1.7238251953125,-11.195286962890624,-0.8854961832061069,0.6030534351145038,-1.2748091603053435
3843685447334,1.009797448,1,0.22864625854492185,1.7322049011230467,-11.173739147949219,-0.8702290076335878,0.5572519083969466,-1.2900763358778626
3843690447907,1.014798021,1,0.2166752502441406,1.7226280944824217,-11.183315954589844,-0.8473282442748091,0.5572519083969466,-1.3206106870229009
3843695445563,1.019795677,1,0.22505495605468748,1.7202338928222656,-11.19887826538086,-0.8396946564885496,0.5801526717557252,-1.2900763358778626
3843700447490,1.024797604,1,0.23223756103515625,1.7477672119140624,-11.182118853759764,-0.8549618320610687,0.5725190839694656,-1.2748091603053435
3843705447542,1.029797656,1,0.21787235107421873,1.7262193969726563,-11.188104357910156,-0.816793893129771,0.5190839694656488,-1.3511450381679388
3843710447594,1.034797708,1,0.21308394775390624,1.7226280944824217,-11.21683477783203,-0.8396946564885496,0.5267175572519084,-1.3893129770992367
3843715445719,1.039795833,1,0.22505495605468748,1.7549498168945312,-11.195286962890624,-0.8396946564885496,0.6717557251908397,-1.3358778625954197
3843720448532,1.044798646,1,0.21308394775390624,1.7286135986328124,-11.219228979492186,-0.8091603053435115,0.6183206106870229,-1.3511450381679388
3843725447750,1.049797864,1,0.22505495605468748,1.7477672119140624,-11.206060870361327,-0.8244274809160306,0.5877862595419847,-1.2748091603053435
3843730447907,1.054798021,1,0.23104046020507812,1.7405846069335937,-11.234791290283203,-0.8320610687022901,0.5725190839694656,-1.251908396946565
3843735445459,1.059795573,1,0.239420166015625,1.7082628845214842,-11.176133349609374,-0.8854961832061069,0.5572519083969466,-1.2671755725190839
3843740448844,1.064798958,1,0.2262520568847656,1.7405846069335937,-11.184513055419922,-0.8702290076335878,0.5954198473282443,-1.3435114503816794
3843745447750,1.069797864,1,0.23223756103515625,1.734599102783203,-11.180921752929686,-0.8015267175572519,0.5801526717557252,-1.2748091603053435
3843750447230,1.074797344,1,0.22864625854492185,1.7334020019531249,-11.182118853759764,-0.8244274809160306,0.5725190839694656,-1.2900763358778626
3843755447177,1.079797291,1,0.21787235107421873,1.714248388671875,-11.208455072021483,-0.816793893129771,0.6183206106870229,-1.381679389312977
3843760447750,1.084797864,1,0.22864625854492185,1.7369933044433592,-11.176133349609374,-0.8625954198473282,0.5954198473282443,-1.3893129770992367
3843765447907,1.089798021,1,0.22385785522460935,1.7369933044433592,-11.184513055419922,-0.8396946564885496,0.5725190839694656,-1.3358778625954197
3843770448427,1.094798541,1,0.22505495605468748,1.7106570861816406,-11.186907257080078,-0.7938931297709924,0.5725190839694656,-1.2595419847328244
3843775447646,1.09979776,1,0.24061726684570311,1.734599102783203,-11.162965240478515,-0.8473282442748091,0.5877862595419847,-1.2366412213740459
3843780448375,1.104798489,1,0.21906945190429686,1.7489643127441405,-11.176133349609374,-0.8320610687022901,0.5877862595419847,-1.2671755725190839
3843785448375,1.109798489,1,0.23822306518554687,1.7178396911621092,-11.186907257080078,-0.7633587786259542,0.5190839694656488,-1.2595419847328244
3843790448011,1.114798125,1,0.20709844360351562,1.7130512878417967,-11.219228979492186,-0.8091603053435115,0.6030534351145038,-1.3053435114503817
3843795445927,1.119796041,1,0.2214636535644531,1.7369933044433592,-11.19887826538086,-0.8320610687022901,0.5801526717557252,-1.282442748091603
3843800447594,1.124797708,1,0.2154781494140625,1.7274164978027342,-11.17254204711914,-0.8015267175572519,0.48091603053435117,-1.366412213740458
3843805448375,1.129798489,1,0.229843359375,1.715445489501953,-11.17254204711914,-0.7633587786259542,0.48091603053435117,-1.3282442748091603
3843810447698,1.134797812,1,0.2214636535644531,1.7286135986328124,-11.188104357910156,-0.7862595419847328,0.5572519083969466,-1.3282442748091603
3843815445511,1.139795625,1,0.21906945190429686,1.7226280944824217,-11.184513055419922,-0.8320610687022901,0.5648854961832062,-1.2671755725190839
3843820448167,1.144798281,1,0.24899697265624998,1.7226280944824217,-11.201272467041015,-0.8473282442748091,0.5572519083969466,-1.2900763358778626
3843825447490,1.149797604,1,0.2501940734863281,1.7202338928222656,-11.190498559570312,-0.8091603053435115,0.5114503816793893,-1.3282442748091603
3843830448167,1.154798281,1,0.2537853759765625,1.7334020019531249,-11.197681164550781,-0.7709923664122137,0.5343511450381679,-1.3206106870229009
3843835445250,1.159795364,1,0.24301146850585936,1.7166425903320313,-11.182118853759764,-0.816793893129771,0.5648854961832062,-1.3282442748091603
3843840447802,1.164797916,1,0.24181436767578124,1.7465701110839842,-11.188104357910156,-0.8320610687022901,0.6030534351145038,-1.366412213740458
3843845447855,1.169797969,1,0.24181436767578124,1.7334020019531249,-11.159373937988281,-0.8091603053435115,0.5343511450381679,-1.3511450381679388
3843850448480,1.174798594,1,0.22744915771484372,1.744175909423828,-11.168950744628905,-0.8091603053435115,0.549618320610687,-1.3282442748091603
3843855451136,1.17980125,1,0.239420166015625,1.744175909423828,-11.188104357910156,-0.8320610687022901,0.6106870229007634,-1.3511450381679388
3843860449365,1.184799479,1,0.2501940734863281,1.7226280944824217,-11.182118853759764,-0.9083969465648855,0.5801526717557252,-1.3053435114503817
3843865449105,1.189799219,1,0.258573779296875,1.7130512878417967,-11.206060870361327,-0.8244274809160306,0.5648854961832062,-1.3053435114503817
3843870447959,1.194798073,1,0.2262520568847656,1.734599102783203,-11.182118853759764,-0.7709923664122137,0.5343511450381679,-1.2900763358778626
3843875445771,1.199795885,1,0.23702596435546874,1.7274164978027342,-11.225214483642578,-0.816793893129771,0.5725190839694656,-1.3129770992366412
3843880447646,1.20479776,1,0.2262520568847656,1.7429788085937499,-11.215637677001952,-0.8854961832061069,0.5648854961832062,-1.3587786259541985
3843885448063,1.209798177,1,0.23822306518554687,1.7130512878417967,-11.19169566040039,-0.8473282442748091,0.549618320610687,-1.3893129770992367
3843890446240,1.214796354,1,0.23702596435546874,1.7357962036132812,-11.206060870361327,-0.8244274809160306,0.5877862595419847,-1.366412213740458
3843895447177,1.219797291,1,0.23343466186523437,1.7381904052734374,-11.212046374511718,-0.8473282442748091,0.6259541984732825,-1.3587786259541985
3843900446657,1.224796771,1,0.24301146850585936,1.7274164978027342,-11.212046374511718,-0.8549618320610687,0.6030534351145038,-1.3129770992366412
3843905445563,1.229795677,1,0.2154781494140625,1.7130512878417967,-11.19887826538086,-0.7786259541984732,0.5419847328244275,-1.297709923664122
3843910447490,1.234797604,1,0.20829554443359374,1.7310078002929687,-11.189301458740234,-0.732824427480916,0.6106870229007634,-1.3206106870229009
3843915446605,1.239796719,1,0.22505495605468748,1.7262193969726563,-11.162965240478515,-0.7862595419847328,0.6412213740458015,-1.3282442748091603
3843920446761,1.244796875,1,0.2059013427734375,1.7334020019531249,-11.171344946289063,-0.8549618320610687,0.5954198473282443,-1.3282442748091603
3843925447490,1.249797604,1,0.20231004028320312,1.715445489501953,-11.203666668701171,-0.9007633587786259,0.5725190839694656,-1.2442748091603053
3843930448948,1.254799062,1,0.23223756103515625,1.7322049011230467,-11.19169566040039,-0.8091603053435115,0.48854961832061067,-1.3053435114503817
3843935446865,1.259796979,1,0.21906945190429686,1.7310078002929687,-11.197681164550781,-0.8015267175572519,0.5725190839694656,-1.3587786259541985
3843940447438,1.264797552,1,0.24301146850585936,1.7357962036132812,-11.183315954589844,-0.8625954198473282,0.5419847328244275,-1.3969465648854962
3843945448323,1.269798437,1,0.2262520568847656,1.7597382202148437,-11.174936248779296,-0.8549618320610687,0.6106870229007634,-1.4045801526717556
3843950447907,1.274798021,1,0.2059013427734375,1.715445489501953,-11.179724652099608,-0.8244274809160306,0.6030534351145038,-1.3206106870229009
3843955446865,1.279796979,1,0.20470424194335937,1.734599102783203,-11.179724652099608,-0.8625954198473282,0.5801526717557252,-1.2900763358778626
3843960448427,1.284798541,1,0.20709844360351562,1.7238251953125,-11.17254204711914,-0.9083969465648855,0.5801526717557252,-1.3282442748091603
3843965447438,1.289797552,1,0.21068974609375,1.7405846069335937,-11.168950744628905,-0.9007633587786259,0.549618320610687,-1.3206106870229009
3843970447490,1.294797604,1,0.2214636535644531,1.7334020019531249,-11.156979736328124,-0.8244274809160306,0.4961832061068702,-1.282442748091603
3843975446084,1.299796198,1,0.2346317626953125,1.753752716064453,-11.177330450439452,-0.816793893129771,0.549618320610687,-1.282442748091603
3843980447282,1.304797396,1,0.23104046020507812,1.7310078002929687,-11.213243475341796,-0.8931297709923665,0.5725190839694656,-1.282442748091603
3843985447646,1.30979776,1,0.2166752502441406,1.7369933044433592,-11.182118853759764,-0.8015267175572519,0.5877862595419847,-1.3053435114503817
3843990447959,1.314798073,1,0.23104046020507812,1.7226280944824217,-11.202469567871093,-0.7938931297709924,0.6106870229007634,-1.2748091603053435
3843995446865,1.319796979,1,0.2262520568847656,1.7262193969726563,-11.194089862060546,-0.8015267175572519,0.6030534351145038,-1.282442748091603
3844000712021,1.325062135,1,0.22385785522460935,1.7238251953125,-11.03846675415039,-0.816793893129771,0.5725190839694656,-1.3282442748091603
3844005469573,1.329819687,1,0.23702596435546874,1.7369933044433592,-11.19169566040039,-0.7786259541984732,0.5725190839694656,-1.3587786259541985
3844010458584,1.334808698,1,0.23702596435546874,1.7274164978027342,-11.17852755126953,-0.7786259541984732,0.5648854961832062,-1.3282442748091603
3844015446552,1.339796666,1,0.23702596435546874,1.7226280944824217,-11.188104357910156,-0.8015267175572519,0.6030534351145038,-1.3435114503816794
3844020449417,1.344799531,1,0.2166752502441406,1.7357962036132812,-11.225214483642578,-0.816793893129771,0.5725190839694656,-1.297709923664122
3844025447802,1.349797916,1,0.2154781494140625,1.7381904052734374,-11.201272467041015,-0.8091603053435115,0.5419847328244275,-1.2748091603053435
3844030447854,1.354797968,1,0.2214636535644531,1.7513585144042967,-11.177330450439452,-0.816793893129771,0.5343511450381679,-1.3358778625954197
3844035446657,1.359796771,1,0.24061726684570311,1.7405846069335937,-11.182118853759764,-0.8396946564885496,0.5419847328244275,-1.3435114503816794
3844040447802,1.364797916,1,0.24301146850585936,1.7369933044433592,-11.17852755126953,-0.8396946564885496,0.5572519083969466,-1.282442748091603
3844045448375,1.369798489,1,0.2214636535644531,1.7501614135742187,-11.174936248779296,-0.8015267175572519,0.549618320610687,-1.3053435114503817
3844050447490,1.374797604,1,0.24061726684570311,1.7357962036132812,-11.179724652099608,-0.816793893129771,0.5648854961832062,-1.3511450381679388
3844055446344,1.379796458,1,0.24779987182617186,1.7310078002929687,-11.173739147949219,-0.8625954198473282,0.5648854961832062,-1.297709923664122
3844060449104,1.384799218,1,0.23702596435546874,1.7298106994628906,-11.174936248779296,-0.8549618320610687,0.549618320610687,-1.2595419847328244
3844065447959,1.389798073,1,0.21428104858398436,1.7405846069335937,-11.167753643798827,-0.816793893129771,0.549618320610687,-1.2900763358778626
3844070448167,1.394798281,1,0.19393033447265623,1.7334020019531249,-11.197681164550781,-0.8015267175572519,0.5190839694656488,-1.297709923664122
3844075446657,1.399796771,1,0.18914193115234373,1.7417817077636717,-11.208455072021483,-0.8702290076335878,0.5190839694656488,-1.3129770992366412
3844080449469,1.404799583,1,0.22864625854492185,1.7226280944824217,-11.204863769531249,-0.8473282442748091,0.6030534351145038,-1.282442748091603
3844085449365,1.409799479,1,0.2059013427734375,1.7190367919921874,-11.19169566040039,-0.8549618320610687,0.5725190839694656,-1.3129770992366412
3844090448011,1.414798125,1,0.2154781494140625,1.7190367919921874,-11.202469567871093,-0.7862595419847328,0.5648854961832062,-1.2900763358778626
3844095445615,1.419795729,1,0.20709844360351562,1.7238251953125,-11.183315954589844,-0.8320610687022901,0.6335877862595419,-1.3206106870229009
3844100447854,1.424797968,1,0.22505495605468748,1.7334020019531249,-11.174936248779296,-0.9007633587786259,0.6335877862595419,-1.3206106870229009
3844105448115,1.429798229,1,0.23582886352539062,1.7369933044433592,-11.177330450439452,-0.8854961832061069,0.5954198473282443,-1.3206106870229009
3844110448479,1.434798593,1,0.2214636535644531,1.734599102783203,-11.176133349609374,-0.8396946564885496,0.5648854961832062,-1.2900763358778626
3844115446292,1.439796406,1,0.23702596435546874,1.7274164978027342,-11.194089862060546,-0.9083969465648855,0.6183206106870229,-1.2900763358778626
3844120448115,1.444798229,1,0.23223756103515625,1.7214309936523438,-11.227608685302734,-0.9083969465648855,0.6183206106870229,-1.3282442748091603
3844125448792,1.449798906,1,0.24061726684570311,1.7525556152343749,-11.168950744628905,-0.8015267175572519,0.6183206106870229,-1.3587786259541985
3844130449000,1.454799114,1,0.21906945190429686,1.7597382202148437,-11.220426080322264,-0.7557251908396947,0.549618320610687,-1.3282442748091603
3844135451396,1.45980151,1,0.2166752502441406,1.7393875061035156,-11.219228979492186,-0.816793893129771,0.5419847328244275,-1.3740458015267176
3844140451657,1.464801771,1,0.21906945190429686,1.7298106994628906,-11.209652172851563,-0.8549618320610687,0.6106870229007634,-1.3206106870229009
3844145449782,1.469799896,1,0.239420166015625,1.707065783691406,-11.212046374511718,-0.8091603053435115,0.549618320610687,-1.282442748091603
3844150448271,1.474798385,1,0.23582886352539062,1.7501614135742187,-11.203666668701171,-0.8320610687022901,0.5572519083969466,-1.2671755725190839
3844155446813,1.479796927,1,0.22744915771484372,1.7334020019531249,-11.196484063720703,-0.8778625954198473,0.5801526717557252,-1.3435114503816794
3844160448792,1.484798906,1,0.2214636535644531,1.7393875061035156,-11.197681164550781,-0.8549618320610687,0.5954198473282443,-1.3129770992366412
3844165449052,1.489799166,1,0.22505495605468748,1.744175909423828,-11.226411584472656,-0.8702290076335878,0.5877862595419847,-1.3129770992366412
3844170448271,1.494798385,1,0.21787235107421873,1.7310078002929687,-11.227608685302734,-0.8015267175572519,0.5725190839694656,-1.3435114503816794
3844175446136,1.49979625,1,0.22864625854492185,1.7369933044433592,-11.196484063720703,-0.8244274809160306,0.5648854961832062,-1.2900763358778626
3844180447698,1.504797812,1,0.23822306518554687,1.7393875061035156,-11.16057103881836,-0.8473282442748091,0.6259541984732825,-1.3206106870229009
3844185447959,1.509798073,1,0.21308394775390624,1.7190367919921874,-11.184513055419922,-0.8778625954198473,0.6259541984732825,-1.3129770992366412
3844190448636,1.51479875,1,0.20231004028320312,1.7190367919921874,-11.194089862060546,-0.8473282442748091,0.6183206106870229,-1.3129770992366412
3844195446448,1.519796562,1,0.22266075439453123,1.7214309936523438,-11.190498559570312,-0.8244274809160306,0.5419847328244275,-1.3053435114503817
3844200448479,1.524798593,1,0.23702596435546874,1.7381904052734374,-11.189301458740234,-0.8702290076335878,0.5572519083969466,-1.3206106870229009
3844205447542,1.529797656,1,0.22026655273437498,1.707065783691406,-11.194089862060546,-0.8549618320610687,0.549618320610687,-1.3969465648854962
3844210448375,1.534798489,1,0.21308394775390624,1.7082628845214842,-11.168950744628905,-0.8549618320610687,0.6030534351145038,-1.3435114503816794
3844215446084,1.539796198,1,0.22864625854492185,1.7118541870117185,-11.19887826538086,-0.8625954198473282,0.6106870229007634,-1.3740458015267176
3844220447959,1.544798073,1,0.23582886352539062,1.7202338928222656,-11.189301458740234,-0.8625954198473282,0.6259541984732825,-1.3740458015267176
3844225448636,1.54979875,1,0.2705447875976562,1.7310078002929687,-11.168950744628905,-0.8549618320610687,0.6183206106870229,-1.3282442748091603
3844230448375,1.554798489,1,0.23343466186523437,1.7298106994628906,-11.21683477783203,-0.7480916030534351,0.5801526717557252,-1.3435114503816794
3844235447125,1.559797239,1,0.24660277099609373,1.7310078002929687,-11.212046374511718,-0.8015267175572519,0.5419847328244275,-1.3435114503816794
3844240448531,1.564798645,1,0.2166752502441406,1.715445489501953,-11.190498559570312,-0.9236641221374046,0.5648854961832062,-1.3053435114503817
3844245448323,1.569798437,1,0.21068974609375,1.7549498168945312,-11.195286962890624,-0.8854961832061069,0.5801526717557252,-1.251908396946565
3844250448167,1.574798281,1,0.22266075439453123,1.7645266235351562,-11.18571015625,-0.8015267175572519,0.5572519083969466,-1.2290076335877862
3844255447177,1.579797291,1,0.21787235107421873,1.7298106994628906,-11.195286962890624,-0.8473282442748091,0.5725190839694656,-1.2442748091603053
3844260448427,1.584798541,1,0.2214636535644531,1.714248388671875,-11.201272467041015,-0.916030534351145,0.549618320610687,-1.3206106870229009
3844265448063,1.589798177,1,0.2346317626953125,1.7310078002929687,-11.19887826538086,-0.8931297709923665,0.5725190839694656,-1.366412213740458
3844270447594,1.594797708,1,0.22385785522460935,1.725022296142578,-11.186907257080078,-0.7862595419847328,0.5038167938931297,-1.3435114503816794
3844275447125,1.599797239,1,0.24061726684570311,1.715445489501953,-11.182118853759764,-0.8015267175572519,0.5190839694656488,-1.3053435114503817
3844280448740,1.604798854,1,0.21068974609375,1.7334020019531249,-11.17852755126953,-0.8396946564885496,0.5877862595419847,-1.282442748091603
3844285447542,1.609797656,1,0.21428104858398436,1.7334020019531249,-11.226411584472656,-0.8320610687022901,0.648854961832061,-1.381679389312977
3844290448375,1.614798489,1,0.21308394775390624,1.7322049011230467,-11.200075366210937,-0.7557251908396947,0.6259541984732825,-1.3587786259541985
3844295446031,1.619796145,1,0.229843359375,1.7561469177246092,-11.164162341308593,-0.7557251908396947,0.5572519083969466,-1.3206106870229009
3844300448584,1.624798698,1,0.22385785522460935,1.7130512878417967,-11.186907257080078,-0.7938931297709924,0.5648854961832062,-1.297709923664122
3844305449625,1.629799739,1,0.20829554443359374,1.7334020019531249,-11.174936248779296,-0.816793893129771,0.5954198473282443,-1.3129770992366412
3844310447646,1.63479776,1,0.23223756103515625,1.7298106994628906,-11.164162341308593,-0.8015267175572519,0.6106870229007634,-1.3053435114503817
3844315446917,1.639797031,1,0.23822306518554687,1.744175909423828,-11.204863769531249,-0.8396946564885496,0.5190839694656488,-1.3358778625954197
3844320447959,1.644798073,1,0.229843359375,1.7417817077636717,-11.336544860839844,-0.9236641221374046,0.5190839694656488,-1.2900763358778626
3844325448375,1.649798489,1,0.2166752502441406,1.7286135986328124,-11.049240661621093,-0.8625954198473282,0.5725190839694656,-1.297709923664122
3844330448219,1.654798333,1,0.22026655273437498,1.725022296142578,-11.21084927368164,-0.7938931297709924,0.5267175572519084,-1.3587786259541985
3844335446031,1.659796145,1,0.23104046020507812,1.7274164978027342,-11.336544860839844,-0.8091603053435115,0.5190839694656488,-1.3511450381679388
3844340449000,1.664799114,1,0.229843359375,1.7298106994628906,-11.042058056640624,-0.9083969465648855,0.5038167938931297,-1.3053435114503817
3844345448011,1.669798125,1,0.22864625854492185,1.70467158203125,-11.221623181152344,-0.8931297709923665,0.6030534351145038,-1.3129770992366412
3844350448792,1.674798906,1,0.2346317626953125,1.7262193969726563,-11.234791290283203,-0.816793893129771,0.6106870229007634,-1.297709923664122
3844355446500,1.679796614,1,0.239420166015625,1.7202338928222656,-11.21683477783203,-0.7480916030534351,0.6030534351145038,-1.3206106870229009
3844360448584,1.684798698,1,0.24660277099609373,1.7262193969726563,-11.194089862060546,-0.8702290076335878,0.5648854961832062,-1.3129770992366412
3844365448531,1.689798645,1,0.24660277099609373,1.7298106994628906,-11.33175645751953,-0.8702290076335878,0.5572519083969466,-1.3053435114503817
3844370448896,1.69479901,1,0.25258827514648435,1.7226280944824217,-11.055226165771483,-0.8396946564885496,0.5801526717557252,-1.3206106870229009
3844375446188,1.699796302,1,0.24061726684570311,1.7453730102539062,-11.202469567871093,-0.7938931297709924,0.48091603053435117,-1.3206106870229009
3844380448271,1.704798385,1,0.201112939453125,1.7262193969726563,-11.21683477783203,-0.8244274809160306,0.5114503816793893,-1.2900763358778626
3844385446709,1.709796823,1,0.22744915771484372,1.7417817077636717,-11.233594189453123,-0.8473282442748091,0.5419847328244275,-1.2748091603053435
3844390448479,1.714798593,1,0.23582886352539062,1.7190367919921874,-11.208455072021483,-0.7709923664122137,0.648854961832061,-1.297709923664122
3844395446084,1.719796198,1,0.22864625854492185,1.715445489501953,-11.208455072021483,-0.7480916030534351,0.5725190839694656,-1.2900763358778626
3844400446917,1.724797031,1,0.2537853759765625,1.7130512878417967,-11.328165155029296,-0.7709923664122137,0.5877862595419847,-1.282442748091603
3844405448844,1.729798958,1,0.23822306518554687,1.7429788085937499,-11.05762036743164,-0.8396946564885496,0.5725190839694656,-1.366412213740458
3844410448688,1.734798802,1,0.23343466186523437,1.714248388671875,-11.326968054199218,-0.8320610687022901,0.6335877862595419,-1.4274809160305344
3844415452438,1.739802552,1,0.24301146850585936,1.7369933044433592,-11.182118853759764,-0.7633587786259542,0.6717557251908397,-1.381679389312977
3844420451083,1.744801197,1,0.21787235107421873,1.7130512878417967,-11.036072552490234,-0.8244274809160306,0.549618320610687,-1.282442748091603
3844425448219,1.749798333,1,0.23223756103515625,1.7130512878417967,-11.189301458740234,-0.9618320610687023,0.6030534351145038,-1.2900763358778626
3844430448844,1.754798958,1,0.23343466186523437,1.7465701110839842,-11.33175645751953,-0.8625954198473282,0.5954198473282443,-1.3511450381679388
3844435445615,1.759795729,1,0.23104046020507812,1.7334020019531249,-11.03846675415039,-0.7557251908396947,0.549618320610687,-1.3053435114503817
3844440447750,1.764797864,1,0.2166752502441406,1.7130512878417967,-11.201272467041015,-0.7480916030534351,0.5267175572519084,-1.3129770992366412
3844445447698,1.769797812,1,0.20829554443359374,1.6843208679199217,-11.322179650878905,-0.8320610687022901,0.549618320610687,-1.3435114503816794
3844450447854,1.774797968,1,0.21308394775390624,1.7262193969726563,-11.201272467041015,-0.8473282442748091,0.6183206106870229,-1.3053435114503817
3844455446708,1.779796822,1,0.20709844360351562,1.7238251953125,-11.179724652099608,-0.7862595419847328,0.5267175572519084,-1.3435114503816794
3844460448375,1.784798489,1,0.23343466186523437,1.7310078002929687,-11.196484063720703,-0.816793893129771,0.48091603053435117,-1.3129770992366412
3844465449938,1.789800052,1,0.22266075439453123,1.7286135986328124,-11.179724652099608,-0.8473282442748091,0.5877862595419847,-1.2900763358778626
3844470449729,1.794799843,1,0.239420166015625,1.7274164978027342,-11.161768139648437,-0.8854961832061069,0.6106870229007634,-1.2671755725190839
3844475446500,1.799796614,1,0.24301146850585936,1.7106570861816406,-11.194089862060546,-0.8702290076335878,0.5954198473282443,-1.3740458015267176
3844480448688,1.804798802,1,0.23343466186523437,1.7214309936523438,-11.201272467041015,-0.8473282442748091,0.5877862595419847,-1.381679389312977
3844485448167,1.809798281,1,0.24061726684570311,1.7429788085937499,-11.195286962890624,-0.8320610687022901,0.6030534351145038,-1.3206106870229009
3844490447750,1.814797864,1,0.21787235107421873,1.7322049011230467,-11.17852755126953,-0.8778625954198473,0.6641221374045801,-1.3206106870229009
3844495447021,1.819797135,1,0.2154781494140625,1.7298106994628906,-11.197681164550781,-0.8396946564885496,0.6183206106870229,-1.3435114503816794
3844500448271,1.824798385,1,0.2166752502441406,1.7334020019531249,-11.220426080322264,-0.7938931297709924,0.5725190839694656,-1.3206106870229009
3844505447958,1.829798072,1,0.21068974609375,1.7118541870117185,-11.197681164550781,-0.8549618320610687,0.5877862595419847,-1.3435114503816794
3844510448375,1.834798489,1,0.18914193115234373,1.7417817077636717,-11.215637677001952,-0.9007633587786259,0.5572519083969466,-1.366412213740458
3844515446396,1.83979651,1,0.19153613281249998,1.7549498168945312,-11.231199987792968,-0.8473282442748091,0.4961832061068702,-1.3587786259541985
3844520447438,1.844797552,1,0.22505495605468748,1.734599102783203,-11.194089862060546,-0.8091603053435115,0.5419847328244275,-1.2900763358778626
3844525448011,1.849798125,1,0.2346317626953125,1.7453730102539062,-11.207257971191405,-0.9236641221374046,0.5801526717557252,-1.3129770992366412
3844530449156,1.85479927,1,0.25139117431640623,1.7226280944824217,-11.218031878662108,-0.916030534351145,0.6412213740458015,-1.2900763358778626
3844535447073,1.859797187,1,0.24779987182617186,1.7310078002929687,-11.212046374511718,-0.816793893129771,0.6412213740458015,-1.2671755725190839
3844540448636,1.86479875,1,0.2346317626953125,1.7513585144042967,-11.219228979492186,-0.7862595419847328,0.5877862595419847,-1.2595419847328244
3844545448479,1.869798593,1,0.19632453613281248,1.7393875061035156,-11.208455072021483,-0.8549618320610687,0.6259541984732825,-1.2671755725190839
3844550448167,1.874798281,1,0.22385785522460935,1.7381904052734374,-11.208455072021483,-0.8854961832061069,0.6183206106870229,-1.2900763358778626
3844555446708,1.879796822,1,0.22026655273437498,1.7286135986328124,-11.188104357910156,-0.8396946564885496,0.5343511450381679,-1.2671755725190839
3844560449833,1.884799947,1,0.21428104858398436,1.744175909423828,-11.174936248779296,-0.8320610687022901,0.5114503816793893,-1.213740458015267
3844565448115,1.889798229,1,0.20829554443359374,1.7465701110839842,-11.222820281982422,-0.8396946564885496,0.5801526717557252,-1.2366412213740459
3844570448011,1.894798125,1,0.24301146850585936,1.763329522705078,-11.209652172851563,-0.8320610687022901,0.6259541984732825,-1.282442748091603
3844575445875,1.899795989,1,0.20829554443359374,1.7393875061035156,-11.189301458740234,-0.8244274809160306,0.5419847328244275,-1.2595419847328244
3844580448219,1.904798333,1,0.23702596435546874,1.725022296142578,-11.209652172851563,-0.7404580152671756,0.5419847328244275,-1.2290076335877862
3844585447854,1.909797968,1,0.2154781494140625,1.7226280944824217,-11.195286962890624,-0.7709923664122137,0.5648854961832062,-1.282442748091603
3844590447906,1.91479802,1,0.20231004028320312,1.734599102783203,-11.206060870361327,-0.8549618320610687,0.5954198473282443,-1.366412213740458
3844595447333,1.919797447,1,0.22026655273437498,1.7405846069335937,-11.218031878662108,-0.7786259541984732,0.5648854961832062,-1.3206106870229009
3844600448271,1.924798385,1,0.23582886352539062,1.7597382202148437,-11.213243475341796,-0.8091603053435115,0.5114503816793893,-1.3129770992366412
3844605449052,1.929799166,1,0.25139117431640623,1.7369933044433592,-11.246762298583985,-0.8702290076335878,0.549618320610687,-1.3435114503816794
3844610448531,1.934798645,1,0.20709844360351562,1.7381904052734374,-11.228805786132812,-0.9389312977099237,0.6106870229007634,-1.381679389312977
3844615446136,1.93979625,1,0.22744915771484372,1.7393875061035156,-11.21683477783203,-0.8854961832061069,0.648854961832061,-1.3435114503816794
3844620448375,1.944798489,1,0.21906945190429686,1.7501614135742187,-11.208455072021483,-0.7709923664122137,0.5801526717557252,-1.2671755725190839
3844625448948,1.949799062,1,0.21787235107421873,1.7417817077636717,-11.186907257080078,-0.7786259541984732,0.5419847328244275,-1.3206106870229009
3844630448844,1.954798958,1,0.22385785522460935,1.7214309936523438,-11.21084927368164,-0.8473282442748091,0.5648854961832062,-1.3740458015267176
3844635443635,1.959793749,1,0.2166752502441406,1.7453730102539062,-11.152191333007812,-0.8702290076335878,0.6106870229007634,-1.3511450381679388
3844640449417,1.964799531,1,0.23104046020507812,1.744175909423828,-11.161768139648437,-0.7862595419847328,0.5343511450381679,-1.3053435114503817
3844645448792,1.969798906,1,0.23582886352539062,1.7357962036132812,-11.177330450439452,-0.8778625954198473,0.5114503816793893,-1.3206106870229009
3844650446813,1.974796927,1,0.2154781494140625,1.707065783691406,-11.182118853759764,-0.9007633587786259,0.6106870229007634,-1.3282442748091603
3844655446969,1.979797083,1,0.229843359375,1.7202338928222656,-11.186907257080078,-0.8702290076335878,0.6183206106870229,-1.3358778625954197
3844660449365,1.984799479,1,0.2214636535644531,1.7489643127441405,-11.228805786132812,-0.8244274809160306,0.6183206106870229,-1.3053435114503817
3844665447958,1.989798072,1,0.20949264526367187,1.734599102783203,-11.221623181152344,-0.8396946564885496,0.5877862595419847,-1.3282442748091603
3844670447177,1.994797291,1,0.2262520568847656,1.7310078002929687,-11.176133349609374,-0.8244274809160306,0.5877862595419847,-1.3053435114503817
3844675447646,1.99979776,1,0.24061726684570311,1.7489643127441405,-11.19169566040039,-0.7786259541984732,0.5648854961832062,-1.3358778625954197
3844680447906,2.00479802,1,0.21068974609375,1.7166425903320313,-11.19887826538086,-0.732824427480916,0.5267175572519084,-1.3206106870229009
3844685448479,2.009798593,1,0.1927332336425781,1.7501614135742187,-11.197681164550781,-0.7709923664122137,0.5114503816793893,-1.2671755725190839
3844690448271,2.014798385,1,0.2166752502441406,1.7381904052734374,-11.19169566040039,-0.916030534351145,0.5038167938931297,-1.3053435114503817
3844695451031,2.019801145,1,0.21068974609375,1.744175909423828,-11.207257971191405,-0.8702290076335878,0.5801526717557252,-1.297709923664122
3844700450510,2.024800624,1,0.22505495605468748,1.7417817077636717,-11.164162341308593,-0.8320610687022901,0.5725190839694656,-1.3358778625954197
3844705448792,2.029798906,1,0.239420166015625,1.7369933044433592,-11.200075366210937,-0.7938931297709924,0.5038167938931297,-1.3435114503816794
3844710448375,2.034798489,1,0.229843359375,1.7298106994628906,-11.206060870361327,-0.8931297709923665,0.5572519083969466,-1.3435114503816794
3844715446865,2.039796979,1,0.22744915771484372,1.7334020019531249,-11.202469567871093,-0.8625954198473282,0.6030534351145038,-1.3053435114503817
3844720449104,2.044799218,1,0.23822306518554687,1.715445489501953,-11.196484063720703,-0.7786259541984732,0.6335877862595419,-1.2671755725190839
3844725447854,2.049797968,1,0.25258827514648435,1.7334020019531249,-11.194089862060546,-0.7251908396946565,0.5725190839694656,-1.2900763358778626
3844730446292,2.054796406,1,0.22266075439453123,1.7513585144042967,-11.212046374511718,-0.816793893129771,0.5725190839694656,-1.2748091603053435
3844735451031,2.059801145,1,0.1975216369628906,1.7369933044433592,-11.214440576171874,-0.8473282442748091,0.6183206106870229,-1.2900763358778626
3844740449938,2.064800052,1,0.22744915771484372,1.7334020019531249,-11.201272467041015,-0.8091603053435115,0.5725190839694656,-1.2748091603053435
3844745447542,2.069797656,1,0.23223756103515625,1.715445489501953,-11.168950744628905,-0.8015267175572519,0.5877862595419847,-1.297709923664122
3844750448010,2.074798124,1,0.229843359375,1.7214309936523438,-11.209652172851563,-0.8854961832061069,0.6259541984732825,-1.3053435114503817
3844755446448,2.079796562,1,0.21068974609375,1.7226280944824217,-11.186907257080078,-0.8625954198473282,0.6564885496183206,-1.2671755725190839
3844760447542,2.084797656,1,0.23104046020507812,1.7262193969726563,-11.213243475341796,-0.8244274809160306,0.5801526717557252,-1.2900763358778626
3844765447542,2.089797656,1,0.22385785522460935,1.7322049011230467,-11.195286962890624,-0.8778625954198473,0.5343511450381679,-1.3587786259541985
3844770448896,2.09479901,1,0.2214636535644531,1.7549498168945312,-11.194089862060546,-0.9312977099236641,0.5801526717557252,-1.3206106870229009
3844775446344,2.099796458,1,0.22864625854492185,1.7800889343261719,-11.18571015625,-0.8625954198473282,0.5725190839694656,-1.3893129770992367
3844780448531,2.104798645,1,0.22744915771484372,1.7369933044433592,-11.228805786132812,-0.7175572519083969,0.5343511450381679,-1.3511450381679388
3844785449417,2.109799531,1,0.22385785522460935,1.7357962036132812,-11.188104357910156,-0.7557251908396947,0.5801526717557252,-1.297709923664122
3844790448323,2.114798437,1,0.2262520568847656,1.7286135986328124,-11.171344946289063,-0.8320610687022901,0.6717557251908397,-1.3129770992366412
3844795446708,2.119796822,1,0.2166752502441406,1.7238251953125,-11.173739147949219,-0.8931297709923665,0.6717557251908397,-1.3129770992366412
3844800449000,2.124799114,1,0.23104046020507812,1.7238251953125,-11.21084927368164,-0.8473282442748091,0.5725190839694656,-1.2595419847328244
3844805447854,2.129797968,1,0.22505495605468748,1.7262193969726563,-11.19169566040039,-0.7633587786259542,0.549618320610687,-1.2595419847328244
3844810448167,2.134798281,1,0.20829554443359374,1.7549498168945312,-11.165359442138671,-0.8702290076335878,0.6030534351145038,-1.297709923664122
3844815446708,2.139796822,1,0.1975216369628906,1.7405846069335937,-11.168950744628905,-0.916030534351145,0.5954198473282443,-1.3511450381679388
3844820449521,2.144799635,1,0.18914193115234373,1.7489643127441405,-11.176133349609374,-0.8320610687022901,0.6030534351145038,-1.3206106870229009
3844825448219,2.149798333,1,0.2214636535644531,1.7381904052734374,-11.194089862060546,-0.7480916030534351,0.5572519083969466,-1.297709923664122
3844830447438,2.154797552,1,0.22864625854492185,1.744175909423828,-11.220426080322264,-0.8931297709923665,0.5572519083969466,-1.282442748091603
3844835446656,2.15979677,1,0.23104046020507812,1.7298106994628906,-11.218031878662108,-0.9083969465648855,0.5954198473282443,-1.3129770992366412
3844840448948,2.164799062,1,0.2454056701660156,1.7166425903320313,-11.17852755126953,-0.8625954198473282,0.6335877862595419,-1.282442748091603
3844845447906,2.16979802,1,0.229843359375,1.7130512878417967,-11.159373937988281,-0.8015267175572519,0.5572519083969466,-1.2595419847328244
3844850448740,2.174798854,1,0.24779987182617186,1.7214309936523438,-11.190498559570312,-0.8015267175572519,0.5801526717557252,-1.282442748091603
3844855446240,2.179796354,1,0.2501940734863281,1.7274164978027342,-11.19887826538086,-0.7938931297709924,0.5572519083969466,-1.3511450381679388
3844860448167,2.184798281,1,0.22744915771484372,1.7202338928222656,-11.218031878662108,-0.7786259541984732,0.6183206106870229,-1.3358778625954197
3844865448219,2.189798333,1,0.2154781494140625,1.7525556152343749,-11.180921752929686,-0.8091603053435115,0.6564885496183206,-1.3206106870229009
3844870448167,2.194798281,1,0.2262520568847656,1.7477672119140624,-11.19169566040039,-0.8473282442748091,0.6106870229007634,-1.2900763358778626
3844875446083,2.199796197,1,0.21428104858398436,1.7369933044433592,-11.190498559570312,-0.8931297709923665,0.549618320610687,-1.3282442748091603
3844880448948,2.204799062,1,0.23582886352539062,1.7357962036132812,-11.186907257080078,-0.7709923664122137,0.6259541984732825,-1.3282442748091603
3844885449000,2.209799114,1,0.229843359375,1.7357962036132812,-11.174936248779296,-0.7557251908396947,0.5877862595419847,-1.3206106870229009
3844890447594,2.214797708,1,0.24181436767578124,1.7322049011230467,-11.190498559570312,-0.8015267175572519,0.5801526717557252,-1.282442748091603
3844895445771,2.219795885,1,0.22385785522460935,1.7178396911621092,-11.158176837158203,-0.9007633587786259,0.5877862595419847,-1.3053435114503817
3844900450771,2.224800885,1,0.1975216369628906,1.7310078002929687,-11.201272467041015,-0.8015267175572519,0.5877862595419847,-1.3587786259541985
3844905448323,2.229798437,1,0.21428104858398436,1.7190367919921874,-11.207257971191405,-0.7633587786259542,0.5419847328244275,-1.2900763358778626
3844910447802,2.234797916,1,0.27293898925781246,1.7226280944824217,-11.192892761230468,-0.7557251908396947,0.549618320610687,-1.2900763358778626
3844915446812,2.239796926,1,0.2645592834472656,1.7190367919921874,-11.215637677001952,-0.8244274809160306,0.6183206106870229,-1.3206106870229009
3844920447542,2.244797656,1,0.23104046020507812,1.7405846069335937,-11.21084927368164,-0.8473282442748091,0.5648854961832062,-1.3206106870229009
3844925446969,2.249797083,1,0.21308394775390624,1.7429788085937499,-11.200075366210937,-0.8778625954198473,0.5648854961832062,-1.3511450381679388
3844930449260,2.254799374,1,0.22744915771484372,1.7573440185546874,-11.170147845458983,-0.8091603053435115,0.5954198473282443,-1.3358778625954197
3844935446292,2.259796406,1,0.20829554443359374,1.7214309936523438,-11.168950744628905,-0.8549618320610687,0.6412213740458015,-1.2900763358778626
3844940447750,2.264797864,1,0.21906945190429686,1.7597382202148437,-11.182118853759764,-0.8244274809160306,0.6183206106870229,-1.297709923664122
3844945448792,2.269798906,1,0.22266075439453123,1.7166425903320313,-11.17852755126953,-0.7862595419847328,0.5572519083969466,-1.3206106870229009
3844950448219,2.274798333,1,0.20231004028320312,1.7298106994628906,-11.168950744628905,-0.816793893129771,0.5114503816793893,-1.2595419847328244
3844955444156,2.27979427,1,0.19871873779296872,1.7393875061035156,-11.179724652099608,-0.8778625954198473,0.5343511450381679,-1.3053435114503817
3844960449104,2.284799218,1,0.22864625854492185,1.7489643127441405,-11.176133349609374,-0.8625954198473282,0.5343511450381679,-1.3358778625954197
3844965448948,2.289799062,1,0.19153613281249998,1.7405846069335937,-11.145008728027342,-0.8549618320610687,0.549618320610687,-1.3511450381679388
3844970449417,2.294799531,1,0.22505495605468748,1.725022296142578,-11.2240173828125,-0.8320610687022901,0.5572519083969466,-1.2595419847328244
3844975447802,2.299797916,1,0.20949264526367187,1.7417817077636717,-11.173739147949219,-0.8320610687022901,0.5877862595419847,-1.3053435114503817
3844980449104,2.304799218,1,0.22744915771484372,1.753752716064453,-11.213243475341796,-0.8396946564885496,0.6412213740458015,-1.2671755725190839
3844985447698,2.309797812,1,0.22864625854492185,1.7214309936523438,-11.21084927368164,-0.7175572519083969,0.5954198473282443,-1.2900763358778626
3844990447802,2.314797916,1,0.21308394775390624,1.7405846069335937,-11.222820281982422,-0.7404580152671756,0.5725190839694656,-1.3129770992366412
3844995445667,2.319795781,1,0.1927332336425781,1.7106570861816406,-11.171344946289063,-0.8320610687022901,0.5267175572519084,-1.3282442748091603
3845000447802,2.324797916,1,0.22266075439453123,1.734599102783203,-11.197681164550781,-0.8854961832061069,0.6030534351145038,-1.3129770992366412
3845005447958,2.329798072,1,0.21068974609375,1.7501614135742187,-11.194089862060546,-0.8244274809160306,0.5954198473282443,-1.3587786259541985
3845010448792,2.334798906,1,0.2262520568847656,1.7118541870117185,-11.189301458740234,-0.816793893129771,0.5190839694656488,-1.381679389312977
3845015446187,2.339796301,1,0.23582886352539062,1.7166425903320313,-11.186907257080078,-0.8320610687022901,0.6183206106870229,-1.366412213740458
3845020455615,2.344805729,1,0.20949264526367187,1.7010802795410156,-11.21683477783203,-0.8320610687022901,0.648854961832061,-1.3206106870229009
3845025450458,2.349800572,1,0.2166752502441406,1.7226280944824217,-11.226411584472656,-0.8396946564885496,0.5954198473282443,-1.3053435114503817
3845030448896,2.35479901,1,0.23223756103515625,1.734599102783203,-11.212046374511718,-0.816793893129771,0.5419847328244275,-1.3053435114503817
3845035447021,2.359797135,1,0.2346317626953125,1.7513585144042967,-11.177330450439452,-0.8702290076335878,0.6259541984732825,-1.2595419847328244
3845040448479,2.364798593,1,0.23702596435546874,1.7298106994628906,-11.195286962890624,-0.8931297709923665,0.6106870229007634,-1.2900763358778626
3845045448844,2.369798958,1,0.23223756103515625,1.7489643127441405,-11.164162341308593,-0.7786259541984732,0.5343511450381679,-1.3282442748091603
3845050447906,2.37479802,1,0.23223756103515625,1.7334020019531249,-11.174936248779296,-0.8015267175572519,0.5267175572519084,-1.3129770992366412
3845055445823,2.379795937,1,0.23582886352539062,1.7357962036132812,-11.195286962890624,-0.8625954198473282,0.6030534351145038,-1.2900763358778626
3845060448167,2.384798281,1,0.20949264526367187,1.7238251953125,-11.245565197753905,-0.8244274809160306,0.6870229007633588,-1.3053435114503817
3845065447333,2.389797447,1,0.22385785522460935,1.7357962036132812,-11.219228979492186,-0.7938931297709924,0.6106870229007634,-1.3435114503816794
3845070448844,2.394798958,1,0.2059013427734375,1.7106570861816406,-11.152191333007812,-0.7862595419847328,0.5648854961832062,-1.3587786259541985
3845075446812,2.399796926,1,0.21068974609375,1.7166425903320313,-11.174936248779296,-0.8015267175572519,0.6183206106870229,-1.3740458015267176
3845080447698,2.404797812,1,0.23223756103515625,1.7190367919921874,-11.180921752929686,-0.8625954198473282,0.7251908396946565,-1.3511450381679388
3845085447750,2.409797864,1,0.24301146850585936,1.725022296142578,-11.17254204711914,-0.8244274809160306,0.6106870229007634,-1.3206106870229009
3845090448010,2.414798124,1,0.22744915771484372,1.7262193969726563,-11.180921752929686,-0.816793893129771,0.5725190839694656,-1.2290076335877862
3845095446396,2.41979651,1,0.22505495605468748,1.7322049011230467,-11.154585534667968,-0.8854961832061069,0.5954198473282443,-1.3129770992366412
3845100448271,2.424798385,1,0.2501940734863281,1.7202338928222656,-11.18571015625,-0.8931297709923665,0.5343511450381679,-1.2595419847328244
3845105448739,2.429798853,1,0.24301146850585936,1.7334020019531249,-11.203666668701171,-0.8702290076335878,0.5648854961832062,-1.297709923664122
3845110448271,2.434798385,1,0.22266075439453123,1.7190367919921874,-11.207257971191405,-0.8091603053435115,0.5801526717557252,-1.3511450381679388
3845115445562,2.439795676,1,0.20470424194335937,1.725022296142578,-11.203666668701171,-0.8778625954198473,0.6030534351145038,-1.3282442748091603
3845120448271,2.444798385,1,0.22864625854492185,1.7334020019531249,-11.218031878662108,-0.8625954198473282,0.5038167938931297,-1.282442748091603
3845125447594,2.449797708,1,0.22744915771484372,1.7166425903320313,-11.213243475341796,-0.8015267175572519,0.5877862595419847,-1.297709923664122
3845130448583,2.454798697,1,0.239420166015625,1.7202338928222656,-11.183315954589844,-0.8396946564885496,0.5648854961832062,-1.3282442748091603
3845135445875,2.459795989,1,0.24899697265624998,1.715445489501953,-11.186907257080078,-0.8931297709923665,0.6259541984732825,-1.3206106870229009
3845140448271,2.464798385,1,0.2501940734863281,1.714248388671875,-11.168950744628905,-0.9847328244274809,0.6259541984732825,-1.2900763358778626
3845145446760,2.469796874,1,0.23582886352539062,1.7477672119140624,-11.207257971191405,-0.9007633587786259,0.6030534351145038,-1.3053435114503817
3845150449781,2.474799895,1,0.23343466186523437,1.7298106994628906,-11.207257971191405,-0.8473282442748091,0.5343511450381679,-1.282442748091603
3845155445667,2.479795781,1,0.23702596435546874,1.7286135986328124,-11.19169566040039,-0.8625954198473282,0.5801526717557252,-1.3129770992366412
3845160448427,2.484798541,1,0.2166752502441406,1.7429788085937499,-11.183315954589844,-0.9312977099236641,0.5648854961832062,-1.3129770992366412
3845165448062,2.489798176,1,0.22744915771484372,1.7322049011230467,-11.194089862060546,-0.8549618320610687,0.549618320610687,-1.3282442748091603
3845170448531,2.494798645,1,0.2154781494140625,1.7118541870117185,-11.190498559570312,-0.8396946564885496,0.5114503816793893,-1.3053435114503817
3845175445667,2.499795781,1,0.22266075439453123,1.7262193969726563,-11.209652172851563,-0.8396946564885496,0.5114503816793893,-1.3358778625954197
3845180446500,2.504796614,1,0.23702596435546874,1.7453730102539062,-11.171344946289063,-0.8625954198473282,0.6259541984732825,-1.3282442748091603
3845185448479,2.509798593,1,0.25258827514648435,1.7429788085937499,-11.18571015625,-0.8473282442748091,0.5954198473282443,-1.3206106870229009
3845190448167,2.514798281,1,0.24301146850585936,1.744175909423828,-11.164162341308593,-0.7862595419847328,0.5725190839694656,-1.2900763358778626
3845195445979,2.519796093,1,0.20231004028320312,1.7286135986328124,-11.194089862060546,-0.8320610687022901,0.5801526717557252,-1.297709923664122
3845200447646,2.52479776,1,0.22744915771484372,1.7393875061035156,-11.196484063720703,-0.8778625954198473,0.6106870229007634,-1.282442748091603
3845205448687,2.529798801,1,0.2214636535644531,1.7489643127441405,-11.201272467041015,-0.8854961832061069,0.6259541984732825,-1.297709923664122
3845210447698,2.534797812,1,0.25139117431640623,1.7322049011230467,-11.222820281982422,-0.7938931297709924,0.5419847328244275,-1.3053435114503817
3845215444989,2.539795103,1,0.22505495605468748,1.705868682861328,-11.21084927368164,-0.7938931297709924,0.5419847328244275,-1.3053435114503817
3845220447333,2.544797447,1,0.24779987182617186,1.7130512878417967,-11.196484063720703,-0.8320610687022901,0.5801526717557252,-1.282442748091603
3845225448375,2.549798489,1,0.23822306518554687,1.7477672119140624,-11.208455072021483,-0.8396946564885496,0.6259541984732825,-1.2671755725190839
3845230448635,2.554798749,1,0.229843359375,1.734599102783203,-11.201272467041015,-0.7709923664122137,0.5190839694656488,-1.2900763358778626
3845235446292,2.559796406,1,0.2214636535644531,1.7369933044433592,-11.19887826538086,-0.7938931297709924,0.5419847328244275,-1.3358778625954197
3845240447542,2.564797656,1,0.22505495605468748,1.7166425903320313,-11.188104357910156,-0.8244274809160306,0.48091603053435117,-1.3358778625954197
3845245447854,2.569797968,1,0.24301146850585936,1.7381904052734374,-11.189301458740234,-0.8549618320610687,0.5419847328244275,-1.297709923664122
3845250447802,2.574797916,1,0.21906945190429686,1.7357962036132812,-11.209652172851563,-0.8015267175572519,0.5190839694656488,-1.3435114503816794
3845255445094,2.579795208,1,0.2346317626953125,1.7477672119140624,-11.183315954589844,-0.732824427480916,0.549618320610687,-1.3587786259541985
3845260448114,2.584798228,1,0.24779987182617186,1.7118541870117185,-11.220426080322264,-0.8549618320610687,0.6030534351145038,-1.2900763358778626
3845265448167,2.589798281,1,0.23702596435546874,1.7298106994628906,-11.206060870361327,-0.8549618320610687,0.5877862595419847,-1.3358778625954197
3845270447385,2.594797499,1,0.20350714111328125,1.7166425903320313,-11.207257971191405,-0.7404580152671756,0.5343511450381679,-1.3129770992366412
3845275445719,2.599795833,1,0.20231004028320312,1.7322049011230467,-11.19887826538086,-0.7480916030534351,0.48854961832061067,-1.297709923664122
3845280448323,2.604798437,1,0.19512743530273435,1.7202338928222656,-11.188104357910156,-0.8244274809160306,0.4961832061068702,-1.3282442748091603
3845285447125,2.609797239,1,0.2262520568847656,1.7429788085937499,-11.156979736328124,-0.8931297709923665,0.5954198473282443,-1.3358778625954197
3845290447750,2.614797864,1,0.229843359375,1.7274164978027342,-11.149797131347656,-0.8702290076335878,0.6259541984732825,-1.3435114503816794
3845295447125,2.619797239,1,0.23822306518554687,1.7238251953125,-11.177330450439452,-0.8320610687022901,0.5801526717557252,-1.3206106870229009
3845300453791,2.624803905,1,0.23104046020507812,1.7381904052734374,-11.206060870361327,-0.8473282442748091,0.6030534351145038,-1.3435114503816794
3845305450302,2.629800416,1,0.2346317626953125,1.707065783691406,-11.189301458740234,-0.9007633587786259,0.6641221374045801,-1.366412213740458
3845310448791,2.634798905,1,0.21068974609375,1.7453730102539062,-11.202469567871093,-0.8091603053435115,0.6259541984732825,-1.3282442748091603
3845315446344,2.639796458,1,0.19871873779296872,1.734599102783203,-11.218031878662108,-0.7404580152671756,0.5419847328244275,-1.3129770992366412
3845320447698,2.644797812,1,0.2214636535644531,1.6998831787109374,-11.192892761230468,-0.8244274809160306,0.5954198473282443,-1.3435114503816794
3845325447646,2.64979776,1,0.22385785522460935,1.7274164978027342,-11.180921752929686,-0.8549618320610687,0.5801526717557252,-1.381679389312977
3845330448166,2.65479828,1,0.2214636535644531,1.7369933044433592,-11.197681164550781,-0.8778625954198473,0.549618320610687,-1.3358778625954197
3845335446083,2.659796197,1,0.2501940734863281,1.734599102783203,-11.168950744628905,-0.7862595419847328,0.5801526717557252,-1.3129770992366412
3845340447698,2.664797812,1,0.22505495605468748,1.7453730102539062,-11.1474029296875,-0.8091603053435115,0.5877862595419847,-1.2900763358778626
3845345447489,2.669797603,1,0.229843359375,1.744175909423828,-11.227608685302734,-0.8854961832061069,0.648854961832061,-1.3282442748091603
3845350447489,2.674797603,1,0.23582886352539062,1.7393875061035156,-11.186907257080078,-0.8091603053435115,0.5725190839694656,-1.3358778625954197
3845355446708,2.679796822,1,0.2059013427734375,1.7465701110839842,-11.156979736328124,-0.7709923664122137,0.5267175572519084,-1.2595419847328244
3845360449260,2.684799374,1,0.21906945190429686,1.7310078002929687,-11.161768139648437,-0.8473282442748091,0.5572519083969466,-1.282442748091603
3845365447437,2.689797551,1,0.21787235107421873,1.7226280944824217,-11.189301458740234,-0.8854961832061069,0.6259541984732825,-1.3282442748091603
3845370447854,2.694797968,1,0.23223756103515625,1.7262193969726563,-11.21683477783203,-0.8549618320610687,0.5954198473282443,-1.2900763358778626
3845375446031,2.699796145,1,0.23104046020507812,1.7082628845214842,-11.184513055419922,-0.7938931297709924,0.4732824427480916,-1.2671755725190839
3845380448114,2.704798228,1,0.23343466186523437,1.7274164978027342,-11.174936248779296,-0.7709923664122137,0.549618320610687,-1.297709923664122
3845385447750,2.709797864,1,0.23582886352539062,1.7322049011230467,-11.203666668701171,-0.8244274809160306,0.5648854961832062,-1.3282442748091603
3845390447125,2.714797239,1,0.201112939453125,1.7202338928222656,-11.213243475341796,-0.8931297709923665,0.6106870229007634,-1.3435114503816794
3845395446656,2.71979677,1,0.20350714111328125,1.714248388671875,-11.212046374511718,-0.8396946564885496,0.5725190839694656,-1.3129770992366412
3845400447958,2.724798072,1,0.19393033447265623,1.7190367919921874,-11.188104357910156,-0.8320610687022901,0.5190839694656488,-1.2671755725190839
3845405447750,2.729797864,1,0.2346317626953125,1.7393875061035156,-11.15338843383789,-0.8778625954198473,0.6259541984732825,-1.2900763358778626
3845410448375,2.734798489,1,0.22026655273437498,1.7082628845214842,-11.154585534667968,-0.8473282442748091,0.5648854961832062,-1.297709923664122
3845415446031,2.739796145,1,0.21906945190429686,1.7166425903320313,-11.203666668701171,-0.8244274809160306,0.5572519083969466,-1.3053435114503817
3845420448010,2.744798124,1,0.20949264526367187,1.7118541870117185,-11.232397088623046,-0.8091603053435115,0.5801526717557252,-1.2900763358778626
3845425449260,2.749799374,1,0.22266075439453123,1.7322049011230467,-11.209652172851563,-0.8625954198473282,0.6412213740458015,-1.3053435114503817
3845430447594,2.754797708,1,0.239420166015625,1.7214309936523438,-11.208455072021483,-0.8625954198473282,0.6335877862595419,-1.2900763358778626
3845435445927,2.759796041,1,0.23822306518554687,1.715445489501953,-11.179724652099608,-0.8244274809160306,0.6259541984732825,-1.2748091603053435
3845440447177,2.764797291,1,0.24181436767578124,1.7262193969726563,-11.194089862060546,-0.8625954198473282,0.5801526717557252,-1.3282442748091603
3845445447906,2.76979802,1,0.23822306518554687,1.7226280944824217,-11.189301458740234,-0.916030534351145,0.5572519083969466,-1.3358778625954197
3845450447698,2.774797812,1,0.23702596435546874,1.7262193969726563,-11.194089862060546,-0.8702290076335878,0.5801526717557252,-1.3206106870229009
3845455445771,2.779795885,1,0.21787235107421873,1.7202338928222656,-11.18571015625,-0.816793893129771,0.549618320610687,-1.2748091603053435
3845460448323,2.784798437,1,0.20231004028320312,1.70467158203125,-11.159373937988281,-0.7633587786259542,0.5267175572519084,-1.3053435114503817
3845465448479,2.789798593,1,0.20949264526367187,1.7334020019531249,-11.18571015625,-0.9007633587786259,0.5801526717557252,-1.2748091603053435
3845470447489,2.794797603,1,0.1975216369628906,1.7274164978027342,-11.222820281982422,-0.8931297709923665,0.5725190839694656,-1.3053435114503817
3845475445979,2.799796093,1,0.2561795776367187,1.7262193969726563,-11.227608685302734,-0.8473282442748091,0.5343511450381679,-1.297709923664122
3845480448166,2.80479828,1,0.239420166015625,1.7405846069335937,-11.167753643798827,-0.8778625954198473,0.5572519083969466,-1.282442748091603
3845485448583,2.809798697,1,0.24061726684570311,1.7393875061035156,-11.19169566040039,-0.9312977099236641,0.6030534351145038,-1.3053435114503817
3845490447489,2.814797603,1,0.2597708801269531,1.7286135986328124,-11.19169566040039,-0.9541984732824428,0.5877862595419847,-1.3587786259541985
3845495445927,2.819796041,1,0.23702596435546874,1.715445489501953,-11.19169566040039,-0.816793893129771,0.5190839694656488,-1.3282442748091603
3845500447489,2.824797603,1,0.24181436767578124,1.7190367919921874,-11.142614526367186,-0.7404580152671756,0.5343511450381679,-1.297709923664122
3845505449000,2.829799114,1,0.23702596435546874,1.7178396911621092,-11.215637677001952,-0.8473282442748091,0.6183206106870229,-1.2900763358778626
3845510448323,2.834798437,1,0.22266075439453123,1.7274164978027342,-11.200075366210937,-0.8549618320610687,0.6564885496183206,-1.3129770992366412
3845515445771,2.839795885,1,0.2154781494140625,1.7286135986328124,-11.183315954589844,-0.8015267175572519,0.549618320610687,-1.2900763358778626
3845520447958,2.844798072,1,0.23223756103515625,1.7298106994628906,-11.159373937988281,-0.7862595419847328,0.5114503816793893,-1.3206106870229009
3845525447698,2.849797812,1,0.2214636535644531,1.7286135986328124,-11.1474029296875,-0.8778625954198473,0.5190839694656488,-1.3511450381679388
3845530447750,2.854797864,1,0.239420166015625,1.7381904052734374,-11.171344946289063,-0.916030534351145,0.6335877862595419,-1.282442748091603
3845535446291,2.859796405,1,0.22266075439453123,1.7262193969726563,-11.213243475341796,-0.8091603053435115,0.6412213740458015,-1.3435114503816794
3845540446552,2.864796666,1,0.2346317626953125,1.744175909423828,-11.19887826538086,-0.7786259541984732,0.5877862595419847,-1.3435114503816794
3845545448635,2.869798749,1,0.229843359375,1.7453730102539062,-11.220426080322264,-0.8473282442748091,0.6030534351145038,-1.3053435114503817
3845550447802,2.874797916,1,0.23702596435546874,1.7525556152343749,-11.196484063720703,-0.8473282442748091,0.6259541984732825,-1.282442748091603
3845555446968,2.879797082,1,0.21428104858398436,1.7298106994628906,-11.183315954589844,-0.7633587786259542,0.5801526717557252,-1.3282442748091603
3845560448010,2.884798124,1,0.20949264526367187,1.725022296142578,-11.156979736328124,-0.816793893129771,0.5343511450381679,-1.3435114503816794
3845565447437,2.889797551,1,0.22026655273437498,1.7405846069335937,-11.164162341308593,-0.8625954198473282,0.5190839694656488,-1.3435114503816794
3845570448635,2.894798749,1,0.20709844360351562,1.7190367919921874,-11.176133349609374,-0.8320610687022901,0.5648854961832062,-1.381679389312977
3845575446552,2.899796666,1,0.21068974609375,1.7202338928222656,-11.186907257080078,-0.8473282442748091,0.6183206106870229,-1.3511450381679388
3845580454104,2.904804218,1,0.21906945190429686,1.6998831787109374,-11.179724652099608,-0.8244274809160306,0.6335877862595419,-1.3053435114503817
3845585447906,2.90979802,1,0.22505495605468748,1.7214309936523438,-11.184513055419922,-0.8473282442748091,0.5954198473282443,-1.3053435114503817
3845590445614,2.914795728,1,0.23343466186523437,1.7202338928222656,-11.234791290283203,-0.8473282442748091,0.5954198473282443,-1.3129770992366412
3845595446656,2.91979677,1,0.22864625854492185,1.7166425903320313,-11.215637677001952,-0.8244274809160306,0.5648854961832062,-1.3511450381679388
3845600448739,2.924798853,1,0.24301146850585936,1.7094599853515624,-11.194089862060546,-0.7862595419847328,0.5343511450381679,-1.3282442748091603
3845605448218,2.929798332,1,0.20709844360351562,1.7286135986328124,-11.206060870361327,-0.8320610687022901,0.5801526717557252,-1.381679389312977
3845610447698,2.934797812,1,0.2154781494140625,1.7214309936523438,-11.23000288696289,-0.8778625954198473,0.648854961832061,-1.3893129770992367
3845615446343,2.939796457,1,0.24061726684570311,1.7334020019531249,-11.226411584472656,-0.8473282442748091,0.5725190839694656,-1.381679389312977
3845620448791,2.944798905,1,0.23104046020507812,1.7094599853515624,-11.226411584472656,-0.7786259541984732,0.5343511450381679,-1.3206106870229009
3845625447646,2.94979776,1,0.22266075439453123,1.7130512878417967,-11.228805786132812,-0.8091603053435115,0.5648854961832062,-1.297709923664122
3845630447750,2.954797864,1,0.22744915771484372,1.7166425903320313,-11.23000288696289,-0.7938931297709924,0.5648854961832062,-1.3053435114503817
3845635446135,2.959796249,1,0.2166752502441406,1.7214309936523438,-11.184513055419922,-0.8320610687022901,0.5801526717557252,-1.3435114503816794
3845640446083,2.964796197,1,0.19991583862304688,1.7286135986328124,-11.192892761230468,-0.7709923664122137,0.5648854961832062,-1.3511450381679388
3845645448583,2.969798697,1,0.19991583862304688,1.744175909423828,-11.201272467041015,-0.8549618320610687,0.5572519083969466,-1.3282442748091603
3845650448062,2.974798176,1,0.2059013427734375,1.7082628845214842,-11.212046374511718,-0.916030534351145,0.6030534351145038,-1.3358778625954197
3845655445666,2.97979578,1,0.2561795776367187,1.7298106994628906,-11.197681164550781,-0.916030534351145,0.5648854961832062,-1.3206106870229009
3845660445354,2.984795468,1,0.2454056701660156,1.734599102783203,-11.154585534667968,-0.8015267175572519,0.549618320610687,-1.2748091603053435
3845665448479,2.989798593,1,0.24301146850585936,1.7274164978027342,-11.192892761230468,-0.8625954198473282,0.5190839694656488,-1.3358778625954197
3845670448531,2.994798645,1,0.2561795776367187,1.7369933044433592,-11.180921752929686,-0.916030534351145,0.5877862595419847,-1.3511450381679388
3845675445614,2.999795728,1,0.22744915771484372,1.7489643127441405,-11.195286962890624,-0.8320610687022901,0.5572519083969466,-1.3740458015267176
3845680448062,3.004798176,1,0.22385785522460935,1.7357962036132812,-11.215637677001952,-0.8015267175572519,0.5267175572519084,-1.3740458015267176
3845685447854,3.009797968,1,0.24779987182617186,1.7202338928222656,-11.17254204711914,-0.8091603053435115,0.5267175572519084,-1.3511450381679388
3845690448791,3.014798905,1,0.2454056701660156,1.7298106994628906,-11.18571015625,-0.8244274809160306,0.5954198473282443,-1.3587786259541985
3845695445823,3.019795937,1,0.21787235107421873,1.7393875061035156,-11.17852755126953,-0.8702290076335878,0.6259541984732825,-1.3435114503816794
3845700448218,3.024798332,1,0.2214636535644531,1.7465701110839842,-11.220426080322264,-0.8320610687022901,0.5419847328244275,-1.3282442748091603
3845705447958,3.029798072,1,0.21068974609375,1.7369933044433592,-11.250353601074218,-0.816793893129771,0.5801526717557252,-1.3053435114503817
3845710448166,3.03479828,1,0.19512743530273435,1.7393875061035156,-11.218031878662108,-0.8396946564885496,0.6335877862595419,-1.282442748091603
3845715446448,3.039796562,1,0.20470424194335937,1.7405846069335937,-11.149797131347656,-0.8549618320610687,0.6564885496183206,-1.2748091603053435
3845720447750,3.044797864,1,0.21787235107421873,1.7286135986328124,-11.200075366210937,-0.8244274809160306,0.6335877862595419,-1.2671755725190839
3845725448583,3.049798697,1,0.20829554443359374,1.707065783691406,-11.190498559570312,-0.7862595419847328,0.5419847328244275,-1.2442748091603053
3845730447802,3.054797916,1,0.22385785522460935,1.7202338928222656,-11.183315954589844,-0.8396946564885496,0.5648854961832062,-1.3511450381679388
3845735445562,3.059795676,1,0.20949264526367187,1.7357962036132812,-11.170147845458983,-0.7938931297709924,0.5572519083969466,-1.3511450381679388
3845740447333,3.064797447,1,0.24660277099609373,1.7262193969726563,-11.170147845458983,-0.8320610687022901,0.5648854961832062,-1.282442748091603
3845745448062,3.069798176,1,0.2262520568847656,1.7429788085937499,-11.173739147949219,-0.8320610687022901,0.5267175572519084,-1.2900763358778626
3845750447906,3.07479802,1,0.2214636535644531,1.7298106994628906,-11.184513055419922,-0.9465648854961832,0.6030534351145038,-1.282442748091603
3845755446239,3.079796353,1,0.21308394775390624,1.7489643127441405,-11.202469567871093,-0.8778625954198473,0.5954198473282443,-1.297709923664122
3845760447333,3.084797447,1,0.23822306518554687,1.7645266235351562,-11.203666668701171,-0.816793893129771,0.5419847328244275,-1.3435114503816794
3845765448114,3.089798228,1,0.22505495605468748,1.7118541870117185,-11.215637677001952,-0.8396946564885496,0.48854961832061067,-1.3129770992366412
3845770448010,3.094798124,1,0.21428104858398436,1.7166425903320313,-11.192892761230468,-0.8702290076335878,0.5801526717557252,-1.297709923664122
3845775446291,3.099796405,1,0.24181436767578124,1.7393875061035156,-11.188104357910156,-0.8473282442748091,0.6030534351145038,-1.2900763358778626
3845780447958,3.104798072,1,0.23104046020507812,1.7357962036132812,-11.183315954589844,-0.8702290076335878,0.5877862595419847,-1.2748091603053435
3845785447958,3.109798072,1,0.229843359375,1.7417817077636717,-11.227608685302734,-0.8854961832061069,0.648854961832061,-1.3206106870229009
3845790447125,3.114797239,1,0.22266075439453123,1.744175909423828,-11.226411584472656,-0.8702290076335878,0.6412213740458015,-1.3129770992366412
3845795445927,3.119796041,1,0.23343466186523437,1.7202338928222656,-11.2240173828125,-0.8015267175572519,0.5419847328244275,-1.3129770992366412
3845800447229,3.124797343,1,0.24899697265624998,1.7357962036132812,-11.241973895263671,-0.8015267175572519,0.5572519083969466,-1.3435114503816794
3845805447177,3.129797291,1,0.23822306518554687,1.7525556152343749,-11.194089862060546,-0.7786259541984732,0.5267175572519084,-1.3053435114503817
3845810448479,3.134798593,1,0.23343466186523437,1.725022296142578,-11.200075366210937,-0.8473282442748091,0.5801526717557252,-1.3053435114503817
3845815445562,3.139795676,1,0.24301146850585936,1.715445489501953,-11.207257971191405,-0.8320610687022901,0.6030534351145038,-1.251908396946565
3845820447437,3.144797551,1,0.239420166015625,1.70467158203125,-11.204863769531249,-0.8091603053435115,0.5725190839694656,-1.2442748091603053
3845825447333,3.149797447,1,0.20470424194335937,1.7369933044433592,-11.213243475341796,-0.7633587786259542,0.6030534351145038,-1.2595419847328244
3845830448843,3.154798957,1,0.23582886352539062,1.7298106994628906,-11.183315954589844,-0.8015267175572519,0.5877862595419847,-1.297709923664122
3845835446552,3.159796666,1,0.21428104858398436,1.7274164978027342,-11.174936248779296,-0.8091603053435115,0.6030534351145038,-1.366412213740458
3845840448323,3.164798437,1,0.2166752502441406,1.7465701110839842,-11.21084927368164,-0.7557251908396947,0.5725190839694656,-1.381679389312977
3845845448479,3.169798593,1,0.21428104858398436,1.7190367919921874,-11.19169566040039,-0.7862595419847328,0.48091603053435117,-1.3511450381679388
3845850447698,3.174797812,1,0.2346317626953125,1.7417817077636717,-11.19887826538086,-0.8778625954198473,0.549618320610687,-1.3053435114503817
3845855445666,3.17979578,1,0.19991583862304688,1.7417817077636717,-11.201272467041015,-0.8854961832061069,0.6106870229007634,-1.2748091603053435
3845860455145,3.184805259,1,0.2154781494140625,1.7178396911621092,-11.208455072021483,-0.816793893129771,0.5267175572519084,-1.251908396946565
3845865449677,3.189799791,1,0.24061726684570311,1.7298106994628906,-11.180921752929686,-0.8549618320610687,0.5267175572519084,-1.3282442748091603
3845870448010,3.194798124,1,0.23702596435546874,1.7334020019531249,-11.174936248779296,-0.816793893129771,0.46564885496183206,-1.3282442748091603
3845875446448,3.199796562,1,0.20350714111328125,1.7274164978027342,-11.195286962890624,-0.8473282442748091,0.5572519083969466,-1.3053435114503817
3845880448427,3.204798541,1,0.18914193115234373,1.744175909423828,-11.208455072021483,-0.8015267175572519,0.5877862595419847,-1.3282442748091603
3845885448062,3.209798176,1,0.229843359375,1.7369933044433592,-11.207257971191405,-0.8473282442748091,0.5572519083969466,-1.3282442748091603
3845890445614,3.214795728,1,0.22505495605468748,1.7262193969726563,-11.189301458740234,-0.8549618320610687,0.6106870229007634,-1.282442748091603
3845895446708,3.219796822,1,0.23223756103515625,1.7214309936523438,-11.200075366210937,-0.8931297709923665,0.648854961832061,-1.297709923664122
3845900447593,3.224797707,1,0.21906945190429686,1.7549498168945312,-11.186907257080078,-0.8931297709923665,0.5801526717557252,-1.3206106870229009
3845905448270,3.229798384,1,0.22744915771484372,1.734599102783203,-11.201272467041015,-0.7786259541984732,0.5267175572519084,-1.282442748091603
3845910448166,3.23479828,1,0.2059013427734375,1.705868682861328,-11.202469567871093,-0.7786259541984732,0.5572519083969466,-1.2671755725190839
3845915503010,3.239853124,1,0.22505495605468748,1.7226280944824217,-11.186907257080078,-0.8854961832061069,0.6259541984732825,-1.3206106870229009
3845920454677,3.244804791,1,0.2442085693359375,1.705868682861328,-11.19169566040039,-0.8625954198473282,0.6335877862595419,-1.3740458015267176
3845925446968,3.249797082,1,0.21188684692382811,1.7226280944824217,-11.225214483642578,-0.7938931297709924,0.5801526717557252,-1.2595419847328244
3845930445198,3.254795312,1,0.2059013427734375,1.7082628845214842,-11.188104357910156,-0.8320610687022901,0.5725190839694656,-1.251908396946565
3845935444208,3.259794322,1,0.239420166015625,1.7262193969726563,-11.190498559570312,-0.8396946564885496,0.5114503816793893,-1.3282442748091603
3845940444000,3.264794114,1,0.2262520568847656,1.7453730102539062,-11.186907257080078,-0.8396946564885496,0.5267175572519084,-1.3358778625954197
3845945446864,3.269796978,1,0.23104046020507812,1.763329522705078,-11.208455072021483,-0.7786259541984732,0.6030534351145038,-1.3206106870229009
3845950447385,3.274797499,1,0.22026655273437498,1.7357962036132812,-11.197681164550781,-0.7862595419847328,0.5190839694656488,-1.3511450381679388
3845955445927,3.279796041,1,0.2262520568847656,1.7322049011230467,-11.188104357910156,-0.9007633587786259,0.5954198473282443,-1.3282442748091603
3845960448114,3.284798228,1,0.2214636535644531,1.7369933044433592,-11.202469567871093,-0.8396946564885496,0.5648854961832062,-1.3358778625954197
3845965446447,3.289796561,1,0.27174188842773433,1.7573440185546874,-11.173739147949219,-0.7862595419847328,0.5572519083969466,-1.3282442748091603
3845970449104,3.294799218,1,0.239420166015625,1.7393875061035156,-11.184513055419922,-0.8091603053435115,0.5267175572519084,-1.3129770992366412
3845975446760,3.299796874,1,0.229843359375,1.715445489501953,-11.177330450439452,-0.8473282442748091,0.5648854961832062,-1.3587786259541985
3845980445250,3.304795364,1,0.22744915771484372,1.6998831787109374,-11.162965240478515,-0.8702290076335878,0.5190839694656488,-1.3282442748091603
3845985448843,3.309798957,1,0.2346317626953125,1.7130512878417967,-11.177330450439452,-0.7938931297709924,0.549618320610687,-1.3282442748091603
3845990447645,3.314797759,1,0.24301146850585936,1.707065783691406,-11.170147845458983,-0.7557251908396947,0.5038167938931297,-1.3053435114503817
3845995446812,3.319796926,1,0.21787235107421873,1.7034744812011717,-11.16057103881836,-0.8702290076335878,0.5419847328244275,-1.3358778625954197
3846000587593,3.324937707,1,0.21188684692382811,1.714248388671875,-11.188104357910156,-0.8625954198473282,0.549618320610687,-1.3511450381679388
3846005445354,3.329795468,1,0.2166752502441406,1.7393875061035156,-11.171344946289063,-0.8549618320610687,0.5114503816793893,-1.3740458015267176
3846010443375,3.334793489,1,0.21428104858398436,1.7465701110839842,-11.203666668701171,-0.8702290076335878,0.5419847328244275,-1.381679389312977
3846015443687,3.339793801,1,0.239420166015625,1.7214309936523438,-11.218031878662108,-0.916030534351145,0.5801526717557252,-1.3282442748091603
3846020448895,3.344799009,1,0.23822306518554687,1.696291876220703,-11.195286962890624,-0.9007633587786259,0.5725190839694656,-1.251908396946565
3846025447541,3.349797655,1,0.201112939453125,1.6986860778808592,-11.192892761230468,-0.816793893129771,0.6030534351145038,-1.2671755725190839
3846030447906,3.35479802,1,0.19393033447265623,1.70467158203125,-11.19169566040039,-0.7938931297709924,0.5877862595419847,-1.3129770992366412
3846035446395,3.359796509,1,0.21308394775390624,1.714248388671875,-11.189301458740234,-0.8854961832061069,0.5954198473282443,-1.297709923664122
3846040448375,3.364798489,1,0.22505495605468748,1.7166425903320313,-11.18571015625,-0.916030534351145,0.5725190839694656,-1.3129770992366412
3846045448843,3.369798957,1,0.20829554443359374,1.7274164978027342,-11.225214483642578,-0.9007633587786259,0.5267175572519084,-1.3587786259541985
3846050448531,3.374798645,1,0.20350714111328125,1.7190367919921874,-11.200075366210937,-0.8244274809160306,0.5038167938931297,-1.4045801526717556
3846055446812,3.379796926,1,0.20231004028320312,1.7274164978027342,-11.200075366210937,-0.7938931297709924,0.5801526717557252,-1.3969465648854962
3846060448427,3.384798541,1,0.2154781494140625,1.744175909423828,-11.220426080322264,-0.9236641221374046,0.5954198473282443,-1.4122137404580153
3846065447854,3.389797968,1,0.2154781494140625,1.7106570861816406,-11.202469567871093,-0.8778625954198473,0.5877862595419847,-1.3740458015267176
3846070448114,3.394798228,1,0.2059013427734375,1.7214309936523438,-11.186907257080078,-0.8244274809160306,0.5572519083969466,-1.3511450381679388
3846075445875,3.399795989,1,0.20350714111328125,1.7262193969726563,-11.180921752929686,-0.8320610687022901,0.5343511450381679,-1.3129770992366412
3846080448218,3.404798332,1,0.22266075439453123,1.7429788085937499,-11.194089862060546,-0.8396946564885496,0.5801526717557252,-1.3053435114503817
3846085448010,3.409798124,1,0.23582886352539062,1.7322049011230467,-11.173739147949219,-0.7862595419847328,0.6106870229007634,-1.381679389312977
3846090448166,3.41479828,1,0.22864625854492185,1.7357962036132812,-11.204863769531249,-0.7175572519083969,0.5114503816793893,-1.297709923664122
3846095446447,3.419796561,1,0.22744915771484372,1.7082628845214842,-11.226411584472656,-0.7862595419847328,0.4961832061068702,-1.2900763358778626
3846100448583,3.424798697,1,0.22505495605468748,1.725022296142578,-11.207257971191405,-0.8625954198473282,0.5725190839694656,-1.3206106870229009
3846105448114,3.429798228,1,0.2537853759765625,1.725022296142578,-11.19887826538086,-0.8702290076335878,0.5954198473282443,-1.3740458015267176
3846110448375,3.434798489,1,0.2166752502441406,1.7465701110839842,-11.196484063720703,-0.8854961832061069,0.6030534351145038,-1.3511450381679388
3846115446760,3.439796874,1,0.24061726684570311,1.7334020019531249,-11.206060870361327,-0.8244274809160306,0.6335877862595419,-1.3282442748091603
3846120447958,3.444798072,1,0.2501940734863281,1.7298106994628906,-11.174936248779296,-0.8625954198473282,0.6335877862595419,-1.3587786259541985
3846125447385,3.449797499,1,0.25139117431640623,1.7501614135742187,-11.183315954589844,-0.8702290076335878,0.5801526717557252,-1.2748091603053435
3846130449416,3.45479953,1,0.21787235107421873,1.7286135986328124,-11.188104357910156,-0.8091603053435115,0.5267175572519084,-1.3206106870229009
3846135446031,3.459796145,1,0.22385785522460935,1.707065783691406,-11.202469567871093,-0.816793893129771,0.5343511450381679,-1.3511450381679388
3846140458010,3.464808124,1,0.21188684692382811,1.7381904052734374,-11.192892761230468,-0.8778625954198473,0.6030534351145038,-1.366412213740458
3846145450718,3.469800832,1,0.20949264526367187,1.7322049011230467,-11.201272467041015,-0.8473282442748091,0.6259541984732825,-1.3206106870229009
3846150448739,3.474798853,1,0.21308394775390624,1.734599102783203,-11.177330450439452,-0.8396946564885496,0.6030534351145038,-1.3358778625954197
3846155445562,3.479795676,1,0.21308394775390624,1.7405846069335937,-11.152191333007812,-0.8473282442748091,0.549618320610687,-1.282442748091603
3846160450041,3.484800155,1,0.22026655273437498,1.7190367919921874,-11.166556542968749,-0.8320610687022901,0.5190839694656488,-1.3053435114503817
3846165448739,3.489798853,1,0.20350714111328125,1.7489643127441405,-11.171344946289063,-0.7709923664122137,0.5419847328244275,-1.3053435114503817
3846170447802,3.494797916,1,0.21308394775390624,1.7369933044433592,-11.186907257080078,-0.8015267175572519,0.5267175572519084,-1.2900763358778626
3846175446760,3.499796874,1,0.20709844360351562,1.7310078002929687,-11.195286962890624,-0.8473282442748091,0.5648854961832062,-1.282442748091603
3846180448635,3.504798749,1,0.22505495605468748,1.7465701110839842,-11.190498559570312,-0.8625954198473282,0.5572519083969466,-1.2671755725190839
3846185447854,3.509797968,1,0.22026655273437498,1.7429788085937499,-11.186907257080078,-0.8702290076335878,0.5343511450381679,-1.297709923664122
3846190448218,3.514798332,1,0.2262520568847656,1.7274164978027342,-11.204863769531249,-0.8549618320610687,0.5877862595419847,-1.3206106870229009
3846195446031,3.519796145,1,0.2214636535644531,1.7286135986328124,-11.164162341308593,-0.8625954198473282,0.6106870229007634,-1.3740458015267176
3846200448583,3.524798697,1,0.21428104858398436,1.7166425903320313,-11.174936248779296,-0.8625954198473282,0.5954198473282443,-1.381679389312977
3846205524729,3.529874843,1,0.2346317626953125,1.7238251953125,-11.17852755126953,-0.8778625954198473,0.5801526717557252,-1.3206106870229009
3846210462645,3.534812759,1,0.22026655273437498,1.707065783691406,-11.17852755126953,-0.8091603053435115,0.5801526717557252,-1.3358778625954197
3846215460562,3.539810676,1,0.22864625854492185,1.7214309936523438,-11.165359442138671,-0.8091603053435115,0.5648854961832062,-1.3435114503816794
3846220462124,3.544812238,1,0.22864625854492185,1.734599102783203,-11.173739147949219,-0.8931297709923665,0.5877862595419847,-1.3129770992366412
3846225462697,3.549812811,1,0.2346317626953125,1.725022296142578,-11.200075366210937,-0.9007633587786259,0.6106870229007634,-1.3358778625954197
3846230459572,3.554809686,1,0.2705447875976562,1.7214309936523438,-11.174936248779296,-0.8244274809160306,0.5801526717557252,-1.3129770992366412
3846235459989,3.559810103,1,0.2059013427734375,1.7357962036132812,-11.202469567871093,-0.8015267175572519,0.5267175572519084,-1.3129770992366412
3846240462489,3.564812603,1,0.2346317626953125,1.725022296142578,-11.183315954589844,-0.8702290076335878,0.5954198473282443,-1.3129770992366412
3846245462854,3.569812968,1,0.24061726684570311,1.7286135986328124,-11.174936248779296,-0.8778625954198473,0.5572519083969466,-1.3282442748091603
3846250458843,3.574808957,1,0.22505495605468748,1.7334020019531249,-11.152191333007812,-0.8702290076335878,0.5038167938931297,-1.3206106870229009
3846255459468,3.579809582,1,0.239420166015625,1.715445489501953,-11.156979736328124,-0.8091603053435115,0.5343511450381679,-1.2900763358778626
3846260462437,3.584812551,1,0.23223756103515625,1.7106570861816406,-11.15338843383789,-0.8396946564885496,0.6183206106870229,-1.3053435114503817
3846265461916,3.58981203,1,0.21787235107421873,1.6998831787109374,-11.176133349609374,-0.7709923664122137,0.5572519083969466,-1.3358778625954197
3846270460354,3.594810468,1,0.21906945190429686,1.714248388671875,-11.189301458740234,-0.7938931297709924,0.5725190839694656,-1.3129770992366412
3846275460249,3.599810363,1,0.22385785522460935,1.7166425903320313,-11.189301458740234,-0.7938931297709924,0.5343511450381679,-1.3206106870229009
3846280462385,3.604812499,1,0.2262520568847656,1.7034744812011717,-11.190498559570312,-0.8396946564885496,0.5648854961832062,-1.2900763358778626
3846285462385,3.609812499,1,0.2262520568847656,1.7106570861816406,-11.195286962890624,-0.8702290076335878,0.5801526717557252,-1.3053435114503817
3846290460458,3.614810572,1,0.22505495605468748,1.7010802795410156,-11.158176837158203,-0.8320610687022901,0.6183206106870229,-1.3587786259541985
3846295459468,3.619809582,1,0.19512743530273435,1.715445489501953,-11.206060870361327,-0.7557251908396947,0.5801526717557252,-1.3129770992366412
3846300463218,3.624813332,1,0.22744915771484372,1.7369933044433592,-11.257536206054686,-0.7862595419847328,0.5419847328244275,-1.282442748091603
3846305503479,3.629853593,1,0.22864625854492185,1.7357962036132812,-11.201272467041015,-0.7938931297709924,0.549618320610687,-1.3282442748091603
3846310458322,3.634808436,1,0.23104046020507812,1.7501614135742187,-11.226411584472656,-0.7786259541984732,0.48854961832061067,-1.3969465648854962
3846315457802,3.639807916,1,0.21188684692382811,1.7310078002929687,-11.206060870361327,-0.8396946564885496,0.48854961832061067,-1.3206106870229009
3846320463166,3.64481328,1,0.21428104858398436,1.7513585144042967,-11.23000288696289,-0.8091603053435115,0.5190839694656488,-1.2442748091603053
3846325463427,3.649813541,1,0.22026655273437498,1.7405846069335937,-11.186907257080078,-0.8549618320610687,0.5114503816793893,-1.251908396946565
3846330459468,3.654809582,1,0.24301146850585936,1.714248388671875,-11.154585534667968,-0.8320610687022901,0.4732824427480916,-1.2748091603053435
3846335459937,3.659810051,1,0.23343466186523437,1.7429788085937499,-11.18571015625,-0.816793893129771,0.5419847328244275,-1.2671755725190839
3846340462489,3.664812603,1,0.22864625854492185,1.7369933044433592,-11.200075366210937,-0.8015267175572519,0.5954198473282443,-1.3206106870229009
3846345462072,3.669812186,1,0.20949264526367187,1.7166425903320313,-11.207257971191405,-0.8396946564885496,0.5954198473282443,-1.3053435114503817
3846350459208,3.674809322,1,0.25139117431640623,1.7286135986328124,-11.204863769531249,-0.8015267175572519,0.5572519083969466,-1.3206106870229009
3846355459156,3.67980927,1,0.23104046020507812,1.7310078002929687,-11.186907257080078,-0.7938931297709924,0.5267175572519084,-1.297709923664122
3846360461395,3.684811509,1,0.21428104858398436,1.744175909423828,-11.155782635498046,-0.8091603053435115,0.549618320610687,-1.297709923664122
3846365459624,3.689809738,1,0.20231004028320312,1.7274164978027342,-11.167753643798827,-0.8473282442748091,0.5801526717557252,-1.282442748091603
3846370459989,3.694810103,1,0.229843359375,1.7310078002929687,-11.171344946289063,-0.8473282442748091,0.5190839694656488,-1.3511450381679388
3846375458114,3.699808228,1,0.18435352783203124,1.7286135986328124,-11.162965240478515,-0.8396946564885496,0.5419847328244275,-1.3511450381679388
3846380462385,3.704812499,1,0.2346317626953125,1.7082628845214842,-11.186907257080078,-0.8549618320610687,0.5572519083969466,-1.3206106870229009
3846385459833,3.709809947,1,0.2262520568847656,1.705868682861328,-11.16057103881836,-0.8320610687022901,0.6106870229007634,-1.3206106870229009
3846390460301,3.714810415,1,0.24061726684570311,1.705868682861328,-11.162965240478515,-0.816793893129771,0.5419847328244275,-1.3282442748091603
3846395458947,3.719809061,1,0.2454056701660156,1.7405846069335937,-11.177330450439452,-0.7557251908396947,0.5419847328244275,-1.2900763358778626
3846400462854,3.724812968,1,0.2214636535644531,1.7322049011230467,-11.208455072021483,-0.7862595419847328,0.5725190839694656,-1.251908396946565
3846405461708,3.729811822,1,0.23104046020507812,1.7286135986328124,-11.231199987792968,-0.8702290076335878,0.5725190839694656,-1.3129770992366412
3846410460041,3.734810155,1,0.2454056701660156,1.7214309936523438,-11.219228979492186,-0.8244274809160306,0.5801526717557252,-1.3282442748091603
3846415460249,3.739810363,1,0.21906945190429686,1.714248388671875,-11.186907257080078,-0.7862595419847328,0.549618320610687,-1.3129770992366412
3846420470718,3.744820832,1,0.21188684692382811,1.725022296142578,-11.201272467041015,-0.8320610687022901,0.5572519083969466,-1.3358778625954197
3846425464416,3.74981453,1,0.239420166015625,1.7226280944824217,-11.202469567871093,-0.8091603053435115,0.5648854961832062,-1.3206106870229009
3846430459989,3.754810103,1,0.23223756103515625,1.7190367919921874,-11.174936248779296,-0.816793893129771,0.5725190839694656,-1.2900763358778626
3846435459051,3.759809165,1,0.21068974609375,1.7357962036132812,-11.201272467041015,-0.8244274809160306,0.5801526717557252,-1.3129770992366412
3846440462958,3.764813072,1,0.24301146850585936,1.7166425903320313,-11.218031878662108,-0.8091603053435115,0.549618320610687,-1.3282442748091603
3846445462437,3.769812551,1,0.2645592834472656,1.7298106994628906,-11.167753643798827,-0.8473282442748091,0.5572519083969466,-1.3206106870229009
3846450459676,3.77480979,1,0.23582886352539062,1.7178396911621092,-11.18571015625,-0.8015267175572519,0.5725190839694656,-1.3282442748091603
3846455459989,3.779810103,1,0.2501940734863281,1.734599102783203,-11.200075366210937,-0.816793893129771,0.5343511450381679,-1.282442748091603
3846460460197,3.784810311,1,0.24061726684570311,1.7214309936523438,-11.177330450439452,-0.7786259541984732,0.6106870229007634,-1.2748091603053435
3846465465926,3.78981604,1,0.2561795776367187,1.7477672119140624,-11.130643518066405,-0.8702290076335878,0.6183206106870229,-1.3129770992366412
3846470460041,3.794810155,1,0.23343466186523437,1.7357962036132812,-11.208455072021483,-0.8625954198473282,0.5801526717557252,-1.2748091603053435
3846475459104,3.799809218,1,0.23582886352539062,1.7453730102539062,-11.17852755126953,-0.8244274809160306,0.5038167938931297,-1.3358778625954197
3846480461499,3.804811613,1,0.24899697265624998,1.7429788085937499,-11.189301458740234,-0.8015267175572519,0.5267175572519084,-1.3358778625954197
3846485461968,3.809812082,1,0.24779987182617186,1.7477672119140624,-11.19887826538086,-0.8244274809160306,0.5725190839694656,-1.3206106870229009
3846490460822,3.814810936,1,0.2442085693359375,1.7477672119140624,-11.179724652099608,-0.8473282442748091,0.5725190839694656,-1.2900763358778626
3846495459937,3.819810051,1,0.24061726684570311,1.7513585144042967,-11.183315954589844,-0.8015267175572519,0.5267175572519084,-1.3358778625954197
3846500462593,3.824812707,1,0.229843359375,1.7214309936523438,-11.225214483642578,-0.8625954198473282,0.4961832061068702,-1.3435114503816794
3846505461812,3.829811926,1,0.25139117431640623,1.7274164978027342,-11.222820281982422,-0.8396946564885496,0.5267175572519084,-1.3740458015267176
3846510460510,3.834810624,1,0.2346317626953125,1.725022296142578,-11.201272467041015,-0.8702290076335878,0.5267175572519084,-1.3435114503816794
3846515459729,3.839809843,1,0.2442085693359375,1.7417817077636717,-11.204863769531249,-0.816793893129771,0.5801526717557252,-1.3282442748091603
3846520462645,3.844812759,1,0.2214636535644531,1.7417817077636717,-11.196484063720703,-0.7709923664122137,0.6335877862595419,-1.297709923664122
3846525463218,3.849813332,1,0.21068974609375,1.7405846069335937,-11.18571015625,-0.8091603053435115,0.5954198473282443,-1.3435114503816794
3846530458426,3.85480854,1,0.22864625854492185,1.7429788085937499,-11.196484063720703,-0.8396946564885496,0.5648854961832062,-1.3740458015267176
3846535458843,3.859808957,1,0.23702596435546874,1.7381904052734374,-11.161768139648437,-0.8244274809160306,0.549618320610687,-1.3511450381679388
3846540462333,3.864812447,1,0.24301146850585936,1.7357962036132812,-11.170147845458983,-0.7786259541984732,0.5725190839694656,-1.2900763358778626
3846545461604,3.869811718,1,0.22266075439453123,1.714248388671875,-11.17852755126953,-0.8015267175572519,0.5725190839694656,-1.3129770992366412
3846550458791,3.874808905,1,0.20470424194335937,1.7310078002929687,-11.16057103881836,-0.8320610687022901,0.5725190839694656,-1.282442748091603
3846555459989,3.879810103,1,0.20829554443359374,1.7190367919921874,-11.189301458740234,-0.8396946564885496,0.5877862595419847,-1.2595419847328244
3846560462281,3.884812395,1,0.22744915771484372,1.725022296142578,-11.204863769531249,-0.8091603053435115,0.5267175572519084,-1.2748091603053435
3846565463270,3.889813384,1,0.2214636535644531,1.7190367919921874,-11.192892761230468,-0.8473282442748091,0.5572519083969466,-1.282442748091603
3846570459208,3.894809322,1,0.20350714111328125,1.7286135986328124,-11.195286962890624,-0.8549618320610687,0.5648854961832062,-1.3511450381679388
3846575458531,3.899808645,1,0.22266075439453123,1.753752716064453,-11.17852755126953,-0.816793893129771,0.5877862595419847,-1.3129770992366412
3846580463062,3.904813176,1,0.20350714111328125,1.7262193969726563,-11.194089862060546,-0.8015267175572519,0.5419847328244275,-1.3282442748091603
3846585462541,3.909812655,1,0.20709844360351562,1.7262193969726563,-11.200075366210937,-0.8702290076335878,0.5419847328244275,-1.366412213740458
3846590460458,3.914810572,1,0.20949264526367187,1.7274164978027342,-11.19169566040039,-0.8320610687022901,0.5267175572519084,-1.3435114503816794
3846595458947,3.919809061,1,0.23822306518554687,1.7034744812011717,-11.17254204711914,-0.7633587786259542,0.5725190839694656,-1.2900763358778626
3846600463218,3.924813332,1,0.23582886352539062,1.7286135986328124,-11.21084927368164,-0.7862595419847328,0.5954198473282443,-1.297709923664122
3846605463218,3.929813332,1,0.24061726684570311,1.744175909423828,-11.173739147949219,-0.8091603053435115,0.549618320610687,-1.282442748091603
3846610459572,3.934809686,1,0.21068974609375,1.7501614135742187,-11.17852755126953,-0.9465648854961832,0.5648854961832062,-1.297709923664122
3846615459051,3.939809165,1,0.22026655273437498,1.7369933044433592,-11.194089862060546,-0.8702290076335878,0.6106870229007634,-1.3206106870229009
3846620463166,3.94481328,1,0.2214636535644531,1.7190367919921874,-11.174936248779296,-0.8244274809160306,0.5572519083969466,-1.3053435114503817
3846625462906,3.94981302,1,0.22026655273437498,1.7274164978027342,-11.173739147949219,-0.816793893129771,0.5648854961832062,-1.3206106870229009
3846630460197,3.954810311,1,0.23343466186523437,1.7274164978027342,-11.16057103881836,-0.8931297709923665,0.5648854961832062,-1.3206106870229009
3846635459728,3.959809842,1,0.2346317626953125,1.715445489501953,-11.188104357910156,-0.8778625954198473,0.6106870229007634,-1.3435114503816794
3846640462489,3.964812603,1,0.24660277099609373,1.7477672119140624,-11.182118853759764,-0.8702290076335878,0.6106870229007634,-1.3358778625954197
3846645463531,3.969813645,1,0.2214636535644531,1.7178396911621092,-11.195286962890624,-0.7862595419847328,0.6183206106870229,-1.3282442748091603
3846650458687,3.974808801,1,0.2262520568847656,1.7453730102539062,-11.167753643798827,-0.8396946564885496,0.6259541984732825,-1.3587786259541985
3846655459312,3.979809426,1,0.20470424194335937,1.7489643127441405,-11.173739147949219,-0.8396946564885496,0.5954198473282443,-1.3206106870229009
3846660461968,3.984812082,1,0.20829554443359374,1.7417817077636717,-11.180921752929686,-0.8015267175572519,0.5877862595419847,-1.3282442748091603
3846665462541,3.989812655,1,0.2597708801269531,1.7310078002929687,-11.158176837158203,-0.7938931297709924,0.5801526717557252,-1.3358778625954197
3846670460041,3.994810155,1,0.21188684692382811,1.7238251953125,-11.179724652099608,-0.7557251908396947,0.6183206106870229,-1.3435114503816794
3846675459103,3.999809217,1,0.1927332336425781,1.7082628845214842,-11.158176837158203,-0.816793893129771,0.5648854961832062,-1.297709923664122
3846680461551,4.004811665,1,0.2262520568847656,1.7417817077636717,-11.149797131347656,-0.8244274809160306,0.5725190839694656,-1.366412213740458
3846685460926,4.00981104,1,0.23343466186523437,1.734599102783203,-11.18571015625,-0.8473282442748091,0.5954198473282443,-1.3358778625954197
3846690460510,4.014810624,1,0.24061726684570311,1.7381904052734374,-11.21084927368164,-0.8854961832061069,0.549618320610687,-1.3358778625954197
3846695459260,4.019809374,1,0.22864625854492185,1.7322049011230467,-11.209652172851563,-0.8625954198473282,0.5725190839694656,-1.3511450381679388
3846700467906,4.02481802,1,0.23343466186523437,1.715445489501953,-11.202469567871093,-0.8549618320610687,0.5648854961832062,-1.3206106870229009
3846705465197,4.029815311,1,0.23822306518554687,1.7130512878417967,-11.183315954589844,-0.8396946564885496,0.5725190839694656,-1.282442748091603
3846710461395,4.034811509,1,0.2501940734863281,1.7405846069335937,-11.195286962890624,-0.8778625954198473,0.5648854961832062,-1.3206106870229009
3846715460093,4.039810207,1,0.24181436767578124,1.7286135986328124,-11.17852755126953,-0.8702290076335878,0.648854961832061,-1.366412213740458
3846720464103,4.044814217,1,0.2262520568847656,1.7322049011230467,-11.190498559570312,-0.7786259541984732,0.6106870229007634,-1.366412213740458
3846725462281,4.049812395,1,0.18315642700195311,1.7238251953125,-11.188104357910156,-0.8244274809160306,0.6106870229007634,-1.3282442748091603
3846730459572,4.054809686,1,0.2059013427734375,1.7310078002929687,-11.204863769531249,-0.8702290076335878,0.5877862595419847,-1.3053435114503817
3846735462437,4.059812551,1,0.229843359375,1.7322049011230467,-11.200075366210937,-0.8320610687022901,0.5343511450381679,-1.3358778625954197
3846740463218,4.064813332,1,0.24301146850585936,1.7501614135742187,-11.18571015625,-0.7557251908396947,0.549618320610687,-1.3206106870229009
3846745462906,4.06981302,1,0.23223756103515625,1.7429788085937499,-11.177330450439452,-0.7862595419847328,0.5801526717557252,-1.3053435114503817
3846750458687,4.074808801,1,0.2154781494140625,1.7477672119140624,-11.200075366210937,-0.8396946564885496,0.6259541984732825,-1.2900763358778626
3846755460510,4.079810624,1,0.2346317626953125,1.7298106994628906,-11.197681164550781,-0.8625954198473282,0.5572519083969466,-1.297709923664122
3846760462020,4.084812134,1,0.2454056701660156,1.7381904052734374,-11.188104357910156,-0.8625954198473282,0.5877862595419847,-1.3053435114503817
3846765461968,4.089812082,1,0.23343466186523437,1.7166425903320313,-11.189301458740234,-0.8473282442748091,0.5801526717557252,-1.297709923664122
3846770459781,4.094809895,1,0.258573779296875,1.7178396911621092,-11.203666668701171,-0.8091603053435115,0.5572519083969466,-1.3511450381679388
3846775459208,4.099809322,1,0.23223756103515625,1.7010802795410156,-11.222820281982422,-0.8396946564885496,0.5954198473282443,-1.297709923664122
3846780462593,4.104812707,1,0.20350714111328125,1.7178396911621092,-11.186907257080078,-0.7862595419847328,0.549618320610687,-1.2900763358778626
3846785461447,4.109811561,1,0.2262520568847656,1.7022773803710936,-11.192892761230468,-0.7938931297709924,0.549618320610687,-1.2595419847328244
3846790459156,4.11480927,1,0.2059013427734375,1.7190367919921874,-11.195286962890624,-0.8320610687022901,0.5877862595419847,-1.282442748091603
3846795459833,4.119809947,1,0.22864625854492185,1.7405846069335937,-11.190498559570312,-0.8396946564885496,0.5954198473282443,-1.3282442748091603
3846800462801,4.124812915,1,0.2154781494140625,1.7405846069335937,-11.195286962890624,-0.8320610687022901,0.549618320610687,-1.297709923664122
3846805460666,4.12981078,1,0.22385785522460935,1.7274164978027342,-11.196484063720703,-0.8244274809160306,0.4961832061068702,-1.3282442748091603
3846810500926,4.13485104,1,0.20709844360351562,1.7094599853515624,-11.183315954589844,-0.8244274809160306,0.5190839694656488,-1.3358778625954197
3846815458999,4.139809113,1,0.23223756103515625,1.7082628845214842,-11.189301458740234,-0.8702290076335878,0.5572519083969466,-1.3282442748091603
3846820461499,4.144811613,1,0.22744915771484372,1.714248388671875,-11.203666668701171,-0.8931297709923665,0.5190839694656488,-1.3206106870229009
3846825461968,4.149812082,1,0.21308394775390624,1.753752716064453,-11.164162341308593,-0.8244274809160306,0.5114503816793893,-1.282442748091603
3846830459155,4.154809269,1,0.23822306518554687,1.7489643127441405,-11.156979736328124,-0.8778625954198473,0.5267175572519084,-1.2671755725190839
3846835460145,4.159810259,1,0.23343466186523437,1.7310078002929687,-11.15338843383789,-0.8473282442748091,0.6030534351145038,-1.2900763358778626
3846840461395,4.164811509,1,0.239420166015625,1.7034744812011717,-11.166556542968749,-0.8396946564885496,0.549618320610687,-1.3435114503816794
3846845462541,4.169812655,1,0.23104046020507812,1.7357962036132812,-11.202469567871093,-0.8015267175572519,0.5038167938931297,-1.3282442748091603
3846850459572,4.174809686,1,0.2262520568847656,1.715445489501953,-11.188104357910156,-0.7709923664122137,0.5419847328244275,-1.2595419847328244
3846855458791,4.179808905,1,0.23582886352539062,1.7178396911621092,-11.183315954589844,-0.8702290076335878,0.6335877862595419,-1.282442748091603
3846860462280,4.184812394,1,0.18914193115234373,1.7286135986328124,-11.189301458740234,-0.8244274809160306,0.6259541984732825,-1.3129770992366412
3846865463218,4.189813332,1,0.20829554443359374,1.7298106994628906,-11.213243475341796,-0.816793893129771,0.6335877862595419,-1.3206106870229009
3846870458947,4.194809061,1,0.229843359375,1.695094775390625,-11.183315954589844,-0.7938931297709924,0.5877862595419847,-1.2595419847328244
3846875456447,4.199806561,1,0.239420166015625,1.7130512878417967,-11.195286962890624,-0.8244274809160306,0.6564885496183206,-1.3129770992366412
