timestamp_ns,t_s,sensor_id,ax,ay,az
3526857196517,0.058855885,1,0.24301146850585936,1.734599102783203,-11.209652172851563
3526861150528,0.062809896,1,0.24779987182617186,1.7214309936523438,-11.21683477783203
3526865149278,0.066808646,1,0.22385785522460935,1.7262193969726563,-11.318588348388671
3526869152507,0.070811875,1,0.2549824768066406,1.7226280944824217,-11.17254204711914
3526873145371,0.074804739,1,0.24899697265624998,1.7214309936523438,-11.044452258300781
3526877146673,0.078806041,1,0.2214636535644531,1.7118541870117185,-11.318588348388671
3526881145423,0.082804791,1,0.20949264526367187,1.705868682861328,-11.161768139648437
3526885145736,0.086805104,1,0.21428104858398436,1.697488977050781,-11.17254204711914
3526889146100,0.090805468,1,0.20829554443359374,1.725022296142578,-11.179724652099608
3526893144538,0.094803906,1,0.22505495605468748,1.734599102783203,-11.184513055419922
3526897144798,0.098804166,1,0.2166752502441406,1.7202338928222656,-11.179724652099608
3526901145580,0.102804948,1,0.23702596435546874,1.7310078002929687,-11.167753643798827
3526905144694,0.106804062,1,0.2262520568847656,1.7274164978027342,-11.155782635498046
3526909144850,0.110804218,1,0.24301146850585936,1.7417817077636717,-11.176133349609374
3526913144642,0.11480401,1,0.23702596435546874,1.7357962036132812,-11.183315954589844
3526917144798,0.118804166,1,0.2262520568847656,1.7322049011230467,-11.219228979492186
3526921144955,0.122804323,1,0.21428104858398436,1.7393875061035156,-11.207257971191405
3526925144955,0.126804323,1,0.2059013427734375,1.7334020019531249,-11.17852755126953
3526929144642,0.13080401,1,0.2166752502441406,1.7190367919921874,-11.182118853759764
3526933144798,0.134804166,1,0.23702596435546874,1.7214309936523438,-11.182118853759764
3526937145007,0.138804375,1,0.2262520568847656,1.7178396911621092,-11.222820281982422
3526941145215,0.142804583,1,0.2346317626953125,1.7178396911621092,-11.189301458740234
3526945145215,0.146804583,1,0.21428104858398436,1.7453730102539062,-11.177330450439452
3526949145111,0.150804479,1,0.22864625854492185,1.7190367919921874,-11.19169566040039
3526953145111,0.154804479,1,0.23702596435546874,1.7417817077636717,-11.219228979492186
3526957144225,0.158803593,1,0.239420166015625,1.7369933044433592,-11.17852755126953
3526961142975,0.162802343,1,0.23343466186523437,1.744175909423828,-11.184513055419922
3526965146413,0.166805781,1,0.22864625854492185,1.7453730102539062,-11.183315954589844
3526969145423,0.170804791,1,0.2442085693359375,1.7166425903320313,-11.177330450439452
3526973143548,0.174802916,1,0.23822306518554687,1.7322049011230467,-11.195286962890624
3526977145840,0.178805208,1,0.24181436767578124,1.7106570861816406,-11.192892761230468
3526981145007,0.182804375,1,0.21906945190429686,1.7369933044433592,-11.220426080322264
3526985145371,0.186804739,1,0.229843359375,1.7369933044433592,-11.227608685302734
3526989144538,0.190803906,1,0.229843359375,1.7238251953125,-11.18571015625
3526993144850,0.194804218,1,0.2442085693359375,1.7226280944824217,-11.186907257080078
3526997145059,0.198804427,1,0.24181436767578124,1.7202338928222656,-11.194089862060546
3527001144902,0.20280427,1,0.24899697265624998,1.734599102783203,-11.180921752929686
3527005144746,0.206804114,1,0.27293898925781246,1.7286135986328124,-11.204863769531249
3527009144330,0.210803698,1,0.258573779296875,1.7334020019531249,-11.17852755126953
3527013144798,0.214804166,1,0.24301146850585936,1.7453730102539062,-11.195286962890624
3527017145059,0.218804427,1,0.2442085693359375,1.7322049011230467,-11.15338843383789
3527021144850,0.222804218,1,0.201112939453125,1.7405846069335937,-11.170147845458983
3527025144850,0.226804218,1,0.21308394775390624,1.7082628845214842,-11.201272467041015
3527029144955,0.230804323,1,0.22385785522460935,1.7286135986328124,-11.215637677001952
3527033144746,0.234804114,1,0.23343466186523437,1.7226280944824217,-11.203666668701171
3527037144955,0.238804323,1,0.22744915771484372,1.734599102783203,-11.188104357910156
3527041144382,0.24280375,1,0.2214636535644531,1.725022296142578,-11.213243475341796
3527045144955,0.246804323,1,0.22266075439453123,1.7238251953125,-11.200075366210937
3527049144798,0.250804166,1,0.22385785522460935,1.725022296142578,-11.17852755126953
3527053144590,0.254803958,1,0.23702596435546874,1.7417817077636717,-11.21084927368164
3527057144382,0.25880375,1,0.229843359375,1.7334020019531249,-11.233594189453123
3527061144746,0.262804114,1,0.2262520568847656,1.744175909423828,-11.204863769531249
3527065145007,0.266804375,1,0.20829554443359374,1.725022296142578,-11.218031878662108
3527069144382,0.27080375,1,0.2214636535644531,1.7369933044433592,-11.18571015625
3527073144330,0.274803698,1,0.2166752502441406,1.7561469177246092,-11.21683477783203
3527077144434,0.278803802,1,0.22744915771484372,1.7298106994628906,-11.166556542968749
3527081144694,0.282804062,1,0.2214636535644531,1.7393875061035156,-11.170147845458983
3527085145059,0.286804427,1,0.19632453613281248,1.7393875061035156,-11.202469567871093
3527089144382,0.29080375,1,0.201112939453125,1.7202338928222656,-11.189301458740234
3527093144902,0.29480427,1,0.23582886352539062,1.7262193969726563,-11.170147845458983
3527097144902,0.29880427,1,0.23702596435546874,1.7190367919921874,-11.221623181152344
3527101144642,0.30280401,1,0.21906945190429686,1.7190367919921874,-11.204863769531249
3527105144330,0.306803698,1,0.2154781494140625,1.7226280944824217,-11.195286962890624
3527109144017,0.310803385,1,0.21787235107421873,1.715445489501953,-11.243170996093749
3527113143861,0.314803229,1,0.21188684692382811,1.7238251953125,-11.238382592773437
3527117144642,0.31880401,1,0.229843359375,1.7262193969726563,-11.18571015625
3527121144798,0.322804166,1,0.1975216369628906,1.7369933044433592,-11.184513055419922
3527125144121,0.326803489,1,0.21906945190429686,1.7130512878417967,-11.168950744628905
3527129144902,0.33080427,1,0.23702596435546874,1.7357962036132812,-11.161768139648437
3527133144225,0.334803593,1,0.22505495605468748,1.7429788085937499,-11.171344946289063
3527137143913,0.338803281,1,0.2597708801269531,1.7489643127441405,-11.209652172851563
3527141144955,0.342804323,1,0.23822306518554687,1.7322049011230467,-11.17254204711914
3527145144277,0.346803645,1,0.22026655273437498,1.7262193969726563,-11.214440576171874
3527149144277,0.350803645,1,0.2166752502441406,1.7322049011230467,-11.203666668701171
3527153143548,0.354802916,1,0.21787235107421873,1.7417817077636717,-11.188104357910156
3527157144590,0.358803958,1,0.20231004028320312,1.7214309936523438,-11.207257971191405
3527161143652,0.36280302,1,0.20470424194335937,1.7274164978027342,-11.220426080322264
3527165145111,0.366804479,1,0.2454056701660156,1.7274164978027342,-11.23000288696289
3527169144330,0.370803698,1,0.22505495605468748,1.734599102783203,-11.166556542968749
3527173144798,0.374804166,1,0.18435352783203124,1.7178396911621092,-11.141417425537108
3527177144590,0.378803958,1,0.19871873779296872,1.7334020019531249,-11.168950744628905
3527181144225,0.382803593,1,0.23223756103515625,1.715445489501953,-11.141417425537108
3527185143913,0.386803281,1,0.201112939453125,1.6986860778808592,-11.179724652099608
3527189144850,0.390804218,1,0.18555062866210936,1.7286135986328124,-11.165359442138671
3527193144642,0.39480401,1,0.20829554443359374,1.7322049011230467,-11.183315954589844
3527197142507,0.398801875,1,0.2154781494140625,1.7226280944824217,-11.19169566040039
3527201144850,0.402804218,1,0.22266075439453123,1.725022296142578,-11.17254204711914
3527205142402,0.40680177,1,0.2262520568847656,1.7166425903320313,-11.18571015625
3527209143548,0.410802916,1,0.2346317626953125,1.7274164978027342,-11.188104357910156
3527213144954,0.414804322,1,0.22266075439453123,1.725022296142578,-11.17254204711914
3527217144434,0.418803802,1,0.2442085693359375,1.7238251953125,-11.21683477783203
3527221144017,0.422803385,1,0.22026655273437498,1.707065783691406,-11.214440576171874
3527225144642,0.42680401,1,0.19991583862304688,1.696291876220703,-11.233594189453123
3527229142871,0.430802239,1,0.2262520568847656,1.7190367919921874,-11.19887826538086
3527233144694,0.434804062,1,0.23104046020507812,1.7405846069335937,-11.203666668701171
3527237154017,0.438813385,1,0.22385785522460935,1.734599102783203,-11.176133349609374
3527241145684,0.442805052,1,0.2262520568847656,1.7286135986328124,-11.19887826538086
3527245144798,0.446804166,1,0.2166752502441406,1.7417817077636717,-11.195286962890624
3527249144277,0.450803645,1,0.19991583862304688,1.7489643127441405,-11.180921752929686
3527253144746,0.454804114,1,0.22266075439453123,1.7501614135742187,-11.170147845458983
3527257144642,0.45880401,1,0.2442085693359375,1.7465701110839842,-11.200075366210937
3527261143027,0.462802395,1,0.229843359375,1.7262193969726563,-11.226411584472656
3527265145163,0.466804531,1,0.2214636535644531,1.7178396911621092,-11.206060870361327
3527269144642,0.47080401,1,0.22505495605468748,1.7274164978027342,-11.19169566040039
3527273144642,0.47480401,1,0.23223756103515625,1.7298106994628906,-11.196484063720703
3527277144538,0.478803906,1,0.23104046020507812,1.7298106994628906,-11.182118853759764
3527281144017,0.482803385,1,0.23104046020507812,1.7310078002929687,-11.189301458740234
3527285144121,0.486803489,1,0.20829554443359374,1.7393875061035156,-11.176133349609374
3527289144225,0.490803593,1,0.21906945190429686,1.7262193969726563,-11.146205828857422
3527293144486,0.494803854,1,0.2166752502441406,1.7214309936523438,-11.123460913085937
3527297144434,0.498803802,1,0.21906945190429686,1.725022296142578,-11.156979736328124
3527301144329,0.502803697,1,0.22266075439453123,1.715445489501953,-11.159373937988281
3527305144954,0.506804322,1,0.229843359375,1.7106570861816406,-11.182118853759764
3527309144590,0.510803958,1,0.24899697265624998,1.7214309936523438,-11.164162341308593
3527313143861,0.514803229,1,0.21188684692382811,1.7513585144042967,-11.190498559570312
3527317144538,0.518803906,1,0.22744915771484372,1.7369933044433592,-11.16057103881836
3527321143757,0.522803125,1,0.24899697265624998,1.7549498168945312,-11.19169566040039
3527325144434,0.526803802,1,0.25258827514648435,1.7262193969726563,-11.21683477783203
3527329144121,0.530803489,1,0.22864625854492185,1.7310078002929687,-11.213243475341796
3527333144434,0.534803802,1,0.23582886352539062,1.7322049011230467,-11.203666668701171
3527337144694,0.538804062,1,0.24061726684570311,1.7310078002929687,-11.189301458740234
3527341146257,0.542805625,1,0.21428104858398436,1.7166425903320313,-11.206060870361327
3527345144173,0.546803541,1,0.23104046020507812,1.7262193969726563,-11.180921752929686
3527349145163,0.550804531,1,0.23822306518554687,1.7369933044433592,-11.161768139648437
3527353144538,0.554803906,1,0.23822306518554687,1.7369933044433592,-11.171344946289063
3527357144486,0.558803854,1,0.2262520568847656,1.7094599853515624,-11.203666668701171
3527361144746,0.562804114,1,0.23223756103515625,1.7381904052734374,-11.196484063720703
3527365144329,0.566803697,1,0.19991583862304688,1.744175909423828,-11.17254204711914
3527369145423,0.570804791,1,0.20350714111328125,1.7357962036132812,-11.162965240478515
3527373143913,0.574803281,1,0.20829554443359374,1.744175909423828,-11.15338843383789
3527377144225,0.578803593,1,0.2154781494140625,1.7465701110839842,-11.17254204711914
3527381144121,0.582803489,1,0.20829554443359374,1.7310078002929687,-11.159373937988281
3527385144382,0.58680375,1,0.23343466186523437,1.7106570861816406,-11.174936248779296
3527389144277,0.590803645,1,0.21787235107421873,1.7322049011230467,-11.19887826538086
3527393143965,0.594803333,1,0.22266075439453123,1.7369933044433592,-11.220426080322264
3527397144382,0.59880375,1,0.20231004028320312,1.7405846069335937,-11.158176837158203
3527401145007,0.602804375,1,0.2154781494140625,1.7094599853515624,-11.159373937988281
3527405145111,0.606804479,1,0.22026655273437498,1.6938976745605467,-11.1474029296875
3527409145215,0.610804583,1,0.20350714111328125,1.734599102783203,-11.184513055419922
3527413144382,0.61480375,1,0.21308394775390624,1.7429788085937499,-11.17254204711914
3527417143861,0.618803229,1,0.20350714111328125,1.7166425903320313,-11.173739147949219
3527421144694,0.622804062,1,0.239420166015625,1.7190367919921874,-11.145008728027342
3527425143757,0.626803125,1,0.229843359375,1.7202338928222656,-11.19169566040039
3527429144590,0.630803958,1,0.22505495605468748,1.7262193969726563,-11.17852755126953
3527433144746,0.634804114,1,0.2454056701660156,1.7214309936523438,-11.194089862060546
3527437143756,0.638803124,1,0.23702596435546874,1.725022296142578,-11.186907257080078
3527441144121,0.642803489,1,0.22744915771484372,1.7322049011230467,-11.174936248779296
3527445144121,0.646803489,1,0.22385785522460935,1.7166425903320313,-11.180921752929686
3527449144173,0.650803541,1,0.2454056701660156,1.7190367919921874,-11.186907257080078
3527453144069,0.654803437,1,0.2214636535644531,1.7214309936523438,-11.190498559570312
3527457142871,0.658802239,1,0.2154781494140625,1.7381904052734374,-11.204863769531249
3527461144850,0.662804218,1,0.2442085693359375,1.7334020019531249,-11.192892761230468
3527465144746,0.666804114,1,0.22864625854492185,1.744175909423828,-11.207257971191405
3527469145163,0.670804531,1,0.2262520568847656,1.7573440185546874,-11.19169566040039
3527473144434,0.674803802,1,0.20231004028320312,1.7525556152343749,-11.206060870361327
3527477144746,0.678804114,1,0.22266075439453123,1.7381904052734374,-11.165359442138671
3527481144225,0.682803593,1,0.2262520568847656,1.7369933044433592,-11.195286962890624
3527485143288,0.686802656,1,0.22026655273437498,1.7262193969726563,-11.21084927368164
3527489144746,0.690804114,1,0.22385785522460935,1.7322049011230467,-11.234791290283203
3527493144798,0.694804166,1,0.239420166015625,1.7226280944824217,-11.195286962890624
3527497144694,0.698804062,1,0.2166752502441406,1.697488977050781,-11.188104357910156
3527501144017,0.702803385,1,0.21787235107421873,1.7082628845214842,-11.200075366210937
3527505144381,0.706803749,1,0.20709844360351562,1.734599102783203,-11.19887826538086
3527509144173,0.710803541,1,0.2166752502441406,1.7369933044433592,-11.207257971191405
3527513144486,0.714803854,1,0.19393033447265623,1.7310078002929687,-11.203666668701171
3527517143340,0.718802708,1,0.2262520568847656,1.7381904052734374,-11.179724652099608
3527521144902,0.72280427,1,0.23343466186523437,1.744175909423828,-11.192892761230468
3527525144798,0.726804166,1,0.22385785522460935,1.7465701110839842,-11.184513055419922
3527529145059,0.730804427,1,0.24301146850585936,1.7334020019531249,-11.194089862060546
3527533144434,0.734803802,1,0.2166752502441406,1.7322049011230467,-11.158176837158203
3527537144538,0.738803906,1,0.2214636535644531,1.7381904052734374,-11.195286962890624
3527541144850,0.742804218,1,0.21787235107421873,1.725022296142578,-11.186907257080078
3527545144538,0.746803906,1,0.23822306518554687,1.7585411193847655,-11.170147845458983
3527549144746,0.750804114,1,0.23582886352539062,1.7501614135742187,-11.152191333007812
3527553145006,0.754804374,1,0.2154781494140625,1.7429788085937499,-11.146205828857422
3527557145423,0.758804791,1,0.22744915771484372,1.7334020019531249,-11.179724652099608
3527561145423,0.762804791,1,0.22505495605468748,1.7190367919921874,-11.204863769531249
3527565144694,0.766804062,1,0.2154781494140625,1.7214309936523438,-11.209652172851563
3527569144381,0.770803749,1,0.20709844360351562,1.7286135986328124,-11.19169566040039
3527573143652,0.77480302,1,0.22266075439453123,1.725022296142578,-11.18571015625
3527577144798,0.778804166,1,0.22266075439453123,1.7226280944824217,-11.203666668701171
3527581144902,0.78280427,1,0.2214636535644531,1.7322049011230467,-11.213243475341796
3527585143756,0.786803124,1,0.22266075439453123,1.714248388671875,-11.201272467041015
3527589144329,0.790803697,1,0.2214636535644531,1.707065783691406,-11.186907257080078
3527593144434,0.794803802,1,0.2442085693359375,1.714248388671875,-11.161768139648437
3527597144798,0.798804166,1,0.229843359375,1.7357962036132812,-11.180921752929686
3527601144381,0.802803749,1,0.24061726684570311,1.7262193969726563,-11.202469567871093
3527605145163,0.806804531,1,0.22266075439453123,1.7274164978027342,-11.180921752929686
3527609144538,0.810803906,1,0.21428104858398436,1.7322049011230467,-11.156979736328124
3527613149642,0.81480901,1,0.22864625854492185,1.7166425903320313,-11.213243475341796
3527617146673,0.818806041,1,0.22505495605468748,1.7238251953125,-11.207257971191405
3527621145059,0.822804427,1,0.2537853759765625,1.7357962036132812,-11.159373937988281
3527625144850,0.826804218,1,0.2741360900878906,1.7226280944824217,-11.190498559570312
3527629144538,0.830803906,1,0.2645592834472656,1.7405846069335937,-11.208455072021483
3527633144173,0.834803541,1,0.24301146850585936,1.7573440185546874,-11.189301458740234
3527637144225,0.838803593,1,0.23822306518554687,1.7453730102539062,-11.152191333007812
3527641144798,0.842804166,1,0.24899697265624998,1.7417817077636717,-11.156979736328124
3527645143548,0.846802916,1,0.24181436767578124,1.753752716064453,-11.170147845458983
3527649145319,0.850804687,1,0.2214636535644531,1.7561469177246092,-11.165359442138671
3527653145163,0.854804531,1,0.21188684692382811,1.7465701110839842,-11.166556542968749
3527657144850,0.858804218,1,0.22744915771484372,1.7609353210449217,-11.19887826538086
3527661144746,0.862804114,1,0.23702596435546874,1.7322049011230467,-11.196484063720703
3527665145058,0.866804426,1,0.25139117431640623,1.7369933044433592,-11.186907257080078
3527669145215,0.870804583,1,0.22864625854492185,1.7393875061035156,-11.215637677001952
3527673144538,0.874803906,1,0.2214636535644531,1.7178396911621092,-11.179724652099608
3527677144017,0.878803385,1,0.19871873779296872,1.7226280944824217,-11.188104357910156
3527681144069,0.882803437,1,0.23702596435546874,1.7381904052734374,-11.165359442138671
3527685145579,0.886804947,1,0.2262520568847656,1.7274164978027342,-11.192892761230468
3527689144902,0.89080427,1,0.22505495605468748,1.7334020019531249,-11.177330450439452
3527693143913,0.894803281,1,0.22026655273437498,1.7298106994628906,-11.17254204711914
3527697143913,0.898803281,1,0.23582886352539062,1.7274164978027342,-11.174936248779296
3527701144954,0.902804322,1,0.23702596435546874,1.7477672119140624,-11.150994232177734
3527705143600,0.906802968,1,0.2442085693359375,1.7357962036132812,-11.188104357910156
3527709145267,0.910804635,1,0.2346317626953125,1.7178396911621092,-11.188104357910156
3527713144538,0.914803906,1,0.23104046020507812,1.7178396911621092,-11.165359442138671
3527717145058,0.918804426,1,0.23582886352539062,1.744175909423828,-11.167753643798827
3527721144954,0.922804322,1,0.23822306518554687,1.7513585144042967,-11.159373937988281
3527725144433,0.926803801,1,0.23104046020507812,1.714248388671875,-11.173739147949219
3527729145058,0.930804426,1,0.19632453613281248,1.705868682861328,-11.168950744628905
3527733144486,0.934803854,1,0.22385785522460935,1.7094599853515624,-11.18571015625
3527737144121,0.938803489,1,0.22026655273437498,1.7190367919921874,-11.171344946289063
3527741142611,0.942801979,1,0.21308394775390624,1.744175909423828,-11.204863769531249
3527745145371,0.946804739,1,0.22266075439453123,1.7489643127441405,-11.17254204711914
3527749145111,0.950804479,1,0.22385785522460935,1.7417817077636717,-11.189301458740234
3527753144329,0.954803697,1,0.239420166015625,1.7274164978027342,-11.176133349609374
3527757144902,0.95880427,1,0.23343466186523437,1.7178396911621092,-11.21084927368164
3527761144798,0.962804166,1,0.23343466186523437,1.7298106994628906,-11.162965240478515
3527765144225,0.966803593,1,0.21068974609375,1.7465701110839842,-11.15338843383789
3527769144173,0.970803541,1,0.229843359375,1.7453730102539062,-11.173739147949219
3527773145006,0.974804374,1,0.23582886352539062,1.7573440185546874,-11.215637677001952
3527777143965,0.978803333,1,0.2214636535644531,1.7621324218749999,-11.219228979492186
3527781145058,0.982804426,1,0.24301146850585936,1.744175909423828,-11.200075366210937
3527785144642,0.98680401,1,0.22026655273437498,1.734599102783203,-11.179724652099608
3527789144381,0.990803749,1,0.20709844360351562,1.7226280944824217,-11.158176837158203
3527793145371,0.994804739,1,0.2059013427734375,1.714248388671875,-11.17852755126953
3527797145423,0.998804791,1,0.21428104858398436,1.7202338928222656,-11.192892761230468
3527801143756,1.002803124,1,0.22026655273437498,1.7190367919921874,-11.180921752929686
3527805143861,1.006803229,1,0.22026655273437498,1.714248388671875,-11.167753643798827
3527809144486,1.010803854,1,0.1975216369628906,1.7286135986328124,-11.188104357910156
3527813144121,1.014803489,1,0.21428104858398436,1.7465701110839842,-11.176133349609374
3527817145423,1.018804791,1,0.23223756103515625,1.734599102783203,-11.195286962890624
3527821144381,1.022803749,1,0.21308394775390624,1.7130512878417967,-11.204863769531249
3527825144017,1.026803385,1,0.21188684692382811,1.7010802795410156,-11.19887826538086
3527829144225,1.030803593,1,0.20829554443359374,1.7214309936523438,-11.212046374511718
3527833143652,1.03480302,1,0.23702596435546874,1.7274164978027342,-11.196484063720703
3527837145527,1.038804895,1,0.24061726684570311,1.707065783691406,-11.154585534667968
3527841144850,1.042804218,1,0.2166752502441406,1.7106570861816406,-11.164162341308593
3527845144850,1.046804218,1,0.20709844360351562,1.7286135986328124,-11.164162341308593
3527849144850,1.050804218,1,0.2154781494140625,1.705868682861328,-11.166556542968749
3527853144173,1.054803541,1,0.2346317626953125,1.70467158203125,-11.197681164550781
3527857146256,1.058805624,1,0.2501940734863281,1.7262193969726563,-11.201272467041015
3527861144746,1.062804114,1,0.24181436767578124,1.7453730102539062,-11.174936248779296
3527865144590,1.066803958,1,0.24660277099609373,1.744175909423828,-11.173739147949219
3527869144538,1.070803906,1,0.23702596435546874,1.7501614135742187,-11.202469567871093
3527873145163,1.074804531,1,0.22744915771484372,1.7429788085937499,-11.202469567871093
3527877144902,1.07880427,1,0.2154781494140625,1.7381904052734374,-11.17254204711914
3527881144694,1.082804062,1,0.22744915771484372,1.7322049011230467,-11.195286962890624
3527885144485,1.086803853,1,0.22266075439453123,1.7262193969726563,-11.176133349609374
3527889144069,1.090803437,1,0.2154781494140625,1.7166425903320313,-11.174936248779296
3527893144902,1.09480427,1,0.22266075439453123,1.7202338928222656,-11.177330450439452
3527897145058,1.098804426,1,0.23343466186523437,1.7381904052734374,-11.162965240478515
3527901145371,1.102804739,1,0.23582886352539062,1.744175909423828,-11.158176837158203
3527905144485,1.106803853,1,0.23582886352539062,1.7405846069335937,-11.158176837158203
3527909146048,1.110805416,1,0.23104046020507812,1.7585411193847655,-11.174936248779296
3527913145423,1.114804791,1,0.2346317626953125,1.753752716064453,-11.17254204711914
3527917145006,1.118804374,1,0.20231004028320312,1.753752716064453,-11.179724652099608
3527921144433,1.122803801,1,0.23104046020507812,1.7274164978027342,-11.190498559570312
3527925144642,1.12680401,1,0.23104046020507812,1.7238251953125,-11.180921752929686
3527929144329,1.130803697,1,0.2442085693359375,1.714248388671875,-11.182118853759764
3527933144485,1.134803853,1,0.22505495605468748,1.7178396911621092,-11.170147845458983
3527937143965,1.138803333,1,0.23582886352539062,1.7190367919921874,-11.167753643798827
3527941144225,1.142803593,1,0.20231004028320312,1.705868682861328,-11.204863769531249
3527945145215,1.146804583,1,0.20829554443359374,1.70467158203125,-11.177330450439452
3527949144069,1.150803437,1,0.21308394775390624,1.7405846069335937,-11.171344946289063
3527953142975,1.154802343,1,0.20709844360351562,1.715445489501953,-11.202469567871093
3527957146517,1.158805885,1,0.2154781494140625,1.7202338928222656,-11.206060870361327
3527961144642,1.16280401,1,0.23223756103515625,1.7106570861816406,-11.171344946289063
3527965144590,1.166803958,1,0.23702596435546874,1.7381904052734374,-11.188104357910156
3527969144954,1.170804322,1,0.22505495605468748,1.7322049011230467,-11.162965240478515
3527973145215,1.174804583,1,0.21428104858398436,1.7274164978027342,-11.196484063720703
3527977144850,1.178804218,1,0.2214636535644531,1.7190367919921874,-11.186907257080078
3527981144381,1.182803749,1,0.2214636535644531,1.7106570861816406,-11.183315954589844
3527985144485,1.186803853,1,0.2214636535644531,1.7238251953125,-11.15338843383789
3527989150788,1.190810156,1,0.2059013427734375,1.7417817077636717,-11.177330450439452
3527993146360,1.194805728,1,0.2059013427734375,1.7393875061035156,-11.196484063720703
3527997143548,1.198802916,1,0.22026655273437498,1.7298106994628906,-11.170147845458983
3528001146204,1.202805572,1,0.21308394775390624,1.7501614135742187,-11.18571015625
3528005145110,1.206804478,1,0.19512743530273435,1.7166425903320313,-11.177330450439452
3528009145475,1.210804843,1,0.20470424194335937,1.725022296142578,-11.19887826538086
3528013144902,1.21480427,1,0.23343466186523437,1.7298106994628906,-11.192892761230468
3528017144642,1.21880401,1,0.22266075439453123,1.744175909423828,-11.19169566040039
3528021144850,1.222804218,1,0.20231004028320312,1.7334020019531249,-11.17254204711914
3528025144798,1.226804166,1,0.18435352783203124,1.7262193969726563,-11.152191333007812
3528029144538,1.230803906,1,0.21906945190429686,1.7118541870117185,-11.166556542968749
3528033144798,1.234804166,1,0.23582886352539062,1.70467158203125,-11.186907257080078
3528037144538,1.238803906,1,0.229843359375,1.7166425903320313,-11.202469567871093
3528041144850,1.242804218,1,0.22864625854492185,1.7226280944824217,-11.209652172851563
3528045144902,1.24680427,1,0.22864625854492185,1.715445489501953,-11.179724652099608
3528049144590,1.250803958,1,0.2166752502441406,1.705868682861328,-11.200075366210937
3528053145475,1.254804843,1,0.20949264526367187,1.7202338928222656,-11.171344946289063
3528057145735,1.258805103,1,0.19153613281249998,1.7298106994628906,-11.184513055419922
3528061145371,1.262804739,1,0.201112939453125,1.7214309936523438,-11.222820281982422
3528065144069,1.266803437,1,0.2214636535644531,1.7286135986328124,-11.2240173828125
3528069145163,1.270804531,1,0.22026655273437498,1.7298106994628906,-11.209652172851563
3528073145215,1.274804583,1,0.2166752502441406,1.7417817077636717,-11.207257971191405
3528077145006,1.278804374,1,0.21787235107421873,1.7381904052734374,-11.190498559570312
3528081144746,1.282804114,1,0.2166752502441406,1.7369933044433592,-11.170147845458983
3528085144329,1.286803697,1,0.2214636535644531,1.7310078002929687,-11.183315954589844
3528089144642,1.29080401,1,0.22505495605468748,1.7525556152343749,-11.188104357910156
3528093144902,1.29480427,1,0.22744915771484372,1.7525556152343749,-11.182118853759764
3528097144225,1.298803593,1,0.2214636535644531,1.7489643127441405,-11.188104357910156
3528101145423,1.302804791,1,0.22385785522460935,1.7286135986328124,-11.2240173828125
3528105145787,1.306805155,1,0.23582886352539062,1.715445489501953,-11.202469567871093
3528109144746,1.310804114,1,0.23822306518554687,1.7298106994628906,-11.212046374511718
3528113144642,1.31480401,1,0.21188684692382811,1.7429788085937499,-11.179724652099608
3528117145110,1.318804478,1,0.2561795776367187,1.725022296142578,-11.168950744628905
3528121145006,1.322804374,1,0.23822306518554687,1.714248388671875,-11.179724652099608
3528125144485,1.326803853,1,0.22266075439453123,1.714248388671875,-11.179724652099608
3528129144277,1.330803645,1,0.24061726684570311,1.7489643127441405,-11.177330450439452
3528133145527,1.334804895,1,0.23104046020507812,1.7429788085937499,-11.186907257080078
3528137145475,1.338804843,1,0.22026655273437498,1.744175909423828,-11.200075366210937
3528141144017,1.342803385,1,0.20829554443359374,1.7178396911621092,-11.184513055419922
3528145144225,1.346803593,1,0.229843359375,1.7094599853515624,-11.202469567871093
3528149144537,1.350803905,1,0.2442085693359375,1.7130512878417967,-11.209652172851563
3528153144433,1.354803801,1,0.19632453613281248,1.7226280944824217,-11.166556542968749
3528157144381,1.358803749,1,0.201112939453125,1.7262193969726563,-11.195286962890624
3528161145110,1.362804478,1,0.1879448303222656,1.7465701110839842,-11.203666668701171
3528165144850,1.366804218,1,0.229843359375,1.70467158203125,-11.197681164550781
3528169145110,1.370804478,1,0.2059013427734375,1.7417817077636717,-11.226411584472656
3528173144590,1.374803958,1,0.2154781494140625,1.7334020019531249,-11.235988391113281
3528177144381,1.378803749,1,0.23104046020507812,1.7405846069335937,-11.2240173828125
3528181145162,1.38280453,1,0.19512743530273435,1.7334020019531249,-11.200075366210937
3528185144433,1.386803801,1,0.23702596435546874,1.734599102783203,-11.201272467041015
3528189143756,1.390803124,1,0.2549824768066406,1.7298106994628906,-11.186907257080078
3528193144329,1.394803697,1,0.23223756103515625,1.7262193969726563,-11.196484063720703
3528197144850,1.398804218,1,0.21188684692382811,1.7262193969726563,-11.196484063720703
3528201143027,1.402802395,1,0.21308394775390624,1.7369933044433592,-11.17254204711914
3528205145840,1.406805208,1,0.22864625854492185,1.7357962036132812,-11.188104357910156
3528209144173,1.410803541,1,0.23104046020507812,1.7489643127441405,-11.19887826538086
3528213143340,1.414802708,1,0.22864625854492185,1.7322049011230467,-11.225214483642578
3528217145944,1.418805312,1,0.23822306518554687,1.7417817077636717,-11.182118853759764
3528221143548,1.422802916,1,0.2166752502441406,1.7118541870117185,-11.214440576171874
3528225144850,1.426804218,1,0.21906945190429686,1.7286135986328124,-11.190498559570312
3528229144069,1.430803437,1,0.19991583862304688,1.715445489501953,-11.16057103881836
3528233144746,1.434804114,1,0.23822306518554687,1.7357962036132812,-11.167753643798827
3528237145162,1.43880453,1,0.2346317626953125,1.744175909423828,-11.165359442138671
3528241144225,1.442803593,1,0.22864625854492185,1.7298106994628906,-11.168950744628905
3528245144173,1.446803541,1,0.22744915771484372,1.7489643127441405,-11.1474029296875
3528249144329,1.450803697,1,0.23822306518554687,1.7369933044433592,-11.170147845458983
3528253141569,1.454800937,1,0.21308394775390624,1.7369933044433592,-11.164162341308593
3528257144381,1.458803749,1,0.19871873779296872,1.744175909423828,-11.222820281982422
3528261145423,1.462804791,1,0.22864625854492185,1.7393875061035156,-11.212046374511718
3528265145787,1.466805155,1,0.28969840087890625,1.7477672119140624,-11.200075366210937
3528269145319,1.470804687,1,0.23822306518554687,1.7381904052734374,-11.203666668701171
3528273145423,1.474804791,1,0.23582886352539062,1.7357962036132812,-11.174936248779296
3528277143756,1.478803124,1,0.21787235107421873,1.7405846069335937,-11.209652172851563
3528281144694,1.482804062,1,0.23343466186523437,1.715445489501953,-11.186907257080078
3528285143965,1.486803333,1,0.24061726684570311,1.7334020019531249,-11.195286962890624
3528289145215,1.490804583,1,0.239420166015625,1.7465701110839842,-11.219228979492186
3528293145267,1.494804635,1,0.22744915771484372,1.7322049011230467,-11.196484063720703
3528297145058,1.498804426,1,0.23702596435546874,1.7369933044433592,-11.192892761230468
3528301144954,1.502804322,1,0.22266075439453123,1.7477672119140624,-11.220426080322264
3528305142819,1.506802187,1,0.22266075439453123,1.7357962036132812,-11.21683477783203
3528309144694,1.510804062,1,0.1879448303222656,1.7322049011230467,-11.219228979492186
3528313144746,1.514804114,1,0.2346317626953125,1.7022773803710936,-11.184513055419922
3528317144589,1.518803957,1,0.20470424194335937,1.7298106994628906,-11.2240173828125
3528321144485,1.522803853,1,0.21428104858398436,1.7322049011230467,-11.219228979492186
3528325144746,1.526804114,1,0.23822306518554687,1.753752716064453,-11.253944903564452
3528329144746,1.530804114,1,0.22385785522460935,1.7429788085937499,-11.218031878662108
3528333145162,1.53480453,1,0.23223756103515625,1.7238251953125,-11.195286962890624
3528337145214,1.538804582,1,0.239420166015625,1.725022296142578,-11.183315954589844
3528341144694,1.542804062,1,0.21787235107421873,1.7477672119140624,-11.155782635498046
3528345144277,1.546803645,1,0.22864625854492185,1.7357962036132812,-11.173739147949219
3528349144798,1.550804166,1,0.22864625854492185,1.7262193969726563,-11.194089862060546
3528353144537,1.554803905,1,0.22266075439453123,1.744175909423828,-11.197681164550781
3528357144694,1.558804062,1,0.21787235107421873,1.7322049011230467,-11.190498559570312
3528361145006,1.562804374,1,0.1927332336425781,1.7214309936523438,-11.19169566040039
3528365151204,1.566810572,1,0.22505495605468748,1.7190367919921874,-11.19169566040039
3528369146881,1.570806249,1,0.23223756103515625,1.7286135986328124,-11.17254204711914
3528373144902,1.57480427,1,0.23702596435546874,1.7130512878417967,-11.195286962890624
3528377145735,1.578805103,1,0.22864625854492185,1.707065783691406,-11.18571015625
3528381145579,1.582804947,1,0.2214636535644531,1.715445489501953,-11.194089862060546
3528385144173,1.586803541,1,0.22864625854492185,1.7034744812011717,-11.207257971191405
3528389144902,1.59080427,1,0.2214636535644531,1.7238251953125,-11.203666668701171
3528393145110,1.594804478,1,0.2059013427734375,1.7262193969726563,-11.189301458740234
3528397146100,1.598805468,1,0.21188684692382811,1.7381904052734374,-11.19169566040039
3528401144850,1.602804218,1,0.22864625854492185,1.7381904052734374,-11.179724652099608
3528405144589,1.606803957,1,0.22864625854492185,1.7357962036132812,-11.197681164550781
3528409144850,1.610804218,1,0.23104046020507812,1.7166425903320313,-11.190498559570312
3528413144121,1.614803489,1,0.229843359375,1.715445489501953,-11.201272467041015
3528417144121,1.618803489,1,0.19871873779296872,1.7178396911621092,-11.195286962890624
3528421145006,1.622804374,1,0.2166752502441406,1.7202338928222656,-11.192892761230468
3528425143964,1.626803332,1,0.23223756103515625,1.7106570861816406,-11.170147845458983
3528429145006,1.630804374,1,0.2346317626953125,1.705868682861328,-11.176133349609374
3528433144850,1.634804218,1,0.24779987182617186,1.7214309936523438,-11.18571015625
3528437144433,1.638803801,1,0.23343466186523437,1.7226280944824217,-11.202469567871093
3528441145110,1.642804478,1,0.23223756103515625,1.7405846069335937,-11.222820281982422
3528445145214,1.646804582,1,0.21308394775390624,1.7226280944824217,-11.206060870361327
3528449143079,1.650802447,1,0.2166752502441406,1.7238251953125,-11.18571015625
3528453146100,1.654805468,1,0.20829554443359374,1.705868682861328,-11.179724652099608
3528457144850,1.658804218,1,0.201112939453125,1.7178396911621092,-11.17254204711914
3528461144798,1.662804166,1,0.22385785522460935,1.7334020019531249,-11.190498559570312
3528465146100,1.666805468,1,0.2262520568847656,1.7393875061035156,-11.204863769531249
3528469144589,1.670803957,1,0.24061726684570311,1.7334020019531249,-11.174936248779296
3528473143860,1.674803228,1,0.23343466186523437,1.7238251953125,-11.180921752929686
3528477145527,1.678804895,1,0.21787235107421873,1.7238251953125,-11.186907257080078
3528481144381,1.682803749,1,0.22026655273437498,1.7226280944824217,-11.186907257080078
3528485145631,1.686804999,1,0.1975216369628906,1.715445489501953,-11.194089862060546
3528489144694,1.690804062,1,0.21906945190429686,1.7453730102539062,-11.212046374511718
3528493144173,1.694803541,1,0.21308394775390624,1.7525556152343749,-11.21084927368164
3528497143912,1.69880328,1,0.21787235107421873,1.7381904052734374,-11.218031878662108
3528501144485,1.702803853,1,0.2214636535644531,1.744175909423828,-11.192892761230468
3528505144694,1.706804062,1,0.22864625854492185,1.744175909423828,-11.170147845458983
3528509143131,1.710802499,1,0.23702596435546874,1.7238251953125,-11.156979736328124
3528513145319,1.714804687,1,0.239420166015625,1.7262193969726563,-11.180921752929686
3528517144537,1.718803905,1,0.22026655273437498,1.7214309936523438,-11.192892761230468
3528521283860,1.722943228,1,0.24301146850585936,1.7405846069335937,-11.189301458740234
3528525147766,1.726807134,1,0.2442085693359375,1.7549498168945312,-11.192892761230468
3528529145891,1.730805259,1,0.24660277099609373,1.725022296142578,-11.19169566040039
3528533145162,1.73480453,1,0.22744915771484372,1.7286135986328124,-11.18571015625
3528537145371,1.738804739,1,0.2214636535644531,1.7286135986328124,-11.149797131347656
3528541142923,1.742802291,1,0.21906945190429686,1.7429788085937499,-11.17254204711914
3528545145162,1.74680453,1,0.19393033447265623,1.725022296142578,-11.214440576171874
3528549146360,1.750805728,1,0.20231004028320312,1.7369933044433592,-11.173739147949219
3528553145475,1.754804843,1,0.20829554443359374,1.7274164978027342,-11.158176837158203
3528557144485,1.758803853,1,0.2154781494140625,1.7357962036132812,-11.146205828857422
3528561145266,1.762804634,1,0.21068974609375,1.7286135986328124,-11.2240173828125
3528565144954,1.766804322,1,0.25258827514648435,1.725022296142578,-11.234791290283203
3528569144485,1.770803853,1,0.24779987182617186,1.7130512878417967,-11.212046374511718
3528573144485,1.774803853,1,0.2454056701660156,1.7166425903320313,-11.202469567871093
3528577144537,1.778803905,1,0.2214636535644531,1.7202338928222656,-11.1474029296875
3528581144954,1.782804322,1,0.23702596435546874,1.725022296142578,-11.16057103881836
3528585145266,1.786804634,1,0.2597708801269531,1.7118541870117185,-11.162965240478515
3528589145735,1.790805103,1,0.23104046020507812,1.7393875061035156,-11.222820281982422
3528593145319,1.794804687,1,0.22266075439453123,1.7214309936523438,-11.219228979492186
3528597145996,1.798805364,1,0.2262520568847656,1.7310078002929687,-11.196484063720703
3528601145162,1.80280453,1,0.25139117431640623,1.7429788085937499,-11.21683477783203
3528605144537,1.806803905,1,0.22744915771484372,1.7477672119140624,-11.177330450439452
3528609144746,1.810804114,1,0.20709844360351562,1.7429788085937499,-11.164162341308593
3528613145527,1.814804895,1,0.2154781494140625,1.7166425903320313,-11.179724652099608
3528617144902,1.81880427,1,0.20709844360351562,1.7513585144042967,-11.154585534667968
3528621145475,1.822804843,1,0.24899697265624998,1.7369933044433592,-11.164162341308593
3528625144433,1.826803801,1,0.2657563842773437,1.725022296142578,-11.21683477783203
3528629144902,1.83080427,1,0.2442085693359375,1.7178396911621092,-11.222820281982422
3528633144798,1.834804166,1,0.21787235107421873,1.7238251953125,-11.204863769531249
3528637145683,1.838805051,1,0.23702596435546874,1.7238251953125,-11.182118853759764
3528641144537,1.842803905,1,0.24301146850585936,1.7274164978027342,-11.184513055419922
3528645145475,1.846804843,1,0.2501940734863281,1.7178396911621092,-11.189301458740234
3528649144954,1.850804322,1,0.229843359375,1.7238251953125,-11.179724652099608
3528653145110,1.854804478,1,0.2154781494140625,1.7130512878417967,-11.171344946289063
3528657145266,1.858804634,1,0.22266075439453123,1.7238251953125,-11.170147845458983
3528661145319,1.862804687,1,0.22026655273437498,1.7238251953125,-11.209652172851563
3528665144589,1.866803957,1,0.23702596435546874,1.7513585144042967,-11.239579693603515
3528669145423,1.870804791,1,0.21787235107421873,1.7369933044433592,-11.219228979492186
3528673144641,1.874804009,1,0.22864625854492185,1.715445489501953,-11.233594189453123
3528677145891,1.878805259,1,0.2454056701660156,1.7166425903320313,-11.228805786132812
3528681145214,1.882804582,1,0.24301146850585936,1.7477672119140624,-11.188104357910156
3528685144746,1.886804114,1,0.25139117431640623,1.744175909423828,-11.188104357910156
3528689143912,1.89080328,1,0.25258827514648435,1.7262193969726563,-11.195286962890624
3528693145110,1.894804478,1,0.2537853759765625,1.715445489501953,-11.225214483642578
3528697143183,1.898802551,1,0.23343466186523437,1.734599102783203,-11.212046374511718
3528701145996,1.902805364,1,0.24660277099609373,1.725022296142578,-11.17852755126953
3528705145319,1.906804687,1,0.2537853759765625,1.7286135986328124,-11.167753643798827
3528709145214,1.910804582,1,0.23343466186523437,1.7381904052734374,-11.186907257080078
3528713145527,1.914804895,1,0.24899697265624998,1.7238251953125,-11.137826123046874
3528717145058,1.918804426,1,0.23223756103515625,1.7453730102539062,-11.143811627197264
3528721145631,1.922804999,1,0.19512743530273435,1.7417817077636717,-11.166556542968749
3528725145839,1.926805207,1,0.22505495605468748,1.734599102783203,-11.213243475341796
3528729144850,1.930804218,1,0.2442085693359375,1.7477672119140624,-11.243170996093749
3528733144798,1.934804166,1,0.22385785522460935,1.7334020019531249,-11.170147845458983
3528737144589,1.938803957,1,0.22505495605468748,1.7429788085937499,-11.167753643798827
3528741151933,1.942811301,1,0.2154781494140625,1.7322049011230467,-11.196484063720703
3528745146464,1.946805832,1,0.23702596435546874,1.7214309936523438,-11.154585534667968
3528749144693,1.950804061,1,0.2154781494140625,1.734599102783203,-11.16057103881836
3528753144485,1.954803853,1,0.2262520568847656,1.7238251953125,-11.179724652099608
3528757144381,1.958803749,1,0.23822306518554687,1.7453730102539062,-11.17254204711914
3528761144902,1.96280427,1,0.22385785522460935,1.7286135986328124,-11.137826123046874
3528765144277,1.966803645,1,0.2537853759765625,1.7453730102539062,-11.170147845458983
3528769145110,1.970804478,1,0.23343466186523437,1.7417817077636717,-11.182118853759764
3528773145110,1.974804478,1,0.22864625854492185,1.7130512878417967,-11.164162341308593
3528777144902,1.97880427,1,0.22505495605468748,1.7334020019531249,-11.168950744628905
3528781144746,1.982804114,1,0.23104046020507812,1.7561469177246092,-11.186907257080078
3528785145110,1.986804478,1,0.24779987182617186,1.7489643127441405,-11.183315954589844
3528789144798,1.990804166,1,0.2346317626953125,1.7513585144042967,-11.162965240478515
3528793144381,1.994803749,1,0.21068974609375,1.7238251953125,-11.15338843383789
3528797145475,1.998804843,1,0.21428104858398436,1.6927005737304686,-11.177330450439452
3528801145735,2.002805103,1,0.22026655273437498,1.7238251953125,-11.196484063720703
3528805144746,2.006804114,1,0.2346317626953125,1.7369933044433592,-11.202469567871093
3528809145371,2.010804739,1,0.23223756103515625,1.7262193969726563,-11.221623181152344
3528813145214,2.014804582,1,0.23343466186523437,1.7417817077636717,-11.207257971191405
3528817144902,2.01880427,1,0.23582886352539062,1.7585411193847655,-11.200075366210937
3528821144589,2.022803957,1,0.21188684692382811,1.7549498168945312,-11.188104357910156
3528825144954,2.026804322,1,0.20949264526367187,1.7369933044433592,-11.136629022216797
3528829145475,2.030804843,1,0.21906945190429686,1.715445489501953,-11.166556542968749
3528833145683,2.034805051,1,0.2262520568847656,1.675941162109375,-11.159373937988281
3528837145058,2.038804426,1,0.21787235107421873,1.7214309936523438,-11.182118853759764
3528841145006,2.042804374,1,0.23343466186523437,1.7381904052734374,-11.219228979492186
3528845144537,2.046803905,1,0.22864625854492185,1.744175909423828,-11.195286962890624
3528849144902,2.05080427,1,0.24301146850585936,1.7465701110839842,-11.161768139648437
3528853145006,2.054804374,1,0.229843359375,1.7226280944824217,-11.17852755126953
3528857149537,2.058808905,1,0.22864625854492185,1.7286135986328124,-11.176133349609374
3528861146829,2.062806197,1,0.229843359375,1.7262193969726563,-11.190498559570312
3528865145110,2.066804478,1,0.25139117431640623,1.7310078002929687,-11.184513055419922
3528869144850,2.070804218,1,0.22385785522460935,1.7381904052734374,-11.200075366210937
3528873145318,2.074804686,1,0.23343466186523437,1.7501614135742187,-11.184513055419922
3528877144589,2.078803957,1,0.21906945190429686,1.7417817077636717,-11.176133349609374
3528881145475,2.082804843,1,0.19991583862304688,1.7381904052734374,-11.155782635498046
3528885144225,2.086803593,1,0.24660277099609373,1.7369933044433592,-11.182118853759764
3528889144121,2.090803489,1,0.26695348510742184,1.7489643127441405,-11.19169566040039
3528893145214,2.094804582,1,0.23104046020507812,1.7226280944824217,-11.190498559570312
3528897145006,2.098804374,1,0.22864625854492185,1.7369933044433592,-11.186907257080078
3528901145110,2.102804478,1,0.2166752502441406,1.744175909423828,-11.189301458740234
3528905144746,2.106804114,1,0.22505495605468748,1.7226280944824217,-11.189301458740234
3528909144746,2.110804114,1,0.23104046020507812,1.7310078002929687,-11.219228979492186
3528913144173,2.114803541,1,0.2262520568847656,1.715445489501953,-11.184513055419922
3528917143808,2.118803176,1,0.21906945190429686,1.7262193969726563,-11.195286962890624
3528921144798,2.122804166,1,0.2166752502441406,1.725022296142578,-11.203666668701171
3528925144746,2.126804114,1,0.22505495605468748,1.7549498168945312,-11.182118853759764
3528929144329,2.130803697,1,0.25258827514648435,1.7417817077636717,-11.166556542968749
3528933145579,2.134804947,1,0.26216508178710934,1.744175909423828,-11.184513055419922
3528937145891,2.138805259,1,0.22864625854492185,1.7214309936523438,-11.203666668701171
3528941145787,2.142805155,1,0.2166752502441406,1.7310078002929687,-11.179724652099608
3528945143443,2.146802811,1,0.19393033447265623,1.7369933044433592,-11.177330450439452
3528949146568,2.150805936,1,0.23104046020507812,1.7393875061035156,-11.162965240478515
3528953145631,2.154804999,1,0.2549824768066406,1.7322049011230467,-11.182118853759764
3528957144954,2.158804322,1,0.22385785522460935,1.7106570861816406,-11.208455072021483
3528961144381,2.162803749,1,0.22026655273437498,1.7166425903320313,-11.186907257080078
3528965145162,2.16680453,1,0.22266075439453123,1.7202338928222656,-11.16057103881836
3528969145006,2.170804374,1,0.23104046020507812,1.715445489501953,-11.161768139648437
3528973144381,2.174803749,1,0.20829554443359374,1.7274164978027342,-11.182118853759764
3528977145266,2.178804634,1,0.20829554443359374,1.696291876220703,-11.155782635498046
3528981144798,2.182804166,1,0.2154781494140625,1.697488977050781,-11.180921752929686
3528985144798,2.186804166,1,0.2262520568847656,1.7178396911621092,-11.174936248779296
3528989145318,2.190804686,1,0.24061726684570311,1.7106570861816406,-11.164162341308593
3528993144798,2.194804166,1,0.22266075439453123,1.697488977050781,-11.196484063720703
3528997145318,2.198804686,1,0.21308394775390624,1.7190367919921874,-11.221623181152344
3529001145527,2.202804895,1,0.2346317626953125,1.7214309936523438,-11.197681164550781
3529005144485,2.206803853,1,0.2262520568847656,1.7274164978027342,-11.171344946289063
3529009144225,2.210803593,1,0.1975216369628906,1.7274164978027342,-11.188104357910156
3529013145527,2.214804895,1,0.18914193115234373,1.7477672119140624,-11.190498559570312
3529017144954,2.218804322,1,0.20470424194335937,1.7322049011230467,-11.220426080322264
3529021144173,2.222803541,1,0.2454056701660156,1.7286135986328124,-11.246762298583985
3529025145579,2.226804947,1,0.24660277099609373,1.7322049011230467,-11.21084927368164
3529029144954,2.230804322,1,0.23702596435546874,1.7298106994628906,-11.23718549194336
3529033144798,2.234804166,1,0.22385785522460935,1.7034744812011717,-11.23718549194336
3529037144485,2.238803853,1,0.2442085693359375,1.697488977050781,-11.232397088623046
3529041145058,2.242804426,1,0.23822306518554687,1.695094775390625,-11.214440576171874
3529045145631,2.246804999,1,0.2262520568847656,1.7130512878417967,-11.19887826538086
3529049145318,2.250804686,1,0.24779987182617186,1.7393875061035156,-11.177330450439452
3529053144850,2.254804218,1,0.23343466186523437,1.7322049011230467,-11.208455072021483
3529057144589,2.258803957,1,0.22864625854492185,1.7166425903320313,-11.201272467041015
3529061144798,2.262804166,1,0.23104046020507812,1.734599102783203,-11.218031878662108
3529065144850,2.266804218,1,0.22744915771484372,1.7429788085937499,-11.226411584472656
3529069144745,2.270804113,1,0.2501940734863281,1.744175909423828,-11.202469567871093
3529073144329,2.274803697,1,0.2346317626953125,1.7501614135742187,-11.206060870361327
3529077144589,2.278803957,1,0.23582886352539062,1.7405846069335937,-11.228805786132812
3529081144954,2.282804322,1,0.20470424194335937,1.734599102783203,-11.215637677001952
3529085144693,2.286804061,1,0.21188684692382811,1.7286135986328124,-11.19887826538086
3529089145006,2.290804374,1,0.2166752502441406,1.714248388671875,-11.174936248779296
3529093145318,2.294804686,1,0.22505495605468748,1.7453730102539062,-11.214440576171874
3529097144902,2.29880427,1,0.22864625854492185,1.7525556152343749,-11.18571015625
3529101144329,2.302803697,1,0.2214636535644531,1.7190367919921874,-11.168950744628905
3529105143964,2.306803332,1,0.2346317626953125,1.7178396911621092,-11.19169566040039
3529109145318,2.310804686,1,0.239420166015625,1.7310078002929687,-11.170147845458983
3529113144433,2.314803801,1,0.24899697265624998,1.7357962036132812,-11.179724652099608
3529117145058,2.318804426,1,0.2501940734863281,1.7465701110839842,-11.17852755126953
3529121144068,2.322803436,1,0.239420166015625,1.7417817077636717,-11.173739147949219
3529125145162,2.32680453,1,0.2214636535644531,1.7357962036132812,-11.196484063720703
3529129145423,2.330804791,1,0.22026655273437498,1.725022296142578,-11.190498559570312
3529133144850,2.334804218,1,0.20350714111328125,1.7286135986328124,-11.177330450439452
3529137145683,2.338805051,1,0.21906945190429686,1.6986860778808592,-11.221623181152344
3529141144745,2.342804113,1,0.21188684692382811,1.725022296142578,-11.17254204711914
3529145145006,2.346804374,1,0.22266075439453123,1.7238251953125,-11.168950744628905
3529149145683,2.350805051,1,0.22266075439453123,1.7465701110839842,-11.176133349609374
3529153145475,2.354804843,1,0.229843359375,1.7286135986328124,-11.170147845458983
3529157145110,2.358804478,1,0.2346317626953125,1.7166425903320313,-11.170147845458983
3529161145423,2.362804791,1,0.22266075439453123,1.7334020019531249,-11.14022032470703
3529165145527,2.366804895,1,0.21428104858398436,1.7286135986328124,-11.166556542968749
3529169145266,2.370804634,1,0.20350714111328125,1.7381904052734374,-11.186907257080078
3529173144329,2.374803697,1,0.22744915771484372,1.7393875061035156,-11.188104357910156
3529177145110,2.378804478,1,0.22744915771484372,1.7334020019531249,-11.183315954589844
3529181144745,2.382804113,1,0.21428104858398436,1.7166425903320313,-11.183315954589844
3529185144485,2.386803853,1,0.21428104858398436,1.7214309936523438,-11.168950744628905
3529189144589,2.390803957,1,0.22026655273437498,1.7226280944824217,-11.170147845458983
3529193143600,2.394802968,1,0.2262520568847656,1.7453730102539062,-11.17852755126953
3529197145475,2.398804843,1,0.23223756103515625,1.7477672119140624,-11.183315954589844
3529201144797,2.402804165,1,0.21188684692382811,1.7465701110839842,-11.161768139648437
3529205144745,2.406804113,1,0.21068974609375,1.7334020019531249,-11.171344946289063
3529209145058,2.410804426,1,0.2214636535644531,1.7357962036132812,-11.159373937988281
3529213144797,2.414804165,1,0.20231004028320312,1.7513585144042967,-11.194089862060546
3529217145006,2.418804374,1,0.21188684692382811,1.7513585144042967,-11.180921752929686
3529221142610,2.422801978,1,0.22505495605468748,1.7357962036132812,-11.184513055419922
3529225144797,2.426804165,1,0.25737667846679685,1.7310078002929687,-11.195286962890624
3529229144068,2.430803436,1,0.23702596435546874,1.7369933044433592,-11.18571015625
3529233144537,2.434803905,1,0.239420166015625,1.7298106994628906,-11.196484063720703
3529237150162,2.43880953,1,0.23582886352539062,1.7357962036132812,-11.208455072021483
3529241146933,2.442806301,1,0.25258827514648435,1.7238251953125,-11.234791290283203
3529245142714,2.446802082,1,0.2454056701660156,1.734599102783203,-11.215637677001952
3529249145318,2.450804686,1,0.2262520568847656,1.7274164978027342,-11.189301458740234
3529253144745,2.454804113,1,0.2442085693359375,1.7322049011230467,-11.176133349609374
3529257144954,2.458804322,1,0.20949264526367187,1.7298106994628906,-11.145008728027342
3529261145214,2.462804582,1,0.20949264526367187,1.7393875061035156,-11.19887826538086
3529265144902,2.46680427,1,0.2214636535644531,1.7525556152343749,-11.190498559570312
3529269145318,2.470804686,1,0.21188684692382811,1.7405846069335937,-11.202469567871093
3529273144537,2.474803905,1,0.22505495605468748,1.7310078002929687,-11.152191333007812
3529277144225,2.478803593,1,0.22744915771484372,1.7477672119140624,-11.162965240478515
3529281146725,2.482806093,1,0.22026655273437498,1.7453730102539062,-11.158176837158203
3529285145058,2.486804426,1,0.21308394775390624,1.7310078002929687,-11.130643518066405
3529289144902,2.49080427,1,0.24660277099609373,1.7190367919921874,-11.170147845458983
3529293144693,2.494804061,1,0.2537853759765625,1.70467158203125,-11.171344946289063
3529297144797,2.498804165,1,0.23104046020507812,1.7130512878417967,-11.17254204711914
3529301144902,2.50280427,1,0.23582886352539062,1.725022296142578,-11.203666668701171
3529305145527,2.506804895,1,0.2262520568847656,1.7214309936523438,-11.213243475341796
3529309144797,2.510804165,1,0.21188684692382811,1.7381904052734374,-11.209652172851563
3529313144537,2.514803905,1,0.21906945190429686,1.7405846069335937,-11.23000288696289
3529317145162,2.51880453,1,0.1879448303222656,1.7310078002929687,-11.207257971191405
3529321144954,2.522804322,1,0.2154781494140625,1.7357962036132812,-11.170147845458983
3529325144954,2.526804322,1,0.23822306518554687,1.715445489501953,-11.159373937988281
3529329145058,2.530804426,1,0.239420166015625,1.7334020019531249,-11.201272467041015
3529333145006,2.534804374,1,0.20949264526367187,1.7417817077636717,-11.207257971191405
3529337145006,2.538804374,1,0.20231004028320312,1.7202338928222656,-11.176133349609374
3529341144329,2.542803697,1,0.2262520568847656,1.7178396911621092,-11.182118853759764
3529345144381,2.546803749,1,0.22505495605468748,1.7226280944824217,-11.18571015625
3529349145214,2.550804582,1,0.22266075439453123,1.7286135986328124,-11.170147845458983
3529353145683,2.554805051,1,0.2346317626953125,1.7334020019531249,-11.194089862060546
3529357144797,2.558804165,1,0.23104046020507812,1.7178396911621092,-11.238382592773437
3529361144120,2.562803488,1,0.2166752502441406,1.7501614135742187,-11.212046374511718
3529365144797,2.566804165,1,0.22385785522460935,1.7334020019531249,-11.226411584472656
3529369144485,2.570803853,1,0.22026655273437498,1.7334020019531249,-11.190498559570312
3529373145162,2.57480453,1,0.21188684692382811,1.7334020019531249,-11.204863769531249
3529377144485,2.578803853,1,0.22026655273437498,1.7322049011230467,-11.227608685302734
3529381145475,2.582804843,1,0.23582886352539062,1.7477672119140624,-11.218031878662108
3529385145631,2.586804999,1,0.229843359375,1.7286135986328124,-11.200075366210937
3529389145058,2.590804426,1,0.2442085693359375,1.7393875061035156,-11.214440576171874
3529393144745,2.594804113,1,0.229843359375,1.7190367919921874,-11.246762298583985
3529397144381,2.598803749,1,0.23702596435546874,1.7298106994628906,-11.184513055419922
3529401144068,2.602803436,1,0.22505495605468748,1.725022296142578,-11.18571015625
3529405144485,2.606803853,1,0.20709844360351562,1.7298106994628906,-11.18571015625
3529409144224,2.610803592,1,0.20709844360351562,1.707065783691406,-11.177330450439452
3529413145631,2.614804999,1,0.21906945190429686,1.7106570861816406,-11.196484063720703
3529417145891,2.618805259,1,0.20709844360351562,1.7417817077636717,-11.212046374511718
3529421145058,2.622804426,1,0.2154781494140625,1.7429788085937499,-11.197681164550781
3529425145422,2.62680479,1,0.21787235107421873,1.7405846069335937,-11.190498559570312
3529429145058,2.630804426,1,0.2059013427734375,1.7082628845214842,-11.159373937988281
3529433145110,2.634804478,1,0.21068974609375,1.7190367919921874,-11.174936248779296
3529437145735,2.638805103,1,0.21308394775390624,1.725022296142578,-11.213243475341796
3529441143027,2.642802395,1,0.23343466186523437,1.7166425903320313,-11.219228979492186
3529445146568,2.646805936,1,0.21308394775390624,1.70467158203125,-11.194089862060546
3529449144954,2.650804322,1,0.18315642700195311,1.7262193969726563,-11.206060870361327
3529453145787,2.654805155,1,0.20350714111328125,1.715445489501953,-11.194089862060546
3529457145422,2.65880479,1,0.22385785522460935,1.7238251953125,-11.197681164550781
3529461145318,2.662804686,1,0.23702596435546874,1.7369933044433592,-11.192892761230468
3529465145422,2.66680479,1,0.22744915771484372,1.7501614135742187,-11.190498559570312
3529469144902,2.67080427,1,0.229843359375,1.7286135986328124,-11.192892761230468
3529473144537,2.674803905,1,0.2501940734863281,1.6986860778808592,-11.227608685302734
3529477145631,2.678804999,1,0.22026655273437498,1.725022296142578,-11.221623181152344
3529481145422,2.68280479,1,0.21906945190429686,1.7226280944824217,-11.200075366210937
3529485145214,2.686804582,1,0.2154781494140625,1.7310078002929687,-11.215637677001952
3529489144641,2.690804009,1,0.22026655273437498,1.7369933044433592,-11.184513055419922
3529493144797,2.694804165,1,0.20231004028320312,1.7369933044433592,-11.184513055419922
3529497145266,2.698804634,1,0.24061726684570311,1.744175909423828,-11.182118853759764
3529501145631,2.702804999,1,0.25139117431640623,1.734599102783203,-11.177330450439452
3529505144433,2.706803801,1,0.25258827514648435,1.7226280944824217,-11.173739147949219
3529509144641,2.710804009,1,0.23582886352539062,1.7286135986328124,-11.167753643798827
3529513145006,2.714804374,1,0.22385785522460935,1.734599102783203,-11.1474029296875
3529517144485,2.718803853,1,0.2454056701660156,1.7381904052734374,-11.196484063720703
3529521145214,2.722804582,1,0.2154781494140625,1.7262193969726563,-11.190498559570312
3529525145318,2.726804686,1,0.239420166015625,1.734599102783203,-11.207257971191405
3529529144381,2.730803749,1,0.23104046020507812,1.7310078002929687,-11.201272467041015
3529533143495,2.734802863,1,0.2214636535644531,1.7310078002929687,-11.196484063720703
3529537145839,2.738805207,1,0.22744915771484372,1.7573440185546874,-11.204863769531249
3529541145474,2.742804842,1,0.239420166015625,1.7549498168945312,-11.218031878662108
3529545145110,2.746804478,1,0.22385785522460935,1.7477672119140624,-11.19169566040039
3529549144745,2.750804113,1,0.22505495605468748,1.7465701110839842,-11.167753643798827
3529553145162,2.75480453,1,0.2154781494140625,1.7393875061035156,-11.204863769531249
3529557144589,2.758803957,1,0.22864625854492185,1.7226280944824217,-11.180921752929686
3529561145058,2.762804426,1,0.22385785522460935,1.7238251953125,-11.192892761230468
3529565142766,2.766802134,1,0.20949264526367187,1.7094599853515624,-11.188104357910156
3529569145318,2.770804686,1,0.2214636535644531,1.6891092712402342,-11.195286962890624
3529573145474,2.774804842,1,0.21428104858398436,1.6986860778808592,-11.201272467041015
3529577145370,2.778804738,1,0.2262520568847656,1.744175909423828,-11.194089862060546
3529581144797,2.782804165,1,0.22505495605468748,1.7238251953125,-11.189301458740234
3529585145162,2.78680453,1,0.2214636535644531,1.7118541870117185,-11.213243475341796
3529589144485,2.790803853,1,0.2214636535644531,1.7238251953125,-11.208455072021483
3529593144849,2.794804217,1,0.25258827514648435,1.7489643127441405,-11.207257971191405
3529597145110,2.798804478,1,0.229843359375,1.7130512878417967,-11.212046374511718
3529601144797,2.802804165,1,0.22266075439453123,1.7226280944824217,-11.188104357910156
3529605145370,2.806804738,1,0.2166752502441406,1.70467158203125,-11.165359442138671
3529609145370,2.810804738,1,0.2154781494140625,1.714248388671875,-11.164162341308593
3529613148964,2.814808332,1,0.2059013427734375,1.714248388671875,-11.161768139648437
3529617146829,2.818806197,1,0.239420166015625,1.7322049011230467,-11.17852755126953
3529621144641,2.822804009,1,0.2346317626953125,1.725022296142578,-11.165359442138671
3529625144797,2.826804165,1,0.20829554443359374,1.714248388671875,-11.168950744628905
3529629144224,2.830803592,1,0.20231004028320312,1.7022773803710936,-11.190498559570312
3529633144797,2.834804165,1,0.21188684692382811,1.7166425903320313,-11.209652172851563
3529637145683,2.838805051,1,0.20949264526367187,1.7226280944824217,-11.204863769531249
3529641145266,2.842804634,1,0.2214636535644531,1.7381904052734374,-11.168950744628905
3529645145162,2.84680453,1,0.21188684692382811,1.7393875061035156,-11.203666668701171
3529649145943,2.850805311,1,0.22505495605468748,1.7106570861816406,-11.195286962890624
3529653145422,2.85480479,1,0.22744915771484372,1.714248388671875,-11.195286962890624
3529657145266,2.858804634,1,0.23822306518554687,1.7214309936523438,-11.209652172851563
3529661144849,2.862804217,1,0.25139117431640623,1.7286135986328124,-11.226411584472656
3529665145110,2.866804478,1,0.22744915771484372,1.7226280944824217,-11.196484063720703
3529669145162,2.87080453,1,0.23104046020507812,1.734599102783203,-11.143811627197264
3529673145162,2.87480453,1,0.23104046020507812,1.7465701110839842,-11.167753643798827
3529677145214,2.878804582,1,0.22266075439453123,1.7262193969726563,-11.173739147949219
3529681145006,2.882804374,1,0.22864625854492185,1.7238251953125,-11.190498559570312
3529685145318,2.886804686,1,0.21787235107421873,1.744175909423828,-11.176133349609374
3529689142506,2.890801874,1,0.2346317626953125,1.7310078002929687,-11.177330450439452
3529693144849,2.894804217,1,0.20350714111328125,1.725022296142578,-11.177330450439452
3529697144641,2.898804009,1,0.22505495605468748,1.7310078002929687,-11.173739147949219
3529701145683,2.902805051,1,0.22385785522460935,1.7310078002929687,-11.162965240478515
3529705144276,2.906803644,1,0.24779987182617186,1.7501614135742187,-11.197681164550781
3529709145631,2.910804999,1,0.22744915771484372,1.7465701110839842,-11.194089862060546
3529713145110,2.914804478,1,0.229843359375,1.725022296142578,-11.184513055419922
3529717144172,2.91880354,1,0.23702596435546874,1.7334020019531249,-11.168950744628905
3529721144849,2.922804217,1,0.23104046020507812,1.7429788085937499,-11.186907257080078
3529725145422,2.92680479,1,0.21906945190429686,1.7298106994628906,-11.176133349609374
3529729144329,2.930803697,1,0.20829554443359374,1.705868682861328,-11.2240173828125
3529733144797,2.934804165,1,0.21308394775390624,1.7094599853515624,-11.219228979492186
3529737145006,2.938804374,1,0.2262520568847656,1.734599102783203,-11.184513055419922
3529741144537,2.942803905,1,0.21787235107421873,1.7417817077636717,-11.209652172851563
3529745144329,2.946803697,1,0.2262520568847656,1.7417817077636717,-11.221623181152344
3529749144433,2.950803801,1,0.21787235107421873,1.7417817077636717,-11.228805786132812
3529753144224,2.954803592,1,0.24181436767578124,1.725022296142578,-11.202469567871093
3529757145266,2.958804634,1,0.21906945190429686,1.7298106994628906,-11.189301458740234
3529761144641,2.962804009,1,0.22744915771484372,1.734599102783203,-11.18571015625
3529765144901,2.966804269,1,0.23104046020507812,1.7262193969726563,-11.145008728027342
3529769145162,2.97080453,1,0.22385785522460935,1.7453730102539062,-11.19887826538086
3529773144901,2.974804269,1,0.20350714111328125,1.7310078002929687,-11.17852755126953
3529777144433,2.978803801,1,0.2059013427734375,1.744175909423828,-11.206060870361327
3529781144954,2.982804322,1,0.19871873779296872,1.7405846069335937,-11.179724652099608
3529785145266,2.986804634,1,0.2214636535644531,1.744175909423828,-11.177330450439452
3529789143756,2.990803124,1,0.22744915771484372,1.7214309936523438,-11.196484063720703
3529793146099,2.994805467,1,0.21787235107421873,1.7298106994628906,-11.195286962890624
3529797145058,2.998804426,1,0.22744915771484372,1.7178396911621092,-11.188104357910156
3529801145162,3.00280453,1,0.22864625854492185,1.7453730102539062,-11.148600030517578
3529805145370,3.006804738,1,0.20350714111328125,1.7286135986328124,-11.167753643798827
3529809144745,3.010804113,1,0.22505495605468748,1.715445489501953,-11.161768139648437
3529813144797,3.014804165,1,0.21188684692382811,1.7190367919921874,-11.166556542968749
3529817144381,3.018803749,1,0.2166752502441406,1.715445489501953,-11.209652172851563
3529821144954,3.022804322,1,0.2346317626953125,1.7549498168945312,-11.173739147949219
3529825144641,3.026804009,1,0.23104046020507812,1.7178396911621092,-11.183315954589844
3529829145370,3.030804738,1,0.22385785522460935,1.7166425903320313,-11.212046374511718
3529833144641,3.034804009,1,0.22266075439453123,1.7178396911621092,-11.18571015625
3529837145214,3.038804582,1,0.22385785522460935,1.7274164978027342,-11.204863769531249
3529841144953,3.042804321,1,0.22744915771484372,1.7106570861816406,-11.227608685302734
3529845144641,3.046804009,1,0.2059013427734375,1.707065783691406,-11.2240173828125
3529849145110,3.050804478,1,0.2262520568847656,1.7274164978027342,-11.220426080322264
3529853144745,3.054804113,1,0.21428104858398436,1.7034744812011717,-11.183315954589844
3529857145266,3.058804634,1,0.23702596435546874,1.7190367919921874,-11.222820281982422
3529861145891,3.062805259,1,0.26336218261718747,1.7202338928222656,-11.225214483642578
3529865144953,3.066804321,1,0.23223756103515625,1.7190367919921874,-11.212046374511718
3529869144537,3.070803905,1,0.22026655273437498,1.7645266235351562,-11.179724652099608
3529873144953,3.074804321,1,0.20829554443359374,1.7501614135742187,-11.208455072021483
3529877144537,3.078803905,1,0.22266075439453123,1.7262193969726563,-11.188104357910156
3529881144537,3.082803905,1,0.23702596435546874,1.7286135986328124,-11.195286962890624
3529885144433,3.086803801,1,0.22744915771484372,1.7357962036132812,-11.23000288696289
3529889144328,3.090803696,1,0.2346317626953125,1.7357962036132812,-11.235988391113281
3529893144953,3.094804321,1,0.2442085693359375,1.7429788085937499,-11.222820281982422
3529897145370,3.098804738,1,0.2442085693359375,1.707065783691406,-11.170147845458983
3529901145058,3.102804426,1,0.22864625854492185,1.7238251953125,-11.183315954589844
3529905144381,3.106803749,1,0.2262520568847656,1.7357962036132812,-11.182118853759764
3529909145683,3.110805051,1,0.23343466186523437,1.7525556152343749,-11.182118853759764
3529913145526,3.114804894,1,0.2549824768066406,1.7190367919921874,-11.214440576171874
3529917144224,3.118803592,1,0.21787235107421873,1.7226280944824217,-11.195286962890624
3529921144328,3.122803696,1,0.19153613281249998,1.7369933044433592,-11.155782635498046
3529925144745,3.126804113,1,0.1927332336425781,1.7393875061035156,-11.18571015625
3529929145631,3.130804999,1,0.23223756103515625,1.7405846069335937,-11.194089862060546
3529933145214,3.134804582,1,0.239420166015625,1.7393875061035156,-11.207257971191405
3529937143495,3.138802863,1,0.23702596435546874,1.7094599853515624,-11.19887826538086
3529941145787,3.142805155,1,0.2154781494140625,1.7357962036132812,-11.195286962890624
3529945145006,3.146804374,1,0.21906945190429686,1.714248388671875,-11.21084927368164
3529949142818,3.150802186,1,0.22385785522460935,1.70467158203125,-11.200075366210937
3529953144953,3.154804321,1,0.23343466186523437,1.7190367919921874,-11.203666668701171
3529957144849,3.158804217,1,0.23702596435546874,1.744175909423828,-11.195286962890624
3529961144381,3.162803749,1,0.239420166015625,1.725022296142578,-11.19887826538086
3529965144901,3.166804269,1,0.23343466186523437,1.7178396911621092,-11.218031878662108
3529969144901,3.170804269,1,0.2454056701660156,1.7369933044433592,-11.214440576171874
3529973145058,3.174804426,1,0.2154781494140625,1.7381904052734374,-11.209652172851563
3529977144693,3.178804061,1,0.19153613281249998,1.7238251953125,-11.209652172851563
3529981145162,3.18280453,1,0.21308394775390624,1.715445489501953,-11.200075366210937
3529985144328,3.186803696,1,0.21188684692382811,1.734599102783203,-11.19169566040039
3529989149953,3.190809321,1,0.22864625854492185,1.7226280944824217,-11.180921752929686
3529993147297,3.194806665,1,0.23104046020507812,1.7334020019531249,-11.208455072021483
3529997144745,3.198804113,1,0.2454056701660156,1.7274164978027342,-11.18571015625
3530001144797,3.202804165,1,0.23702596435546874,1.7226280944824217,-11.156979736328124
3530005143391,3.206802759,1,0.2501940734863281,1.7369933044433592,-11.17254204711914
3530009144589,3.210803957,1,0.2549824768066406,1.7322049011230467,-11.186907257080078
3530013142766,3.214802134,1,0.23582886352539062,1.734599102783203,-11.19887826538086
3530017144016,3.218803384,1,0.23582886352539062,1.7501614135742187,-11.19169566040039
3530021143443,3.222802811,1,0.2454056701660156,1.7369933044433592,-11.166556542968749
3530025144745,3.226804113,1,0.23343466186523437,1.7106570861816406,-11.166556542968749
3530029144016,3.230803384,1,0.2262520568847656,1.7190367919921874,-11.173739147949219
3530033144381,3.234803749,1,0.19991583862304688,1.7226280944824217,-11.196484063720703
3530037145735,3.238805103,1,0.19393033447265623,1.7334020019531249,-11.195286962890624
3530041145318,3.242804686,1,0.20829554443359374,1.7393875061035156,-11.184513055419922
3530045143756,3.246803124,1,0.20350714111328125,1.7238251953125,-11.180921752929686
3530049145162,3.25080453,1,0.22266075439453123,1.7238251953125,-11.17254204711914
3530053145318,3.254804686,1,0.20350714111328125,1.7262193969726563,-11.164162341308593
3530057145266,3.258804634,1,0.1879448303222656,1.7226280944824217,-11.195286962890624
3530061144328,3.262803696,1,0.19632453613281248,1.7190367919921874,-11.197681164550781
3530065144693,3.266804061,1,0.22505495605468748,1.7238251953125,-11.190498559570312
3530069144224,3.270803592,1,0.24181436767578124,1.725022296142578,-11.21084927368164
3530073144276,3.274803644,1,0.20350714111328125,1.725022296142578,-11.173739147949219
3530077144224,3.278803592,1,0.22385785522460935,1.7310078002929687,-11.192892761230468
3530081145162,3.28280453,1,0.229843359375,1.7357962036132812,-11.158176837158203
3530085144953,3.286804321,1,0.22864625854492185,1.7322049011230467,-11.154585534667968
3530089145318,3.290804686,1,0.22026655273437498,1.7525556152343749,-11.19169566040039
3530093145578,3.294804946,1,0.21308394775390624,1.7657237243652342,-11.15338843383789
3530097145370,3.298804738,1,0.2501940734863281,1.7274164978027342,-11.171344946289063
3530101159380,3.302818748,1,0.22385785522460935,1.725022296142578,-11.179724652099608
3530105185839,3.306845207,1,0.22744915771484372,1.7286135986328124,-11.050437762451171
3530109156255,3.310815623,1,0.2214636535644531,1.7310078002929687,-11.203666668701171
3530113144901,3.314804269,1,0.19512743530273435,1.7465701110839842,-11.19169566040039
3530117143703,3.318803071,1,0.21787235107421873,1.7465701110839842,-11.190498559570312
3530121143443,3.322802811,1,0.20949264526367187,1.744175909423828,-11.176133349609374
3530125143443,3.326802811,1,0.23343466186523437,1.7513585144042967,-11.155782635498046
3530129143339,3.330802707,1,0.239420166015625,1.7453730102539062,-11.206060870361327
3530133142558,3.334801926,1,0.229843359375,1.7214309936523438,-11.207257971191405
3530137143391,3.338802759,1,0.2442085693359375,1.7118541870117185,-11.182118853759764
3530141146464,3.342805832,1,0.2346317626953125,1.7286135986328124,-11.17254204711914
3530145144797,3.346804165,1,0.21188684692382811,1.705868682861328,-11.166556542968749
3530149145630,3.350804998,1,0.23822306518554687,1.7274164978027342,-11.21084927368164
3530153144276,3.354803644,1,0.23223756103515625,1.7381904052734374,-11.215637677001952
3530157144120,3.358803488,1,0.2537853759765625,1.7166425903320313,-11.212046374511718
3530161144589,3.362803957,1,0.23582886352539062,1.7369933044433592,-11.174936248779296
3530165144224,3.366803592,1,0.20470424194335937,1.7393875061035156,-11.174936248779296
3530169144224,3.370803592,1,0.21906945190429686,1.7405846069335937,-11.202469567871093
3530173144120,3.374803488,1,0.23822306518554687,1.7357962036132812,-11.19887826538086
3530177144901,3.378804269,1,0.20829554443359374,1.7429788085937499,-11.182118853759764
3530181146047,3.382805415,1,0.2166752502441406,1.7334020019531249,-11.188104357910156
3530185143703,3.386803071,1,0.20949264526367187,1.7298106994628906,-11.21683477783203
3530189146516,3.390805884,1,0.19871873779296872,1.7166425903320313,-11.232397088623046
3530193144641,3.394804009,1,0.22266075439453123,1.7465701110839842,-11.246762298583985
3530197147610,3.398806978,1,0.22864625854492185,1.7525556152343749,-11.19169566040039
3530201145526,3.402804894,1,0.23702596435546874,1.7286135986328124,-11.196484063720703
3530205144693,3.406804061,1,0.23343466186523437,1.7322049011230467,-11.213243475341796
3530209144433,3.410803801,1,0.22744915771484372,1.7489643127441405,-11.245565197753905
3530213144589,3.414803957,1,0.23343466186523437,1.7477672119140624,-11.19169566040039
3530217144224,3.418803592,1,0.24660277099609373,1.7369933044433592,-11.173739147949219
3530221145422,3.42280479,1,0.20829554443359374,1.7357962036132812,-11.186907257080078
3530225144745,3.426804113,1,0.1975216369628906,1.7357962036132812,-11.189301458740234
3530229142714,3.430802082,1,0.20709844360351562,1.7453730102539062,-11.208455072021483
3530233145578,3.434804946,1,0.22505495605468748,1.7501614135742187,-11.23718549194336
3530237145110,3.438804478,1,0.23702596435546874,1.7465701110839842,-11.215637677001952
3530241144901,3.442804269,1,0.25737667846679685,1.7513585144042967,-11.232397088623046
3530245144589,3.446803957,1,0.23582886352539062,1.7417817077636717,-11.195286962890624
3530249144901,3.450804269,1,0.23582886352539062,1.7262193969726563,-11.165359442138671
3530253145422,3.45480479,1,0.23223756103515625,1.715445489501953,-11.19169566040039
3530257145058,3.458804426,1,0.2262520568847656,1.714248388671875,-11.165359442138671
3530261145214,3.462804582,1,0.22864625854492185,1.7322049011230467,-11.182118853759764
3530265144433,3.466803801,1,0.2214636535644531,1.714248388671875,-11.212046374511718
3530269143755,3.470803123,1,0.22864625854492185,1.7190367919921874,-11.207257971191405
3530273145162,3.47480453,1,0.23702596435546874,1.7429788085937499,-11.17852755126953
3530277146568,3.478805936,1,0.239420166015625,1.7513585144042967,-11.167753643798827
3530281144641,3.482804009,1,0.22505495605468748,1.7405846069335937,-11.190498559570312
3530285144120,3.486803488,1,0.20231004028320312,1.7405846069335937,-11.17852755126953
3530289144485,3.490803853,1,0.20829554443359374,1.7369933044433592,-11.166556542968749
3530293144328,3.494803696,1,0.23582886352539062,1.7501614135742187,-11.170147845458983
3530297145578,3.498804946,1,0.239420166015625,1.7405846069335937,-11.16057103881836
3530301143703,3.502803071,1,0.21428104858398436,1.7405846069335937,-11.033678350830078
3530305144745,3.506804113,1,0.22505495605468748,1.7286135986328124,-11.334150659179686
3530309216985,3.510876353,1,0.23582886352539062,1.7334020019531249,-11.042058056640624
3530313158547,3.514817915,1,0.23223756103515625,1.7274164978027342,-11.209652172851563
3530317160370,3.518819738,1,0.21906945190429686,1.7202338928222656,-11.24915650024414
3530321158703,3.522818071,1,0.22744915771484372,1.7489643127441405,-11.213243475341796
3530325158964,3.526818332,1,0.22744915771484372,1.7262193969726563,-11.189301458740234
3530329158860,3.530818228,1,0.21428104858398436,1.7178396911621092,-11.226411584472656
3530333159276,3.534818644,1,0.20350714111328125,1.7262193969726563,-11.222820281982422
3530337156360,3.538815728,1,0.22266075439453123,1.7262193969726563,-11.206060870361327
3530341160266,3.542819634,1,0.22026655273437498,1.714248388671875,-11.213243475341796
3530345158860,3.546818228,1,0.21188684692382811,1.707065783691406,-11.197681164550781
3530349159641,3.550819009,1,0.21308394775390624,1.7166425903320313,-11.189301458740234
3530353160318,3.554819686,1,0.22744915771484372,1.7298106994628906,-11.19887826538086
3530357158547,3.558817915,1,0.22505495605468748,1.7214309936523438,-11.202469567871093
3530361158391,3.562817759,1,0.23702596435546874,1.7322049011230467,-11.238382592773437
3530365165943,3.566825311,1,0.23582886352539062,1.7310078002929687,-11.18571015625
3530369161932,3.5708213,1,0.20350714111328125,1.7597382202148437,-11.17852755126953
3530373160266,3.574819634,1,0.2059013427734375,1.7453730102539062,-11.182118853759764
3530377159485,3.578818853,1,0.21787235107421873,1.7310078002929687,-11.195286962890624
3530381159328,3.582818696,1,0.20350714111328125,1.7585411193847655,-11.17254204711914
3530385157870,3.586817238,1,0.19512743530273435,1.7465701110839842,-11.174936248779296
3530389159172,3.59081854,1,0.21906945190429686,1.7501614135742187,-11.190498559570312
3530393159641,3.594819009,1,0.22385785522460935,1.7573440185546874,-11.208455072021483
3530397159693,3.598819061,1,0.20470424194335937,1.7274164978027342,-11.184513055419922
3530401158755,3.602818123,1,0.2154781494140625,1.7118541870117185,-11.200075366210937
3530405160839,3.606820207,1,0.21906945190429686,1.7513585144042967,-11.183315954589844
3530409202245,3.610861613,1,0.22385785522460935,1.7202338928222656,-11.159373937988281
3530413159589,3.614818957,1,0.23822306518554687,1.7298106994628906,-11.143811627197264
3530417158912,3.61881828,1,0.23582886352539062,1.7298106994628906,-11.196484063720703
3530421159172,3.62281854,1,0.2262520568847656,1.7178396911621092,-11.215637677001952
3530425158287,3.626817655,1,0.21188684692382811,1.725022296142578,-11.156979736328124
3530429158860,3.630818228,1,0.23223756103515625,1.7106570861816406,-11.182118853759764
3530433156151,3.634815519,1,0.21428104858398436,1.725022296142578,-11.196484063720703
3530437160526,3.638819894,1,0.21308394775390624,1.7298106994628906,-11.176133349609374
3530441158339,3.642817707,1,0.239420166015625,1.7417817077636717,-11.213243475341796
3530445158599,3.646817967,1,0.22266075439453123,1.7298106994628906,-11.200075366210937
3530449158339,3.650817707,1,0.2262520568847656,1.734599102783203,-11.166556542968749
3530453159537,3.654818905,1,0.23822306518554687,1.7202338928222656,-11.196484063720703
3530457159745,3.658819113,1,0.21308394775390624,1.7322049011230467,-11.170147845458983
3530461160578,3.662819946,1,0.2166752502441406,1.7166425903320313,-11.194089862060546
3530465163026,3.666822394,1,0.21787235107421873,1.7417817077636717,-11.192892761230468
3530469160474,3.670819842,1,0.23104046020507812,1.725022296142578,-11.233594189453123
3530473159120,3.674818488,1,0.22864625854492185,1.734599102783203,-11.209652172851563
3530477158391,3.678817759,1,0.22744915771484372,1.7465701110839842,-11.204863769531249
3530481157505,3.682816873,1,0.21428104858398436,1.7465701110839842,-11.166556542968749
3530485159380,3.686818748,1,0.2262520568847656,1.7238251953125,-11.174936248779296
3530489159328,3.690818696,1,0.23343466186523437,1.7417817077636717,-11.179724652099608
3530493159016,3.694818384,1,0.2214636535644531,1.744175909423828,-11.17254204711914
3530497158026,3.698817394,1,0.22864625854492185,1.7465701110839842,-11.180921752929686
3530501160474,3.702819842,1,0.21787235107421873,1.7298106994628906,-11.200075366210937
3530505158964,3.706818332,1,0.23702596435546874,1.7417817077636717,-11.218031878662108
3530509196620,3.710855988,1,0.24779987182617186,1.7262193969726563,-11.162965240478515
3530513159172,3.71481854,1,0.2537853759765625,1.7286135986328124,-11.177330450439452
3530517159849,3.718819217,1,0.22744915771484372,1.7298106994628906,-11.200075366210937
3530521158755,3.722818123,1,0.21787235107421873,1.7501614135742187,-11.16057103881836
3530525159589,3.726818957,1,0.21428104858398436,1.7286135986328124,-11.165359442138671
3530529158912,3.73081828,1,0.18435352783203124,1.7166425903320313,-11.149797131347656
3530533160422,3.73481979,1,0.22864625854492185,1.7381904052734374,-11.143811627197264
3530537159172,3.73881854,1,0.24301146850585936,1.7657237243652342,-11.162965240478515
3530541159068,3.742818436,1,0.22385785522460935,1.7573440185546874,-11.182118853759764
3530545158964,3.746818332,1,0.20709844360351562,1.7298106994628906,-11.19169566040039
3530549158287,3.750817655,1,0.20350714111328125,1.7310078002929687,-11.212046374511718
3530553158130,3.754817498,1,0.19991583862304688,1.7310078002929687,-11.241973895263671
3530557157141,3.758816509,1,0.21068974609375,1.7549498168945312,-11.170147845458983
3530561159432,3.7628188,1,0.23582886352539062,1.7357962036132812,-11.209652172851563
3530565160214,3.766819582,1,0.2214636535644531,1.7585411193847655,-11.21084927368164
3530569160005,3.770819373,1,0.23343466186523437,1.7298106994628906,-11.189301458740234
3530573158547,3.774817915,1,0.23822306518554687,1.7274164978027342,-11.209652172851563
3530577158443,3.778817811,1,0.22505495605468748,1.7393875061035156,-11.197681164550781
3530581158859,3.782818227,1,0.22026655273437498,1.7357962036132812,-11.21683477783203
3530585159276,3.786818644,1,0.22266075439453123,1.714248388671875,-11.209652172851563
3530589155891,3.790815259,1,0.21188684692382811,1.7322049011230467,-11.189301458740234
3530593158599,3.794817967,1,0.20709844360351562,1.7405846069335937,-11.212046374511718
3530597159589,3.798818957,1,0.2214636535644531,1.7501614135742187,-11.202469567871093
3530601158495,3.802817863,1,0.20350714111328125,1.7393875061035156,-11.21084927368164
3530605159380,3.806818748,1,0.19153613281249998,1.7298106994628906,-11.186907257080078
3530609190787,3.810850155,1,0.22385785522460935,1.7429788085937499,-11.174936248779296
3530613160318,3.814819686,1,0.23223756103515625,1.7381904052734374,-11.220426080322264
3530617158755,3.818818123,1,0.21188684692382811,1.7645266235351562,-11.201272467041015
3530621158547,3.822817915,1,0.21906945190429686,1.7501614135742187,-11.180921752929686
3530625157974,3.826817342,1,0.2346317626953125,1.7034744812011717,-11.164162341308593
3530629159745,3.830819113,1,0.23582886352539062,1.697488977050781,-11.130643518066405
3530633159276,3.834818644,1,0.2214636535644531,1.7082628845214842,-11.159373937988281
3530637159016,3.838818384,1,0.24061726684570311,1.7214309936523438,-11.196484063720703
3530641158078,3.842817446,1,0.22744915771484372,1.7262193969726563,-11.179724652099608
3530645159745,3.846819113,1,0.22744915771484372,1.7417817077636717,-11.170147845458983
3530649158807,3.850818175,1,0.22026655273437498,1.7310078002929687,-11.192892761230468
3530653158547,3.854817915,1,0.24181436767578124,1.7298106994628906,-11.173739147949219
3530657159068,3.858818436,1,0.23223756103515625,1.7214309936523438,-11.14022032470703
3530661159693,3.862819061,1,0.21068974609375,1.7238251953125,-11.184513055419922
3530665159068,3.866818436,1,0.2501940734863281,1.7393875061035156,-11.161768139648437
3530669159016,3.870818384,1,0.23223756103515625,1.7609353210449217,-11.171344946289063
3530673158755,3.874818123,1,0.24181436767578124,1.7262193969726563,-11.196484063720703
3530677160318,3.878819686,1,0.2501940734863281,1.7166425903320313,-11.197681164550781
3530681155734,3.882815102,1,0.22385785522460935,1.7178396911621092,-11.177330450439452
3530685158859,3.886818227,1,0.22744915771484372,1.734599102783203,-11.192892761230468
3530689158391,3.890817759,1,0.201112939453125,1.714248388671875,-11.208455072021483
3530693159589,3.894818957,1,0.21906945190429686,1.7369933044433592,-11.17852755126953
3530697159224,3.898818592,1,0.23223756103515625,1.7357962036132812,-11.190498559570312
3530701159172,3.90281854,1,0.24061726684570311,1.744175909423828,-11.165359442138671
3530705158599,3.906817967,1,0.20829554443359374,1.7322049011230467,-11.188104357910156
3530709158182,3.91081755,1,0.21906945190429686,1.7489643127441405,-11.173739147949219
3530713159953,3.914819321,1,0.20709844360351562,1.7561469177246092,-11.17852755126953
3530717158599,3.918817967,1,0.20350714111328125,1.7525556152343749,-11.162965240478515
3530721159328,3.922818696,1,0.21787235107421873,1.7645266235351562,-11.148600030517578
3530725159953,3.926819321,1,0.22266075439453123,1.7166425903320313,-11.149797131347656
3530729157766,3.930817134,1,0.21906945190429686,1.7238251953125,-11.162965240478515
3530733158911,3.934818279,1,0.2262520568847656,1.707065783691406,-11.164162341308593
3530737166828,3.938826196,1,0.21308394775390624,1.70467158203125,-11.162965240478515
3530741161307,3.942820675,1,0.24779987182617186,1.707065783691406,-11.188104357910156
3530745158599,3.946817967,1,0.22864625854492185,1.714248388671875,-11.218031878662108
3530749159328,3.950818696,1,0.24061726684570311,1.7226280944824217,-11.189301458740234
3530753158443,3.954817811,1,0.2561795776367187,1.7298106994628906,-11.168950744628905
3530757160422,3.95881979,1,0.25258827514648435,1.7190367919921874,-11.159373937988281
3530761158755,3.962818123,1,0.23702596435546874,1.7238251953125,-11.16057103881836
3530765158964,3.966818332,1,0.25258827514648435,1.7286135986328124,-11.170147845458983
3530769159745,3.970819113,1,0.2454056701660156,1.7166425903320313,-11.15338843383789
3530773159901,3.974819269,1,0.2501940734863281,1.7310078002929687,-11.164162341308593
3530777158495,3.978817863,1,0.22864625854492185,1.7298106994628906,-11.200075366210937
3530781159120,3.982818488,1,0.21068974609375,1.7561469177246092,-11.196484063720703
3530785159328,3.986818696,1,0.2262520568847656,1.7429788085937499,-11.189301458740234
3530789159536,3.990818904,1,0.20231004028320312,1.7298106994628906,-11.166556542968749
3530793159328,3.994818696,1,0.22385785522460935,1.7357962036132812,-11.18571015625
3530797158130,3.998817498,1,0.239420166015625,1.7429788085937499,-11.189301458740234
3530801159641,4.002819009,1,0.25258827514648435,1.7226280944824217,-11.208455072021483
3530805159901,4.006819269,1,0.22385785522460935,1.7214309936523438,-11.209652172851563
3530809160161,4.010819529,1,0.19871873779296872,1.7190367919921874,-11.186907257080078
3530813157557,4.014816925,1,0.20829554443359374,1.7381904052734374,-11.218031878662108
3530817161516,4.018820884,1,0.2262520568847656,1.7369933044433592,-11.204863769531249
3530821160474,4.022819842,1,0.21787235107421873,1.7286135986328124,-11.203666668701171
3530825159068,4.026818436,1,0.22385785522460935,1.7322049011230467,-11.203666668701171
3530829159172,4.03081854,1,0.22864625854492185,1.7393875061035156,-11.212046374511718
3530833158078,4.034817446,1,0.23343466186523437,1.744175909423828,-11.190498559570312
3530837159120,4.038818488,1,0.19512743530273435,1.7357962036132812,-11.225214483642578
3530841158078,4.042817446,1,0.20350714111328125,1.7202338928222656,-11.247959399414063
3530845159797,4.046819165,1,0.21188684692382811,1.714248388671875,-11.212046374511718
3530849160109,4.050819477,1,0.20470424194335937,1.7477672119140624,-11.213243475341796
3530853160578,4.054819946,1,0.21068974609375,1.7262193969726563,-11.207257971191405
3530857162661,4.058822029,1,0.1975216369628906,1.7501614135742187,-11.202469567871093
3530861160786,4.062820154,1,0.21906945190429686,1.744175909423828,-11.183315954589844
3530865159432,4.0668188,1,0.21308394775390624,1.7298106994628906,-11.204863769531249
3530869159745,4.070819113,1,0.2166752502441406,1.7369933044433592,-11.21683477783203
3530873159484,4.074818852,1,0.23702596435546874,1.744175909423828,-11.176133349609374
3530877159016,4.078818384,1,0.23104046020507812,1.7226280944824217,-11.17852755126953
3530881158495,4.082817863,1,0.22266075439453123,1.7334020019531249,-11.162965240478515
3530885160005,4.086819373,1,0.24779987182617186,1.7453730102539062,-11.177330450439452
3530889159068,4.090818436,1,0.2262520568847656,1.734599102783203,-11.209652172851563
3530893159224,4.094818592,1,0.2262520568847656,1.7322049011230467,-11.209652172851563
3530897159745,4.098819113,1,0.2346317626953125,1.7681179260253905,-11.177330450439452
3530901158859,4.102818227,1,0.2154781494140625,1.744175909423828,-11.168950744628905
3530905158130,4.106817498,1,0.2214636535644531,1.7597382202148437,-11.167753643798827
3530909159068,4.110818436,1,0.21787235107421873,1.7274164978027342,-11.150994232177734
3530913160057,4.114819425,1,0.23582886352539062,1.7274164978027342,-11.192892761230468
3530917160422,4.11881979,1,0.2166752502441406,1.7453730102539062,-11.183315954589844
3530921159276,4.122818644,1,0.24301146850585936,1.7513585144042967,-11.19169566040039
3530925159224,4.126818592,1,0.22266075439453123,1.7334020019531249,-11.202469567871093
3530929156411,4.130815779,1,0.22266075439453123,1.7417817077636717,-11.202469567871093
3530933160109,4.134819477,1,0.21308394775390624,1.7334020019531249,-11.180921752929686
3530937158911,4.138818279,1,0.21428104858398436,1.7465701110839842,-11.196484063720703
3530941159328,4.142818696,1,0.21188684692382811,1.7489643127441405,-11.214440576171874
3530945158755,4.146818123,1,0.20829554443359374,1.7453730102539062,-11.23718549194336
3530949160682,4.15082005,1,0.22266075439453123,1.7202338928222656,-11.220426080322264
3530953159536,4.154818904,1,0.2154781494140625,1.697488977050781,-11.202469567871093
3530957159016,4.158818384,1,0.21188684692382811,1.715445489501953,-11.201272467041015
3530961158859,4.162818227,1,0.20829554443359374,1.734599102783203,-11.19887826538086
3530965159380,4.166818748,1,0.23582886352539062,1.744175909423828,-11.197681164550781
3530969158963,4.170818331,1,0.22266075439453123,1.7357962036132812,-11.192892761230468
3530973159276,4.174818644,1,0.21428104858398436,1.7106570861816406,-11.182118853759764
3530977159536,4.178818904,1,0.21428104858398436,1.7298106994628906,-11.179724652099608
3530981161151,4.182820519,1,0.2454056701660156,1.7357962036132812,-11.197681164550781
3530985157557,4.186816925,1,0.23582886352539062,1.7286135986328124,-11.212046374511718
3530989158755,4.190818123,1,0.2501940734863281,1.714248388671875,-11.179724652099608
3530993158443,4.194817811,1,0.25139117431640623,1.715445489501953,-11.176133349609374
3530997159380,4.198818748,1,0.21308394775390624,1.7106570861816406,-11.19887826538086
3531001159536,4.202818904,1,0.21188684692382811,1.7262193969726563,-11.171344946289063
3531005158495,4.206817863,1,0.2154781494140625,1.7226280944824217,-11.180921752929686
3531009158547,4.210817915,1,0.21068974609375,1.7298106994628906,-11.190498559570312
3531013161203,4.214820571,1,0.2166752502441406,1.7094599853515624,-11.150994232177734
3531017160057,4.218819425,1,0.229843359375,1.7166425903320313,-11.183315954589844
3531021159536,4.222818904,1,0.22266075439453123,1.7190367919921874,-11.190498559570312
3531025158807,4.226818175,1,0.2214636535644531,1.7381904052734374,-11.201272467041015
3531029159276,4.230818644,1,0.2262520568847656,1.7501614135742187,-11.189301458740234
3531033157557,4.234816925,1,0.21308394775390624,1.7393875061035156,-11.148600030517578
3531037158338,4.238817706,1,0.19871873779296872,1.7286135986328124,-11.177330450439452
3531041157245,4.242816613,1,0.22385785522460935,1.7561469177246092,-11.194089862060546
3531045160318,4.246819686,1,0.21787235107421873,1.7405846069335937,-11.167753643798827
3531049158234,4.250817602,1,0.22505495605468748,1.7118541870117185,-11.189301458740234
3531053158495,4.254817863,1,0.23702596435546874,1.7453730102539062,-11.231199987792968
3531057157557,4.258816925,1,0.22266075439453123,1.7298106994628906,-11.218031878662108
3531061159068,4.262818436,1,0.22266075439453123,1.7262193969726563,-11.213243475341796
3531065159380,4.266818748,1,0.229843359375,1.7130512878417967,-11.207257971191405
3531069157245,4.270816613,1,0.2214636535644531,1.7214309936523438,-11.204863769531249
3531073162193,4.274821561,1,0.2166752502441406,1.7369933044433592,-11.164162341308593
3531077161516,4.278820884,1,0.20829554443359374,1.7369933044433592,-11.18571015625
3531081159172,4.28281854,1,0.20829554443359374,1.7262193969726563,-11.201272467041015
3531085158859,4.286818227,1,0.21906945190429686,1.7393875061035156,-11.154585534667968
3531089158443,4.290817811,1,0.23343466186523437,1.7549498168945312,-11.188104357910156
3531093158599,4.294817967,1,0.2262520568847656,1.7405846069335937,-11.19887826538086
3531097158443,4.298817811,1,0.2214636535644531,1.7513585144042967,-11.19887826538086
3531101158547,4.302817915,1,0.2442085693359375,1.7334020019531249,-11.214440576171874
3531105159380,4.306818748,1,0.22864625854492185,1.7334020019531249,-11.215637677001952
3531109159172,4.31081854,1,0.23223756103515625,1.7310078002929687,-11.186907257080078
3531113196047,4.314855415,1,0.22026655273437498,1.7286135986328124,-11.176133349609374
3531117159797,4.318819165,1,0.2154781494140625,1.7286135986328124,-11.155782635498046
3531121158911,4.322818279,1,0.21787235107421873,1.7357962036132812,-11.136629022216797
3531125159380,4.326818748,1,0.2346317626953125,1.7310078002929687,-11.183315954589844
3531129158963,4.330818331,1,0.20709844360351562,1.7417817077636717,-11.164162341308593
3531133159328,4.334818696,1,0.1879448303222656,1.744175909423828,-11.17852755126953
3531137158651,4.338818019,1,0.21068974609375,1.7310078002929687,-11.189301458740234
3531141159901,4.342819269,1,0.1975216369628906,1.7274164978027342,-11.184513055419922
3531145159015,4.346818383,1,0.2214636535644531,1.7190367919921874,-11.208455072021483
3531149158703,4.350818071,1,0.22864625854492185,1.7369933044433592,-11.162965240478515
3531153158338,4.354817706,1,0.23822306518554687,1.7310078002929687,-11.170147845458983
3531157158182,4.35881755,1,0.2454056701660156,1.7118541870117185,-11.192892761230468
3531161158286,4.362817654,1,0.24181436767578124,1.7369933044433592,-11.183315954589844
3531165158911,4.366818279,1,0.24061726684570311,1.7322049011230467,-11.197681164550781
3531169158703,4.370818071,1,0.2262520568847656,1.7465701110839842,-11.174936248779296
3531173159588,4.374818956,1,0.22385785522460935,1.7262193969726563,-11.173739147949219
3531177156463,4.378815831,1,0.20709844360351562,1.7417817077636717,-11.184513055419922
3531181159068,4.382818436,1,0.23702596435546874,1.7334020019531249,-11.162965240478515
3531185158703,4.386818071,1,0.22026655273437498,1.7405846069335937,-11.195286962890624
3531189158911,4.390818279,1,0.22266075439453123,1.7417817077636717,-11.19169566040039
3531193158286,4.394817654,1,0.23223756103515625,1.7369933044433592,-11.17254204711914
3531197158651,4.398818019,1,0.23822306518554687,1.7381904052734374,-11.167753643798827
3531201158495,4.402817863,1,0.22505495605468748,1.7477672119140624,-11.170147845458983
3531205159484,4.406818852,1,0.20350714111328125,1.7334020019531249,-11.21084927368164
3531209158755,4.410818123,1,0.19632453613281248,1.7357962036132812,-11.200075366210937
3531213159224,4.414818592,1,0.22026655273437498,1.7298106994628906,-11.206060870361327
3531217161411,4.418820779,1,0.22026655273437498,1.7453730102539062,-11.168950744628905
3531221159224,4.422818592,1,0.23223756103515625,1.715445489501953,-11.166556542968749
3531225159120,4.426818488,1,0.23582886352539062,1.7381904052734374,-11.171344946289063
3531229159015,4.430818383,1,0.21906945190429686,1.7417817077636717,-11.165359442138671
3531233166099,4.434825467,1,0.23104046020507812,1.7238251953125,-11.196484063720703
3531237157505,4.438816873,1,0.21787235107421873,1.715445489501953,-11.209652172851563
3531241161359,4.442820727,1,0.23343466186523437,1.7082628845214842,-11.222820281982422
3531245159068,4.446818436,1,0.229843359375,1.7310078002929687,-11.202469567871093
3531249159172,4.45081854,1,0.24301146850585936,1.7286135986328124,-11.188104357910156
3531253159380,4.454818748,1,0.23822306518554687,1.7286135986328124,-11.183315954589844
3531257158755,4.458818123,1,0.21906945190429686,1.7130512878417967,-11.174936248779296
3531261158859,4.462818227,1,0.22744915771484372,1.7010802795410156,-11.188104357910156
3531265159120,4.466818488,1,0.20829554443359374,1.7190367919921874,-11.221623181152344
3531269159380,4.470818748,1,0.2059013427734375,1.7322049011230467,-11.204863769531249
3531273158703,4.474818071,1,0.2214636535644531,1.7118541870117185,-11.208455072021483
3531277159328,4.478818696,1,0.22505495605468748,1.714248388671875,-11.192892761230468
3531281159172,4.48281854,1,0.21906945190429686,1.7166425903320313,-11.192892761230468
3531285158286,4.486817654,1,0.22026655273437498,1.7226280944824217,-11.192892761230468
3531289158911,4.490818279,1,0.23582886352539062,1.7381904052734374,-11.200075366210937
3531293157765,4.494817133,1,0.2214636535644531,1.7322049011230467,-11.207257971191405
3531297160526,4.498819894,1,0.21308394775390624,1.7393875061035156,-11.159373937988281
3531301160265,4.502819633,1,0.239420166015625,1.734599102783203,-11.179724652099608
3531305159224,4.506818592,1,0.21308394775390624,1.725022296142578,-11.192892761230468
3531309158495,4.510817863,1,0.22026655273437498,1.7310078002929687,-11.226411584472656
3531313157870,4.514817238,1,0.23822306518554687,1.715445489501953,-11.189301458740234
3531317160630,4.518819998,1,0.1927332336425781,1.697488977050781,-11.200075366210937
3531321159901,4.522819269,1,0.229843359375,1.7022773803710936,-11.196484063720703
3531325156828,4.526816196,1,0.23343466186523437,1.7202338928222656,-11.219228979492186
3531329158755,4.530818123,1,0.2442085693359375,1.7525556152343749,-11.200075366210937
3531333159901,4.534819269,1,0.2166752502441406,1.7226280944824217,-11.233594189453123
3531337159693,4.538819061,1,0.229843359375,1.7190367919921874,-11.202469567871093
3531341160265,4.542819633,1,0.21787235107421873,1.7226280944824217,-11.17254204711914
3531345159172,4.54681854,1,0.229843359375,1.7298106994628906,-11.166556542968749
3531349158599,4.550817967,1,0.22385785522460935,1.7357962036132812,-11.19169566040039
3531353160005,4.554819373,1,0.21188684692382811,1.7501614135742187,-11.182118853759764
3531357159432,4.5588188,1,0.22864625854492185,1.7381904052734374,-11.186907257080078
3531361159640,4.562819008,1,0.20829554443359374,1.7238251953125,-11.190498559570312
3531365159067,4.566818435,1,0.20829554443359374,1.7381904052734374,-11.192892761230468
3531369160005,4.570819373,1,0.22385785522460935,1.7274164978027342,-11.192892761230468
3531373158547,4.574817915,1,0.24660277099609373,1.7082628845214842,-11.190498559570312
3531377158599,4.578817967,1,0.22744915771484372,1.7226280944824217,-11.208455072021483
3531381159067,4.582818435,1,0.22864625854492185,1.715445489501953,-11.212046374511718
3531385158807,4.586818175,1,0.22505495605468748,1.7334020019531249,-11.207257971191405
3531389159797,4.590819165,1,0.21188684692382811,1.7417817077636717,-11.215637677001952
3531393157713,4.594817081,1,0.2059013427734375,1.7238251953125,-11.204863769531249
3531397160630,4.598819998,1,0.21428104858398436,1.7513585144042967,-11.190498559570312
3531401158755,4.602818123,1,0.22266075439453123,1.7465701110839842,-11.183315954589844
3531405159015,4.606818383,1,0.2262520568847656,1.7310078002929687,-11.220426080322264
3531409158078,4.610817446,1,0.23822306518554687,1.744175909423828,-11.204863769531249
3531413158963,4.614818331,1,0.23822306518554687,1.7369933044433592,-11.197681164550781
3531417159901,4.618819269,1,0.22026655273437498,1.7274164978027342,-11.208455072021483
3531421160578,4.622819946,1,0.23702596435546874,1.7310078002929687,-11.200075366210937
3531425156984,4.626816352,1,0.23582886352539062,1.714248388671875,-11.183315954589844
3531429160265,4.630819633,1,0.21906945190429686,1.7226280944824217,-11.165359442138671
3531433158390,4.634817758,1,0.24301146850585936,1.7298106994628906,-11.161768139648437
3531437159588,4.638818956,1,0.24301146850585936,1.734599102783203,-11.190498559570312
3531441159536,4.642818904,1,0.25139117431640623,1.7393875061035156,-11.219228979492186
3531445159745,4.646819113,1,0.2346317626953125,1.744175909423828,-11.182118853759764
3531449159745,4.650819113,1,0.22026655273437498,1.7393875061035156,-11.171344946289063
3531453160578,4.654819946,1,0.2154781494140625,1.7286135986328124,-11.179724652099608
3531457158859,4.658818227,1,0.2262520568847656,1.7286135986328124,-11.166556542968749
3531461159953,4.662819321,1,0.2166752502441406,1.7202338928222656,-11.164162341308593
3531465159849,4.666819217,1,0.21906945190429686,1.7094599853515624,-11.189301458740234
3531469158390,4.670817758,1,0.23582886352539062,1.7274164978027342,-11.176133349609374
3531473158703,4.674818071,1,0.22505495605468748,1.7178396911621092,-11.19887826538086
3531477159120,4.678818488,1,0.21787235107421873,1.7202338928222656,-11.19169566040039
3531481158182,4.68281755,1,0.23223756103515625,1.725022296142578,-11.183315954589844
3531485158963,4.686818331,1,0.22864625854492185,1.7094599853515624,-11.192892761230468
3531489158442,4.69081781,1,0.22864625854492185,1.7202338928222656,-11.183315954589844
3531493160786,4.694820154,1,0.22026655273437498,1.7298106994628906,-11.150994232177734
3531497159745,4.698819113,1,0.21308394775390624,1.714248388671875,-11.146205828857422
3531501158703,4.702818071,1,0.21787235107421873,1.7010802795410156,-11.17852755126953
3531505158078,4.706817446,1,0.21188684692382811,1.705868682861328,-11.170147845458983
3531509159172,4.71081854,1,0.2262520568847656,1.714248388671875,-11.16057103881836
3531513159484,4.714818852,1,0.2442085693359375,1.7214309936523438,-11.208455072021483
3531517196359,4.718855727,1,0.229843359375,1.7190367919921874,-11.200075366210937
3531521159484,4.722818852,1,0.21906945190429686,1.7357962036132812,-11.194089862060546
3531525158859,4.726818227,1,0.2262520568847656,1.714248388671875,-11.197681164550781
3531529158547,4.730817915,1,0.21906945190429686,1.725022296142578,-11.202469567871093
3531533159067,4.734818435,1,0.23343466186523437,1.7286135986328124,-11.200075366210937
3531537159276,4.738818644,1,0.24061726684570311,1.7381904052734374,-11.200075366210937
3531541159849,4.742819217,1,0.23582886352539062,1.7274164978027342,-11.173739147949219
3531545157609,4.746816977,1,0.24181436767578124,1.7334020019531249,-11.214440576171874
3531549159640,4.750819008,1,0.23582886352539062,1.7178396911621092,-11.173739147949219
3531553158390,4.754817758,1,0.2561795776367187,1.7202338928222656,-11.158176837158203
3531557159432,4.7588188,1,0.22385785522460935,1.7274164978027342,-11.162965240478515
3531561159380,4.762818748,1,0.20949264526367187,1.7369933044433592,-11.179724652099608
3531565159120,4.766818488,1,0.2059013427734375,1.7465701110839842,-11.164162341308593
3531569158963,4.770818331,1,0.20470424194335937,1.7322049011230467,-11.195286962890624
3531573159224,4.774818592,1,0.2214636535644531,1.734599102783203,-11.190498559570312
3531577158859,4.778818227,1,0.25737667846679685,1.714248388671875,-11.194089862060546
3531581156619,4.782815987,1,0.2442085693359375,1.7489643127441405,-11.173739147949219
3531585159432,4.7868188,1,0.24061726684570311,1.7417817077636717,-11.212046374511718
3531589160317,4.790819685,1,0.21428104858398436,1.7621324218749999,-11.21683477783203
3531593157401,4.794816769,1,0.2059013427734375,1.7453730102539062,-11.201272467041015
3531597158755,4.798818123,1,0.21308394775390624,1.725022296142578,-11.231199987792968
3531601158963,4.802818331,1,0.2262520568847656,1.7238251953125,-11.221623181152344
3531605159692,4.80681906,1,0.21787235107421873,1.7417817077636717,-11.180921752929686
3531609163390,4.810822758,1,0.20709844360351562,1.707065783691406,-11.183315954589844
3531613159328,4.814818696,1,0.19991583862304688,1.70467158203125,-11.171344946289063
3531617193599,4.818852967,1,0.20949264526367187,1.697488977050781,-11.17254204711914
3531621161672,4.82282104,1,0.24061726684570311,1.7190367919921874,-11.190498559570312
3531625159119,4.826818487,1,0.2214636535644531,1.7166425903320313,-11.170147845458983
3531629158442,4.83081781,1,0.24181436767578124,1.7082628845214842,-11.19887826538086
3531633158338,4.834817706,1,0.2549824768066406,1.7178396911621092,-11.209652172851563
3531637159484,4.838818852,1,0.23104046020507812,1.7310078002929687,-11.190498559570312
3531641158390,4.842817758,1,0.229843359375,1.7369933044433592,-11.176133349609374
3531645160265,4.846819633,1,0.24181436767578124,1.7298106994628906,-11.189301458740234
3531649159692,4.85081906,1,0.21188684692382811,1.7238251953125,-11.183315954589844
3531653159797,4.854819165,1,0.1927332336425781,1.744175909423828,-11.173739147949219
3531657158703,4.858818071,1,0.20949264526367187,1.7238251953125,-11.176133349609374
3531661159380,4.862818748,1,0.22864625854492185,1.714248388671875,-11.190498559570312
3531665159484,4.866818852,1,0.2262520568847656,1.7238251953125,-11.186907257080078
3531669159484,4.870818852,1,0.19991583862304688,1.714248388671875,-11.165359442138671
3531673156047,4.874815415,1,0.21068974609375,1.7393875061035156,-11.159373937988281
3531677159588,4.878818956,1,0.20350714111328125,1.7274164978027342,-11.176133349609374
3531681157869,4.882817237,1,0.20470424194335937,1.7334020019531249,-11.195286962890624
3531685159432,4.8868188,1,0.2262520568847656,1.7214309936523438,-11.213243475341796
3531689158807,4.890818175,1,0.24181436767578124,1.7298106994628906,-11.186907257080078
3531693159276,4.894818644,1,0.24061726684570311,1.7238251953125,-11.208455072021483
3531697159015,4.898818383,1,0.2561795776367187,1.7238251953125,-11.238382592773437
3531701159692,4.90281906,1,0.22385785522460935,1.7274164978027342,-11.209652172851563
3531705158494,4.906817862,1,0.21787235107421873,1.7226280944824217,-11.212046374511718
3531709159692,4.91081906,1,0.23343466186523437,1.7298106994628906,-11.213243475341796
3531713159172,4.91481854,1,0.22266075439453123,1.70467158203125,-11.21683477783203
3531717158911,4.918818279,1,0.21787235107421873,1.7214309936523438,-11.204863769531249
3531721160057,4.922819425,1,0.22505495605468748,1.725022296142578,-11.197681164550781
3531725159588,4.926818956,1,0.1975216369628906,1.7381904052734374,-11.203666668701171
3531729158703,4.930818071,1,0.2442085693359375,1.7405846069335937,-11.170147845458983
3531733159484,4.934818852,1,0.2454056701660156,1.7130512878417967,-11.203666668701171
3531737158703,4.938818071,1,0.2214636535644531,1.7238251953125,-11.19887826538086
3531741159328,4.942818696,1,0.21787235107421873,1.725022296142578,-11.194089862060546
3531745159640,4.946819008,1,0.229843359375,1.7262193969726563,-11.179724652099608
3531749160369,4.950819737,1,0.2454056701660156,1.7274164978027342,-11.174936248779296
3531753159432,4.9548188,1,0.23822306518554687,1.7130512878417967,-11.161768139648437
3531757160109,4.958819477,1,0.23702596435546874,1.7034744812011717,-11.17254204711914
3531761158599,4.962817967,1,0.23702596435546874,1.70467158203125,-11.200075366210937
3531765158755,4.966818123,1,0.22744915771484372,1.7190367919921874,-11.202469567871093
3531769158026,4.970817394,1,0.21428104858398436,1.7082628845214842,-11.21683477783203
3531773159901,4.974819269,1,0.2154781494140625,1.7214309936523438,-11.177330450439452
3531777158755,4.978818123,1,0.2442085693359375,1.714248388671875,-11.18571015625
3531781159797,4.982819165,1,0.229843359375,1.7202338928222656,-11.200075366210937
3531785158078,4.986817446,1,0.2154781494140625,1.7238251953125,-11.197681164550781
3531789158859,4.990818227,1,0.20829554443359374,1.7190367919921874,-11.227608685302734
3531793158078,4.994817446,1,0.2154781494140625,1.7214309936523438,-11.227608685302734
3531797158755,4.998818123,1,0.24660277099609373,1.7202338928222656,-11.240776794433593
3531801159432,5.0028188,1,0.21787235107421873,1.7238251953125,-11.200075366210937
3531805158338,5.006817706,1,0.21308394775390624,1.7202338928222656,-11.189301458740234
3531809158078,5.010817446,1,0.19871873779296872,1.7238251953125,-11.18571015625
3531813160161,5.014819529,1,0.20709844360351562,1.7381904052734374,-11.18571015625
3531817159901,5.018819269,1,0.22385785522460935,1.7357962036132812,-11.212046374511718
3531821161567,5.022820935,1,0.23104046020507812,1.725022296142578,-11.215637677001952
3531825158182,5.02681755,1,0.24779987182617186,1.725022296142578,-11.219228979492186
3531829159484,5.030818852,1,0.22385785522460935,1.7238251953125,-11.207257971191405
3531833158130,5.034817498,1,0.22505495605468748,1.714248388671875,-11.197681164550781
3531837157713,5.038817081,1,0.21906945190429686,1.7106570861816406,-11.2240173828125
3531841160005,5.042819373,1,0.23343466186523437,1.715445489501953,-11.202469567871093
3531845160057,5.046819425,1,0.23582886352539062,1.715445489501953,-11.218031878662108
3531849158338,5.050817706,1,0.22385785522460935,1.7334020019531249,-11.18571015625
3531853158807,5.054818175,1,0.22864625854492185,1.7274164978027342,-11.173739147949219
3531857158026,5.058817394,1,0.181959326171875,1.744175909423828,-11.152191333007812
3531861158234,5.062817602,1,0.22505495605468748,1.7357962036132812,-11.189301458740234
3531865158807,5.066818175,1,0.23223756103515625,1.7106570861816406,-11.184513055419922
3531869158546,5.070817914,1,0.2214636535644531,1.7190367919921874,-11.182118853759764
3531873158442,5.07481781,1,0.22385785522460935,1.7322049011230467,-11.192892761230468
3531877159849,5.078819217,1,0.20949264526367187,1.7585411193847655,-11.174936248779296
3531881159796,5.082819164,1,0.22026655273437498,1.7465701110839842,-11.209652172851563
3531885159276,5.086818644,1,0.22266075439453123,1.7274164978027342,-11.184513055419922
3531889157921,5.090817289,1,0.23223756103515625,1.7417817077636717,-11.188104357910156
3531893158546,5.094817914,1,0.2214636535644531,1.7082628845214842,-11.203666668701171
3531897158859,5.098818227,1,0.22864625854492185,1.7310078002929687,-11.176133349609374
3531901159849,5.102819217,1,0.23582886352539062,1.7226280944824217,-11.182118853759764
3531905158807,5.106818175,1,0.23104046020507812,1.744175909423828,-11.214440576171874
3531909159849,5.110819217,1,0.2346317626953125,1.7357962036132812,-11.188104357910156
3531913159015,5.114818383,1,0.2262520568847656,1.734599102783203,-11.180921752929686
3531917158494,5.118817862,1,0.22026655273437498,1.7334020019531249,-11.196484063720703
3531921157244,5.122816612,1,0.229843359375,1.7357962036132812,-11.231199987792968
3531925160682,5.12682005,1,0.22864625854492185,1.7393875061035156,-11.182118853759764
3531929159796,5.130819164,1,0.22864625854492185,1.7262193969726563,-11.204863769531249
3531933159328,5.134818696,1,0.2154781494140625,1.725022296142578,-11.195286962890624
3531937158442,5.13881781,1,0.22505495605468748,1.7262193969726563,-11.190498559570312
3531941160005,5.142819373,1,0.23822306518554687,1.7322049011230467,-11.213243475341796
3531945158755,5.146818123,1,0.2214636535644531,1.715445489501953,-11.18571015625
3531949159536,5.150818904,1,0.24061726684570311,1.7226280944824217,-11.183315954589844
3531953158651,5.154818019,1,0.2154781494140625,1.7226280944824217,-11.162965240478515
3531957159380,5.158818748,1,0.23223756103515625,1.734599102783203,-11.202469567871093
3531961158963,5.162818331,1,0.23822306518554687,1.725022296142578,-11.19887826538086
3531965158911,5.166818279,1,0.23822306518554687,1.7405846069335937,-11.207257971191405
3531969158651,5.170818019,1,0.23822306518554687,1.7525556152343749,-11.171344946289063
3531973159796,5.174819164,1,0.22864625854492185,1.7310078002929687,-11.186907257080078
3531977159432,5.1788188,1,0.22505495605468748,1.725022296142578,-11.189301458740234
3531981159640,5.182819008,1,0.21308394775390624,1.725022296142578,-11.194089862060546
3531985246776,5.186906144,1,0.20350714111328125,1.7262193969726563,-11.23718549194336
3531989173755,5.190833123,1,0.2166752502441406,1.7357962036132812,-11.21084927368164
3531993160786,5.194820154,1,0.22505495605468748,1.715445489501953,-11.194089862060546
3531997159432,5.1988188,1,0.23822306518554687,1.7286135986328124,-11.182118853759764
3532001159171,5.202818539,1,0.2262520568847656,1.7130512878417967,-11.189301458740234
3532005159796,5.206819164,1,0.23104046020507812,1.7298106994628906,-11.184513055419922
3532009183182,5.21084255,1,0.22864625854492185,1.707065783691406,-11.253944903564452
3532013194328,5.214853696,1,0.23343466186523437,1.7322049011230467,-11.212046374511718
3532017167713,5.218827081,1,0.2501940734863281,1.7286135986328124,-11.239579693603515
3532021164223,5.222823591,1,0.24779987182617186,1.7381904052734374,-11.225214483642578
3532025158286,5.226817654,1,0.2166752502441406,1.7573440185546874,-11.218031878662108
3532029161151,5.230820519,1,0.22744915771484372,1.7334020019531249,-11.18571015625
3532033161411,5.234820779,1,0.21906945190429686,1.7298106994628906,-11.208455072021483
3532037162296,5.238821664,1,0.2214636535644531,1.7082628845214842,-11.196484063720703
3532041157713,5.242817081,1,0.19512743530273435,1.7214309936523438,-11.207257971191405
3532045161776,5.246821144,1,0.21787235107421873,1.7417817077636717,-11.159373937988281
3532049161098,5.250820466,1,0.23702596435546874,1.7477672119140624,-11.192892761230468
3532053161046,5.254820414,1,0.2166752502441406,1.7262193969726563,-11.19169566040039
3532057161671,5.258821039,1,0.2214636535644531,1.7417817077636717,-11.164162341308593
3532061160994,5.262820362,1,0.22385785522460935,1.7393875061035156,-11.201272467041015
3532065161307,5.266820675,1,0.26336218261718747,1.7561469177246092,-11.201272467041015
3532069162661,5.270822029,1,0.21428104858398436,1.734599102783203,-11.180921752929686
3532073161307,5.274820675,1,0.229843359375,1.734599102783203,-11.189301458740234
3532077161411,5.278820779,1,0.21188684692382811,1.7274164978027342,-11.167753643798827
3532081160838,5.282820206,1,0.22266075439453123,1.7310078002929687,-11.197681164550781
3532085160630,5.286819998,1,0.22385785522460935,1.7298106994628906,-11.156979736328124
3532089160838,5.290820206,1,0.22744915771484372,1.7501614135742187,-11.156979736328124
3532093157661,5.294817029,1,0.22505495605468748,1.7357962036132812,-11.156979736328124
3532097162505,5.298821873,1,0.24061726684570311,1.725022296142578,-11.158176837158203
3532101162557,5.302821925,1,0.2346317626953125,1.744175909423828,-11.168950744628905
3532105161619,5.306820987,1,0.23104046020507812,1.7238251953125,-11.164162341308593
3532109161723,5.310821091,1,0.2154781494140625,1.7178396911621092,-11.168950744628905
3532113161776,5.314821144,1,0.2442085693359375,1.7094599853515624,-11.189301458740234
3532117161984,5.318821352,1,0.239420166015625,1.7178396911621092,-11.19169566040039
3532121161828,5.322821196,1,0.2214636535644531,1.7274164978027342,-11.194089862060546
3532125162609,5.326821977,1,0.2214636535644531,1.714248388671875,-11.2240173828125
3532129161984,5.330821352,1,0.24779987182617186,1.714248388671875,-11.192892761230468
3532133163598,5.334822966,1,0.24779987182617186,1.7130512878417967,-11.176133349609374
3532137161463,5.338820831,1,0.22266075439453123,1.6998831787109374,-11.162965240478515
3532141162088,5.342821456,1,0.24061726684570311,1.7130512878417967,-11.145008728027342
3532145162192,5.34682156,1,0.2059013427734375,1.7094599853515624,-11.18571015625
3532149163026,5.350822394,1,0.21906945190429686,1.7274164978027342,-11.206060870361327
3532153162348,5.354821716,1,0.20829554443359374,1.7465701110839842,-11.176133349609374
3532157161255,5.358820623,1,0.22266075439453123,1.7178396911621092,-11.19169566040039
3532161161619,5.362820987,1,0.18555062866210936,1.7190367919921874,-11.182118853759764
3532165163026,5.366822394,1,0.2166752502441406,1.7357962036132812,-11.180921752929686
3532169157817,5.370817185,1,0.19153613281249998,1.7417817077636717,-11.203666668701171
3532173161567,5.374820935,1,0.22864625854492185,1.7453730102539062,-11.167753643798827
3532177161515,5.378820883,1,0.2166752502441406,1.7513585144042967,-11.152191333007812
3532181161880,5.382821248,1,0.23582886352539062,1.7381904052734374,-11.170147845458983
3532185161307,5.386820675,1,0.239420166015625,1.7238251953125,-11.173739147949219
3532189161932,5.3908213,1,0.23702596435546874,1.714248388671875,-11.2240173828125
3532193162453,5.394821821,1,0.21308394775390624,1.70467158203125,-11.179724652099608
3532197163130,5.398822498,1,0.23702596435546874,1.7369933044433592,-11.195286962890624
3532201161880,5.402821248,1,0.22266075439453123,1.7609353210449217,-11.212046374511718
3532205162036,5.406821404,1,0.23104046020507812,1.7489643127441405,-11.218031878662108
3532209161984,5.410821352,1,0.2454056701660156,1.7334020019531249,-11.203666668701171
3532213162244,5.414821612,1,0.2454056701660156,1.7417817077636717,-11.195286962890624
3532217161255,5.418820623,1,0.22385785522460935,1.7549498168945312,-11.234791290283203
3532221178546,5.422837914,1,0.23223756103515625,1.7693150268554687,-11.189301458740234
3532225162453,5.426821821,1,0.2549824768066406,1.7585411193847655,-11.179724652099608
3532229161463,5.430820831,1,0.2262520568847656,1.7214309936523438,-11.202469567871093
3532233161359,5.434820727,1,0.21787235107421873,1.7393875061035156,-11.231199987792968
3532237162140,5.438821508,1,0.19632453613281248,1.7082628845214842,-11.213243475341796
3532241161932,5.4428213,1,0.22385785522460935,1.7274164978027342,-11.207257971191405
3532245158025,5.446817393,1,0.2154781494140625,1.7322049011230467,-11.214440576171874
3532249162609,5.450821977,1,0.2262520568847656,1.7357962036132812,-11.201272467041015
3532253162140,5.454821508,1,0.22026655273437498,1.7322049011230467,-11.213243475341796
3532257161463,5.458820831,1,0.2166752502441406,1.7262193969726563,-11.194089862060546
3532261162713,5.462822081,1,0.2346317626953125,1.7286135986328124,-11.19169566040039
3532265162088,5.466821456,1,0.19632453613281248,1.7310078002929687,-11.159373937988281
3532269161463,5.470820831,1,0.20470424194335937,1.7357962036132812,-11.179724652099608
3532273161828,5.474821196,1,0.2166752502441406,1.7334020019531249,-11.171344946289063
3532277161463,5.478820831,1,0.2262520568847656,1.7238251953125,-11.179724652099608
3532281161932,5.4828213,1,0.2262520568847656,1.7525556152343749,-11.165359442138671
3532285161671,5.486821039,1,0.21428104858398436,1.7405846069335937,-11.164162341308593
3532289162140,5.490821508,1,0.22505495605468748,1.7465701110839842,-11.188104357910156
3532293162505,5.494821873,1,0.2154781494140625,1.7286135986328124,-11.219228979492186
3532297161203,5.498820571,1,0.20949264526367187,1.734599102783203,-11.196484063720703
3532301162400,5.502821768,1,0.20709844360351562,1.7334020019531249,-11.189301458740234
3532305162505,5.506821873,1,0.21787235107421873,1.7322049011230467,-11.179724652099608
3532309162609,5.510821977,1,0.23822306518554687,1.7405846069335937,-11.170147845458983
3532313162505,5.514821873,1,0.21906945190429686,1.7501614135742187,-11.18571015625
3532317159692,5.51881906,1,0.229843359375,1.7357962036132812,-11.174936248779296
3532321177140,5.522836508,1,0.2262520568847656,1.7501614135742187,-11.182118853759764
3532325164223,5.526823591,1,0.22864625854492185,1.7322049011230467,-11.170147845458983
3532329161880,5.530821248,1,0.24779987182617186,1.7310078002929687,-11.171344946289063
3532333162244,5.534821612,1,0.23343466186523437,1.7381904052734374,-11.170147845458983
3532337162244,5.538821612,1,0.23702596435546874,1.744175909423828,-11.165359442138671
3532341162453,5.542821821,1,0.239420166015625,1.7549498168945312,-11.189301458740234
3532345161775,5.546821143,1,0.23582886352539062,1.7489643127441405,-11.195286962890624
3532349157973,5.550817341,1,0.22266075439453123,1.7585411193847655,-11.203666668701171
3532353162609,5.554821977,1,0.21906945190429686,1.7381904052734374,-11.222820281982422
3532357161880,5.558821248,1,0.24181436767578124,1.7106570861816406,-11.200075366210937
3532361172453,5.562831821,1,0.20350714111328125,1.7381904052734374,-11.192892761230468
3532365164432,5.5668238,1,0.24181436767578124,1.7417817077636717,-11.196484063720703
3532369161619,5.570820987,1,0.2501940734863281,1.7357962036132812,-11.21084927368164
3532373161619,5.574820987,1,0.24061726684570311,1.7262193969726563,-11.190498559570312
3532377162557,5.578821925,1,0.23702596435546874,1.7477672119140624,-11.200075366210937
3532381161723,5.582821091,1,0.24061726684570311,1.7501614135742187,-11.202469567871093
3532385161775,5.586821143,1,0.2346317626953125,1.7477672119140624,-11.226411584472656
3532389160682,5.59082005,1,0.22744915771484372,1.7405846069335937,-11.186907257080078
3532393161723,5.594821091,1,0.24779987182617186,1.725022296142578,-11.182118853759764
3532397161515,5.598820883,1,0.2501940734863281,1.7298106994628906,-11.176133349609374
3532401161046,5.602820414,1,0.2346317626953125,1.7417817077636717,-11.166556542968749
3532405161880,5.606821248,1,0.2166752502441406,1.7334020019531249,-11.182118853759764
3532409160786,5.610820154,1,0.2454056701660156,1.7178396911621092,-11.164162341308593
3532413162088,5.614821456,1,0.23104046020507812,1.7298106994628906,-11.156979736328124
3532417156671,5.618816039,1,0.24061726684570311,1.6938976745605467,-11.182118853759764
3532421162869,5.622822237,1,0.21787235107421873,1.707065783691406,-11.166556542968749
3532425162140,5.626821508,1,0.2154781494140625,1.7226280944824217,-11.225214483642578
3532429162609,5.630821977,1,0.2214636535644531,1.7429788085937499,-11.208455072021483
3532433161984,5.634821352,1,0.2154781494140625,1.7310078002929687,-11.19169566040039
3532437162140,5.638821508,1,0.19991583862304688,1.744175909423828,-11.218031878662108
