timestamp_ns,t_s,sensor_id,ax,ay,az
5874404717601,0.064879427,1,-5.325901593017578,5.702988354492187,3.881000891113281
5874414678538,0.074840364,1,-5.570110162353515,5.950788226318359,4.582501977539062
5874424682549,0.084844375,1,-5.872976672363281,5.984307049560546,5.5832782714843745
5874434683590,0.094845416,1,-5.6946086486816405,6.271611248779297,6.509834313964843
5874444676142,0.104837968,1,-5.607220288085937,6.3973068359375,6.8773442687988275
5874454674215,0.114836041,1,-5.44561167602539,6.196193896484375,6.696582043457031
5874464675309,0.124837135,1,-5.012261175537109,5.889736083984375,5.965153436279296
5874474674945,0.134836771,1,-5.181052392578125,5.6012347839355465,4.809951135253906
5874484674684,0.14483651,1,-5.3570262145996095,5.747281085205078,3.8175545471191406
5874494672444,0.15483427,1,-6.0537388977050774,6.171054779052734,2.9281086303710935
5874504674528,0.164836354,1,-6.320692382812499,6.8402341430664055,2.759317413330078
5874514674319,0.174836145,1,-5.701791253662109,7.522581616210937,3.2501287536621093
5874524672444,0.18483427,1,-5.280411761474609,7.583633758544922,3.7816415222167965
5874534674580,0.194836406,1,-5.29238276977539,6.975506536865234,4.332307904052734
5874544674840,0.204836666,1,-5.439626171875,5.692214447021484,5.352237811279297
5874554673174,0.214835,1,-5.588066674804687,4.781220715332031,6.044162091064453
5874564673747,0.224835573,1,-4.4184991638183595,4.431667272949219,6.09683452758789
5874574674007,0.234835833,1,-5.230133526611328,4.669890338134765,5.061342309570312
5874584674007,0.244835833,1,-5.165490081787109,5.0385973937988275,4.3239281982421875
5874594673278,0.254835104,1,-4.491522314453125,5.779602807617187,4.2521021484374995
5874604674163,0.264835989,1,-5.087678527832031,6.308721374511719,3.4165257690429685
5874614673434,0.27483526,1,-4.872200378417968,6.5756748596191406,3.208230224609375
5874624675517,0.284837343,1,-4.374206433105469,6.433219860839843,3.4524387939453125
5874634674632,0.294836458,1,-4.624400506591797,5.963956335449218,3.1411925781249996
5874644674372,0.304836198,1,-4.684255548095702,5.363011718749999,3.068169427490234
5874654671819,0.314833645,1,-4.73094248046875,5.201403106689453,3.2644939636230466
5874664674059,0.324835885,1,-4.685452648925781,5.195417602539062,3.5314474487304683
5874674673694,0.33483552,1,-4.575319372558593,5.237316131591797,4.297591979980469
5874684673122,0.344834948,1,-4.841075756835937,5.2636523498535155,4.50109912109375
5874694674476,0.354836302,1,-4.704606262207031,5.516240625,4.790797521972656
5874704674111,0.364835937,1,-4.340687609863281,6.111199737548827,4.766855505371093
5874714673851,0.374835677,1,-4.748898992919922,6.093243225097656,4.874594580078124
5874724673121,0.384834947,1,-4.565742565917969,6.380547424316406,5.312733483886719
5874734673799,0.394835625,1,-4.882974285888672,6.37815322265625,5.367800122070312
5874744673382,0.404835208,1,-5.25407554321289,6.279990954589843,5.365405920410156
5874754664476,0.414826302,1,-5.12000025024414,6.623558892822265,5.327098693847656
5874764673434,0.42483526,1,-5.103240838623047,6.764816790771484,4.796783026123046
5874774673226,0.434835052,1,-6.293159063720703,6.849810949707031,4.037821099853516
5874784673382,0.444835208,1,-5.699397052001952,6.836642840576172,4.127603662109375
5874794674215,0.454836041,1,-4.874594580078124,6.725312463378906,4.556165759277343
5874804673538,0.464835364,1,-5.067327813720703,6.177040283203125,4.278438366699218
5874814673382,0.474835208,1,-5.2061915100097655,5.592855078125,3.831919757080078
5874824672965,0.484834791,1,-5.194220501708984,5.289988568115234,3.7337574890136715
5874834672549,0.494834375,1,-4.961982940673828,5.082890124511718,3.611653204345703
5874844673017,0.504834843,1,-4.754884497070313,5.304353778076171,3.6667198425292966
5874854671090,0.514832916,1,-4.632780212402343,5.510255120849609,3.824737152099609
5874864672809,0.524834635,1,-4.5585599609375,5.8262897399902345,3.6762966491699216
5874874672965,0.534834791,1,-7.487865692138671,6.490680700683593,4.450820886230469
5874884672705,0.544834531,1,-6.172251879882812,7.949946612548827,5.983109948730468
5874894673538,0.554835364,1,-4.095281939697266,8.234856610107421,6.757634185791015
5874904671507,0.564833333,1,-4.574122271728515,7.325059979248047,5.632359405517578
5874914673538,0.574835364,1,-5.34984360961914,5.954379528808594,5.063736511230468
5874924673642,0.584835468,1,-3.689464758300781,5.178658190917968,5.123591552734375
5874934674423,0.594836249,1,-0.3962403747558593,6.064512805175781,5.121197351074218
5874944673590,0.604835416,1,0.33758243408203126,5.425260961914062,4.639962817382812
5874954670986,0.614832812,1,-2.996343377685547,4.198232611083984,1.889025109863281
5874964672809,0.624834635,1,-7.556100439453124,3.289633081054687,-0.16280571289062498
5874974672965,0.634834791,1,-7.970297326660156,4.668693237304687,0.44532150878906246
5874984673694,0.64483552,1,-4.802768530273437,5.743689782714843,2.4947581298828125
5874994673694,0.65483552,1,-5.02423218383789,6.827066033935546,3.3004069885253906
5875004670153,0.664831979,1,-6.4739212890625,7.837419134521484,3.873818286132812
5875014675205,0.674837031,1,-5.487510205078125,8.93755479736328,4.432864373779297
5875024671559,0.684833385,1,-5.764040496826172,9.072827191162109,5.236119030761718
5875034673382,0.694835208,1,-7.748833673095703,7.175422375488281,4.167107989501953
5875044673538,0.704835364,1,-9.246406811523437,7.038952880859375,3.907337109375
5875054672757,0.714834583,1,-6.5948284729003905,6.369773516845703,4.910507604980468
5875064673694,0.72483552,1,-5.541379742431641,6.470329986572265,5.682637640380859
5875074674580,0.734836406,1,-4.458003491210937,6.740874774169922,6.56968935546875
5875084673017,0.744834843,1,-4.199429711914062,6.624755993652343,6.864176159667968
5875094672601,0.754834427,1,-4.23893403930664,7.020996368408203,5.832275244140624
5875104673069,0.764834895,1,-5.123591552734375,6.0154316711425775,4.61602080078125
5875114673538,0.774835364,1,-5.118803149414062,6.461950280761719,3.366247534179687
5875124673434,0.78483526,1,-3.852270471191406,6.306327172851562,3.797203833007812
5875134673434,0.79483526,1,-4.575319372558593,6.376956121826171,3.4715924072265625
5875144673694,0.80483552,1,-5.1140147460937495,6.60799658203125,3.209427325439453
5875154673225,0.814835051,1,-4.435258575439453,6.682216833496093,4.314351391601562
5875164672548,0.824834374,1,-4.236539837646484,7.192181787109375,5.440823272705078
5875174674163,0.834835989,1,-4.554968658447265,6.495469104003906,5.832275244140624
5875184674111,0.844835937,1,-4.458003491210937,6.303932971191406,6.044162091064453
5875194673225,0.854835051,1,-3.73495458984375,6.011840368652344,5.785588311767578
5875204673225,0.864835051,1,-3.556586566162109,5.05655390625,4.697423657226563
5875214673694,0.87483552,1,-3.70263286743164,4.107252947998047,3.2046389221191403
5875224673434,0.88483526,1,-3.6092590026855467,3.7624879089355465,2.272097375488281
5875234679736,0.894841562,1,-3.1926679138183593,3.954024041748047,1.956062756347656
5875244675517,0.904837343,1,-2.932897033691406,4.872200378417968,2.233790148925781
5875254674788,0.914836614,1,-2.8287492614746093,6.337451794433593,2.598905902099609
5875264674423,0.924836249,1,-3.4153286682128905,7.128735443115234,3.0502129150390624
5875274672809,0.934834635,1,-4.513070129394531,7.570465649414062,2.999934680175781
5875284675205,0.944837031,1,-4.525041137695312,7.803900311279296,3.920505218505859
5875294674371,0.954836197,1,-4.983530755615234,7.679401824951172,5.042188696289062
5875304673069,0.964834895,1,-4.7010149597167965,7.0281789733886715,5.366603021240234
5875314673173,0.974834999,1,-4.107252947998047,7.059303594970703,5.6191912963867185
5875324674163,0.984835989,1,-3.6439749267578123,6.898892083740234,4.784812017822265
5875334674319,0.994836145,1,-2.6970681701660153,7.163451367187499,4.629188909912109
5875344673382,1.004835208,1,-3.603273498535156,7.138312249755859,5.155913275146484
5875354673538,1.014835364,1,-4.638765716552734,6.827066033935546,5.664681127929687
5875364673278,1.024835104,1,-4.556165759277343,6.513425616455078,6.160280871582031
5875374673955,1.034835781,1,-4.629188909912109,6.375759020996093,6.938396411132812
5875384682080,1.044843906,1,-4.745307690429687,6.9360022094726554,7.071274603271484
5875394676819,1.054838645,1,-5.1714755859374995,6.730100866699218,6.537367633056641
5875404674059,1.064835885,1,-4.5968671875,6.860584857177734,5.917269403076172
5875414674215,1.074836041,1,-5.014655377197266,6.7277066650390625,5.594052178955078
5875424674527,1.084836353,1,-4.8698061767578125,6.076483813476562,4.819527941894531
5875434674111,1.094835937,1,-3.9636008483886718,6.0525417968749995,4.077325427246094
5875444674111,1.104835937,1,-2.4588451049804685,5.910086798095703,3.70263286743164
5875454674423,1.114836249,1,-2.43250888671875,5.446808776855469,2.6707319519042967
5875464673017,1.124834843,1,-2.3642741394042965,5.110423443603516,1.5023615417480467
5875474674423,1.134836249,1,-2.521094348144531,5.33068999633789,1.0139444030761717
5875484674111,1.144835937,1,-1.70467158203125,5.852625958251953,1.2318167541503906
5875494673642,1.154835468,1,-1.4915876342773438,5.72693037109375,2.360682836914062
5875504672861,1.164834687,1,-2.644395733642578,5.685031842041015,2.920926025390625
5875514671611,1.174833437,1,-3.1399954772949217,5.609614489746093,3.88818349609375
5875524674840,1.184836666,1,-4.398148449707031,6.11598814086914,4.800374328613281
5875534674788,1.194836614,1,-5.049371301269531,5.6191912963867185,5.295974072265625
5875544673850,1.204835676,1,-5.025429284667968,6.6522893127441405,7.377732415771484
5875554674319,1.214836145,1,-5.1882349975585935,6.750451580810546,8.455123162841796
5875564671975,1.224833801,1,-5.7520694885253905,6.965929730224609,8.267178332519531
5875574673850,1.234835676,1,-5.6203883972167965,6.87614716796875,7.600393170166015
5875584674059,1.244835885,1,-4.916493109130859,6.675034228515624,6.789955908203124
5875594673277,1.254835103,1,-4.21978042602539,6.56968935546875,6.318298181152343
5875604673746,1.264835572,1,-4.2509050476074215,5.9950809570312495,5.5844753723144525
5875614672444,1.27483427,1,-4.152742779541016,5.2073886108398435,4.471171600341797
5875624674684,1.28483651,1,-4.25808765258789,4.525041137695312,3.459621398925781
5875634675413,1.294837239,1,-4.317942694091797,3.8845921936035155,3.027467999267578
5875644674736,1.304836562,1,-3.9049429077148434,3.622427111816406,3.379415643310547
5875654673850,1.314835676,1,-3.3446997192382812,4.082113830566406,3.5805285827636717
5875664672757,1.324834583,1,-3.066972326660156,4.3801919372558595,4.2125978210449215
5875674673642,1.334835468,1,-3.954024041748047,5.073313317871094,4.7764323120117185
5875684674059,1.344835885,1,-4.291606475830078,4.92247861328125,5.965153436279296
5875694673590,1.354835416,1,-4.096479040527344,5.993883856201172,6.649895111083984
5875704673954,1.36483578,1,-3.749319799804687,6.132747552490234,7.826645227050781
5875714673902,1.374835728,1,-4.062960217285156,6.226121417236328,8.34498988647461
5875724673798,1.384835624,1,-4.94761773071289,5.890933184814453,8.43956085205078
5875734674371,1.394836197,1,-4.614823699951172,6.166266375732421,8.32463917236328
5875744674267,1.404836093,1,-3.72178648071289,5.594052178955078,7.64229169921875
5875754673382,1.414835208,1,-3.7768531188964842,5.529408734130859,5.615599993896484
5875764673069,1.424834895,1,-4.299986181640625,4.716577270507813,4.171896392822266
5875774672965,1.434834791,1,-3.69664736328125,4.510675927734375,4.092887738037109
5875784674267,1.444836093,1,-3.3111808959960936,4.7764323120117185,4.708197564697265
5875794674267,1.454836093,1,-2.3774422485351563,4.548983154296875,4.971559747314453
5875804673225,1.464835051,1,-2.627636322021484,4.416104962158203,5.887341882324218
5875814674475,1.474836301,1,-3.9803602600097654,4.570530969238281,5.851428857421874
5875824673069,1.484834895,1,-4.465186096191406,4.352658618164062,5.626373901367187
5875834674006,1.494835832,1,-4.310760089111328,4.557362860107421,5.13915386352539
5875844673798,1.504835624,1,-4.85184966430664,4.495113616943359,4.538209246826171
5875854674163,1.514835989,1,-5.173869787597656,4.346673114013671,4.508281726074219
5875864674840,1.524836666,1,-5.2061915100097655,4.5585599609375,5.050568402099609
5875874674319,1.534836145,1,-5.190629199218749,4.811148236083984,5.698199951171874
5875884673434,1.54483526,1,-5.480327600097656,5.008669873046875,6.320692382812499
5875894672548,1.554834374,1,-5.851428857421874,5.437231970214843,6.68461103515625
5875904679371,1.564841197,1,-5.6563014221191406,5.686228942871093,6.763619689941406
5875914675829,1.574837655,1,-5.645527514648437,5.823895538330078,6.372167718505859
5875924674267,1.584836093,1,-5.251681341552734,5.370194323730469,5.446808776855469
5875934673694,1.59483552,1,-5.267243652343749,4.874594580078124,4.690241052246093
5875944673798,1.604835624,1,-5.4899044067382805,4.8135424377441405,4.203021014404297
5875954673173,1.614834999,1,-5.12000025024414,4.9260699157714845,4.6351744140625
5875964673434,1.62483526,1,-4.940435125732422,5.537788439941406,5.2265422241210935
5875974674163,1.634835989,1,-5.364208819580078,5.68862314453125,5.522226129150391
5875984673381,1.644835207,1,-5.925649108886718,5.667075329589843,5.813121630859374
5875994674163,1.654835989,1,-6.026205578613281,5.7137622619628905,6.0884548217773435
5876004673902,1.664835728,1,-5.827486840820312,5.787982513427734,6.354211206054687
5876014675413,1.674837239,1,-5.82868394165039,5.744886883544922,6.282385156249999
5876024663746,1.684825572,1,-5.878962176513672,5.333084197998047,6.009446166992187
5876034674423,1.694836249,1,-5.813121630859374,5.070919116210937,5.872976672363281
5876044673121,1.704834947,1,-5.607220288085937,4.875791680908203,5.911283898925781
5876054673954,1.71483578,1,-5.625176800537109,4.80755693359375,5.662286926269531
5876064673329,1.724835155,1,-5.914875201416015,4.873397479248046,5.309142181396484
5876074674631,1.734836457,1,-6.136338854980468,4.969165545654296,5.117606048583984
5876084673850,1.744835676,1,-5.2444987365722655,5.268440753173828,5.493495709228515
5876094673902,1.754835728,1,-5.42645806274414,5.161898779296875,5.193023400878906
5876104674840,1.764836666,1,-6.102820031738281,4.987122058105468,4.657919329833984
5876114673381,1.774835207,1,-5.858611462402344,5.055356805419922,4.6267947082519525
5876124671506,1.784833332,1,-5.400121844482421,5.173869787597656,4.747701892089843
5876134673694,1.79483552,1,-5.249287139892578,5.003881469726562,4.589684582519531
5876144673902,1.804835728,1,-5.415684155273437,4.786009118652344,4.042609503173828
5876154673954,1.81483578,1,-5.298368273925781,4.7764323120117185,3.6559459350585937
5876164673277,1.824835103,1,-5.117606048583984,4.954800335693359,3.365050433349609
5876174670673,1.834832499,1,-5.216965417480468,5.141548065185547,3.446453289794922
5876184674475,1.844836301,1,-5.529408734130859,5.436034869384765,3.5051112304687497
5876194673433,1.854835259,1,-5.5844753723144525,5.890933184814453,3.816357446289062
5876204673381,1.864835207,1,-5.396530541992187,6.350619903564453,4.262876055908203
5876214673902,1.874835728,1,-5.673060833740234,6.524199523925781,4.402936853027343
5876224671402,1.884833228,1,-5.6586956237792965,6.555324145507812,4.544194750976562
5876234673746,1.894835572,1,-5.463568188476562,6.58884296875,4.571728070068359
5876244673538,1.904835364,1,-5.216965417480468,6.343437298583984,4.717774371337891
5876254672392,1.914834218,1,-5.17746109008789,5.863399865722656,4.471171600341797
5876264671767,1.924833593,1,-5.029020587158203,5.433640667724609,4.346673114013671
5876274672444,1.93483427,1,-4.774038110351563,5.224148022460938,4.389768743896484
5876284672131,1.944833957,1,-6.303932971191406,4.844667059326172,5.515043524169921
5876294674527,1.954836353,1,-3.9312791259765625,5.256469744873047,5.476736297607421
5876304673798,1.964835624,1,-4.185064501953125,4.463988995361328,5.214571215820312
5876314673277,1.974835103,1,-4.535815045166015,3.9935283691406247,4.580107775878906
5876324672600,1.984834426,1,-4.660313531494141,4.04739790649414,4.489128112792969
5876334717340,1.994879166,1,-4.338293408203125,4.389768743896484,5.146336468505859
5876344680933,2.004842759,1,-4.57771357421875,4.726154077148437,5.653907220458984
5876354678798,2.014840624,1,-5.125985754394531,4.8135424377441405,5.736507177734374
5876364678694,2.02484052,1,-5.351040710449219,4.964377142333984,5.893327386474609
5876374673746,2.034835572,1,-5.082890124511718,5.1140147460937495,5.869385369873046
5876384674267,2.044836093,1,-5.389347937011719,5.153519073486327,5.725733270263672
5876394673173,2.054834999,1,-5.321113189697265,5.345055206298828,5.385756634521484
5876404677652,2.064839478,1,-4.934449621582031,5.585672473144531,5.722141967773437
5876414674892,2.074836718,1,-4.671087438964843,5.748478186035156,5.79037671508789
5876424674215,2.084836041,1,-4.5693338684082025,5.550956549072265,5.574898565673828
5876434674006,2.094835832,1,-4.5968671875,5.36899722290039,5.104437939453125
5876444673746,2.104835572,1,-2.579752288818359,5.910086798095703,5.448005877685547
5876454673746,2.114835572,1,-4.442441180419921,4.717774371337891,3.3315316101074215
5876464674683,2.124836509,1,-5.203797308349609,4.283226770019531,2.9700071594238278
5876474674319,2.134836145,1,-4.619612103271484,4.817133740234374,3.768473413085937
5876484673329,2.144835155,1,-4.825513446044922,5.183446594238281,4.444835382080078
5876494673902,2.154835728,1,-5.221753820800781,5.673060833740234,4.698620758056641
5876504674058,2.164835884,1,-5.9974751586914055,5.7317187744140625,4.583699078369141
5876514672808,2.174834634,1,-5.506663818359375,6.351817004394531,4.893748193359374
5876524674267,2.184836093,1,-4.741716387939453,6.791153009033203,5.129577056884766
5876534673069,2.194834895,1,-4.587290380859375,6.849810949707031,4.744110589599609
5876544673954,2.20483578,1,-4.837484454345703,6.438008264160156,4.1934442077636715
5876554674006,2.214835832,1,-4.649539624023437,6.106411334228516,4.012681982421875
5876564674996,2.224836822,1,-4.560954162597656,5.692214447021484,4.050989208984375
5876574671506,2.234833332,1,-5.366603021240234,5.030217687988281,4.544194750976562
5876584673433,2.244835259,1,-5.980715747070312,5.4887073059082025,4.497507818603515
5876594673485,2.254835311,1,-5.8262897399902345,5.608417388916015,4.314351391601562
5876604673329,2.264835155,1,-6.229712719726562,5.741295581054687,4.3430818115234375
5876614673173,2.274834999,1,-6.048950494384766,5.91846650390625,4.473565802001953
5876624673225,2.284835051,1,-5.827486840820312,6.402095239257812,4.522646936035156
5876634674110,2.294835936,1,-5.912480999755859,6.713341455078124,4.583699078369141
5876644675308,2.304837134,1,-5.61200869140625,6.819883428955078,4.554968658447265
5876654674371,2.314836197,1,-5.333084197998047,6.922834100341796,4.3442789123535155
5876664673954,2.32483578,1,-5.002684368896484,6.975506536865234,4.352658618164062
5876674673485,2.334835311,1,-4.811148236083984,6.6702458251953125,4.328716601562499
5876684673850,2.344835676,1,-1.9033903198242186,6.721721160888672,4.835090252685546
5876694674110,2.354835936,1,-3.432088079833984,5.163095880126953,3.266888165283203
5876704673225,2.364835051,1,-4.818330841064453,3.6619314392089843,2.291250988769531
5876714673589,2.374835415,1,-4.3454760131835934,3.822342950439453,2.3032219970703123
5876724673746,2.384835572,1,-2.768894219970703,4.552574456787109,2.625242120361328
5876734673381,2.394835207,1,-3.873818286132812,3.9923312683105467,2.8143840515136715
5876744673173,2.404834999,1,-4.436455676269531,3.4931402221679684,2.7545290100097652
5876754673537,2.414835363,1,-3.6810850524902343,3.508702532958984,2.6288334228515624
5876764674006,2.424835832,1,-4.721365673828124,6.003460662841796,3.630806817626953
5876774673798,2.434835624,1,-5.698199951171874,6.138733056640625,3.6930560607910152
5876784671454,2.44483328,1,-6.092046124267577,6.23090982055664,4.023455889892578
5876794673589,2.454835415,1,-7.100005023193359,6.3973068359375,4.8123453369140625
5876804674267,2.464836093,1,-7.123947039794921,6.754042883300781,4.721365673828124
5876814674371,2.474836197,1,-6.944381915283203,7.428010650634765,5.279214660644531
5876824673850,2.484835676,1,-7.123947039794921,7.4591352722167965,5.278017559814453
5876834672287,2.494834113,1,-6.9348051086425775,7.632714892578124,5.0577510070800775
5876844673798,2.504835624,1,-7.293935357666015,6.762422589111328,5.108029241943359
5876854673798,2.514835624,1,-7.662642413330078,6.937199310302734,4.656722229003906
5876864673381,2.524835207,1,-7.0102224609374995,6.9910688476562495,4.8698061767578125
5876874673537,2.534835363,1,-6.587645867919922,6.508637213134765,5.187037896728516
5876884671558,2.544833384,1,-6.724115362548828,6.082469317626953,4.368220928955078
5876894672600,2.554834426,1,-6.603208178710937,5.5078609191894525,3.833116857910156
5876904674891,2.564836717,1,-5.884947680664062,5.475539196777343,3.5877111877441403
5876914673902,2.574835728,1,-5.1511248718261715,5.485116003417969,3.6439749267578123
5876924673485,2.584835311,1,-4.932055419921875,5.510255120849609,3.4548329956054684
5876934670933,2.594832759,1,-4.728548278808593,5.7149593627929685,3.1280244689941403
5876944673746,2.604835572,1,-4.492719415283203,5.913678100585937,2.9939491760253905
5876954673694,2.61483552,1,-4.110844250488281,6.149506964111327,3.1304186706542967
5876964673485,2.624835311,1,-5.335478399658203,5.742492681884765,2.4672248107910155
5876974673537,2.634835363,1,-5.899312890625,5.492298608398437,2.019509100341797
5876984671506,2.644833332,1,-5.437231970214843,5.699397052001952,2.2397756530761717
5876994673173,2.654834999,1,-5.391742138671875,6.136338854980468,2.6767174560546874
5877004673016,2.664834842,1,-4.704606262207031,6.0333881835937495,3.2070331237792966
5877014677027,2.674838853,1,-5.255272644042968,5.911283898925781,3.0310593017578125
5877024675308,2.684837134,1,-5.3390697021484375,6.059724401855468,3.365050433349609
5877034671662,2.694833488,1,-5.347449407958984,6.354211206054687,3.9312791259765625
5877044673016,2.704834842,1,-5.374982727050781,6.1076084350585935,4.3825861389160155
5877054671350,2.714833176,1,-4.859032269287109,7.018602166748046,4.835090252685546
5877064674162,2.724835988,1,-7.1395093505859375,4.990713360595703,3.4392706848144527
5877074673277,2.734835103,1,-7.416039642333984,3.853467572021484,4.074931225585937
5877084672756,2.744834582,1,-6.745663177490234,5.000290167236328,4.856638067626953
5877094674266,2.754836092,1,-6.940790612792968,5.073313317871094,4.73094248046875
5877104674266,2.764836092,1,-6.830657336425781,5.482721801757812,4.321533996582031
5877114673329,2.774835155,1,-6.194996795654297,6.208164904785156,4.375403533935547
5877124672808,2.784834634,1,-5.53539423828125,6.566098052978515,4.356249920654297
5877134672496,2.794834322,1,-4.860229370117187,7.068880401611327,4.1766847961425775
5877144673277,2.804835103,1,-4.707000463867187,6.21175620727539,4.552574456787109
5877154674110,2.814835936,1,-5.8262897399902345,6.138733056640625,3.797203833007812
5877164673641,2.824835467,1,-5.637147808837891,6.1255649475097655,3.9372646301269527
5877174673746,2.834835572,1,-5.7317187744140625,5.88015927734375,4.292803576660156
5877184672443,2.844834269,1,-5.191826300048827,5.7125651611328125,4.1766847961425775
5877194673537,2.854835363,1,-5.540182641601562,4.844667059326172,3.2716765686035156
5877204676818,2.864838644,1,-6.655880615234374,4.259284753417968,2.6467899353027344
5877214686975,2.874848801,1,-6.509834313964843,4.815936639404296,2.8119898498535156
5877224686402,2.884848228,1,-5.785588311767578,5.448005877685547,3.1555577880859373
5877234677600,2.894839426,1,-4.977545251464844,6.544550238037109,2.912546319580078
5877244674423,2.904836249,1,-3.784035723876953,6.489483599853515,3.921702319335937
5877254674058,2.914835884,1,-5.318718988037109,6.168660577392577,2.7078420776367187
5877264674266,2.924836092,1,-5.853823059082031,5.735310076904296,2.539050860595703
5877274672964,2.93483479,1,-6.063315704345703,5.95677373046875,3.228580938720703
5877284674058,2.944835884,1,-5.49708701171875,5.6191912963867185,3.229778039550781
5877294675360,2.954837186,1,-5.791573815917968,5.464765289306641,3.1268273681640624
5877304673485,2.964835311,1,-4.698620758056641,6.511031414794921,3.21780703125
5877314674371,2.974836197,1,-5.4515971801757805,4.705803363037109,3.5194764404296874
5877324674162,2.984835988,1,-6.611587884521484,4.508281726074219,2.3870190551757813
5877334673277,2.994835103,1,-5.941211419677734,4.715380169677734,3.2812533752441406
5877344672912,3.004834738,1,-5.268440753173828,5.13915386352539,3.8486791687011714
5877354674370,3.014836196,1,-6.114791040039062,4.595670086669921,4.074931225585937
5877364673954,3.02483578,1,-6.84382544555664,4.164713787841797,4.223371728515625
5877374673589,3.034835415,1,-6.835445739746094,4.908113403320312,4.058171813964844
5877384679266,3.044841092,1,-6.950367419433594,5.4779333984375,4.844667059326172
5877394675152,3.054836978,1,-8.061276989746093,5.810727429199218,5.090072729492187
5877404674423,3.064836249,1,-7.996633544921875,6.348225701904297,5.45877978515625
5877414673485,3.074835311,1,-7.7224974548339835,6.879738470458984,5.6191912963867185
5877424673329,3.084835155,1,-8.070853796386718,6.640318304443359,5.462371087646484
5877434674266,3.094836092,1,-9.047688073730468,6.5014546081542965,5.009866973876953
5877444673693,3.104835519,1,-8.210914593505859,6.442796667480469,4.545391851806641
5877454673537,3.114835363,1,-7.128735443115234,6.412869146728515,4.511873028564453
5877464673850,3.124835676,1,-6.922834100341796,5.9771244445800775,3.840299462890625
5877474674162,3.134835988,1,-6.667851623535156,5.627571002197265,3.35188232421875
5877484673277,3.144835103,1,-5.864596966552734,5.623979699707031,3.1830911071777344
5877494674162,3.154835988,1,-6.241683728027343,5.092466931152344,3.342305517578125
5877504671245,3.164833071,1,-5.637147808837891,5.523423229980469,3.404554760742187
5877514673641,3.174835467,1,-4.893748193359374,5.6191912963867185,3.7696705139160156
5877524672808,3.184834634,1,-5.547365246582031,5.1140147460937495,3.5410242553710933
5877534673485,3.194835311,1,-5.973533142089844,4.768052606201172,3.3315316101074215
5877544673798,3.204835624,1,-6.078878015136718,4.94761773071289,3.399766357421875
5877554673537,3.214835363,1,-5.894524487304687,5.269637854003906,3.678690850830078
5877564670881,3.224832707,1,-6.082469317626953,5.560533355712891,3.6583401367187496
5877574673902,3.234835728,1,-6.084863519287109,5.774814404296874,3.8271313537597655
5877584673693,3.244835519,1,-5.498284112548828,6.190208392333984,4.052186309814453
5877594670047,3.254831873,1,-6.086060620117187,6.0896519226074215,4.246116644287109
5877604673850,3.264835676,1,-5.501875415039062,5.960365032958984,3.995922570800781
5877614673016,3.274834842,1,-4.92846411743164,5.928043310546875,4.292803576660156
5877624673381,3.284835207,1,-5.266046551513671,5.780799908447265,4.4005426513671875
5877634673381,3.294835207,1,-5.2433016357421875,5.347449407958984,4.473565802001953
5877644671141,3.304832967,1,-4.952406134033203,5.157110375976562,4.806359832763672
5877654674891,3.314836717,1,-5.054159704589844,4.830301849365234,4.763264202880859
5877664674266,3.324836092,1,-4.994304663085937,4.350264416503906,4.369418029785156
5877674673068,3.334834894,1,-4.837484454345703,4.309562988281249,4.435258575439453
5877684672964,3.34483479,1,-4.763264202880859,4.3239281982421875,4.490325213623047
5877694671193,3.354833019,1,-4.835090252685546,4.255693450927734,4.290409374999999
5877704673068,3.364834894,1,-5.033808990478516,4.364629626464843,4.3430818115234375
5877714673745,3.374835571,1,-5.4899044067382805,4.733336682128906,4.444835382080078
5877724673277,3.384835103,1,-5.617994195556641,5.007472772216796,4.444835382080078
5877734676506,3.394838332,1,-5.6574985229492185,5.305550878906249,4.5693338684082025
5877744671818,3.404833644,1,-5.2624552490234375,5.7149593627929685,4.915296008300781
5877754671818,3.414833644,1,-5.680243438720702,5.9579708312988275,4.693832354736328
5877764673954,3.42483578,1,-6.308721374511719,6.046556292724609,4.448426684570312
5877774673120,3.434834946,1,-6.313509777832031,6.357802508544921,4.617217901611328
5877784673277,3.444835103,1,-6.046556292724609,6.661866119384765,4.84586416015625
5877794672079,3.454833905,1,-6.509834313964843,6.606799481201172,4.892551092529296
5877804673537,3.464835363,1,-6.845022546386718,6.095637426757812,4.643554119873047
5877814673485,3.474835311,1,-6.993463049316406,6.084863519287109,4.1563340820312495
5877824674318,3.484836144,1,-6.666654522705078,6.318298181152343,4.37300933227539
5877834674631,3.494836457,1,-6.335057592773437,6.366182214355469,4.186261602783203
5877844672079,3.504833905,1,-5.896918688964844,6.329072088623047,3.840299462890625
5877854739422,3.514901248,1,-5.823895538330078,6.179434484863281,3.3865982482910155
5877864687131,3.524848957,1,-5.442020373535156,5.872976672363281,3.0226795959472654
5877874687599,3.534849425,1,-5.1128176452636716,5.798756420898437,2.779668127441406
5877884687443,3.544849269,1,-4.885368487548828,5.916072302246094,2.7425580017089843
5877894688224,3.55485005,1,-3.8953661010742184,6.149506964111327,3.294421484375
5877904686870,3.564848696,1,-4.102464544677734,6.099228729248047,3.296815686035156
5877914687391,3.574849217,1,-4.679467144775391,5.831078143310546,3.1316157714843746
5877924691506,3.584853332,1,-4.940435125732422,5.748478186035156,3.5960908935546874
5877934689474,3.5948513,1,-5.566518859863281,6.1638721740722655,4.407725256347656
5877944687547,3.604849373,1,-5.42047255859375,5.761646295166015,5.361814617919921
5877954763485,3.614925311,1,-5.827486840820312,5.904101293945312,5.288791467285156
5877964696974,3.6248588,1,-6.599616876220702,5.645527514648437,5.0577510070800775
5877974695308,3.634857134,1,-5.86699116821289,5.80953032836914,5.2648494506835934
5877984694995,3.644856821,1,-5.674257934570313,5.718550665283203,4.896142395019531
5877994698589,3.654860415,1,-6.157886669921875,5.529408734130859,4.04739790649414
5878004702495,3.664864321,1,-5.888538983154296,5.671863732910156,4.100070343017578
5878014738537,3.674900363,1,-5.851428857421874,6.005854864501953,4.339490509033203
5878024701037,3.684862863,1,-6.574477758789062,6.151901165771484,4.308365887451171
5878034698224,3.69486005,1,-7.09282241821289,6.3709706176757805,4.641159918212891
5878044697495,3.704859321,1,-6.924031201171875,6.873752966308594,5.328295794677734
5878054751922,3.714913748,1,-6.556521246337891,7.268796240234375,5.580884069824219
5878064696610,3.724858436,1,-6.430825659179687,7.413645440673828,5.258863946533203
5878074695881,3.734857707,1,-5.857414361572265,7.275978845214843,4.6651019348144525
5878084694943,3.744856769,1,-5.351040710449219,6.758831286621094,4.084508032226562
5878094695776,3.754857602,1,-4.746504791259765,6.1279591491699215,3.575740179443359
5878104695204,3.76485703,1,-4.017470385742187,5.758054992675781,3.0897172424316404
5878114695620,3.774857446,1,-3.582922784423828,5.116408947753906,2.8203695556640622
5878124695724,3.78485755,1,-3.3207577026367185,4.900930798339844,2.6575638427734374
5878134853068,3.795014894,1,-2.925714428710937,4.6639048339843745,2.8227637573242186
5878144697287,3.804859113,1,-2.6372131286621094,4.589684582519531,3.1591490905761717
5878154695933,3.814857759,1,-2.4779987182617185,4.386177441406249,3.5110967346191404
5878164697079,3.824858905,1,-2.4672248107910155,4.170699291992188,3.746925598144531
5878174696037,3.834857863,1,-2.6312276245117188,3.9360675292968748,4.031835595703125
5878184696245,3.844858071,1,-2.829946362304687,3.825934252929687,4.204218115234375
5878194695672,3.854857498,1,-3.5422213562011717,3.6092590026855467,4.073734124755859
5878204694631,3.864856457,1,-3.8175545471191406,3.842693664550781,4.153939880371094
5878214695360,3.874857186,1,-4.058171813964844,4.554968658447265,4.144363073730468
5878224696089,3.884857915,1,-4.648342523193359,5.12000025024414,4.121618157958984
5878234695672,3.894857498,1,-4.96078583984375,5.589263775634765,4.656722229003906
5878244695308,3.904857134,1,-5.141548065185547,6.515819818115234,4.891353991699218
5878254695985,3.914857811,1,-5.074510418701172,7.416039642333984,4.698620758056641
5878264697183,3.924859009,1,-5.8083332275390624,7.6087728759765625,4.7943888244628905
5878274696193,3.934858019,1,-6.101622930908203,7.996633544921875,4.970362646484375
5878284694578,3.944856404,1,-6.0345852844238275,8.336610180664062,5.166687182617188
5878294696453,3.954858279,1,-5.681440539550781,8.277952239990235,5.127182855224609
5878304697912,3.964859738,1,-5.538985540771484,7.775169891357422,4.759672900390624
5878314697495,3.974859321,1,-5.503072515869141,7.032967376708984,4.067748620605468
5878324696349,3.984858175,1,-4.75009609375,6.396109735107421,3.366247534179687
5878334693016,3.994854842,1,-4.493916516113281,5.858611462402344,3.190273712158203
5878344696714,4.00485854,1,-4.632780212402343,5.552153649902343,3.23696064453125
5878354702808,4.014864634,1,-4.92846411743164,5.184643695068359,3.4524387939453125
5878364698537,4.024860363,1,-4.801571429443359,5.345055206298828,3.81156904296875
5878374696089,4.034857915,1,-4.979939453125,5.49708701171875,4.260481854248047
5878384695724,4.04485755,1,-5.396530541992187,5.459976885986328,4.147954376220703
5878394696870,4.054858696,1,-5.374982727050781,5.600037683105469,3.7612908081054686
5878404698433,4.064860259,1,-5.046977099609375,5.595249279785156,3.3099837951660156
5878414694370,4.074856196,1,-4.7381250854492185,5.665878228759765,2.586934893798828
5878424695880,4.084857706,1,-4.44962378540039,5.473144995117187,1.7753005310058592
5878434695724,4.09485755,1,-4.442441180419921,4.5968671875,1.6555904479980468
5878444695828,4.104857654,1,-3.766079211425781,5.161898779296875,1.7118541870117185
5878454694943,4.114856769,1,-3.5517981628417967,5.1331683593749995,2.0183119995117185
5878464697443,4.124859269,1,-3.815160345458984,4.983530755615234,1.898601916503906
5878474695412,4.134857238,1,-4.291606475830078,4.781220715332031,1.93451494140625
5878484695568,4.144857394,1,-4.223371728515625,4.819527941894531,2.472013214111328
5878494695776,4.154857602,1,-5.0960582336425775,4.463988995361328,2.6431986328124997
5878504697235,4.164859061,1,-6.937199310302734,4.648342523193359,2.7629087158203123
5878514695672,4.174857498,1,-7.914033587646484,5.5449710449218745,4.078522528076172
5878524694943,4.184856769,1,-8.228871105957031,6.752845782470703,5.663484027099609
5878534695620,4.194857446,1,-7.278373046874999,8.051700183105469,6.983886242675781
5878544694943,4.204856769,1,-7.926004595947266,8.495824591064453,7.502230902099609
5878554696037,4.214857863,1,-9.117119921875,8.2743609375,6.829460235595703
5878564696714,4.22485854,1,-9.26316622314453,8.591592657470702,7.07366880493164
5878574696714,4.23485854,1,-8.305485559082031,8.894459167480468,7.675810522460937
5878584696401,4.244858227,1,-7.849390142822265,8.65623610229492,7.625532287597656
5878594696037,4.254857863,1,-7.955932116699218,7.876923461914062,6.999448553466796
5878604696193,4.264858019,1,-7.75721337890625,6.9719152343749995,6.379350323486328
5878614695308,4.274857134,1,-6.88213267211914,6.374561920166015,5.644330413818359
5878624697391,4.284859217,1,-6.287173559570312,5.543773944091797,4.90931050415039
5878634696349,4.294858175,1,-5.9208607055664055,4.897339495849609,4.0988732421875
5878644695516,4.304857342,1,-5.57370146484375,4.486733911132812,3.555389465332031
5878654694995,4.314856821,1,-5.214571215820312,4.261678955078125,3.190273712158203
5878664695568,4.324857394,1,-5.052962603759766,4.100070343017578,2.807201446533203
5878674694110,4.334855936,1,-5.093664031982422,4.11802685546875,2.499546533203125
5878684695412,4.344857238,1,-4.806359832763672,4.091690637207031,2.021903302001953
5878694695516,4.354857342,1,-5.524620330810547,4.593275885009765,2.1033061584472654
5878704695724,4.36485755,1,-4.903325,4.786009118652344,2.242169854736328
5878714695672,4.374857498,1,-4.796783026123046,5.045779998779296,2.129642376708984
5878724694891,4.384856717,1,-4.636371514892578,5.322310290527343,1.7357962036132812
5878734695516,4.394857342,1,-4.317942694091797,5.476736297607421,1.849520782470703
5878744692860,4.404854686,1,-4.53940634765625,5.471947894287109,1.4879963317871092
5878754696974,4.4148588,1,-4.602852691650391,5.7843912109375,1.3682862487792968
5878764698172,4.424859998,1,-4.605246893310547,6.118382342529297,1.6843208679199217
5878774697182,4.434859008,1,-5.328295794677734,5.8454433532714845,1.5825672973632812
5878784696818,4.444858644,1,-5.474342095947265,5.954379528808594,1.5753846923828123
5878794696453,4.454858279,1,-5.659892724609374,5.850231756591796,1.9428946472167967
5878804697130,4.464858956,1,-5.495889910888671,5.9962780578613275,2.1033061584472654
5878814695307,4.474857133,1,-5.210979913330078,5.774814404296874,2.1871032165527344
5878824694682,4.484856508,1,-4.6818613464355465,5.364208819580078,2.721010186767578
5878834695776,4.494857602,1,-5.858611462402344,5.464765289306641,2.1248539733886718
5878844695776,4.504857602,1,-5.596446380615234,5.827486840820312,2.4205378784179685
5878854699162,4.514860988,1,-5.802347723388672,6.114791040039062,2.9927520751953125
5878864697964,4.52485979,1,-6.649895111083984,6.082469317626953,3.794809631347656
5878874696870,4.534858696,1,-7.217320904541015,6.198588098144531,4.376600634765625
5878884696141,4.544857967,1,-7.44357296142578,6.587645867919922,5.324704492187499
5878894695932,4.554857758,1,-7.657854010009765,7.012616662597656,5.9591679321289055
5878904695672,4.564857498,1,-7.9475524108886715,7.311891870117187,6.366182214355469
5878914695359,4.574857185,1,-7.577648254394531,7.513004809570312,6.598419775390624
5878924694734,4.58485656,1,-7.432799053955078,7.410054138183593,6.720524060058593
5878934694891,4.594856717,1,-6.974309436035155,7.048529687499999,6.506243011474609
5878944695412,4.604857238,1,-6.823474731445312,6.555324145507812,5.974730242919922
5878954695359,4.614857185,1,-6.568492254638672,6.282385156249999,5.686228942871093
5878964696557,4.624858383,1,-5.990292553710937,5.88614478149414,5.173869787597656
5878974696453,4.634858279,1,-5.8610056640625,5.1331683593749995,4.605246893310547
5878984694839,4.644856665,1,-5.827486840820312,4.580107775878906,3.9133226135253905
5878994693380,4.654855206,1,-5.493495709228515,4.1958384094238275,3.3482910217285156
5879004695307,4.664857133,1,-5.070919116210937,4.007893579101562,2.839523168945312
5879014695203,4.674857029,1,-5.607220288085937,3.9312791259765625,2.108094561767578
5879024694578,4.684856404,1,-5.055356805419922,4.151545678710937,2.079364141845703
5879034695255,4.694857081,1,-4.110844250488281,4.598064288330078,2.3786393493652342
5879044696037,4.704857863,1,-5.2456958374023435,5.027823486328125,1.6651672546386718
5879054695099,4.714856925,1,-5.491101507568359,5.097255334472656,1.838746875
5879064738120,4.724899946,1,-5.061342309570312,5.604826086425781,1.9656395629882812
5879074697391,4.734859217,1,-5.117606048583984,6.003460662841796,2.212242333984375
5879084694526,4.744856352,1,-5.685031842041015,6.228515618896484,2.262520568847656
5879094695359,4.754857185,1,-5.461173986816406,6.489483599853515,2.511517541503906
5879104696245,4.764858071,1,-6.009446166992187,6.479906793212891,2.3523031311035156
5879114695932,4.774857758,1,-6.11598814086914,6.546944439697265,2.479195819091797
5879124694578,4.784856404,1,-5.665878228759765,6.815095025634765,2.6803087585449217
5879134695411,4.794857237,1,-5.353434912109375,6.860584857177734,3.190273712158203
5879144694839,4.804856665,1,-6.155492468261718,6.410474945068359,2.895786907958984
5879154695203,4.814857029,1,-6.3973068359375,6.319495281982421,2.7545290100097652
5879164735724,4.82489755,1,-6.330269189453125,6.291961962890625,3.353079425048828
5879174696401,4.834858227,1,-6.284779357910156,6.215347509765625,3.574543078613281
5879184695099,4.844856925,1,-6.436811163330078,6.05852730102539,3.6535517333984373
5879194695620,4.854857446,1,-7.116764434814453,5.872976672363281,3.754108203125
5879204694214,4.86485604,1,-6.9719152343749995,5.872976672363281,4.088099334716796
5879214694786,4.874856612,1,-7.179013677978515,6.1830257873535155,4.469974499511719
5879224695776,4.884857602,1,-7.708132244873046,6.036979486083984,4.885368487548828
5879234694943,4.894856769,1,-7.9272016967773435,6.357802508544921,4.7560815979003905
5879244696870,4.904858696,1,-7.717709051513672,6.469132885742187,5.003881469726562
5879254700776,4.914862602,1,-7.620743884277343,7.01620796508789,5.13915386352539
5879264734422,4.924896248,1,-7.224503509521484,7.258022332763671,5.355829113769531
5879274695203,4.934857029,1,-7.906850982666016,7.611167077636718,5.5078609191894525
5879284695359,4.944857185,1,-8.087613208007811,7.886500268554687,5.249287139892578
5879294694839,4.954856665,1,-7.888894470214844,7.784746697998046,5.03740029296875
5879304695672,4.964857498,1,-7.513004809570312,7.831433630371094,4.860229370117187
5879314695359,4.974857185,1,-6.908468890380859,7.582436657714843,4.467580297851562
5879324693432,4.984855258,1,-6.331466290283203,7.091625317382812,3.883395092773437
5879334696974,4.9948588,1,-6.175843182373047,6.387730029296875,3.219004132080078
5879344695047,5.004856873,1,-5.3019595764160155,6.007051965332031,2.8371289672851563
5879354695568,5.014857394,1,-4.587290380859375,5.541379742431641,2.8431144714355465
5879364736088,5.024897914,1,-4.2329485351562495,5.080495922851562,2.5055320373535155
5879374696609,5.034858435,1,-4.313154290771484,4.458003491210937,1.93451494140625
5879384720203,5.044882029,1,-4.045003704833984,4.012681982421875,1.6124948181152343
5879394703901,5.054865727,1,-3.5877111877441403,3.9647979492187497,1.4832079284667967
5879404695516,5.064857342,1,-3.239354846191406,3.8139632446289062,1.6328455322265625
5879414695359,5.074857185,1,-3.326743206787109,3.526659045410156,1.495178936767578
5879424695672,5.084857498,1,-3.506308331298828,3.594893792724609,0.7230489013671875
5879434695047,5.094856873,1,-4.00909067993164,3.450044592285156,0.23223756103515625
5879444695724,5.10485755,1,-3.7720647155761715,4.228160131835938,0.23223756103515625
5879454696870,5.114858696,1,-3.414131567382812,4.976348150634766,0.3746925598144531
5879464744318,5.124906144,1,-4.10485874633789,5.53539423828125,0.32441432495117184
5879474696661,5.134858487,1,-4.935646722412109,6.246472131347656,0.5758054992675781
5879484696557,5.144858383,1,-5.304353778076171,7.107187628173827,1.216254443359375
5879494696974,5.1548588,1,-5.609614489746093,7.821856823730468,2.110488763427734
5879504695724,5.16485755,1,-6.290764862060547,8.45272896118164,2.750937707519531
5879514696245,5.174858071,1,-6.611587884521484,8.588001354980468,3.1962592163085937
5879524696661,5.184858487,1,-6.99705435180664,8.814253411865234,3.7098154724121093
5879534696661,5.194858487,1,-6.956352923583984,9.005789544677734,4.339490509033203
5879544695620,5.204857446,1,-6.839037042236328,8.980650427246093,5.046977099609375
5879554694630,5.214856456,1,-6.950367419433594,8.60595786743164,5.140350964355468
5879564694995,5.224856821,1,-7.214926702880859,7.943961108398437,5.050568402099609
5879574694943,5.234856769,1,-7.115567333984375,7.313088970947265,5.421669659423828
5879584695151,5.244856977,1,-6.4739212890625,6.968323931884766,5.471947894287109
5879594694995,5.254856821,1,-6.512228515625,6.342240197753906,5.6754550354003905
5879604694995,5.264856821,1,-6.100425830078125,6.15429536743164,5.4779333984375
5879614692703,5.274854529,1,-6.204573602294921,5.668272430419922,5.123591552734375
5879624695568,5.284857394,1,-5.6407391113281244,5.415684155273437,4.860229370117187
5879634695984,5.29485781,1,-5.704185455322265,5.622782598876952,4.73094248046875
5879644692182,5.304854008,1,-5.668272430419922,5.7137622619628905,4.521449835205078
5879654696870,5.314858696,1,-5.728127471923828,6.03937368774414,4.218583325195312
5879664695880,5.324857706,1,-5.802347723388672,6.287173559570312,3.9695863525390624
5879674696765,5.334858591,1,-6.34583150024414,6.629544396972656,3.821145849609375
5879684696245,5.344858071,1,-5.8454433532714845,7.143100653076171,3.67749375
5879694696140,5.354857966,1,-5.627571002197265,7.396886029052734,3.901351605224609
5879704696245,5.364858071,1,-5.433640667724609,7.587225061035156,3.5039141296386718
5879714696140,5.374857966,1,-5.21576831665039,7.359775903320312,3.076549133300781
5879724695255,5.384857081,1,-5.214571215820312,7.066486199951171,2.712630480957031
5879734694578,5.394856404,1,-4.715380169677734,6.381744525146484,1.9991583862304687
5879744694578,5.404856404,1,-4.50109912109375,6.068104107666016,1.6927005737304686
5879754695776,5.414857602,1,-3.8175545471191406,5.8226984375,1.8231845642089843
5879764694995,5.424856821,1,-4.480748406982421,5.373785626220703,1.6675614562988281
5879774696870,5.434858696,1,-4.077325427246094,5.469553692626953,2.157175695800781
5879784696817,5.444858643,1,-3.2632968627929686,5.90529839477539,2.6803087585449217
5879794696349,5.454858175,1,-3.712209674072265,5.802347723388672,2.797624639892578
5879804695984,5.46485781,1,-4.164713787841797,5.985504150390625,2.5258827514648434
5879814694786,5.474856612,1,-4.347870214843749,6.168660577392577,2.8419173706054686
5879824695255,5.484857081,1,-4.3825861389160155,6.353014105224609,3.1483751831054687
5879834695255,5.494857081,1,-4.853046765136718,6.491877801513671,3.4763808105468748
5879844694838,5.504856664,1,-4.808754034423828,6.861781958007812,4.1192239562988275
5879854694890,5.514856716,1,-4.972756848144531,7.104793426513671,4.578910675048828
5879864695047,5.524856873,1,-5.371391424560547,7.07366880493164,4.821922143554687
5879874700620,5.534862446,1,-5.702988354492187,7.066486199951171,5.078101721191406
5879884697755,5.544859581,1,-5.491101507568359,7.109581829833984,5.398924743652343
5879894696974,5.5548588,1,-5.524620330810547,7.237671618652343,5.455188482666015
5879904694786,5.564856612,1,-5.181052392578125,7.196970190429687,5.540182641601562
5879914695203,5.574857029,1,-5.312733483886719,6.9731123352050774,5.506663818359375
5879924695255,5.584857081,1,-5.687426043701172,6.525396624755859,5.353434912109375
5879934693380,5.594855206,1,-5.439626171875,6.625953094482422,5.272032055664062
5879944697755,5.604859581,1,-5.421669659423828,6.532579229736328,5.25407554321289
5879954695151,5.614856977,1,-5.698199951171874,6.457161877441406,4.957194537353515
5879964696140,5.624857966,1,-5.036203192138672,6.6714429260253905,4.80755693359375
5879974736817,5.634898643,1,-4.696226556396484,6.682216833496093,4.575319372558593
5879984693640,5.644855466,1,-4.639962817382812,6.562506750488281,3.69664736328125
5879994696349,5.654858175,1,-3.6056677001953124,6.775590698242187,3.3291374084472656
5880004694474,5.6648563,1,-3.0166940917968748,6.648698010253906,3.1699229980468746
5880014695411,5.674857237,1,-2.8335376647949215,6.537367633056641,2.7736826232910157
5880024694890,5.684856716,1,-2.839523168945312,6.545747338867187,2.7066449768066403
5880034695567,5.694857393,1,-2.9173347229003905,6.70975015258789,2.958036151123047
5880044696817,5.704858643,1,-2.959233251953125,6.982689141845703,3.6332010192871094
5880054696453,5.714858279,1,-3.248931652832031,7.293935357666015,4.438849877929687
5880064696401,5.724858227,1,-3.708618371582031,7.24605132446289,5.042188696289062
5880074695724,5.73485755,1,-3.21780703125,7.205349896240234,5.655104321289063
5880084695099,5.744856925,1,-2.710236279296875,6.891709478759765,5.834669445800781
5880094694682,5.754856508,1,-2.6791116577148437,6.404489440917969,6.265625744628906
5880104695984,5.76485781,1,-2.6910826660156246,5.968744738769531,5.698199951171874
5880114695724,5.77485755,1,-2.404975567626953,5.594052178955078,5.756857891845703
5880124692599,5.784854425,1,-2.473210314941406,5.516240625,5.519831927490234
5880134696036,5.794857862,1,-3.172317199707031,5.090072729492187,5.410895751953125
5880144695411,5.804857237,1,-3.1447838806152344,5.378574029541015,5.329492895507812
5880154694994,5.81485682,1,-2.8850130004882812,5.768828900146484,6.582857464599609
5880164695515,5.824857341,1,-3.361459130859375,6.016628771972656,6.432022760009765
5880174695411,5.834857237,1,-3.545812658691406,6.02022007446289,6.4284314575195305
5880184697651,5.844859477,1,-3.843890765380859,6.283582257080078,6.2584431396484375
5880194695932,5.854857758,1,-3.399766357421875,6.760028387451172,6.098031628417968
5880204695880,5.864857706,1,-2.967612957763672,6.836642840576172,5.704185455322265
5880214696401,5.874858227,1,-2.5725696838378904,7.01620796508789,5.321113189697265
5880224695567,5.884857393,1,-2.528276953125,7.048529687499999,4.7010149597167965
5880234693171,5.894854997,1,-2.3151930053710936,6.968323931884766,4.386177441406249
5880244695984,5.90485781,1,-2.062604730224609,6.912060192871094,4.265270257568359
5880254695046,5.914856872,1,-2.366668341064453,6.866570361328125,4.007893579101562
5880264696244,5.92485807,1,-1.2425906616210938,6.961141326904296,4.2868180725097655
5880274696817,5.934858643,1,-0.8786720092773437,6.481103894042969,3.754108203125
5880284696921,5.944858747,1,-1.0235212097167967,5.974730242919922,3.7110125732421873
5880294695567,5.954857393,1,-1.1947066284179686,5.607220288085937,4.135983367919922
5880304695567,5.964857393,1,-0.44412440795898434,5.810727429199218,4.298789080810547
5880314695567,5.974857393,1,-0.49200844116210934,5.628768103027343,4.515464331054687
5880324695828,5.984857654,1,-0.9888052856445312,5.389347937011719,4.824316345214844
5880334696036,5.994857862,1,-1.1432312927246093,5.371391424560547,5.274426257324219
5880344695515,6.004857341,1,-1.2521674682617188,5.518634826660156,5.467159490966797
5880354705359,6.014867185,1,-1.455674609375,5.609614489746093,5.579686968994141
5880364698171,6.024859997,1,-1.8148048583984373,5.609614489746093,5.753266589355468
5880374694994,6.03485682,1,-1.7465701110839842,5.870582470703124,5.579686968994141
5880384698744,6.04486057,1,-1.8698714965820311,6.100425830078125,5.519831927490234
5880394696661,6.054858487,1,-2.166752502441406,6.048950494384766,5.21576831665039
5880404695619,6.064857445,1,-2.110488763427734,6.685808135986328,5.278017559814453
5880414697703,6.074859529,1,-1.9285294372558592,6.629544396972656,5.086481427001953
5880424696401,6.084858227,1,-1.8148048583984373,6.6522893127441405,4.5693338684082025
5880434694994,6.09485682,1,-1.8291700683593748,6.387730029296875,4.2497079467773435
5880444695567,6.104857393,1,-2.048239520263672,5.979518646240234,4.3442789123535155
5880454696401,6.114858227,1,-2.0266917053222655,5.9017070922851556,4.33470210571289
5880464696088,6.124857914,1,-2.2732944763183593,5.787982513427734,4.395754248046875
5880474695723,6.134857549,1,-2.4947581298828125,5.792770916748046,4.764461303710937
5880484697494,6.14485932,1,-2.900575311279297,5.938817218017578,4.936843823242187
5880494696817,6.154858643,1,-3.5517981628417967,6.0884548217773435,5.318718988037109
5880504696505,6.164858331,1,-4.092887738037109,6.313509777832031,5.589263775634765
5880514695723,6.174857549,1,-4.404133953857421,6.776787799072265,5.838260748291015
5880524695255,6.184857081,1,-4.948814831542968,6.97790073852539,6.047753393554687
5880534695203,6.194857029,1,-5.088875628662109,7.3094976684570305,6.131550451660156
5880544694473,6.204856299,1,-5.415684155273437,7.503428002929687,5.992686755371094
5880554695463,6.214857289,1,-5.3570262145996095,7.788338000488281,6.149506964111327
5880564694682,6.224856508,1,-5.285200164794921,7.678204724121093,5.942408520507812
5880574695880,6.234857706,1,-5.019443780517578,8.080430603027343,5.66946953125
5880584696036,6.244857862,1,-4.801571429443359,7.83981333618164,5.2265422241210935
5880594695098,6.254856924,1,-4.53940634765625,7.3466077941894525,4.789600421142578
5880604695880,6.264857706,1,-4.234145635986328,6.89530078125,4.205415216064453
5880614695723,6.274857549,1,-4.048595007324218,6.457161877441406,3.831919757080078
5880624694786,6.284856612,1,-4.141968872070312,6.123170745849609,3.496731524658203
5880634694994,6.29485682,1,-4.4184991638183595,6.256048937988281,3.69664736328125
5880644695619,6.304857445,1,-4.6447512207031245,6.757634185791015,4.146757275390625
5880654695828,6.314857654,1,-4.572925170898437,7.1395093505859375,4.753687396240234
5880664694317,6.324856143,1,-4.732139581298828,7.321468676757812,4.876988781738281
5880674695880,6.334857706,1,-5.036203192138672,7.520187414550781,5.145139367675781
5880684698067,6.344859893,1,-5.10084663696289,7.714117749023437,5.385756634521484
5880694696557,6.354858383,1,-5.2444987365722655,7.800309008789062,5.643133312988281
5880704694890,6.364856716,1,-5.503072515869141,7.8721350585937495,5.849034655761718
5880714695671,6.374857497,1,-5.588066674804687,8.009801654052733,6.023811376953125
5880724694421,6.384856247,1,-5.533000036621093,7.8924857727050775,5.926846209716796
5880734697078,6.394858904,1,-5.500678314208984,7.7979148071289055,5.680243438720702
5880744696088,6.404857914,1,-5.3007624755859375,7.548917834472656,5.195417602539062
5880754696296,6.414858122,1,-4.990713360595703,7.249642626953125,5.0182466796875
5880764696036,6.424857862,1,-4.387374542236328,7.162254266357421,4.369418029785156
5880774695671,6.434857497,1,-4.010287780761718,6.88213267211914,3.902548706054687
5880784696036,6.444857862,1,-3.708618371582031,6.697779144287109,3.7768531188964842
5880794695359,6.454857185,1,-3.393780853271484,6.586448767089843,3.878606689453125
5880804696921,6.464858747,1,-2.863465185546875,6.497863305664062,3.9995138732910154
5880814695098,6.474856924,1,-2.498349432373047,6.398503936767578,3.9624037475585934
5880824694838,6.484856664,1,-1.763329522705078,6.7085530517578125,3.0214824951171875
5880834695359,6.494857185,1,-0.9528922607421875,5.683834741210937,4.2329485351562495
5880844695255,6.504857081,1,-0.612915625,5.1523219726562495,3.890577697753906
5880854696244,6.51485807,1,-0.9840168823242187,4.891353991699218,3.824737152099609
5880864695827,6.524857653,1,-0.7254431030273437,5.049371301269531,4.046200805664062
5880874696452,6.534858278,1,-0.38187516479492184,4.94761773071289,4.7381250854492185
5880884696973,6.544858799,1,-0.28371289672851563,4.96078583984375,5.137956762695312
5880894694682,6.554856508,1,-0.40462008056640625,4.867411975097656,5.6754550354003905
5880904697025,6.564858851,1,-1.0702081420898437,5.307945080566406,5.80354482421875
5880914695202,6.574857028,1,-0.9552864624023437,5.080495922851562,6.524199523925781
5880924695515,6.584857341,1,-1.7776947326660155,5.436034869384765,6.812700823974609
5880934694161,6.594855987,1,-1.9620482604980467,5.623979699707031,6.750451580810546
5880944694890,6.604856716,1,-1.898601916503906,5.655104321289063,6.4092778442382805
5880954695359,6.614857185,1,-2.3487118286132813,5.878962176513672,6.098031628417968
5880964694682,6.624856508,1,-2.5067291381835934,6.293159063720703,5.904101293945312
5880974694890,6.634856716,1,-2.407369769287109,6.489483599853515,5.38815083618164
5880984736192,6.644898018,1,-2.2840683837890623,6.579266162109374,4.781220715332031
5880994696713,6.654858539,1,-2.1739351074218747,6.5589154479980465,4.210203619384766
5881004695984,6.66485781,1,-2.3870190551757813,6.712144354248046,3.909731311035156
5881014696296,6.674858122,1,-2.1978771240234374,7.025784771728516,3.901351605224609
5881024695984,6.68485781,1,-2.0745757385253905,7.09282241821289,4.077325427246094
5881034695671,6.694857497,1,-2.0925322509765625,7.151480358886718,4.067748620605468
5881044694473,6.704856299,1,-2.1320365783691404,6.965929730224609,4.329913702392578
5881054696192,6.714858018,1,-2.440888592529297,6.746860278320312,4.441244079589843
5881064696348,6.724858174,1,-2.7461493041992187,6.611587884521484,4.7764323120117185
5881074695932,6.734857758,1,-3.0693665283203124,6.41646044921875,5.1343654602050774
5881084695150,6.744856976,1,-3.4440590881347655,6.421248852539062,5.522226129150391
5881094696244,6.75485807,1,-3.754108203125,6.482300994873047,5.785588311767578
5881104694473,6.764856299,1,-3.9923312683105467,6.645106707763672,5.985504150390625
5881114696452,6.774858278,1,-3.9169139160156248,6.813897924804687,6.253654736328125
5881124695515,6.784857341,1,-4.025850091552734,7.041347082519531,6.28837066040039
5881134694369,6.794856195,1,-4.101267443847656,7.090428216552734,6.048950494384766
5881144696192,6.804858018,1,-4.186261602783203,7.079654309082031,5.8083332275390624
5881154695723,6.814857549,1,-4.140771771240234,6.945579016113281,5.430049365234375
5881164695984,6.82485781,1,-4.107252947998047,6.798335614013672,4.821922143554687
5881174695775,6.834857601,1,-4.012681982421875,6.6714429260253905,4.367023828124999
5881184694942,6.844856768,1,-4.139574670410156,6.667851623535156,4.005499377441406
5881194697129,6.854858955,1,-4.29639487915039,6.72291826171875,3.6152445068359373
5881204695671,6.864857497,1,-4.255693450927734,6.986280444335937,3.417722869873047
5881214695046,6.874856872,1,-4.159925384521484,7.205349896240234,3.343502618408203
5881224693223,6.884855049,1,-4.651933825683593,7.319074475097656,3.497928625488281
5881234695671,6.894857497,1,-4.96677134399414,7.5465236328125,3.499125726318359
5881244694421,6.904856247,1,-5.029020587158203,7.85896694946289,3.670311145019531
5881254696348,6.914858174,1,-4.903325,8.200140686035155,4.062960217285156
5881264694942,6.924856768,1,-4.972756848144531,8.365340600585936,4.18147319946289
5881274694681,6.934856507,1,-4.7943888244628905,8.45272896118164,4.428075970458984
5881284695306,6.944857132,1,-4.406528155517578,8.493430389404296,4.537012145996093
5881294697859,6.954859685,1,-4.074931225585937,8.161833459472655,4.578910675048828
5881304700411,6.964862237,1,-3.81156904296875,7.5153990112304685,4.493916516113281
5881314696192,6.974858018,1,-3.547009759521484,6.928819604492187,4.417302062988281
5881324695931,6.984857757,1,-3.361459130859375,6.489483599853515,4.347870214843749
5881334695827,6.994857653,1,-2.9448680419921875,6.260837341308593,4.648342523193359
5881344744577,7.004906403,1,-2.596511700439453,6.194996795654297,4.976348150634766
5881354702286,7.014864112,1,-2.5330653564453125,6.124367846679687,5.236119030761718
5881364695150,7.024856976,1,-2.4863784240722655,6.03937368774414,5.415684155273437
5881374694317,7.034856143,1,-2.507926239013672,5.953182427978516,5.503072515869141
5881384699161,7.044860987,1,-2.440888592529297,5.900509991455078,5.608417388916015
5881394711036,7.054872862,1,-2.403778466796875,5.878962176513672,5.664681127929687
5881404696348,7.064858174,1,-2.4253262817382812,5.774814404296874,5.655104321289063
5881414700254,7.07486208,1,-2.440888592529297,5.626373901367187,5.590460876464843
5881424698900,7.084860726,1,-2.3020248962402343,5.590460876464843,5.519831927490234
5881434698588,7.094860414,1,-2.2541408630371094,5.440823272705078,5.392939239501953
5881444699161,7.104860987,1,-2.4001871643066406,5.364208819580078,5.149927770996094
5881454698588,7.114860414,1,-2.5438392639160154,5.384559533691406,5.02423218383789
5881464699994,7.12486182,1,-2.673126153564453,5.659892724609374,4.905719201660156
5881474694161,7.134855987,1,-2.7581203125,6.068104107666016,4.8686090759277345
5881484700202,7.144862028,1,-3.3506852233886715,6.439205364990234,4.886565588378906
5881494698692,7.154860518,1,-3.489548919677734,6.704961749267578,4.950011932373046
5881504699265,7.164861091,1,-3.6068648010253903,7.089231115722656,4.983530755615234
5881514698744,7.17486057,1,-3.957615344238281,7.252036828613281,4.969165545654296
5881524699838,7.184861664,1,-4.1934442077636715,7.2903440551757805,4.839878656005859
5881534699369,7.194861195,1,-4.313154290771484,7.410054138183593,4.85184966430664
5881544697650,7.204859476,1,-4.340687609863281,7.480683087158202,4.806359832763672
5881554698900,7.214860726,1,-4.425681768798828,7.551312036132812,4.696226556396484
5881564699265,7.224861091,1,-4.359841223144531,7.419630944824219,4.5585599609375
5881574698536,7.234860362,1,-4.316745593261719,7.390900524902343,4.378994836425781
5881584698327,7.244860153,1,-4.207809417724609,7.268796240234375,4.317942694091797
5881594716452,7.254878278,1,-4.185064501953125,7.213729602050781,4.259284753417968
5881604700150,7.264861976,1,-4.097676141357422,7.189787585449218,4.1575311828613275
5881614698275,7.274860101,1,-3.886986395263672,7.153874560546875,4.132392065429687
5881624698692,7.284860518,1,-3.7924154296875,7.204152795410156,4.216189123535156
5881634699317,7.294861143,1,-3.7098154724121093,7.190984686279297,4.237736938476562
5881644698275,7.304860101,1,-3.5721488769531247,7.152677459716797,4.338293408203125
5881654698588,7.314860414,1,-3.4057518615722655,7.1586629638671875,4.378994836425781
5881664697806,7.324859632,1,-3.305195391845703,6.880935571289062,4.242525341796875
5881674698171,7.334859997,1,-3.479972113037109,6.471527087402343,4.0222587890625
5881684700254,7.34486208,1,-3.400963458251953,6.246472131347656,3.6667198425292966
5881694694890,7.354856716,1,-3.2692823669433593,6.302735870361328,3.3590649291992185
5881704700827,7.364862653,1,-3.2034418212890623,6.356605407714843,3.1950621154785153
5881714699056,7.374860882,1,-2.931699932861328,6.692990740966796,3.3542765258789062
5881724698431,7.384860257,1,-2.9604303527832028,6.809109521484374,3.5685575744628903
5881734698900,7.394860726,1,-2.85388837890625,6.694187841796874,3.6583401367187496
5881744699160,7.404860986,1,-2.8335376647949215,6.625953094482422,3.900154504394531
5881754699317,7.414861143,1,-3.2154128295898436,6.567295153808593,4.073734124755859
5881764698796,7.424860622,1,-3.706224169921875,6.580463262939452,4.3251252990722655
5881774697390,7.434859216,1,-4.169502191162109,6.754042883300781,4.697423657226563
5881784699473,7.444861299,1,-4.210203619384766,7.161057165527343,4.908113403320312
5881794697598,7.454859424,1,-4.158728283691406,7.345410693359375,4.935646722412109
5881804700098,7.464861924,1,-4.060566015625,7.382520819091797,5.06253941040039
5881814698848,7.474860674,1,-4.045003704833984,7.216123803710937,5.12000025024414
5881824698431,7.484860257,1,-4.068945721435546,7.080851409912109,5.002684368896484
5881834699629,7.494861455,1,-4.301183282470703,6.858190655517578,4.965574243164062
5881844698588,7.504860414,1,-4.466383197021484,6.928819604492187,5.090072729492187
5881854699108,7.514860934,1,-4.517858532714843,7.171831072998047,5.558139154052734
5881864698588,7.524860414,1,-5.397727642822265,7.36097300415039,5.321113189697265
5881874699629,7.534861455,1,-5.287594366455078,7.574056951904296,5.832275244140624
5881884698900,7.544860726,1,-4.932055419921875,8.244433416748047,6.174646081542968
5881894699421,7.554861247,1,-5.079298822021484,8.398859423828124,6.4655415832519525
5881904699369,7.564861195,1,-4.940435125732422,8.441955053710936,6.495469104003906
5881914700098,7.574861924,1,-4.780023614501953,8.311471063232421,6.159083770751953
5881924700306,7.584862132,1,-4.563348364257812,7.894879974365234,5.821501336669922
5881934699525,7.594861351,1,-4.2688615600585935,7.625532287597656,5.172672686767577
5881944699056,7.604860882,1,-3.9228994201660154,7.095216619873047,4.566939666748047
5881954697858,7.614859684,1,-3.4739866088867184,6.545747338867187,3.8462849670410155
5881964699733,7.624861559,1,-3.2417490478515623,6.016628771972656,3.132812872314453
5881974697233,7.634859059,1,-3.0214824951171875,5.687426043701172,2.4061726684570313
5881984699265,7.644861091,1,-2.829946362304687,5.517437725830078,1.9823989746093749
5881994699421,7.654861247,1,-3.5625720703124997,5.252878442382812,1.8471265808105468
5882004700358,7.664862184,1,-2.7581203125,5.430049365234375,1.5981296081542968
5882014699629,7.674861455,1,-2.033874310302734,5.649118817138672,1.8052280517578123
5882024696608,7.684858434,1,-2.04943662109375,5.743689782714843,1.5442600708007812
5882034698587,7.694860413,1,-2.366668341064453,5.923254907226562,1.0761936462402344
5882044699317,7.704861143,1,-2.511517541503906,6.236895324707031,1.0115502014160156
5882054699212,7.714861038,1,-2.527079852294922,6.760028387451172,1.1623849060058593
5882064698483,7.724860309,1,-2.7533319091796873,7.1586629638671875,1.2713210815429687
5882074698692,7.734860518,1,-3.295618585205078,7.578845355224609,1.4736311218261717
5882084698848,7.744860674,1,-3.3686417358398435,7.770381488037109,1.8052280517578123
5882094697702,7.754859528,1,-3.1004911499023438,7.9463553100585935,2.2206220397949217
5882104699108,7.764860934,1,-3.35188232421875,7.945158209228516,2.4289175842285156
5882114698796,7.774860622,1,-4.045003704833984,7.838616235351562,2.7174188842773437
5882124698535,7.784860361,1,-4.2137949218749995,7.767987286376953,3.6260184143066403
5882134698796,7.794860622,1,-4.357447021484375,8.112752325439452,4.316745593261719
5882144698067,7.804859893,1,-4.198232611083984,8.233659509277343,4.8686090759277345
5882154699525,7.814861351,1,-4.222174627685547,8.036137872314452,5.242104534912109
5882164698223,7.824860049,1,-4.29639487915039,7.632714892578124,5.312733483886719
5882174693900,7.834855726,1,-4.707000463867187,7.194575988769531,5.218162518310547
5882184699160,7.844860986,1,-5.191826300048827,7.212532501220703,5.493495709228515
5882194698119,7.854859945,1,-5.501875415039062,7.484274389648437,5.9017070922851556
5882204700150,7.864861976,1,-5.511452221679687,7.7979148071289055,6.423643054199219
5882214698587,7.874860413,1,-5.749675286865234,7.874529260253905,6.381744525146484
5882224699056,7.884860882,1,-6.379350323486328,8.051700183105469,6.048950494384766
5882234698171,7.894859997,1,-6.675034228515624,8.294711651611328,5.543773944091797
5882244698900,7.904860726,1,-6.167463476562499,8.596381060791016,5.781997009277344
5882254699889,7.914861715,1,-5.367800122070312,9.145850341796875,5.7891796142578125
5882264698014,7.92485984,1,-4.811148236083984,9.390058911132812,5.807136126708984
5882274699108,7.934860934,1,-4.352658618164062,8.86812294921875,5.414487054443359
5882284699681,7.944861507,1,-4.065354418945312,8.112752325439452,4.790797521972656
5882294698223,7.954860049,1,-3.81156904296875,7.406462835693359,4.2497079467773435
5882304699889,7.964861715,1,-3.5996821960449217,6.672640026855468,3.7193922790527343
5882314698431,7.974860257,1,-3.8091748413085935,6.150704064941406,3.365050433349609
5882324697546,7.984859372,1,-3.9552211425781247,5.894524487304687,2.9759926635742184
5882334698431,7.994860257,1,-3.8666356811523435,5.998672259521484,2.8574796813964842
5882344699056,8.004860882,1,-3.5434184570312497,6.247669232177734,2.932897033691406
5882354699317,8.014861143,1,-3.276464971923828,6.461950280761719,2.8479028747558592
5882364709733,8.024871559,1,-3.2022447204589843,6.49307490234375,2.2481553588867187
5882374701556,8.034863382,1,-2.925714428710937,6.4846951965332025,2.5378537597656248
5882384699316,8.044861142,1,-2.7042507751464844,6.4846951965332025,2.3642741394042965
5882394698900,8.054860726,1,-2.5641899780273434,6.555324145507812,2.2170307373046874
5882404718535,8.064880361,1,-2.4672248107910155,6.443993768310547,2.042254016113281
5882414704056,8.074865882,1,-2.2876596862792966,6.259640240478515,2.059013427734375
5882424698171,8.084859997,1,-2.280477081298828,6.117185241699218,1.7573440185546874
5882434697233,8.094859059,1,-2.147598889160156,5.922057806396484,1.6819266662597656
5882444698796,8.104860622,1,-2.4109610717773435,5.756857891845703,1.399410870361328
5882454698639,8.114860465,1,-2.910152117919922,5.708973858642578,0.7493851196289062
5882464692494,8.12485432,1,-3.113659259033203,5.941211419677734,0.74699091796875
5882474699577,8.134861403,1,-2.8514941772460936,6.781576202392578,1.2198457458496093
5882484698639,8.144860465,1,-2.808398547363281,7.375338214111328,1.7417817077636717
5882494699681,8.154861507,1,-2.900575311279297,7.732074261474609,1.944091748046875
5882504747702,8.164909528,1,-3.2501287536621093,7.971494427490234,2.2445640563964844
5882514700410,8.174862236,1,-3.6296097167968746,8.186972576904296,2.70065947265625
5882524698327,8.184860153,1,-4.132392065429687,8.29351455078125,3.248931652832031
5882534698327,8.194860153,1,-4.182670300292968,8.334215979003906,3.427299676513672
5882544698379,8.204860205,1,-4.988319158935546,8.136694342041014,3.5506010620117183
5882554698848,8.214860674,1,-5.237316131591797,8.341398583984375,3.9408559326171875
5882564697233,8.224859059,1,-5.258863946533203,8.59997236328125,4.4005426513671875
5882574697285,8.234859111,1,-5.117606048583984,8.814253411865234,4.6447512207031245
5882584697754,8.24485958,1,-4.259284753417968,8.959102612304687,5.2456958374023435
5882594698483,8.254860309,1,-4.552574456787109,8.537723120117187,4.671087438964843
5882604740202,8.264902028,1,-4.631583111572265,7.762001782226562,4.434061474609375
5882614699004,8.27486083,1,-4.337096307373047,7.785943798828124,4.7584757995605464
5882624698535,8.284860361,1,-4.510675927734375,7.526172918701171,5.2648494506835934
5882634698952,8.294860778,1,-4.8686090759277345,7.395688928222656,5.437231970214843
5882644697598,8.304859424,1,-4.857835168457031,7.417236743164062,6.23090982055664
5882654698900,8.314860726,1,-5.246892938232421,7.357381701660156,6.320692382812499
5882664698327,8.324860153,1,-5.3761798278808595,7.22689771118164,6.233304022216797
5882674699108,8.334860934,1,-4.96078583984375,7.132326745605468,6.185419989013671
5882684693535,8.344855361,1,-4.627991809082031,7.019799267578125,6.030993981933594
5882694699212,8.354861038,1,-4.754884497070313,6.883329772949218,5.613205792236328
5882704697598,8.364859424,1,-4.8506525634765625,6.865373260498046,5.1319712585449215
5882714694525,8.374856351,1,-4.751293194580078,7.070077502441406,5.027823486328125
5882724699733,8.384861559,1,-4.746504791259765,7.4794859863281244,5.0385973937988275
5882734698848,8.394860674,1,-4.668693237304687,7.882908966064453,5.27322915649414
5882744698952,8.404860778,1,-4.243722442626953,8.224082702636718,5.448005877685547
5882754698483,8.414860309,1,-3.756502404785156,8.0828248046875,5.0014872680664055
5882764699212,8.424861038,1,-3.778050219726562,7.271190441894531,4.039018200683594
5882774698743,8.434860569,1,-3.7421371948242186,6.665457421875,3.0789433349609374
5882784698118,8.444859944,1,-3.736151690673828,5.953182427978516,2.598905902099609
5882794698743,8.454860569,1,-3.4428619873046875,5.931634613037109,2.958036151123047
5882804699525,8.464861351,1,-3.2405519470214843,6.369773516845703,3.3016040893554686
5882814698118,8.474859944,1,-3.2249896362304686,6.3901242309570305,3.1304186706542967
5882824699004,8.48486083,1,-3.436876483154297,6.263231542968749,2.4911668273925778
5882834698170,8.494859996,1,-3.430890979003906,6.123170745849609,1.8722656982421875
5882844698587,8.504860413,1,-3.2812533752441406,5.949591125488281,1.3359645263671873
5882854698066,8.514859892,1,-2.70065947265625,6.302735870361328,1.2713210815429687
5882864697598,8.524859424,1,-2.1966800231933594,6.610390783691406,1.265335577392578
5882874698587,8.534860413,1,-2.366668341064453,6.983886242675781,1.1001356628417969
5882884698587,8.544860413,1,-2.7653029174804686,7.248445526123047,0.7589619262695312
5882894698118,8.554859944,1,-2.701856573486328,7.617152581787109,0.6871358764648438
5882904698483,8.564860309,1,-2.5055320373535155,7.905653881835937,0.8571241943359375
5882914699108,8.574860934,1,-2.365471240234375,8.03134946899414,0.97683427734375
5882924699264,8.58486109,1,-2.4779987182617185,7.690175732421874,1.1671733093261718
5882934698327,8.594860153,1,-2.7629087158203123,7.137115148925781,0.9038111267089843
5882944698743,8.604860569,1,-2.493561029052734,6.848613848876953,0.9265560424804687
5882954699316,8.614861142,1,-2.1871032165527344,6.380547424316406,1.0690110412597655
5882964696504,8.62485833,1,-1.8997990173339843,5.505466717529297,0.9864110839843749
5882974698535,8.634860361,1,-0.93852705078125,5.336675500488281,0.9133879333496093
5882984698483,8.644860309,1,-1.687912170410156,4.896142395019531,1.6352397338867186
5882994698795,8.654860621,1,-3.4356793823242184,4.971559747314453,2.2098481323242187
5883004698327,8.664860153,1,-4.163516687011718,5.932831713867187,3.766079211425781
5883014717597,8.674879423,1,-4.42448466796875,6.849810949707031,5.503072515869141
5883024700097,8.684861923,1,-5.549759448242187,7.41244833984375,6.1459156616210935
5883034698483,8.694860309,1,-7.153874560546875,7.4962453979492185,6.4643444824218745
5883044698327,8.704860153,1,-7.882908966064453,7.940369805908203,6.979097839355468
5883054697702,8.714859528,1,-7.951143713378905,8.495824591064453,7.411251239013671
5883064699681,8.724861507,1,-8.036137872314452,9.048885174560546,8.220491400146484
5883074698900,8.734860726,1,-7.875726361083984,9.349357482910156,8.842983831787109
5883084698275,8.744860101,1,-7.668627917480468,9.578003741455078,9.159018450927734
5883094698691,8.754860517,1,-7.171831072998047,9.133879333496093,9.329006768798827
5883104698639,8.764860465,1,-7.630320690917968,8.152256652832031,8.483853582763672
5883114698170,8.774859996,1,-7.900865478515625,6.93959351196289,7.193378887939453
5883124698952,8.784860778,1,-7.311891870117187,6.1267620483398435,6.445190869140625
5883134698743,8.794860569,1,-6.5589154479980465,5.949591125488281,5.718550665283203
5883144698275,8.804860101,1,-5.586869573974609,6.07768091430664,4.825513446044922
5883154698639,8.814860465,1,-5.0769046203613275,6.323086584472656,4.067748620605468
5883164697858,8.824859684,1,-5.070919116210937,6.731297967529296,3.611653204345703
5883174697702,8.834859528,1,-4.806359832763672,7.232883215332031,3.246537451171875
5883184697754,8.84485958,1,-4.843469958496094,7.332242584228515,3.0131027893066404
5883194698275,8.854860101,1,-4.829104748535156,7.315483172607421,2.6240450195312497
5883204697910,8.864859736,1,-3.967192150878906,7.6087728759765625,2.6946739685058594
5883214696972,8.874858798,1,-3.754108203125,7.593210565185546,2.7281927917480466
5883224699160,8.884860986,1,-3.2166099304199216,7.297526660156249,2.5378537597656248
5883234698066,8.894859892,1,-3.353079425048828,6.72890376586914,2.133233679199219
5883244699316,8.904861142,1,-3.622427111816406,6.417657550048828,1.887828009033203
5883254697702,8.914859528,1,-3.621230010986328,6.349422802734375,1.7190367919921874
5883264698014,8.92485984,1,-3.257311358642578,6.159083770751953,1.6735469604492186
5883274697649,8.934859475,1,-2.299630694580078,6.414066247558593,2.01112939453125
5883284699108,8.944860934,1,-2.127248175048828,6.5972226745605465,2.0937293518066404
5883294697806,8.954859632,1,-2.3020248962402343,6.479906793212891,1.7405846069335937
5883304698379,8.964860205,1,-2.424129180908203,6.499060406494141,1.6328455322265625
5883314698691,8.974860517,1,-1.935712042236328,6.756437084960937,2.0661960327148434
5883324699733,8.984861559,1,-1.6328455322265625,6.7839704040527335,2.0254946044921875
5883334698170,8.994859996,1,-1.7896657409667969,6.387730029296875,1.7741034301757812
5883344698952,9.004860778,1,-1.8375497741699218,5.9783215454101555,1.5322890624999999
5883354698847,9.014860673,1,-2.3642741394042965,5.363011718749999,1.2820949890136717
5883364698274,9.0248601,1,-2.50912333984375,5.3378726013183595,1.189918225097656
5883374698639,9.034860465,1,-2.6659435485839844,5.570110162353515,1.2246341491699217
5883384709681,9.044871507,1,-3.171120098876953,5.922057806396484,1.6843208679199217
5883394700722,9.054862548,1,-3.9181110168457027,6.167463476562499,2.517503045654297
5883404698066,9.064859892,1,-4.674678741455078,6.593631372070312,3.6056677001953124
5883414697597,9.074859423,1,-5.109226342773437,7.353790399169921,4.7752352111816405
5883424698327,9.084860153,1,-5.743689782714843,7.805097412109374,5.744886883544922
5883434698899,9.094860725,1,-6.6702458251953125,8.03853207397461,6.600813977050781
5883444698431,9.104860257,1,-7.061697796630859,9.050082275390624,6.8031240173339835
5883454693379,9.114855205,1,-7.36097300415039,8.615534674072265,7.688978631591796
5883464700826,9.124862652,1,-7.857769848632812,8.43357534790039,7.838616235351562
5883474698847,9.134860673,1,-8.160636358642577,8.367734802246094,7.728482958984374
5883484698379,9.144860205,1,-6.833051538085937,8.380902911376953,8.49821879272461
5883494698795,9.154860621,1,-5.663484027099609,7.977479931640625,8.568847741699217
5883504697545,9.164859371,1,-5.844246252441406,7.296329559326171,7.60398447265625
5883514698326,9.174860152,1,-5.945999822998046,6.215347509765625,6.5768719604492185
5883524699681,9.184861507,1,-5.310339282226562,6.110002636718749,5.883750579833984
5883534698587,9.194860413,1,-4.519055633544921,5.674257934570313,5.491101507568359
5883544697910,9.204859736,1,-3.930082025146484,5.40730444946289,4.583699078369141
5883554697910,9.214859736,1,-4.322731097412109,4.8506525634765625,3.3291374084472656
5883564698951,9.224860777,1,-4.211400720214844,4.927267016601562,2.2972364929199216
5883574697858,9.234859684,1,-3.7481226989746093,5.336675500488281,1.7405846069335937
5883584698795,9.244860621,1,-3.258508459472656,5.649118817138672,1.4939818359375
5883594696608,9.254858434,1,-3.345896820068359,6.072892510986327,1.0654197387695312
5883604698274,9.2648601,1,-3.3638533325195312,6.368576416015625,1.054645831298828
5883614697389,9.274859215,1,-2.7856536315917966,7.066486199951171,1.675941162109375
5883624735514,9.28489734,1,-3.066972326660156,7.357381701660156,1.5777788940429687
5883634698587,9.294860413,1,-3.825934252929687,7.278373046874999,1.456871710205078
5883644698170,9.304859996,1,-3.8762124877929685,7.78235249633789,1.600523809814453
5883654698118,9.314859944,1,-3.5960908935546874,8.060079888916015,2.2110452331542967
5883664698379,9.324860205,1,-3.582922784423828,8.042123376464843,2.6228479187011717
5883674698170,9.334859996,1,-4.18147319946289,7.554903338623046,2.7198130859375
5883684697962,9.344859788,1,-4.472368701171875,7.133523846435547,2.9664158569335934
5883694698014,9.35485984,1,-3.910928411865234,7.133523846435547,3.6379894226074216
5883704690774,9.3648526,1,-5.12000025024414,6.241683728027343,3.393780853271484
5883714699368,9.374861194,1,-5.13915386352539,5.9783215454101555,4.161122485351562
5883724737285,9.384899111,1,-4.777629412841796,6.325480786132812,4.594472985839843
5883734698587,9.394860413,1,-4.617217901611328,6.5397618347167965,5.117606048583984
5883744697181,9.404859007,1,-4.9823336547851556,6.692990740966796,5.303156677246093
5883754698899,9.414860725,1,-5.531802935791015,6.78636460571289,5.515043524169921
5883764697493,9.424859319,1,-5.864596966552734,6.980294940185546,5.6024318847656245
5883774698274,9.4348601,1,-5.730521673583984,7.216123803710937,5.955576629638672
5883784697858,9.444859684,1,-5.730521673583984,7.387309222412109,6.027402679443359
5883794698326,9.454860152,1,-5.967547637939453,7.295132458496093,5.987898352050781
5883804697962,9.464859788,1,-5.589263775634765,7.371746911621093,6.021417175292968
5883814698483,9.474860309,1,-4.951209033203125,7.202955694580078,5.895721588134765
5883824698326,9.484860152,1,-4.649539624023437,6.672640026855468,5.173869787597656
5883834699681,9.494861507,1,-4.548983154296875,6.653486413574218,4.182670300292968
5883844698899,9.504860725,1,-4.541800549316406,6.137535955810547,3.718195178222656
5883854698691,9.514860517,1,-4.030638494873046,6.118382342529297,3.4859576171874997
5883864698222,9.524860048,1,-3.784035723876953,5.999869360351562,3.1794998046874996
5883874697493,9.534859319,1,-3.9839515624999997,6.069301208496094,2.77727392578125
5883884698639,9.544860465,1,-3.8474820678710935,6.3709706176757805,2.8048072448730466
5883894698326,9.554860152,1,-3.6284126159667967,6.526593725585937,2.6958710693359373
5883904698222,9.564860048,1,-4.050989208984375,6.642712506103515,2.768894219970703
5883914698535,9.574860361,1,-4.357447021484375,6.949170318603516,2.729389892578125
5883924698847,9.584860673,1,-4.964377142333984,6.927622503662109,2.890998504638672
5883934699524,9.59486135,1,-5.299565374755859,7.602787371826172,3.2501287536621093
5883944699420,9.604861246,1,-5.511452221679687,8.078036401367187,3.5146880371093747
5883954695201,9.614857027,1,-5.422866760253906,8.40843623046875,3.915716815185547
5883964697337,9.624859163,1,-5.343858105468749,8.596381060791016,4.150348577880859
5883974701660,9.634863486,1,-5.849034655761718,8.396465222167969,4.10485874633789
5883984698691,9.644860517,1,-5.383362432861328,7.8362220336914055,4.019864587402344
5883994698222,9.654860048,1,-5.030217687988281,7.518990313720702,3.7409400939941406
5884004698066,9.664859892,1,-4.863820672607422,6.925228302001953,3.3291374084472656
5884014730097,9.674891923,1,-4.817133740234374,6.488286499023437,3.2537200561523436
5884024698899,9.684860725,1,-4.691438153076172,6.649895111083984,3.305195391845703
5884034702285,9.694864111,1,-4.762067102050781,6.959944226074218,3.5793314819335937
5884044700566,9.704862392,1,-4.841075756835937,7.45075556640625,4.076128326416016
5884054699472,9.714861298,1,-5.166687182617188,7.740453967285156,4.301183282470703
5884064698222,9.724860048,1,-4.99909306640625,7.934384301757812,4.599261389160156
5884074698326,9.734860152,1,-4.520252734375,7.967903124999999,4.637568615722656
5884084699837,9.744861663,1,-3.8391023620605464,7.583633758544922,4.308365887451171
5884094698430,9.754860256,1,-3.1687258972167966,7.085639813232421,3.842693664550781
5884104698535,9.764860361,1,-2.422932080078125,6.579266162109374,3.564966271972656
5884114698951,9.774860777,1,-1.7561469177246092,5.989095452880859,3.2920272827148436
5884124698795,9.784860621,1,-1.5957354064941405,5.448005877685547,3.1555577880859373
5884134698274,9.7948601,1,-1.6807295654296874,5.122394451904297,3.3016040893554686
5884144699316,9.804861142,1,-1.4987702392578124,5.12000025024414,4.167107989501953
5884154699003,9.814860829,1,-1.465251416015625,5.600037683105469,5.0014872680664055
5884164699785,9.824861611,1,-1.4927847351074217,6.229712719726562,6.035782385253906
5884174699212,9.834861038,1,-1.8770541015625,6.619967590332031,6.681019732666015
5884184698899,9.844860725,1,-1.4233528869628906,6.6702458251953125,7.229291912841797
5884194698691,9.854860517,1,-1.5382745666503905,6.005854864501953,7.3478048950195305
5884204697910,9.864859736,1,-2.231395947265625,5.233724829101562,6.593631372070312
5884214700462,9.874862288,1,-3.1735143005371094,4.855440966796874,6.234501123046875
5884224698326,9.884860152,1,-3.1088708557128903,4.951209033203125,6.277596752929687
5884234699472,9.894861298,1,-3.5817256835937497,5.528211633300781,6.507440112304687
5884244699837,9.904861663,1,-4.533420843505859,5.814318731689453,5.585672473144531
5884254699264,9.91486109,1,-4.752490295410156,6.342240197753906,4.8123453369140625
5884264698014,9.92485984,1,-4.879382983398437,6.810306622314453,4.128800762939453
5884274698118,9.934859944,1,-5.1152118469238275,7.333439685058593,3.412934466552734
5884284698691,9.944860517,1,-4.995501763916016,7.700949639892578,2.463633508300781
5884294698639,9.954860465,1,-4.398148449707031,7.4699091796875,2.051830822753906
5884304697701,9.964859527,1,-4.716577270507813,8.003816149902343,1.7693150268554687
5884314699212,9.974861038,1,-4.787206219482422,8.627505682373046,1.6065093139648436
5884324698430,9.984860256,1,-5.0182466796875,8.747215765380858,1.6795324645996093
5884334717649,9.994879475,1,-5.099649536132812,9.127893829345702,1.3204022155761719
5884344698534,10.00486036,1,-4.882974285888672,9.482235675048827,1.618480322265625
5884354709680,10.014871506,1,-4.6459483215332025,9.580397943115234,1.6711527587890624
5884364701034,10.02486286,1,-4.586093280029297,9.537302313232422,1.6891092712402342
5884374699628,10.034861454,1,-4.317942694091797,9.509768994140625,1.9943699829101562
5884384698847,10.044860673,1,-3.797203833007812,9.36013139038086,2.6707319519042967
5884394698482,10.054860308,1,-3.447650390625,8.859743243408202,3.4823663146972654
5884404698482,10.064860308,1,-3.1543606872558594,8.010998754882811,3.8893805969238278
5884414699316,10.074861142,1,-2.8526912780761715,7.216123803710937,4.226963031005859
5884424702076,10.084863902,1,-2.1320365783691404,6.519411120605469,4.771643908691406
5884434750253,10.094912079,1,-1.6555904479980468,5.945999822998046,5.444414575195312
5884444690357,10.104852183,1,-1.3192051147460937,5.436034869384765,5.890933184814453
5884454698951,10.114860777,1,-1.6364368347167968,4.98592495727539,6.330269189453125
5884464700514,10.12486234,1,-1.964442462158203,4.7381250854492185,6.653486413574218
5884474698118,10.134859944,1,-1.5658078857421873,4.740519287109374,7.48906279296875
5884484698274,10.1448601,1,-1.2820949890136717,4.7752352111816405,7.8338278320312495
5884494698066,10.154859892,1,-1.7693150268554687,4.520252734375,7.923610394287109
5884504698639,10.164860465,1,-2.389413256835937,4.741716387939453,7.846995941162109
5884514698899,10.174860725,1,-2.261323468017578,5.374982727050781,8.208520391845703
5884524699212,10.184861038,1,-2.427720483398437,6.0321910827636716,8.303091357421874
5884534718482,10.194880308,1,-3.306392492675781,6.214150408935547,7.7979148071289055
5884544699055,10.204860881,1,-4.102464544677734,6.274005450439453,6.998251452636718
5884554699055,10.214860881,1,-4.610035296630859,6.415263348388671,6.0896519226074215
5884564699576,10.224861402,1,-5.236119030761718,6.363788012695312,4.894945294189453
5884574698847,10.234860673,1,-5.766434698486328,6.295553265380859,3.24294614868164
5884584697441,10.244859267,1,-6.376956121826171,6.285976458740234,2.042254016113281
5884594699159,10.254860985,1,-6.296750366210937,6.988674645996094,1.0031704956054688
5884604697597,10.264859423,1,-5.919663604736328,7.358578802490234,0.7302315063476562
5884614698743,10.274860569,1,-5.768828900146484,8.262389929199218,0.3327940307617187
5884624698534,10.28486036,1,-6.167463476562499,8.86094034423828,-0.025139117431640625
5884634698378,10.294860204,1,-6.5409589355468745,9.247603912353515,-0.3555389465332031
5884644699576,10.304861402,1,-6.4284314575195305,9.759963067626952,-0.08140285644531249
5884654698586,10.314860412,1,-6.17344898071289,10.10712230834961,-0.07781155395507812
5884664698118,10.324859944,1,-5.700594152832031,10.371681591796875,-0.2454056701660156
5884674699420,10.334861246,1,-5.216965417480468,10.727220538330078,0.12808978881835936
5884684698586,10.344860412,1,-4.502296221923828,10.800243688964843,0.6596025573730468
5884694698951,10.354860777,1,-3.9911341674804683,10.692504614257812,1.1528080993652343
5884704699993,10.364861819,1,-3.622427111816406,9.846154327392577,1.465251416015625
5884714698951,10.374860777,1,-3.1364041748046874,9.0021982421875,1.9656395629882812
5884724699680,10.384861506,1,-2.2445640563964844,8.188169677734374,2.817975354003906
5884734695409,10.394857235,1,-1.5837643981933593,7.339425189208984,3.758896606445312
5884744701034,10.40486286,1,-1.2832920898437499,6.511031414794921,4.656722229003906
5884754699680,10.414861506,1,-1.180341418457031,5.7329158752441405,5.588066674804687
5884764693013,10.424854839,1,-1.2976572998046874,5.124788653564453,6.658274816894531
5884774699368,10.434861194,1,-1.782483135986328,4.556165759277343,7.597998968505859
5884784699368,10.444861194,1,-1.744175909423828,4.174290594482422,8.71489404296875
5884794699316,10.454861142,1,-2.1835119140624997,4.062960217285156,9.513360296630859
5884804699316,10.464861142,1,-3.1591490905761717,3.6272155151367187,9.801861596679688
5884814698013,10.474859839,1,-3.1962592163085937,4.001908074951172,9.445125549316407
5884824698586,10.484860412,1,-3.8367081604003905,3.958812445068359,9.17458076171875
5884834698951,10.494860777,1,-4.6064439941406246,4.246116644287109,8.532934716796875
5884844698743,10.504860569,1,-4.7189714721679685,4.882974285888672,7.691372833251953
5884854698899,10.514860725,1,-5.288791467285156,5.414487054443359,6.233304022216797
5884864697961,10.524859787,1,-6.26921704711914,5.846640454101562,4.472368701171875
5884874698534,10.53486036,1,-6.79953271484375,6.696582043457031,3.0645781249999997
5884884698378,10.544860204,1,-6.8593877563476555,7.91642778930664,2.033874310302734
5884894694368,10.554856194,1,-6.332663391113281,8.94473740234375,1.419761584472656
5884904699368,10.564861194,1,-6.118382342529297,10.140641131591796,0.9373299499511718
5884914698691,10.574860517,1,-6.0525417968749995,10.467449658203124,0.6512228515624999
5884924698274,10.5848601,1,-5.1128176452636716,11.04564935913086,0.7493851196289062
5884934697753,10.594859579,1,-4.636371514892578,11.247959399414063,0.5734112976074218
5884944694368,10.604856194,1,-4.593275885009765,10.953472595214842,0.12449848632812499
5884954699784,10.61486161,1,-4.351461517333984,10.437522137451172,-0.03950432739257812
5884964697388,10.624859214,1,-3.1471780822753903,10.062829577636718,0.5386953735351562
5884974699003,10.634860829,1,-3.0825346374511717,9.044096771240234,0.8020575561523438
5884984698899,10.644860725,1,-3.1639374938964844,8.09479581298828,1.1552023010253905
5884994697493,10.654859319,1,-3.0514100158691404,7.285555651855469,1.8339584716796873
5885004698586,10.664860412,1,-2.6994623718261717,6.768408093261718,2.9508535461425778
5885014698586,10.674860412,1,-2.528276953125,6.214150408935547,3.9731776550292968
5885024698482,10.684860308,1,-2.521094348144531,5.681440539550781,4.774038110351563
5885034697388,10.694859214,1,-2.7174188842773437,5.135562561035156,5.506663818359375
5885044716763,10.704878589,1,-2.893392706298828,4.984727856445312,6.081272216796875
5885054698743,10.714860569,1,-3.0334535034179684,4.838681555175781,6.499060406494141
5885064697388,10.724859214,1,-3.3195606018066406,4.98592495727539,6.775590698242187
5885074698795,10.734860621,1,-3.5805285827636717,5.261258148193359,6.792350109863281
5885084698170,10.744859996,1,-3.6667198425292966,5.711368060302734,6.6343328002929685
5885094698274,10.7548601,1,-3.7385458923339843,6.36498511352539,6.495469104003906
5885104698118,10.764859944,1,-3.708618371582031,7.0844427124023435,6.309918475341797
5885114697649,10.774859475,1,-3.6571430358886716,7.594407666015624,5.876567974853515
5885124697805,10.784859631,1,-3.8235400512695312,7.939172705078125,5.279214660644531
5885134698274,10.7948601,1,-3.737348791503906,8.16542476196289,4.57771357421875
5885144738482,10.804900308,1,-3.630806817626953,8.195352282714843,4.1563340820312495
5885154698951,10.814860777,1,-3.4261025756835934,8.067262493896484,3.785232824707031
5885164698482,10.824860308,1,-3.113659259033203,7.769184387207031,3.603273498535156
5885174697909,10.834859735,1,-2.938882537841797,7.60398447265625,3.2836475769042965
5885184699368,10.844861194,1,-2.7461493041992187,7.271190441894531,3.153163586425781
5885194693326,10.854855152,1,-2.3618799377441406,6.883329772949218,3.2154128295898436
5885204699784,10.86486161,1,-2.6659435485839844,6.624755993652343,3.2357635437011716
5885214698795,10.874860621,1,-2.8371289672851563,6.402095239257812,3.2632968627929686
5885224698117,10.884859943,1,-2.858676782226562,6.442796667480469,3.782838623046875
5885234697857,10.894859683,1,-3.2704794677734372,6.327874987792969,4.021061688232422
5885244693430,10.904855256,1,-4.115632653808594,6.210559106445312,3.9659950500488277
5885254700513,10.914862339,1,-4.4376527770996095,6.5385647338867185,4.152742779541016
5885264698274,10.9248601,1,-4.6459483215332025,6.858190655517578,4.247313745117188
5885274698951,10.934860777,1,-5.033808990478516,7.184999182128906,3.921702319335937
5885284698951,10.944860777,1,-5.224148022460938,7.5465236328125,3.5781343811035153
5885294697857,10.954859683,1,-5.240907434082031,7.95473501586914,3.2405519470214843
5885304698430,10.964860256,1,-5.203797308349609,8.256404425048828,3.0621839233398433
5885314698795,10.974860621,1,-5.730521673583984,8.475473876953124,2.89219560546875
5885324698742,10.984860568,1,-5.689820245361328,8.664615808105468,2.7365724975585937
5885334698638,10.994860464,1,-5.652710119628906,8.858546142578124,2.602497204589844
5885344698378,11.004860204,1,-5.2433016357421875,8.989030133056641,2.6467899353027344
5885354700461,11.014862287,1,-4.863820672607422,8.932766394042968,2.480392919921875
5885364698586,11.024860412,1,-4.14316597290039,8.536526019287109,2.3415292236328122
5885374698326,11.034860152,1,-3.8283284545898435,8.343792785644531,2.3726538452148436
5885384725513,11.044887339,1,-3.5901053894042967,7.8912886718749995,2.560598675537109
5885394707545,11.054869371,1,-3.1639374938964844,7.639897497558593,3.0921114440917967
5885404699680,11.064861506,1,-2.849099975585937,7.352593298339843,3.6667198425292966
5885414698534,11.07486036,1,-2.6850971618652344,7.09282241821289,4.115632653808594
5885424698534,11.08486036,1,-2.7234043884277344,6.697779144287109,4.50109912109375
5885434698013,11.094859839,1,-2.473210314941406,6.497863305664062,5.2073886108398435
5885444696242,11.104858068,1,-2.2541408630371094,6.347028601074219,5.754463690185546
5885454701086,11.114862912,1,-2.195482922363281,6.0908490234374995,6.1447185607910155
5885464701138,11.124862964,1,-2.384624853515625,5.747281085205078,6.360196710205078
5885474698742,11.134860568,1,-2.608482708740234,5.57370146484375,6.685808135986328
5885484699836,11.144861662,1,-2.760514514160156,5.440823272705078,6.782773303222656
5885494697284,11.15485911,1,-3.027467999267578,5.36899722290039,6.617573388671874
5885504695305,11.164857131,1,-3.488351818847656,5.413289953613281,6.289567761230469
5885514698847,11.174860673,1,-3.7205893798828122,5.7329158752441405,5.702988354492187
5885524699992,11.184861818,1,-4.056974713134766,6.0884548217773435,5.1882349975585935
5885534698690,11.194860516,1,-4.272452862548828,6.695384942626953,4.483142608642578
5885544699836,11.204861662,1,-4.405331054687499,7.24605132446289,3.877409588623047
5885554715878,11.214877704,1,-4.581304876708984,7.6997525390625,3.1842882080078123
5885564699576,11.224861402,1,-4.480748406982421,8.183381274414062,2.6575638427734374
5885574698326,11.234860152,1,-4.465186096191406,8.571241943359375,2.3056161987304686
5885584699315,11.244861141,1,-4.387374542236328,8.780734588623046,1.9117700256347656
5885594698222,11.254860048,1,-4.203021014404297,8.845378033447265,1.6735469604492186
5885604699315,11.264861141,1,-4.036623999023437,8.698134631347656,1.5586252807617187
5885614698847,11.274860673,1,-3.77326181640625,8.560468035888672,1.5634136840820312
5885624698690,11.284860516,1,-3.575740179443359,8.218097198486328,1.5741875915527344
5885634698534,11.29486036,1,-3.447650390625,7.789535101318359,1.7645266235351562
5885644697961,11.304859787,1,-3.2453403503417966,7.371746911621093,1.9991583862304687
5885654698794,11.31486062,1,-3.1759085021972653,7.123947039794921,2.4756045166015626
5885664700721,11.324862547,1,-3.1352070739746094,6.8569935546875,2.8407202697753906
5885674699419,11.334861245,1,-3.6559459350585937,6.549338641357421,3.114856359863281
5885684699367,11.344861193,1,-3.758896606445312,6.967126831054687,3.9264907226562498
5885694698013,11.354859839,1,-3.7696705139160156,7.315483172607421,4.6351744140625
5885704700617,11.364862443,1,-4.074931225585937,7.570465649414062,5.141548065185547
5885714698951,11.374860777,1,-4.556165759277343,7.644685900878906,5.382165332031249
5885724699992,11.384861818,1,-4.771643908691406,7.824251025390624,5.682637640380859
5885734697544,11.39485937,1,-4.734533782958984,8.015787158203125,5.926846209716796
5885744699888,11.404861714,1,-4.592078784179687,8.10197841796875,6.004657763671875
5885754698482,11.414860308,1,-4.4568063903808595,8.139088543701172,6.072892510986327
5885764700461,11.424862287,1,-4.2892122741699215,7.926004595947266,5.864596966552734
5885774699003,11.434860829,1,-4.0222587890625,7.922413293457031,5.343858105468749
5885784699107,11.444860933,1,-4.12401235961914,7.36097300415039,4.967968444824218
5885794698169,11.454859995,1,-4.339490509033203,7.123947039794921,4.192247106933594
5885804699524,11.46486135,1,-3.815160345458984,7.170633972167968,3.9911341674804683
5885814699315,11.474861141,1,-3.4727895080566404,7.252036828613281,3.88818349609375
5885824699159,11.484860985,1,-3.622427111816406,7.114370233154297,3.403357659912109
5885834698742,11.494860568,1,-3.679887951660156,6.938396411132812,2.952050646972656
5885844699315,11.504861141,1,-3.4668040039062498,7.01620796508789,2.673126153564453
5885854698378,11.514860204,1,-3.2561142578125,6.941987713623046,2.385821954345703
5885864700201,11.524862027,1,-3.2980127868652342,6.775590698242187,2.002749688720703
5885874699107,11.534860933,1,-3.366247534179687,6.691793640136718,1.6400281372070311
5885884698326,11.544860152,1,-3.219004132080078,6.672640026855468,1.5741875915527344
5885894699680,11.554861506,1,-2.786850732421875,6.782773303222656,1.495178936767578
5885904698378,11.564860204,1,-2.5534160705566404,6.74805737915039,1.3263877197265623
5885914699523,11.574861349,1,-2.589329095458984,6.779182000732422,1.1563994018554686
5885924698638,11.584860464,1,-2.6096798095703124,6.873752966308594,1.1755530151367186
5885934699628,11.594861454,1,-2.6874913635253903,6.937199310302734,1.2569558715820313
5885944698326,11.604860152,1,-3.0693665283203124,7.023390570068359,1.3575123413085937
5885954698742,11.614860568,1,-3.469198205566406,7.287949853515625,1.8614917907714843
5885964699784,11.62486161,1,-3.592499591064453,7.486668591308593,2.2397756530761717
5885974699471,11.634861297,1,-3.8582559753417964,7.674613421630859,2.4947581298828125
5885984697753,11.644859579,1,-4.04739790649414,7.8733321594238275,2.941276739501953
5885994699628,11.654861454,1,-4.001908074951172,8.106766821289062,3.4739866088867184
5886004698951,11.664860777,1,-3.949235638427734,8.0828248046875,3.9240965209960934
5886014695982,11.674857808,1,-4.254496350097656,7.982268334960937,4.207809417724609
5886024695878,11.684857704,1,-4.453215087890625,7.802703210449218,4.531026641845703
5886034699992,11.694861818,1,-4.650736724853515,7.794323504638672,4.7943888244628905
5886044699315,11.704861141,1,-4.717774371337891,7.945158209228516,5.204994409179688
5886054698638,11.714860464,1,-4.727351177978515,8.129511737060547,5.536591339111328
5886064699680,11.724861506,1,-4.918887310791015,8.368931903076172,5.9400143188476555
5886074698898,11.734860724,1,-5.372588525390625,8.465897070312499,6.175843182373047
5886084699055,11.744860881,1,-5.1882349975585935,8.704120135498046,6.442796667480469
5886094698586,11.754860412,1,-4.827907647705078,8.662221606445312,6.640318304443359
5886104698794,11.76486062,1,-4.803965631103515,8.412027532958984,6.581660363769531
5886114699107,11.774860933,1,-4.529829541015625,7.767987286376953,6.075286712646484
5886124698430,11.784860256,1,-4.088099334716796,7.16943687133789,5.479130499267578
5886134698065,11.794859891,1,-3.853467572021484,6.469132885742187,4.5585599609375
5886144698482,11.804860308,1,-3.756502404785156,5.9771244445800775,3.6679169433593746
5886154697961,11.814859787,1,-3.614047406005859,5.768828900146484,3.0609868225097654
5886164716711,11.824878537,1,-3.323151904296875,5.893327386474609,2.7042507751464844
5886174700148,11.834861974,1,-3.0047230834960934,6.147112762451171,2.3822306518554686
5886184695565,11.844857391,1,-3.056198419189453,6.426037255859375,1.9608511596679685
5886194701242,11.854863068,1,-3.342305517578125,6.835445739746094,1.6651672546386718
5886204699159,11.864860985,1,-3.6379894226074216,7.523778717041015,1.5562310791015623
5886214699263,11.874861089,1,-3.833116857910156,8.371326104736328,1.946485949707031
5886224698794,11.88486062,1,-3.6547488342285153,9.058461981201171,2.2685060729980466
5886234697961,11.894859787,1,-3.6571430358886716,9.386467608642578,2.511517541503906
5886244698846,11.904860672,1,-3.6535517333984373,9.19971987915039,2.492363928222656
5886254698742,11.914860568,1,-3.575740179443359,8.637082489013672,2.579752288818359
5886264742075,11.924903901,1,-3.068169427490234,7.884106066894531,2.7329811950683593
5886274697388,11.934859214,1,-2.7150246826171873,7.001842755126953,2.779668127441406
5886284699680,11.944861506,1,-2.560598675537109,5.94360562133789,2.6132711120605467
5886294698690,11.954860516,1,-2.3427263244628906,5.026626385498046,2.3822306518554686
5886304699211,11.964861037,1,-2.1631611999511717,4.477157104492187,2.3367408203125
5886314698325,11.974860151,1,-2.142810485839844,4.259284753417968,2.2936451904296873
5886324698325,11.984860151,1,-2.5163059448242184,4.61602080078125,2.2074539306640624
5886334708846,11.994870672,1,-2.9472622436523435,5.3007624755859375,2.481590020751953
5886344700044,12.00486187,1,-3.6739024475097652,6.174646081542968,2.8227637573242186
5886354751763,12.014913589,1,-4.297591979980469,7.4232222473144525,3.2525229553222657
5886364722752,12.024884578,1,-4.161122485351562,8.700528833007812,3.737348791503906
5886374697492,12.034859318,1,-4.517858532714843,9.661800799560547,4.259284753417968
5886384694680,12.044856506,1,-5.10084663696289,9.961076007080077,4.283226770019531
5886394696607,12.054858433,1,-5.737704278564453,10.046070166015625,4.291606475830078
5886404699940,12.064861766,1,-5.734112976074218,10.204087475585936,4.519055633544921
5886414699315,12.074861141,1,-5.518634826660156,10.29865844116211,5.155913275146484
5886424698117,12.084859943,1,-5.515043524169921,9.775525378417969,5.637147808837891
5886434718742,12.094880568,1,-5.511452221679687,9.318232861328125,5.475539196777343
5886444696555,12.104858381,1,-5.38815083618164,8.500612994384765,5.456385583496093
5886454700200,12.114862026,1,-5.040991595458984,7.8350249328613275,5.668272430419922
5886464699680,12.124861506,1,-4.6639048339843745,7.350199096679687,5.876567974853515
5886474700669,12.134862495,1,-4.1754876953124995,6.913257293701172,5.787982513427734
5886484699002,12.144860828,1,-3.9312791259765625,6.505045910644531,5.585672473144531
5886494694992,12.154856818,1,-3.6176387084960937,6.366182214355469,5.142745166015625
5886504700044,12.16486187,1,-3.343502618408203,6.499060406494141,4.735730883789063
5886514698690,12.174860516,1,-2.9652187561035155,6.5589154479980465,4.3634325256347655
5886524694784,12.18485661,1,-3.0909143432617188,6.666654522705078,3.763685009765625
5886534699263,12.194861089,1,-3.2597055603027343,6.742071875,3.095702746582031
5886544699054,12.20486088,1,-3.287238879394531,7.025784771728516,2.7712884216308593
5886554698794,12.21486062,1,-3.171120098876953,7.271190441894531,2.6587609436035153
5886564698742,12.224860568,1,-3.0334535034179684,7.302315063476562,2.488772625732422
5886574700877,12.234862703,1,-2.977189764404297,7.11197603149414,2.2493524597167966
5886584698586,12.244860412,1,-2.9664158569335934,6.773196496582031,2.0266917053222655
5886594699002,12.254860828,1,-2.902969512939453,6.481103894042969,1.9393033447265624
5886604698794,12.26486062,1,-2.683900061035156,6.436811163330078,2.0302830078125
5886614698794,12.27486062,1,-2.5905261962890624,6.271611248779297,1.946485949707031
5886624698690,12.284860516,1,-2.6036943054199218,6.040570788574218,1.8411410766601561
5886634698429,12.294860255,1,-2.817975354003906,6.003460662841796,1.6136919189453125
5886644698169,12.304859995,1,-2.990357873535156,6.072892510986327,1.4915876342773438
5886654698221,12.314860047,1,-3.0226795959472654,6.278793853759765,1.5298948608398437
5886664698013,12.324859839,1,-2.8012159423828122,6.76122548828125,1.5370774658203123
5886674699888,12.334861714,1,-3.373430139160156,6.861781958007812,1.714248388671875
5886684698013,12.344859839,1,-3.2920272827148436,7.163451367187499,1.6555904479980468
5886694698690,12.354860516,1,-3.1974563171386716,7.767987286376953,1.9847931762695312
5886704699159,12.364860985,1,-3.555389465332031,8.103175518798828,2.376245147705078
5886714700357,12.374862183,1,-3.886986395263672,8.464699969482421,2.8119898498535156
5886724699106,12.384860932,1,-4.398148449707031,8.724470849609375,3.379415643310547
5886734699002,12.394860828,1,-4.7369279846191406,8.985438830566405,4.165910888671875
5886744698690,12.404860516,1,-5.2456958374023435,9.139864837646483,4.853046765136718
5886754698481,12.414860307,1,-5.743689782714843,9.253589416503905,5.604826086425781
5886764698950,12.424860776,1,-6.010643267822266,9.344569079589844,6.242880828857421
5886774698429,12.434860255,1,-6.0884548217773435,9.318232861328125,6.749254479980468
5886784697492,12.444859318,1,-5.892130285644531,9.063250384521483,7.168239770507812
5886794700200,12.454862026,1,-5.457582684326171,8.61792887573242,7.344213592529297
5886804698429,12.464860255,1,-4.940435125732422,7.931990100097655,7.076063006591797
5886814693898,12.474855724,1,-4.564545465087891,7.13112964477539,6.373364819335937
5886824698638,12.484860464,1,-4.301183282470703,6.611587884521484,5.412092852783203
5886834698221,12.494860047,1,-4.189852905273438,6.131550451660156,4.4005426513671875
5886844698586,12.504860412,1,-3.853467572021484,6.007051965332031,3.7337574890136715
5886854698429,12.514860255,1,-3.356670727539062,6.277596752929687,3.2728736694335936
5886864697648,12.524859474,1,-2.93050283203125,6.647500909423828,2.8730419921875
5886874698690,12.534860516,1,-3.038241906738281,6.823474731445312,2.1835119140624997
5886884698534,12.54486036,1,-3.2908301818847656,7.03536157836914,1.7034744812011717
5886894698950,12.554860776,1,-3.1507693847656246,7.428010650634765,1.4987702392578124
5886904699679,12.564861505,1,-2.9448680419921875,7.918821990966796,1.70467158203125
5886914695148,12.574856974,1,-3.038241906738281,8.13310303955078,1.811213555908203
5886924698950,12.584860776,1,-3.287238879394531,8.196549383544921,1.9393033447265624
5886934697492,12.594859318,1,-3.4153286682128905,8.225279803466796,2.347514727783203
5886944699054,12.60486088,1,-3.6008792968749996,8.177395770263672,2.8095956481933593
5886954698950,12.614860776,1,-3.7205893798828122,8.130708837890625,3.3770214416503905
5886964698273,12.624860099,1,-3.851073370361328,7.875726361083984,3.706224169921875
5886974716554,12.63487838,1,-3.782838623046875,7.6099699768066404,4.0066964782714845
5886984699211,12.644861037,1,-3.7014357666015623,7.206546997070312,4.040215301513672
5886994698221,12.654860047,1,-3.507505432128906,6.773196496582031,3.878606689453125
5887004697961,12.664859787,1,-3.384204046630859,6.436811163330078,3.537432952880859
5887014697908,12.674859734,1,-3.1783027038574216,6.136338854980468,3.208230224609375
5887024698638,12.684860464,1,-2.986766571044922,5.986701251220703,2.759317413330078
5887034698898,12.694860724,1,-3.027467999267578,6.0525417968749995,2.3355437194824216
5887044698117,12.704859943,1,-3.1280244689941403,6.265625744628906,1.964442462158203
5887054698742,12.714860568,1,-3.0933085449218747,6.611587884521484,1.830367169189453
5887064698846,12.724860672,1,-2.839523168945312,6.834248638916015,1.6555904479980468
5887074738013,12.734899839,1,-2.953247747802734,7.096413720703125,1.5921441040039062
5887084699106,12.744860932,1,-3.1292215698242187,7.4220251464843745,1.581370196533203
5887094699106,12.754860932,1,-3.1603461914062496,7.60398447265625,1.8327613708496093
5887104697544,12.76485937,1,-3.2525229553222657,7.736862664794922,2.2026655273437497
5887114697388,12.774859214,1,-3.497928625488281,7.9834654357910155,2.437297290039062
5887124698481,12.784860307,1,-3.878606689453125,8.170213165283203,2.6324247253417967
5887134698117,12.794859943,1,-4.134786267089844,8.386888415527343,3.343502618408203
5887144698273,12.804860099,1,-4.220977526855468,8.668207110595702,4.182670300292968
5887154699002,12.814860828,1,-4.496310717773437,8.89326206665039,4.977545251464844
5887164698950,12.824860776,1,-4.987122058105468,9.032125762939453,5.598840582275391
5887174698585,12.834860411,1,-5.543773944091797,9.196128576660156,6.087257720947266
5887184699783,12.844861609,1,-5.5461681457519525,9.287108239746093,6.6714429260253905
5887194697804,12.85485963,1,-5.361814617919921,9.303867651367186,7.362170104980469
5887204699002,12.864860828,1,-5.315127685546875,9.138667736816405,7.742848168945312
5887214697700,12.874859526,1,-5.183446594238281,8.481459381103516,7.517793212890624
5887224698117,12.884859943,1,-4.857835168457031,8.169016064453125,7.067683300781249
5887234699992,12.894861818,1,-4.600458489990234,7.455543969726562,6.411672045898437
5887244698481,12.904860307,1,-4.299986181640625,6.700173345947265,5.536591339111328
5887254698638,12.914860464,1,-3.881000891113281,6.266822845458984,4.675875842285156
5887264697908,12.924859734,1,-3.726574884033203,5.971138940429687,3.6092590026855467
5887274697752,12.934859578,1,-3.7014357666015623,5.700594152832031,2.6803087585449217
5887284699210,12.944861036,1,-3.400963458251953,5.908889697265625,2.048239520263672
5887294693898,12.954855724,1,-3.1304186706542967,6.479906793212891,1.5945383056640625
5887304697492,12.964859318,1,-2.7629087158203123,7.078457208251953,1.3215993164062498
5887314697544,12.97485937,1,-2.6288334228515624,7.572859851074218,1.1037269653320312
5887324698325,12.984860151,1,-2.568978381347656,7.793126403808594,0.7948749511718749
5887334698429,12.994860255,1,-2.5342624572753905,7.849390142822265,0.5746083984375
5887344699106,13.004860932,1,-2.536656658935547,7.6470801025390625,0.4477157104492187
5887354697960,13.014859786,1,-2.5570073730468748,7.352593298339843,0.36750995483398435
5887364698377,13.024860203,1,-2.579752288818359,6.904877587890625,0.373495458984375
5887374697804,13.03485963,1,-2.6946739685058594,6.555324145507812,0.5829881042480468
5887384699367,13.044861193,1,-2.6599580444335937,6.4272343566894525,0.978031378173828
5887394708481,13.054870307,1,-2.512714642333984,6.440402465820312,1.5729904907226562
5887404700044,13.06486187,1,-2.6192566162109374,6.549338641357421,2.100911956787109
5887414699679,13.074861505,1,-2.9173347229003905,6.623558892822265,2.370259643554687
5887424693429,13.084855255,1,-3.4153286682128905,6.696582043457031,2.7234043884277344
5887434698481,13.094860307,1,-3.383006945800781,6.643909606933593,3.0825346374511717
5887444697856,13.104859682,1,-3.2249896362304686,6.9539587219238275,3.373430139160156
5887454697127,13.114858953,1,-3.381809844970703,7.3094976684570305,3.5769372802734374
5887464699679,13.124861505,1,-3.8367081604003905,7.6099699768066404,3.6523546325683593
5887474699627,13.134861453,1,-4.273649963378906,8.087613208007811,3.977966058349609
5887484699315,13.144861141,1,-4.899733697509765,8.635885388183594,4.386177441406249
5887494698221,13.154860047,1,-5.334281298828125,9.126696728515624,4.988319158935546
5887504698690,13.164860516,1,-5.542576843261719,9.576806640625,5.8454433532714845
5887514697440,13.174859266,1,-5.431246466064453,10.028113653564452,6.4834980957031245
5887524698377,13.184860203,1,-5.641936212158202,9.91558617553711,6.72291826171875
5887534698325,13.194860151,1,-5.767631799316406,9.49300958251953,6.789955908203124
5887544698221,13.204860047,1,-5.667075329589843,8.986635931396483,6.884526873779296
5887554697075,13.214858901,1,-5.370194323730469,8.52934341430664,7.017405065917968
5887564699054,13.22486088,1,-4.988319158935546,7.856572747802734,6.573280657958984
5887574699783,13.234861609,1,-4.697423657226563,7.41244833984375,5.858611462402344
5887584699783,13.244861609,1,-4.237736938476562,6.99705435180664,5.212177014160156
5887594698169,13.254859995,1,-3.9169139160156248,6.688202337646484,4.496310717773437
5887604697544,13.26485937,1,-3.6427778259277344,6.452373474121093,3.69664736328125
5887614698325,13.274860151,1,-3.4452561889648434,6.369773516845703,3.028665100097656
5887624698429,13.284860255,1,-3.0729578308105467,6.642712506103515,2.6994623718261717
5887634698429,13.294860255,1,-2.7904420349121093,6.884526873779296,2.290053887939453
5887644698429,13.304860255,1,-2.8227637573242186,7.003039855957031,1.9117700256347656
5887654697804,13.31485963,1,-2.9939491760253905,7.015010864257812,1.5598223815917969
5887664697387,13.324859213,1,-2.953247747802734,7.108384729003906,1.3527239379882812
5887674693012,13.334854838,1,-2.8323405639648436,7.03536157836914,1.2569558715820313
5887684699210,13.344861036,1,-2.7150246826171873,6.866570361328125,1.2952630981445312
5887694698689,13.354860515,1,-2.546233465576172,6.655880615234374,1.1659762084960936
5887704698273,13.364860099,1,-2.424129180908203,6.3973068359375,1.061828436279297
5887714728637,13.374890463,1,-2.3487118286132813,6.252457635498047,1.1563994018554686
5887724708846,13.384870672,1,-2.6563667419433594,6.227318518066406,1.24498486328125
5887734707127,13.394868953,1,-2.7533319091796873,6.110002636718749,1.3431471313476562
5887744702544,13.40486437,1,-2.7856536315917966,6.37815322265625,1.5634136840820312
5887754697544,13.41485937,1,-3.0442274108886718,6.4739212890625,1.8842367065429686
5887764699471,13.424861297,1,-3.2046389221191403,6.913257293701172,2.205059729003906
5887774697960,13.434859786,1,-3.366247534179687,7.456741070556641,2.551021868896484
5887784719262,13.444881088,1,-3.6391865234374996,7.9104422851562495,2.9747955627441405
5887794699679,13.454861505,1,-3.9564182434082027,8.215702996826172,3.460818499755859
5887804691814,13.46485364,1,-3.8199487487792965,8.432378247070313,3.5972879943847653
5887814700252,13.474862078,1,-3.986345764160156,8.457517364501953,3.8283284545898435
5887824698064,13.48485989,1,-4.228160131835938,8.166621862792969,4.131194964599609
5887834698846,13.494860672,1,-4.516661431884765,8.007407452392577,4.535815045166015
5887844698846,13.504860672,1,-4.7931917236328125,8.002619049072266,4.975151049804687
5887854698898,13.514860724,1,-4.953603234863281,8.307879760742187,5.634753607177734
5887864698637,13.524860463,1,-5.092466931152344,8.725667950439453,6.300341668701171
5887874698064,13.53485989,1,-5.378574029541015,8.926780889892578,6.93959351196289
5887884716658,13.544878484,1,-5.850231756591796,9.10395181274414,7.259219433593749
5887894698950,13.554860776,1,-5.625176800537109,9.188945971679686,7.645883001708984
5887904699314,13.56486114,1,-5.868188269042968,9.282319836425781,8.002619049072266
5887914694471,13.574856297,1,-5.754463690185546,9.179369165039063,8.086416107177733
5887924696241,13.584858067,1,-5.063736511230468,9.137470635986327,7.844601739501953
5887934699471,13.594861297,1,-4.5884874816894525,8.385691314697265,6.907271789550781
5887944698481,13.604860307,1,-4.351461517333984,7.042544183349609,5.6203883972167965
5887954698794,13.61486062,1,-4.107252947998047,5.932831713867187,4.2688615600585935
5887964698325,13.624860151,1,-3.688267657470703,5.121197351074218,3.1088708557128903
5887974700096,13.634861922,1,-3.0023288818359375,4.650736724853515,2.300827795410156
5887984717908,13.644879734,1,-2.455253802490234,4.483142608642578,1.5801730957031248
5887994699835,13.654861661,1,-2.24097275390625,4.452017987060547,0.7302315063476562
5888004700148,13.664861974,1,-2.2732944763183593,4.637568615722656,-0.09696516723632811
5888014698429,13.674860255,1,-2.157175695800781,5.092466931152344,-0.5219359619140624
5888024698325,13.684860151,1,-1.9237410339355467,5.92445200805664,-0.7565677246093749
5888034698533,13.694860359,1,-1.8100164550781248,6.76122548828125,-0.7230489013671875
5888044698377,13.704860203,1,-2.041056915283203,7.64827720336914,-0.6691793640136718
5888054697960,13.714859786,1,-2.0661960327148434,8.189366778564453,-0.36631285400390623
5888064696241,13.724858067,1,-2.5725696838378904,7.875726361083984,0.09696516723632811
5888074699002,13.734860828,1,-2.7533319091796873,8.271966735839843,0.842758984375
5888084698168,13.744859994,1,-2.9472622436523435,8.062474090576172,1.7274164978027342
5888094700460,13.754862286,1,-3.563769171142578,8.213308795166014,2.3535002319335936
5888104697752,13.764859578,1,-4.229357232666016,8.409633331298828,3.296815686035156
5888114698741,13.774860567,1,-3.921702319335937,8.450334759521484,4.46279189453125
5888124697856,13.784859682,1,-3.9564182434082027,8.257601525878906,5.352237811279297
5888134698325,13.794860151,1,-4.198232611083984,7.943961108398437,6.011840368652344
5888144711450,13.804873276,1,-4.396951348876953,7.614758380126952,6.525396624755859
5888154703168,13.814864994,1,-4.517858532714843,7.429207751464843,6.891709478759765
5888164698064,13.82485989,1,-4.8686090759277345,7.3478048950195305,7.09282241821289
5888174696971,13.834858797,1,-5.391742138671875,7.332242584228515,7.168239770507812
5888184699262,13.844861088,1,-5.397727642822265,7.544129431152343,7.526172918701171
5888194700356,13.854862182,1,-5.176263989257812,7.93558140258789,7.615955480957031
5888204698012,13.864859838,1,-4.892551092529296,8.319850769042969,7.333439685058593
5888214698429,13.874860255,1,-4.778826513671874,8.354566693115235,6.811503723144531
5888224698637,13.884860463,1,-4.434061474609375,8.40843623046875,6.274005450439453
5888234699054,13.89486088,1,-4.41131655883789,8.562862237548828,5.570110162353515
5888244699054,13.90486088,1,-4.0222587890625,8.63109698486328,5.304353778076171
5888254699262,13.914861088,1,-3.585316986083984,8.960299713134765,4.7369279846191406
5888264697856,13.924859682,1,-3.343502618408203,8.22288560180664,4.502296221923828
5888274699418,13.934861244,1,-3.2249896362304686,7.339425189208984,3.8582559753417964
5888284699314,13.94486114,1,-3.143586779785156,6.347028601074219,3.2525229553222657
5888294700356,13.954862182,1,-2.929305731201172,5.536591339111328,2.607285607910156
5888304698741,13.964860567,1,-2.7138275817871094,4.973953948974609,2.051830822753906
5888314699731,13.974861557,1,-2.7042507751464844,4.6076410949707025,1.6603788513183593
5888324698741,13.984860567,1,-2.528276953125,4.485536810302734,1.199495031738281
5888334698950,13.994860776,1,-2.35589443359375,4.542997650146484,0.7948749511718749
5888344709783,14.004871609,1,-2.3032219970703123,4.747701892089843,0.3555389465332031
5888354701241,14.014863067,1,-2.568978381347656,5.19661470336914,0.05626373901367187
5888364699106,14.024860932,1,-2.977189764404297,6.094440325927734,-0.19512743530273435
5888374698845,14.034860671,1,-3.1759085021972653,6.974309436035155,-0.10175357055664062
5888384698168,14.044859994,1,-3.3411084167480465,8.030152368164062,0.2154781494140625
5888394698116,14.054859942,1,-3.8474820678710935,8.872911352539061,0.6775590698242188
5888404698220,14.064860046,1,-4.416104962158203,9.325415466308593,1.3922282653808593
5888414698064,14.07485989,1,-4.554968658447265,9.744400756835937,2.1212626708984375
5888424700095,14.084861921,1,-4.787206219482422,9.991003527832031,2.839523168945312
5888434702387,14.094864213,1,-4.914098907470703,9.82580361328125,3.805583538818359
5888444699262,14.104861088,1,-4.875791680908203,9.62109937133789,4.698620758056641
5888454697908,14.114859734,1,-4.689043951416015,9.193734375,5.316324786376953
5888464699158,14.124860984,1,-4.6830584472656245,8.659827404785156,5.780799908447265
5888474699002,14.134860828,1,-5.1152118469238275,7.921216192626953,6.101622930908203
5888484699522,14.144861348,1,-5.510255120849609,7.395688928222656,6.442796667480469
5888494699002,14.154860828,1,-5.354632012939453,7.332242584228515,6.9336080078124995
5888504698950,14.164860776,1,-4.863820672607422,7.621940985107422,7.706935144042968
5888514698897,14.174860723,1,-4.57771357421875,7.665036614990234,8.112752325439452
5888524699210,14.184861036,1,-4.3071687866210935,7.599196069335937,7.83981333618164
5888534698481,14.194860307,1,-4.167107989501953,7.359775903320312,7.316680273437499
5888544697439,14.204859265,1,-3.906140008544922,7.208941198730468,6.769605194091796
5888554698741,14.214860567,1,-3.4356793823242184,7.304709265136719,6.363788012695312
5888564698429,14.224860255,1,-2.9185318237304685,7.310694769287109,5.743689782714843
5888574693689,14.234855515,1,-2.817975354003906,7.094019519042968,4.946420629882812
5888584698689,14.244860515,1,-2.8754361938476563,6.750451580810546,4.034229797363281
5888594699158,14.254860984,1,-2.844311572265625,6.373364819335937,3.4823663146972654
5888604698377,14.264860203,1,-2.5761609863281247,6.217741711425781,2.914940521240234
5888614700095,14.274861921,1,-2.574963885498047,5.892130285644531,2.231395947265625
5888624697960,14.284859786,1,-2.9089550170898435,5.475539196777343,1.484405029296875
5888634698585,14.294860411,1,-2.932897033691406,5.430049365234375,1.1073182678222655
5888644697700,14.304859526,1,-2.645592834472656,5.617994195556641,0.9109937316894531
5888654699314,14.31486114,1,-2.5821464904785154,5.720944866943359,0.6691793640136718
5888664693950,14.324855776,1,-2.711433380126953,5.98191284790039,0.258573779296875
5888674700564,14.33486239,1,-2.826355059814453,6.305130072021484,-0.03232172241210937
5888684699522,14.344861348,1,-3.1399954772949217,7.034164477539062,-0.05626373901367187
5888694717387,14.354879213,1,-3.1088708557128903,7.643488800048828,0.19871873779296872
5888704699314,14.36486114,1,-3.077746234130859,8.39526812133789,0.6009446166992187
5888714699158,14.374860984,1,-3.2417490478515623,8.504204296874999,1.1528080993652343
5888724697752,14.384859578,1,-3.095702746582031,8.541314422607421,1.3934253662109375
5888734697960,14.394859786,1,-3.010708587646484,8.402450726318358,2.0566192260742184
5888744698272,14.404860098,1,-3.0693665283203124,8.249221820068358,2.3965958618164063
