timestamp_ns,t_s,sensor_id,ax,ay,az,gx,gy,gz
6240346856888,0.059923906,1,1.85790048828125,4.936843823242187,6.05852730102539,-5.801526717557252,-42.87786259541985,41.961832061068705
6240351805013,0.064872031,1,1.9847931762695312,4.770446807861328,6.113593939208984,15.450381679389313,-7.854961832061068,20.480916030534353
6240356803555,0.069870573,1,2.2744915771484373,4.778826513671874,6.2021794006347655,13.427480916030534,-1.9618320610687023,15.16793893129771
6240361808034,0.074875052,1,2.427720483398437,4.666299035644531,6.279990954589843,3.0,0.10687022900763359,12.580152671755725
6240366802722,0.07986974,1,2.231395947265625,4.705803363037109,6.296750366210937,-4.00763358778626,-3.931297709923664,9.15267175572519
6240371798867,0.084865885,1,1.9991583862304687,4.655525128173828,6.171054779052734,-7.748091603053435,-6.9541984732824424,6.679389312977099
6240376801107,0.089868125,1,1.915361328125,4.753687396240234,6.174646081542968,-8.404580152671755,-4.702290076335878,3.267175572519084
6240381800586,0.094867604,1,2.003946789550781,4.900930798339844,6.143521459960938,-6.1679389312977095,-1.16793893129771,-0.7022900763358778
6240386801107,0.099868125,1,2.094926452636719,5.093664031982422,6.101622930908203,-4.961832061068702,0.9236641221374046,-2.969465648854962
6240391797409,0.104864427,1,2.108094561767578,5.3390697021484375,6.078878015136718,-5.969465648854962,0.5419847328244275,-3.5419847328244276
6240396798607,0.109865625,1,1.9788076721191405,5.391742138671875,6.045359191894531,-8.259541984732824,-0.549618320610687,-2.900763358778626
6240401800378,0.114867396,1,1.8614917907714843,5.473144995117187,5.98191284790039,-9.725190839694656,-0.6870229007633588,-2.954198473282443
6240406798972,0.11986599,1,1.6819266662597656,5.589263775634765,5.9017070922851556,-12.129770992366412,0.5114503816793893,-4.137404580152672
6240411796888,0.124863906,1,1.7334020019531249,5.729324572753906,6.075286712646484,-17.595419847328245,5.32824427480916,-6.076335877862595
6240416799701,0.129866719,1,1.649604943847656,5.683834741210937,6.350619903564453,-18.923664122137403,11.610687022900763,-3.8091603053435112
6240421799701,0.134866719,1,1.6639701538085936,5.776011505126953,6.629544396972656,-8.801526717557252,15.412213740458014,-3.8396946564885495
6240426799232,0.13986625,1,1.744175909423828,5.849034655761718,7.0078282592773435,1.3129770992366412,21.64885496183206,-1.8015267175572518
6240431797253,0.144864271,1,1.908178723144531,5.870582470703124,7.375338214111328,7.801526717557252,25.610687022900763,0.08396946564885496
6240436798919,0.149865937,1,1.9979612854003905,5.797559320068359,7.730877160644531,10.244274809160306,23.9618320610687,1.9770992366412214
6240441798451,0.154865469,1,1.868674395751953,5.737704278564453,7.793126403808594,7.175572519083969,15.946564885496183,5.022900763358779
6240446797878,0.159864896,1,1.590947003173828,5.6191912963867185,7.7967177062988275,0.3435114503816794,6.236641221374046,7.083969465648855
6240451796732,0.16486375,1,1.322796417236328,5.398924743652343,7.714117749023437,-5.450381679389313,-0.1450381679389313,8.404580152671755
6240456799076,0.169866094,1,1.3575123413085937,5.312733483886719,7.599196069335937,-3.3587786259541983,-2.595419847328244,8.244274809160306
6240461799232,0.17486625,1,1.5490484741210937,5.203797308349609,7.4040686340332025,4.488549618320611,-2.854961832061069,6.870229007633588
6240466800065,0.179867083,1,1.8040309509277344,5.202600207519531,7.240065820312499,9.183206106870228,-3.7709923664122136,6.564885496183206
6240471797149,0.184864167,1,1.9572598571777342,5.0385973937988275,7.03536157836914,7.847328244274809,-7.442748091603053,7.213740458015267
6240476798034,0.189865052,1,1.9141642272949217,4.958391638183594,6.7803791015625,3.801526717557252,-12.763358778625955,6.931297709923665
6240481799180,0.194866198,1,1.8219874633789062,4.829104748535156,6.604405279541015,-1.1297709923664123,-16.519083969465647,5.809160305343512
6240486799232,0.19986625,1,1.7262193969726563,4.830301849365234,6.363788012695312,-5.137404580152672,-18.061068702290076,2.236641221374046
6240491797305,0.204864323,1,1.838746875,4.988319158935546,6.0537388977050774,-9.916030534351146,-16.15267175572519,-2.854961832061069
6240496799232,0.20986625,1,1.9536685546875,4.995501763916016,6.172251879882812,-13.32824427480916,-10.16793893129771,-4.488549618320611
6240501799024,0.214866042,1,1.9213468322753906,5.078101721191406,6.253654736328125,-5.404580152671755,-4.923664122137405,-4.366412213740458
6240506799961,0.219866979,1,1.9500772521972656,5.295974072265625,6.421248852539062,5.519083969465649,0.10687022900763359,-7.534351145038168
6240511797513,0.224864531,1,1.9728221679687499,5.436034869384765,6.673837127685546,4.00763358778626,5.030534351145038,-8.145038167938932
6240516799180,0.229866198,1,1.908178723144531,5.633556506347656,6.8402341430664055,-3.549618320610687,3.969465648854962,-9.114503816793894
6240521799180,0.234866198,1,1.983596075439453,5.791573815917968,6.925228302001953,-10.122137404580153,1.0076335877862594,-9.603053435114504
6240526798867,0.239865885,1,2.069787335205078,5.987898352050781,6.941987713623046,-11.442748091603054,0.6183206106870229,-7.732824427480916
6240531796836,0.244863854,1,2.4301146850585935,6.268019946289062,6.663063220214843,-5.809160305343512,-3.717557251908397,-6.297709923664122
6240536798659,0.249865677,1,2.412158172607422,5.974730242919922,6.455964776611328,0.8396946564885496,-5.152671755725191,6.366412213740458
6240541799232,0.25486625,1,2.270900274658203,5.80953032836914,6.157886669921875,14.908396946564885,-7.236641221374046,10.763358778625955
6240546799232,0.25986625,1,2.6707319519042967,5.7077767578125,5.8226984375,22.793893129770993,1.4351145038167938,13.419847328244275
6240551797149,0.264864167,1,2.9652187561035155,5.406107348632812,5.889736083984375,24.625954198473284,13.15267175572519,14.954198473282442
6240556798607,0.269865625,1,3.4775779113769527,4.489128112792969,6.060921502685546,27.564885496183205,14.122137404580153,18.022900763358777
6240561798607,0.274865625,1,2.7952304382324216,5.1319712585449215,5.414487054443359,24.427480916030536,-1.786259541984733,4.259541984732825
6240566798919,0.279865937,1,1.6711527587890624,4.4819455078125,5.655104321289063,-13.305343511450381,3.763358778625954,14.572519083969466
6240571794805,0.284861823,1,1.2138602416992186,4.236539837646484,5.8262897399902345,-23.603053435114504,9.946564885496183,6.847328244274809
6240576798607,0.289865625,1,0.8391676818847655,4.881777185058594,5.92445200805664,-10.603053435114504,11.900763358778626,-12.435114503816793
6240581801003,0.294868021,1,1.0390835205078124,5.149927770996094,6.434416961669921,-23.64885496183206,25.30534351145038,-19.00763358778626
6240586799024,0.299866042,1,1.227028350830078,5.762843395996094,6.806715319824218,-39.32824427480916,24.793893129770993,-26.061068702290076
6240591797409,0.304864427,1,1.5370774658203123,5.80953032836914,7.392097625732421,-49.89312977099237,25.519083969465647,-22.091603053435115
6240596799597,0.309866615,1,1.5921441040039062,6.1267620483398435,7.538143927001952,-37.99236641221374,20.49618320610687,-19.068702290076335
6240601799232,0.31486625,1,1.158793603515625,6.235698223876953,7.673416320800781,-19.48854961832061,13.541984732824428,-10.465648854961833
6240606798919,0.319865937,1,0.9971849914550781,6.138733056640625,7.729680059814453,-7.908396946564886,12.885496183206106,-2.381679389312977
6240611796888,0.324863906,1,0.9696516723632812,6.054935998535156,7.961917620849609,0.7557251908396947,16.19083969465649,1.1221374045801527
6240616799805,0.329866823,1,1.006761798095703,6.136338854980468,8.16542476196289,6.015267175572519,14.595419847328245,1.213740458015267
6240621799753,0.334866771,1,1.2797007873535156,6.025008477783203,8.099584216308592,0.9923664122137404,4.343511450381679,3.7251908396946565
6240626798763,0.339865781,1,1.465251416015625,5.616797094726562,7.995436444091796,-7.748091603053435,-2.572519083969466,8.526717557251908
6240631797096,0.344864114,1,1.5550339782714844,5.457582684326171,7.899668377685546,-7.748091603053435,-11.0,7.488549618320611
6240636798555,0.349865573,1,1.4903905334472656,5.195417602539062,7.656656909179687,-7.0,-15.870229007633588,8.236641221374045
6240641808711,0.354875729,1,1.6160861206054686,4.911704705810546,7.428010650634765,-6.809160305343512,-19.099236641221374,8.49618320610687
6240646801680,0.359868698,1,1.7669208251953124,4.799177227783203,7.259219433593749,-4.969465648854962,-21.213740458015266,6.4961832061068705
6240651798034,0.364865052,1,1.9943699829101562,4.759672900390624,6.884526873779296,-5.908396946564886,-23.221374045801525,4.076335877862595
6240656799649,0.369866667,1,2.1356278808593747,4.714183068847656,6.616376287841796,-10.030534351145038,-25.282442748091604,2.213740458015267
6240661800065,0.374867083,1,2.1308394775390624,4.613626599121093,6.309918475341797,-14.717557251908397,-27.236641221374047,0.32061068702290074
6240666799284,0.379866302,1,2.067393133544922,4.564545465087891,6.1279591491699215,-17.30534351145038,-25.198473282442748,-1.6793893129770991
6240671797774,0.384864792,1,1.9680337646484374,4.592078784179687,6.093243225097656,-16.213740458015266,-21.251908396946565,-4.900763358778626
6240676798086,0.389865104,1,1.9776105712890624,4.7022120605468745,6.098031628417968,-16.404580152671755,-16.412213740458014,-9.282442748091603
6240681799649,0.394866667,1,2.1583727966308595,4.9069163024902345,6.229712719726562,-22.389312977099237,-10.618320610687023,-13.458015267175572
6240686799024,0.399866042,1,2.2206220397949217,4.977545251464844,6.505045910644531,-27.587786259541986,-7.198473282442748,-14.16030534351145
6240691797513,0.404864531,1,2.1152771667480468,5.073313317871094,6.5589154479980465,-24.50381679389313,-8.129770992366412,-14.038167938931299
6240696799649,0.409866667,1,1.9800047729492187,5.143942266845703,6.738480572509765,-18.00763358778626,-6.4961832061068705,-11.931297709923664
6240701799336,0.414866354,1,1.9955670837402342,5.117606048583984,6.830657336425781,-11.603053435114504,-4.450381679389313,-10.702290076335878
6240706800013,0.419867031,1,2.050633721923828,5.0577510070800775,6.985083343505859,-6.648854961832061,-0.9694656488549618,-8.946564885496183
6240711796680,0.424863698,1,4.210203619384766,5.432443566894531,6.528987927246093,-2.351145038167939,1.2213740458015268,-9.625954198473282
6240716797982,0.429865,1,3.4620156005859375,5.036203192138672,6.457161877441406,5.198473282442748,-2.0229007633587788,-1.0458015267175573
6240721799753,0.434866771,1,2.2469582580566403,5.111620544433594,5.6586956237792965,10.236641221374045,-26.404580152671755,4.106870229007634
6240726798919,0.439865937,1,1.6639701538085936,4.797980126953124,5.389347937011719,-5.198473282442748,-17.458015267175572,5.236641221374046
6240731796732,0.44486375,1,1.618480322265625,4.668693237304687,5.510255120849609,-10.076335877862595,5.923664122137405,-1.6717557251908397
6240736799544,0.449866562,1,1.6819266662597656,4.948814831542968,5.864596966552734,6.00763358778626,21.137404580152673,-10.061068702290076
6240741798919,0.454865937,1,1.9333178405761717,5.146336468505859,6.366182214355469,19.900763358778626,35.06870229007634,-11.50381679389313
6240746799544,0.459866562,1,2.2457611572265623,5.456385583496093,6.72291826171875,21.72519083969466,37.717557251908396,-14.099236641221374
6240751797826,0.464864844,1,2.2972364929199216,5.390545037841797,7.031770275878906,11.458015267175572,34.00763358778626,-10.427480916030534
6240756798867,0.469865885,1,2.221819140625,5.240907434082031,7.060500695800781,5.702290076335878,23.625954198473284,-6.076335877862595
6240761798711,0.474865729,1,1.8507178833007811,5.219359619140625,6.865373260498046,9.129770992366412,15.068702290076336,-2.885496183206107
6240766798242,0.47986526,1,1.2820949890136717,5.061342309570312,6.855796453857422,13.900763358778626,11.641221374045802,-1.8091603053435115
6240771797149,0.484864167,1,0.949300958251953,5.040991595458984,6.730100866699218,12.290076335877863,14.702290076335878,-5.908396946564886
6240776798451,0.489865469,1,1.4604630126953124,5.267243652343749,6.97790073852539,4.519083969465649,23.717557251908396,-12.458015267175572
6240781799232,0.49486625,1,1.6112977172851561,5.309142181396484,7.238868719482421,-1.2213740458015268,24.732824427480917,-15.19083969465649
6240786799128,0.499866146,1,1.6172832214355468,5.474342095947265,7.339425189208984,-2.3587786259541983,14.778625954198473,-13.916030534351146
6240791796524,0.504863542,1,1.5789759948730469,5.537788439941406,7.267599139404297,-5.564885496183206,9.099236641221374,-12.885496183206106
6240796797513,0.509864531,1,1.5705962890624998,5.442020373535156,7.326257080078125,-9.82442748091603,6.480916030534351,-10.305343511450381
6240801802044,0.514869062,1,1.7130512878417967,5.453991381835937,7.277175946044921,-7.99236641221374,4.198473282442748,-9.992366412213741
6240806798711,0.519865729,1,2.002749688720703,5.414487054443359,7.339425189208984,-6.282442748091603,5.404580152671755,-8.755725190839694
6240811797149,0.524864167,1,2.2445640563964844,5.258863946533203,7.362170104980469,-2.946564885496183,8.229007633587786,-6.290076335877862
6240816798971,0.529865989,1,2.195482922363281,4.961982940673828,7.107187628173827,2.8625954198473282,-1.4732824427480915,-1.2671755725190839
6240821798503,0.534865521,1,2.0877438476562498,4.8314989501953125,6.719326959228515,4.633587786259542,-9.793893129770993,2.114503816793893
6240826796940,0.539863958,1,2.5426421630859375,4.538209246826171,6.284779357910156,1.748091603053435,-7.549618320610687,2.687022900763359
6240831799284,0.544866302,1,2.393004559326172,4.225765930175781,6.143521459960938,5.297709923664122,-11.381679389312977,6.305343511450381
6240836799284,0.549866302,1,2.068590234375,4.3801919372558595,5.701791253662109,6.396946564885496,-9.48091603053435,-5.236641221374046
6240841798138,0.554865156,1,1.936909143066406,3.9552211425781247,5.966350537109375,-7.877862595419847,3.5877862595419847,-4.251908396946565
6240846799284,0.559866302,1,2.003946789550781,4.1383775695800775,6.187814190673827,-7.969465648854962,9.80916030534351,-15.801526717557252
6240851796576,0.564863594,1,1.7669208251953124,4.170699291992188,6.76721099243164,-8.83206106870229,15.977099236641221,-20.862595419847327
6240856798346,0.569865364,1,-0.008379705810546874,4.818330841064453,7.513004809570312,-15.198473282442748,16.709923664122137,-32.93893129770992
6240861799232,0.57486625,1,-0.15562310791015624,6.228515618896484,7.607575775146484,-49.49618320610687,3.7022900763358777,-54.67175572519084
6240866799596,0.579866614,1,0.6607996582031249,5.984307049560546,8.611943371582031,-95.35114503816794,19.251908396946565,-45.13740458015267
6240871797096,0.584864114,1,1.1360486877441405,6.755239984130859,8.869320050048827,-72.48091603053435,13.80916030534351,-50.76335877862596
6240876798815,0.589865833,1,1.5382745666503905,7.34181939086914,8.585607153320312,-35.57251908396947,-8.030534351145038,-41.20610687022901
6240881799648,0.594866666,1,1.5825672973632812,7.100005023193359,8.283937744140625,-26.610687022900763,-20.519083969465647,-16.572519083969464
6240886799023,0.599866041,1,1.5382745666503905,6.846219647216796,7.503428002929687,-26.236641221374047,-40.06106870229008,-7.1603053435114505
6240891795221,0.604862239,1,1.3395558288574219,6.391321331787109,6.839037042236328,-35.25190839694657,-48.11450381679389,3.5267175572519083
6240896800065,0.609867083,1,1.1037269653320312,5.925649108886718,6.141127258300781,-37.6793893129771,-46.213740458015266,7.801526717557252
6240901799388,0.614866406,1,1.5167267517089842,5.748478186035156,5.568913061523437,-28.96946564885496,-44.404580152671755,10.0
6240906799284,0.619866302,1,2.941276739501953,5.366603021240234,5.187037896728516,-17.625954198473284,-16.84732824427481,11.290076335877863
6240911796836,0.624863854,1,3.1591490905761717,4.774038110351563,5.032611889648437,5.908396946564886,-12.458015267175572,23.31297709923664
6240916799128,0.629866146,1,3.071760729980469,4.351461517333984,4.441244079589843,30.213740458015266,-13.32824427480916,30.229007633587788
6240921799076,0.634866094,1,3.2154128295898436,3.585316986083984,4.033032696533203,36.61832061068702,-6.00763358778626,36.29770992366412
6240926798815,0.639865833,1,2.835931866455078,2.883815899658203,4.030638494873046,34.44274809160305,8.778625954198473,32.7557251908397
6240931802461,0.644869479,1,2.7521348083496093,2.0075380920410155,4.388571643066406,29.702290076335878,29.938931297709924,29.290076335877863
6240936802044,0.649869062,1,2.402581365966797,1.9608511596679685,4.912901806640625,40.083969465648856,52.10687022900763,13.427480916030534
6240941799388,0.654866406,1,1.8219874633789062,2.3690625427246093,5.547365246582031,37.83969465648855,61.54961832061068,-7.900763358778626
6240946799076,0.659866094,1,1.7010802795410156,2.8000188415527343,6.404489440917969,7.625954198473282,71.65648854961832,-23.748091603053435
6240951797148,0.664864166,1,2.3786393493652342,2.8323405639648436,7.3094976684570305,-16.801526717557252,79.06106870229007,-32.76335877862596
6240956799284,0.669866302,1,2.530671154785156,3.4392706848144527,7.867346655273437,-5.877862595419847,83.1526717557252,-44.152671755725194
6240961801263,0.674868281,1,2.357091534423828,3.883395092773437,8.397662322998046,8.366412213740459,73.58015267175573,-46.7557251908397
6240966799701,0.679866719,1,1.8459294799804686,4.0066964782714845,8.49103618774414,8.511450381679388,56.656488549618324,-40.404580152671755
6240971797617,0.684864635,1,1.4353238952636718,4.169502191162109,8.352172491455077,-0.35877862595419846,38.267175572519086,-41.18320610687023
6240976799232,0.68986625,1,1.005564697265625,3.9839515624999997,8.528146313476562,-9.755725190839694,37.29770992366412,-41.11450381679389
6240981798867,0.694865885,1,0.7852981445312499,4.068945721435546,8.665812908935546,-0.030534351145038167,36.63358778625954,-46.94656488549618
6240986798555,0.699865573,1,0.8571241943359375,4.316745593261719,8.840589630126953,10.526717557251908,37.786259541984734,-55.0763358778626
6240991797565,0.704864583,1,0.5446808776855468,4.428075970458984,8.912415679931641,6.229007633587786,29.977099236641223,-56.18320610687023
6240996799492,0.70986651,1,0.36631285400390623,4.754884497070313,8.943540301513671,-5.526717557251908,16.31297709923664,-59.43511450381679
6241001798607,0.714865625,1,0.5398924743652344,4.863820672607422,9.023746057128905,-18.984732824427482,13.557251908396946,-63.99236641221374
6241006798867,0.719865885,1,0.6272808349609375,5.260061047363281,8.985438830566405,-19.221374045801525,9.83206106870229,-66.43511450381679
6241011797148,0.724864166,1,0.5374982727050781,6.739677673339843,8.061276989746093,-24.16793893129771,-16.954198473282442,-79.72519083969466
6241016798867,0.729865885,1,-0.26815058593749996,7.510610607910156,7.554903338623046,-79.12977099236642,-38.534351145038165,-79.59541984732824
6241021798971,0.734865989,1,-1.0330980163574217,7.7608046813964835,7.411251239013671,-128.38931297709922,-38.70229007633588,-70.86259541984732
6241026799492,0.73986651,1,-0.8690952026367187,8.43956085205078,7.030573175048827,-121.56488549618321,-39.732824427480914,-76.97709923664122
6241031796523,0.744863541,1,-0.3507505432128906,8.264784130859374,6.974309436035155,-82.87022900763358,-19.625954198473284,-53.69465648854962
6241036798294,0.749865312,1,-0.12449848632812499,8.341398583984375,6.591237170410156,-17.083969465648856,-14.458015267175572,-32.045801526717554
6241041798867,0.754865885,1,0.055066638183593745,8.623914379882812,6.17344898071289,20.458015267175572,-9.572519083969466,-22.6793893129771
6241046798242,0.75986526,1,0.38187516479492184,8.189366778564453,6.029796881103516,3.786259541984733,-8.786259541984732,-0.4580152671755725
6241051797461,0.764864479,1,0.26815058593749996,7.293935357666015,6.123170745849609,-13.16030534351145,-5.290076335877862,14.694656488549619
6241056799544,0.769866562,1,0.23702596435546874,6.696582043457031,5.947196923828125,4.625954198473282,-3.3206106870229006,22.51145038167939
6241061799440,0.774866458,1,0.06464344482421874,6.251260534667968,5.850231756591796,31.022900763358777,9.977099236641221,27.427480916030536
6241066798294,0.779865312,1,0.12330138549804687,5.870582470703124,6.029796881103516,43.52671755725191,25.938931297709924,31.923664122137403
6241071796419,0.784863437,1,0.6260837341308594,5.379771130371093,6.436811163330078,44.43511450381679,40.51908396946565,32.86259541984733
6241076799388,0.789866406,1,1.1480196960449218,5.0385973937988275,6.696582043457031,47.48091603053435,44.83206106870229,31.931297709923665
6241081798919,0.794865937,1,1.1336544860839843,4.704606262207031,6.937199310302734,50.25190839694657,41.770992366412216,33.14503816793893
6241086797669,0.799864687,1,1.0845733520507812,4.332307904052734,7.070077502441406,43.13740458015267,38.99236641221374,27.18320610687023
6241091797148,0.804864166,1,0.9900023864746094,3.9983167724609374,7.079654309082031,31.717557251908396,36.29007633587786,20.3206106870229
6241096798659,0.809865677,1,0.8008604553222656,3.872621185302734,7.299920861816406,23.557251908396946,36.93893129770992,11.213740458015268
6241101799544,0.814866562,1,0.7350199096679687,3.825934252929687,7.554903338623046,19.900763358778626,39.54961832061068,4.33587786259542
6241106799596,0.819866614,1,0.8092401611328125,3.9336733276367184,7.826645227050781,16.702290076335878,39.58015267175573,-0.3816793893129771
6241111796784,0.824863802,1,0.8774749084472656,4.071339923095703,7.990648040771484,13.274809160305344,34.85496183206107,-5.137404580152672
6241116796992,0.82986401,1,0.8403647827148437,4.292803576660156,8.002619049072266,8.229007633587786,27.435114503816795,-8.740458015267176
6241121799805,0.834866823,1,0.7864952453613281,4.519055633544921,8.02416686401367,-0.45038167938931295,19.50381679389313,-12.045801526717558
6241126798763,0.839865781,1,0.7960720520019531,4.624400506591797,8.062474090576172,-9.145038167938932,13.954198473282442,-13.511450381679388
6241131796784,0.844863802,1,0.7050923889160156,4.806359832763672,8.015787158203125,-12.48091603053435,9.381679389312977,-14.083969465648854
6241136798919,0.849865937,1,0.5710170959472656,5.066130712890625,7.8721350585937495,-10.488549618320612,3.900763358778626,-15.007633587786259
6241141798555,0.854865573,1,0.5410895751953124,5.333084197998047,7.736862664794922,-9.114503816793894,0.37404580152671757,-15.412213740458014
6241146798659,0.859865677,1,0.5710170959472656,5.616797094726562,7.637503295898437,-11.961832061068701,-3.2748091603053435,-13.17557251908397
6241151796888,0.864863906,1,0.4944026428222656,5.764040496826172,7.394491827392578,-18.129770992366414,-10.099236641221374,-10.526717557251908
6241156799440,0.869866458,1,0.5386953735351562,5.558139154052734,7.369352709960937,-23.083969465648856,-13.183206106870228,-14.633587786259541
6241161799388,0.874866406,1,0.8307879760742187,5.912480999755859,6.962338427734375,-19.549618320610687,-16.610687022900763,-5.267175572519084
6241166798815,0.879865833,1,0.7314286071777343,5.785588311767578,6.907271789550781,-18.480916030534353,-9.068702290076336,-6.00763358778626
6241171797305,0.884864323,1,0.6811503723144531,5.951985327148437,6.629544396972656,-12.251908396946565,-9.473282442748092,-0.7480916030534351
6241176798815,0.889865833,1,0.6787561706542968,5.938817218017578,6.5768719604492185,-11.80916030534351,-6.0,3.16793893129771
6241181799075,0.894866093,1,0.7314286071777343,5.6946086486816405,6.666654522705078,-9.732824427480915,-0.04580152671755725,3.7938931297709924
6241186799805,0.899866823,1,0.824802471923828,5.718550665283203,6.528987927246093,-2.267175572519084,1.6946564885496183,11.045801526717558
6241191797409,0.904864427,1,1.0702081420898437,5.487510205078125,6.460753179931641,2.2519083969465647,6.465648854961832,15.580152671755725
6241196798919,0.909865937,1,1.0103531005859374,5.146336468505859,6.338648895263671,10.732824427480915,7.091603053435114,18.137404580152673
6241201797878,0.914864896,1,0.699106884765625,4.929661218261718,6.320692382812499,18.6793893129771,8.65648854961832,16.83969465648855
6241206800898,0.919867916,1,0.2825157958984375,4.796783026123046,6.4284314575195305,18.786259541984734,11.290076335877863,12.229007633587786
6241211796784,0.924863802,1,0.10414777221679687,4.61602080078125,6.640318304443359,11.801526717557252,21.3206106870229,5.877862595419847
6241216799857,0.929866875,1,0.3447650390625,4.608838195800781,7.061697796630859,9.48091603053435,30.083969465648856,1.7709923664122138
6241221806211,0.934873229,1,0.4955997436523437,4.770446807861328,7.521384515380859,12.732824427480915,32.31297709923664,-0.8244274809160306
6241226800846,0.939867864,1,0.47884033203125,4.837484454345703,7.721300354003906,13.648854961832061,29.419847328244273,-1.8396946564885497
6241231796471,0.944863489,1,0.41539398803710936,4.989516259765625,8.049305981445311,7.916030534351145,23.549618320610687,-2.5572519083969465
6241236798450,0.949865468,1,0.4656722229003906,4.933252520751953,8.263587030029296,-0.04580152671755725,18.404580152671755,-2.6106870229007635
6241241799596,0.954866614,1,0.44891281127929683,4.934449621582031,8.41442173461914,-3.4427480916030535,10.473282442748092,-3.198473282442748
6241246798659,0.959865677,1,0.4836287353515625,4.92247861328125,8.277952239990235,-1.7938931297709924,2.4656488549618323,-3.0610687022900764
6241251797148,0.964864166,1,0.6236895324707031,4.939238024902344,8.009801654052733,-1.7557251908396947,-4.885496183206107,-3.1297709923664123
6241256799023,0.969866041,1,0.6189011291503906,4.853046765136718,7.649474304199218,-6.038167938931298,-12.488549618320612,-3.6564885496183206
6241261799128,0.974866146,1,0.6631938598632812,4.885368487548828,7.3478048950195305,-10.541984732824428,-15.801526717557252,-4.763358778625954
6241266798398,0.979865416,1,0.7948749511718749,4.8326960510253905,7.1215528381347655,-10.816793893129772,-18.427480916030536,-5.801526717557252
6241271797409,0.984864427,1,0.9026140258789062,4.92247861328125,6.795941412353515,-8.732824427480915,-16.603053435114504,-6.145038167938932
6241276799075,0.989866093,1,1.0666168395996094,4.939238024902344,6.5972226745605465,-7.022900763358779,-13.458015267175572,-6.358778625954199
6241281799180,0.994866198,1,1.0654197387695312,5.035006091308594,6.460753179931641,-6.0534351145038165,-8.091603053435115,-5.587786259541985
6241286799127,0.999866145,1,0.8032546569824218,5.0385973937988275,6.537367633056641,-6.427480916030534,-7.0534351145038165,-3.4580152671755724
6241291796940,1.004863958,1,0.8379705810546875,5.036203192138672,6.528987927246093,-5.916030534351145,-2.3206106870229006,-4.687022900763359
6241296798555,1.009865573,1,0.8906430175781249,5.054159704589844,6.567295153808593,-1.0916030534351144,1.7251908396946565,-2.6259541984732824
6241301798763,1.014865781,1,1.0330980163574217,5.044582897949218,6.828263134765624,1.5648854961832062,5.206106870229007,-1.8931297709923665
6241306799388,1.019866406,1,0.8978256225585937,5.105635040283203,7.024587670898437,4.229007633587786,6.022900763358779,-0.8931297709923665
6241311797096,1.024864114,1,0.6607996582031249,5.064933612060546,7.250839727783203,4.977099236641221,9.259541984732824,-0.15267175572519084
6241316799596,1.029866614,1,0.5339069702148437,5.073313317871094,7.317877374267578,4.8396946564885495,6.709923664122138,-0.8549618320610687
6241321798138,1.034865156,1,0.5590460876464843,5.0948611328124995,7.454346868896484,4.412213740458015,4.648854961832061,-1.984732824427481
6241326800586,1.039867604,1,0.5195417602539062,5.209782812499999,7.453149768066406,0.6641221374045801,2.3740458015267176,-3.198473282442748
6241331795898,1.044862916,1,0.5961562133789062,5.353434912109375,7.275978845214843,-5.633587786259542,-1.0076335877862594,-3.3282442748091605
6241336798450,1.049865468,1,0.5590460876464843,5.510255120849609,7.217320904541015,-11.98473282442748,-6.854961832061068,-2.1908396946564888
6241341797461,1.054864479,1,0.612915625,5.500678314208984,7.020996368408203,-16.236641221374047,-8.450381679389313,-2.030534351145038
6241346800377,1.059867395,1,0.5997475158691405,5.6012347839355465,6.957550024414062,-13.725190839694656,-6.580152671755725,1.0229007633587786
6241351797096,1.064864114,1,0.6308721374511719,5.6383449096679685,6.812700823974609,-9.076335877862595,-6.679389312977099,6.152671755725191
6241356799648,1.069866666,1,0.5985504150390625,5.449202978515625,6.740874774169922,-3.763358778625954,-5.435114503816794,11.106870229007633
6241361799388,1.074866406,1,1.0139444030761717,5.130774157714844,6.648698010253906,7.152671755725191,8.83206106870229,17.34351145038168
6241366799284,1.079866302,1,1.0941501586914062,4.414907861328125,6.83783994140625,28.641221374045802,1.9389312977099236,11.534351145038167
6241371797617,1.084864635,1,0.8822633117675781,4.643554119873047,6.568492254638672,44.61068702290076,11.778625954198473,13.564885496183207
6241376800117,1.089867135,1,0.8259995727539062,4.2329485351562495,6.763619689941406,25.99236641221374,14.099236641221374,4.709923664122138
6241381799596,1.094866614,1,0.949300958251953,4.109647149658203,6.9910688476562495,9.15267175572519,11.251908396946565,-3.5877862595419847
6241386798711,1.099865729,1,1.0330980163574217,4.279635467529297,7.0832456115722655,4.732824427480916,15.732824427480915,-7.129770992366412
6241391796315,1.104863333,1,0.939724151611328,4.25808765258789,7.332242584228515,0.4580152671755725,7.816793893129771,-11.969465648854962
6241396798502,1.10986552,1,0.8200140686035156,4.618415002441406,7.370549810791015,0.35877862595419846,7.694656488549619,-12.549618320610687
6241401798971,1.114865989,1,0.6548141540527344,4.5884874816894525,7.510610607910156,-4.961832061068702,2.435114503816794,-16.717557251908396
6241406799180,1.119866198,1,0.565031591796875,4.903325,7.451952667236328,-7.67175572519084,0.3969465648854962,-19.916030534351144
6241411798242,1.12486526,1,0.3950432739257812,5.117606048583984,7.256825231933593,-12.786259541984732,0.022900763358778626,-21.053435114503817
6241416799909,1.129866927,1,0.3124433166503906,5.31153638305664,7.442375860595702,-19.480916030534353,-1.9923664122137406,-21.870229007633586
6241421799596,1.134866614,1,0.5901707092285156,5.5258174316406246,7.32266577758789,-20.3206106870229,-2.572519083969466,-18.229007633587788
6241426799023,1.139866041,1,0.316034619140625,5.673060833740234,7.339425189208984,-16.72519083969466,-8.595419847328245,-17.328244274809162
6241431796107,1.144863125,1,0.229843359375,5.852625958251953,7.157465863037109,-14.282442748091603,-8.51908396946565,-12.748091603053435
6241436799909,1.149866927,1,0.13407529296874998,5.833472344970703,7.0844427124023435,-17.900763358778626,-10.236641221374045,-12.564885496183207
6241441799388,1.154866406,1,0.24899697265624998,6.0513446960449215,6.902483386230468,-18.557251908396946,-5.038167938931298,-7.038167938931298
6241446798867,1.159865885,1,0.34237083740234375,5.787982513427734,6.981492041015625,-17.6793893129771,-3.4427480916030535,-3.786259541984733
6241451797721,1.164864739,1,0.4644751220703125,5.710170959472656,6.86297905883789,-5.702290076335878,-1.3129770992366412,-1.3358778625954197
6241456798971,1.169865989,1,0.23582886352539062,5.632359405517578,6.930016705322266,5.564885496183206,0.5572519083969466,0.07633587786259542
6241461798502,1.17486552,1,0.2693476867675781,5.555744952392578,6.944381915283203,3.6717557251908395,2.3435114503816794,1.0458015267175573
6241466799648,1.179866666,1,0.36391865234375,5.365405920410156,7.229291912841797,-3.9389312977099236,2.50381679389313,0.4198473282442748
6241471797305,1.184864323,1,0.4560954162597656,5.242104534912109,7.271190441894531,-5.396946564885496,0.16793893129770993,0.9389312977099237
6241476799596,1.189866614,1,0.5626373901367188,5.183446594238281,7.319074475097656,-2.3740458015267176,-2.312977099236641,3.0076335877862594
6241481800377,1.194867395,1,0.5147533569335937,5.109226342773437,7.382520819091797,-2.3587786259541983,-1.2748091603053435,4.9465648854961835
6241486798971,1.199865989,1,0.47884033203125,4.9416322265625,7.4579381713867186,-2.282442748091603,-1.1068702290076335,4.282442748091603
6241491797096,1.204864114,1,0.5602431884765625,4.843469958496094,7.419630944824219,2.198473282442748,-0.9465648854961832,3.7099236641221376
6241496799284,1.209866302,1,0.7805097412109374,4.734533782958984,7.338228088378906,4.6106870229007635,-2.8091603053435112,4.740458015267175
6241501799648,1.214866666,1,0.9265560424804687,4.5884874816894525,7.394491827392578,3.9923664122137406,-6.763358778625954,4.061068702290076
6241506799700,1.219866718,1,0.9421183532714843,4.491522314453125,7.285555651855469,5.213740458015267,-9.15267175572519,1.900763358778626
6241511801679,1.224868697,1,0.9169792358398436,4.402936853027343,7.066486199951171,1.7404580152671756,-10.664122137404581,-0.6717557251908397
6241516802461,1.229869479,1,1.006761798095703,4.414907861328125,6.913257293701172,-4.679389312977099,-10.19083969465649,-3.572519083969466
6241521799648,1.234866666,1,1.158793603515625,4.322731097412109,6.6702458251953125,-8.977099236641221,-10.17557251908397,-5.5038167938931295
6241526798659,1.239865677,1,1.2677297790527342,4.375403533935547,6.453570574951171,-8.954198473282442,-8.580152671755725,-6.343511450381679
6241531797721,1.244864739,1,1.1073182678222655,4.376600634765625,6.26921704711914,-7.419847328244275,-9.732824427480915,-7.648854961832061
6241536798919,1.249865937,1,0.7278373046875,4.431667272949219,6.078878015136718,-5.022900763358779,-7.351145038167939,-9.045801526717558
6241541799544,1.254866562,1,0.8391676818847655,4.484339709472656,5.799953521728515,-7.595419847328245,7.114503816793893,-16.763358778625953
6241546799127,1.259866145,1,1.0570400329589844,4.708197564697265,5.858611462402344,-6.9465648854961835,13.473282442748092,-21.916030534351144
6241551797148,1.264864166,1,0.6356605407714844,5.137956762695312,6.105214233398437,-8.106870229007633,17.015267175572518,-23.519083969465647
6241556798711,1.269865729,1,0.5123591552734374,5.425260961914062,6.479906793212891,-19.641221374045802,27.82442748091603,-22.931297709923665
6241561798919,1.274865937,1,0.5494692810058593,5.659892724609374,7.0281789733886715,-26.81679389312977,30.427480916030536,-22.9618320610687
6241566799492,1.27986651,1,0.5470750793457031,6.013037469482422,7.390900524902343,-14.587786259541986,28.709923664122137,-13.748091603053435
6241571798346,1.284865364,1,0.7422025146484375,5.966350537109375,7.645883001708984,-5.099236641221374,22.763358778625953,-2.030534351145038
6241576799440,1.289866458,1,0.46806642456054687,5.736507177734374,7.823053924560546,7.549618320610687,19.022900763358777,3.7786259541984735
6241581799127,1.294866145,1,0.08140285644531249,5.543773944091797,7.926004595947266,16.81679389312977,21.72519083969466,6.625954198473282
6241586798034,1.299865052,1,0.39983167724609375,5.433640667724609,7.893682873535155,21.30534351145038,17.50381679389313,8.916030534351146
6241591796471,1.304863489,1,0.6272808349609375,5.398924743652343,7.7799582946777335,20.740458015267176,8.793893129770993,12.65648854961832
6241596795690,1.309862708,1,0.4381389038085937,5.232527728271484,7.5465236328125,19.27480916030534,6.732824427480916,16.30534351145038
6241601800221,1.314867239,1,0.04908113403320312,4.911704705810546,7.530961322021484,17.450381679389313,3.5114503816793894,15.572519083969466
6241606798242,1.31986526,1,0.3268085266113281,4.613626599121093,7.235277416992187,21.061068702290076,11.427480916030534,14.083969465648854
6241611796732,1.32486375,1,0.9193734375,4.370615130615234,7.052120989990234,29.091603053435115,6.175572519083969,9.122137404580153
6241616799804,1.329866822,1,0.9708487731933593,4.521449835205078,6.704961749267578,34.97709923664122,2.3740458015267176,9.236641221374045
6241621798346,1.334865364,1,1.0019733947753906,4.396951348876953,6.449979272460937,20.885496183206108,0.022900763358778626,7.694656488549619
6241626798919,1.339865937,1,0.737414111328125,4.217386224365234,6.266822845458984,6.709923664122138,0.6335877862595419,1.3053435114503817
6241631796679,1.344863697,1,0.7888894470214843,4.274847064208984,6.044162091064453,7.183206106870229,12.122137404580153,-0.3816793893129771
6241636799284,1.349866302,1,0.9181763366699218,4.2509050476074215,5.942408520507812,24.717557251908396,14.320610687022901,-3.7786259541984735
6241641799127,1.354866145,1,0.7457938171386719,4.371812231445312,5.935225915527344,23.801526717557252,18.47328244274809,-9.923664122137405
6241646798919,1.359865937,1,0.44532150878906246,4.708197564697265,5.911283898925781,7.755725190839694,22.65648854961832,-16.053435114503817
6241651796732,1.36486375,1,0.4896142395019531,5.066130712890625,5.971138940429687,-9.954198473282442,30.870229007633586,-24.259541984732824
6241656798815,1.369865833,1,0.3327940307617187,5.390545037841797,6.417657550048828,-15.335877862595419,29.442748091603054,-23.61832061068702
6241661799857,1.374866875,1,0.6057330200195312,5.717353564453124,6.5768719604492185,-5.541984732824427,30.061068702290076,-22.83206106870229
6241666799232,1.37986625,1,0.7338228088378905,6.030993981933594,6.554127044677734,3.7099236641221376,23.778625954198475,-13.83206106870229
6241671796367,1.384863385,1,0.08379705810546874,6.045359191894531,6.544550238037109,8.114503816793894,27.427480916030536,-8.0
6241676798659,1.389865677,1,-0.21308394775390624,5.877765075683594,6.696582043457031,16.541984732824428,38.587786259541986,-6.1603053435114505
6241681799544,1.394866562,1,-0.4333505004882812,5.805939025878906,7.100005023193359,25.015267175572518,44.847328244274806,-9.320610687022901
6241686798919,1.399865937,1,-0.19393033447265623,5.986701251220703,7.3657614074707025,21.72519083969466,51.63358778625954,-7.748091603053435
6241691796627,1.404863645,1,0.04189852905273437,5.97592734375,7.9475524108886715,16.595419847328245,45.458015267175576,-5.458015267175573
6241696799909,1.409866927,1,0.0,6.047753393554687,8.317456567382813,12.312977099236642,38.213740458015266,-1.465648854961832
6241701799544,1.414866562,1,-0.14125789794921875,5.931634613037109,8.559270935058594,14.145038167938932,31.610687022900763,3.49618320610687
6241706800690,1.419867708,1,-0.5398924743652344,5.917269403076172,8.74003316040039,18.557251908396946,24.221374045801525,3.984732824427481
6241711797513,1.424864531,1,-0.7015010864257812,5.816712933349609,8.908824377441405,14.977099236641221,16.923664122137403,3.2442748091603053
6241716799700,1.429866718,1,-0.7015010864257812,5.807136126708984,8.842983831787109,2.8396946564885495,14.129770992366412,2.6793893129770994
6241721799179,1.434866197,1,-0.7266402038574218,5.821501336669922,9.05965908203125,-4.511450381679389,7.2748091603053435,2.5114503816793894
6241726798346,1.439865364,1,-0.6165069274902344,5.749675286865234,9.125499627685546,-4.305343511450381,-2.83206106870229,1.9236641221374047
6241731797148,1.444864166,1,-0.4584896179199218,5.874173773193359,9.034519964599609,-4.038167938931298,-9.618320610687023,3.8625954198473282
6241736798971,1.449865989,1,-0.6416460449218749,5.838260748291015,8.927977990722656,-3.7099236641221376,-19.045801526717558,7.916030534351145
6241741799023,1.454866041,1,-0.6715735656738281,5.734112976074218,8.752004168701172,-0.6717557251908397,-25.65648854961832,8.65648854961832
6241746798711,1.459865729,1,-0.5626373901367188,5.768828900146484,8.462305767822265,-1.450381679389313,-31.35114503816794,10.244274809160306
6241751796627,1.464863645,1,-0.5877765075683593,5.680243438720702,8.185775476074218,-3.068702290076336,-26.022900763358777,11.938931297709924
6241756799648,1.469866666,1,-0.16519991455078123,5.463568188476562,7.991845141601562,3.633587786259542,-34.93893129770992,11.083969465648854
6241761800221,1.474867239,1,0.19153613281249998,5.571307263183593,7.72489165649414,6.824427480916031,-35.30534351145038,17.221374045801525
6241766798606,1.479865624,1,0.3124433166503906,5.313930584716797,7.466317877197265,10.717557251908397,-45.30534351145038,14.282442748091603
6241771795898,1.484862916,1,0.8774749084472656,5.421669659423828,6.724115362548828,1.1374045801526718,-52.56488549618321,14.236641221374045
6241776798867,1.489865885,1,0.8295908752441405,5.365405920410156,6.169857678222656,-14.961832061068701,-56.16793893129771,17.53435114503817
6241781799127,1.494866145,1,0.622492431640625,5.172672686767577,5.711368060302734,-18.18320610687023,-57.274809160305345,16.80916030534351
6241786799856,1.499866874,1,0.679953271484375,4.984727856445312,5.079298822021484,-9.122137404580153,-47.916030534351144,15.335877862595419
6241791796992,1.50486401,1,0.8511386901855468,4.886565588378906,4.690241052246093,2.351145038167939,-35.57251908396947,13.312977099236642
6241796799179,1.509866197,1,0.9852139831542969,4.952406134033203,4.146757275390625,5.519083969465649,-25.267175572519083,12.526717557251908
6241801807304,1.514874322,1,1.0007762939453124,5.039794494628906,4.078522528076172,2.4732824427480917,-10.51908396946565,14.221374045801527
6241806801731,1.519868749,1,0.6811503723144531,4.796783026123046,4.174290594482422,7.6183206106870225,10.778625954198473,11.67175572519084
6241811796784,1.524863802,1,0.48123453369140623,4.563348364257812,5.035006091308594,22.549618320610687,34.16793893129771,6.282442748091603
6241816797929,1.529864947,1,0.5267243652343749,4.44962378540039,5.944802722167968,36.93893129770992,49.79389312977099,1.2748091603053435
6241821805065,1.534872083,1,0.8499415893554687,4.69263525390625,7.012616662597656,36.20610687022901,49.31297709923664,1.5190839694656488
6241826803763,1.539870781,1,1.7238251953125,4.838681555175781,7.601590270996093,34.282442748091604,50.06870229007634,12.427480916030534
6241831797825,1.544864843,1,1.4604630126953124,4.529829541015625,8.543708624267577,39.916030534351144,22.65648854961832,1.900763358778626
6241836799544,1.549866562,1,1.3491326354980469,4.936843823242187,8.428786944580077,15.770992366412214,5.793893129770993,4.114503816793893
6241841799231,1.554866249,1,1.2318167541503906,4.867411975097656,8.458714465332031,-13.877862595419847,-12.954198473282442,1.251908396946565
6241846799179,1.559866197,1,1.4281412902832031,4.964377142333984,7.8158713195800775,-30.81679389312977,-30.702290076335878,-4.312977099236641
6241851797617,1.564864635,1,1.4137760803222656,5.462371087646484,6.884526873779296,-42.93129770992366,-42.41984732824427,-5.129770992366412
6241856800273,1.569867291,1,1.2773065856933592,5.9950809570312495,5.40730444946289,-53.82442748091603,-47.93129770992366,-6.137404580152672
6241861798659,1.574865677,1,1.0307038146972656,6.537367633056641,4.158728283691406,-61.770992366412216,-33.86259541984733,-8.17557251908397
6241866798815,1.579865833,1,0.5901707092285156,6.835445739746094,3.6427778259277344,-65.61832061068702,-15.17557251908397,-15.51908396946565
6241871796367,1.584863385,1,0.39863457641601563,7.388506323242187,2.967612957763672,-70.29770992366412,8.557251908396946,-6.969465648854962
6241876799440,1.589866458,1,0.15442600708007811,7.583633758544922,3.0980969482421874,-54.42748091603053,39.44274809160305,4.595419847328245
6241881798867,1.594865885,1,-0.011971008300781249,7.5716627502441405,3.785232824707031,-13.366412213740459,71.12977099236642,17.18320610687023
6241886798867,1.599865885,1,-0.005985504150390624,7.547720733642578,4.582501977539062,31.290076335877863,94.66412213740458,31.595419847328245
6241891797513,1.604864531,1,0.23822306518554687,7.465120776367187,5.216965417480468,56.86259541984733,109.08396946564885,46.35114503816794
6241896798086,1.609865104,1,0.43933600463867184,7.275978845214843,6.354211206054687,60.18320610687023,104.25190839694656,63.20610687022901
6241901798971,1.614865989,1,0.4321533996582031,6.6271501953125,6.771999395751953,58.3206106870229,95.56488549618321,80.79389312977099
6241906800117,1.619867135,1,-0.033518823242187495,5.440823272705078,7.414842541503906,68.56488549618321,98.27480916030534,82.42748091603053
6241911797252,1.62486427,1,-0.7350199096679687,4.673481640625,7.975085729980468,75.54198473282443,103.3206106870229,72.44274809160305
6241916799440,1.629866458,1,-0.7625532287597656,4.410119458007812,9.228450299072264,61.57251908396947,104.9618320610687,61.14503816793893
6241921799909,1.634866927,1,-0.5638344909667968,4.357447021484375,9.598354455566406,31.244274809160306,88.79389312977099,49.32824427480916
6241926799752,1.63986677,1,-0.18315642700195311,4.559757061767578,9.83178911743164,-4.183206106870229,66.47328244274809,40.67175572519084
6241931797513,1.644864531,1,-0.2537853759765625,4.612429498291015,9.883264453125,-27.893129770992367,41.13740458015267,38.86259541984733
6241936798763,1.649865781,1,-0.4656722229003906,4.550180255126953,9.90122096557617,-27.091603053435115,26.0,36.44274809160305
6241941798815,1.654865833,1,-0.9720458740234375,4.359841223144531,9.849745629882811,-8.351145038167939,21.33587786259542,34.29007633587786
6241946797461,1.659864479,1,-1.1528080993652343,4.2700586608886715,9.951499200439452,11.183206106870228,20.61832061068702,29.053435114503817
6241951797565,1.664864583,1,-0.9995791931152344,4.3813890380859375,10.290278735351562,18.435114503816795,18.061068702290076,25.53435114503817
6241956799856,1.669866874,1,-0.8032546569824218,4.3251252990722655,10.432733734130858,16.045801526717558,7.106870229007634,22.061068702290076
6241961799492,1.67486651,1,-0.42377369384765623,4.255693450927734,10.49498297729492,12.740458015267176,-6.908396946564886,20.412213740458014
6241966798815,1.679865833,1,-0.14006079711914063,3.9420530334472654,10.184933862304687,14.145038167938932,-30.53435114503817,18.755725190839694
6241971796367,1.684863385,1,-0.06823474731445311,3.6056677001953124,9.732429748535155,15.351145038167939,-49.79389312977099,16.6793893129771
6241976799283,1.689866301,1,-0.5710170959472656,3.451241693115234,9.108740216064453,11.068702290076336,-66.89312977099236,13.755725190839694
6241981799596,1.694866614,1,-0.3902548706054687,3.3351229125976563,8.681375219726561,6.0,-69.19847328244275,0.20610687022900764
6241986800273,1.699867291,1,-0.2885013000488281,3.314772198486328,8.201337786865233,-3.404580152671756,-78.17557251908397,-13.389312977099237
6241991797408,1.704864426,1,0.14125789794921875,3.7134067749023436,7.684190228271484,-18.14503816793893,-81.9618320610687,-21.83969465648855
6241996798450,1.709865468,1,0.6212953308105469,3.921702319335937,7.024587670898437,-29.0381679389313,-93.19847328244275,-33.267175572519086
6242001941419,1.715008437,1,1.1863269226074218,4.410119458007812,6.197390997314453,-43.55725190839695,-104.14503816793894,-40.49618320610687
6242006796106,1.719863124,1,1.5310919616699217,5.023035083007812,5.249287139892578,-64.26717557251908,-117.2442748091603,-42.68702290076336
6242011796575,1.724863593,1,1.543062969970703,6.003460662841796,4.50109912109375,-81.77862595419847,-119.52671755725191,-42.05343511450382
6242016807200,1.729874218,1,1.199495031738281,6.003460662841796,3.784035723876953,-84.33587786259542,-109.56488549618321,-41.12977099236641
6242021801315,1.734868333,1,0.852335791015625,6.514622717285156,3.27526787109375,-73.90839694656489,-90.81679389312977,-40.16793893129771
6242026798867,1.739865885,1,0.843956085205078,7.156268762207031,3.2441432495117186,-58.14503816793893,-62.152671755725194,-33.05343511450382
6242031796783,1.744863801,1,0.8738836059570312,7.607575775146484,3.2788591735839843,-37.3206106870229,-37.7557251908397,-21.251908396946565
6242036799596,1.749866614,1,1.2928688964843749,7.748833673095703,3.5338416503906247,-8.297709923664122,-16.076335877862597,-2.0
6242041800273,1.754867291,1,1.7956512451171873,7.357381701660156,3.7816415222167965,25.221374045801525,-2.480916030534351,11.900763358778626
6242046799804,1.759866822,1,1.6208745239257811,7.128735443115234,4.055777612304687,39.083969465648856,6.633587786259542,29.96946564885496
6242051798502,1.76486552,1,1.2054805358886718,6.415263348388671,4.3801919372558595,44.06106870229008,19.595419847328245,33.93129770992366
6242056797773,1.769864791,1,1.0486603271484374,5.7125651611328125,4.873397479248046,41.29007633587786,35.55725190839695,33.62595419847328
6242061801471,1.774868489,1,0.8056488586425781,5.443217474365234,5.534197137451171,35.80916030534351,51.14503816793893,30.450381679389313
6242066797981,1.779864999,1,0.8930372192382812,4.990713360595703,6.358999609374999,35.62595419847328,61.93129770992366,27.717557251908396
6242071797825,1.784864843,1,0.8499415893554687,4.619612103271484,7.097610821533203,39.64885496183206,67.98473282442748,23.984732824427482
6242076799440,1.789866458,1,0.9313444458007812,4.678270043945313,7.784746697998046,39.19847328244275,67.01526717557252,19.221374045801525
6242081799700,1.794866718,1,0.7649474304199219,4.85184966430664,8.254010223388672,26.519083969465647,58.42748091603053,13.969465648854962
6242086799544,1.799866562,1,0.5997475158691405,5.143942266845703,8.611943371582031,4.244274809160306,49.79389312977099,8.351145038167939
6242091800377,1.804867395,1,0.3447650390625,5.635950708007812,8.755595471191405,-20.801526717557252,32.85496183206107,2.8244274809160306
6242096801575,1.809868593,1,0.09576806640624999,6.223727215576171,8.607154968261717,-46.038167938931295,15.740458015267176,-0.7175572519083969
6242101799336,1.814866354,1,-0.43574470214843747,7.311891870117187,8.081627703857421,-76.72519083969466,1.3511450381679388,-11.587786259541986
6242106800221,1.819867239,1,-0.6464344482421874,9.184157568359375,8.33780728149414,-124.7175572519084,-7.198473282442748,-12.610687022900763
6242111798294,1.824865312,1,-1.061828436279297,9.239224206542968,8.201337786865233,-128.3053435114504,-17.83969465648855,-42.61068702290076
6242116800638,1.829867656,1,-0.09935936889648436,8.028955267333984,7.691372833251953,-186.12977099236642,-95.31297709923665,-75.53435114503817
6242121799908,1.834866926,1,-1.2928688964843749,11.152191333007812,8.583212951660157,-250.13740458015266,-62.17557251908397,-20.17557251908397
6242126799700,1.839866718,1,-1.8567033874511718,10.357316381835936,7.32266577758789,-250.13740458015266,-110.09923664122137,-48.99236641221374
6242131797304,1.844864322,1,-1.4772224243164063,12.109871997070313,6.227318518066406,-250.13740458015266,-120.92366412213741,-38.68702290076336
6242136799961,1.849866979,1,-1.2797007873535156,13.666103076171874,5.6778492370605465,-250.13740458015266,-121.31297709923665,17.778625954198475
6242141798919,1.854865937,1,-1.2138602416992186,13.719972613525389,4.729745379638672,-250.13740458015266,-126.49618320610686,70.77862595419847
6242146799856,1.859866874,1,-1.0295067138671874,13.605050933837889,3.6583401367187496,-191.93893129770993,-112.53435114503817,124.27480916030534
6242151796419,1.864863437,1,0.08499415893554688,12.998120812988281,2.748543505859375,-110.76335877862596,-86.33587786259542,176.3587786259542
6242156799179,1.869866197,1,0.21428104858398436,12.437877624511717,2.091335150146484,-59.412213740458014,-68.04580152671755,241.3053435114504
6242161798554,1.874865572,1,0.08858546142578125,11.735179437255859,1.1480196960449218,-38.267175572519086,-50.534351145038165,250.12977099236642
6242166799075,1.879866093,1,0.8714894042968749,10.150217938232421,0.7398083129882812,-14.625954198473282,-25.610687022900763,250.12977099236642
6242171797044,1.884864062,1,1.1528080993652343,7.4411787597656245,0.9277531433105468,64.81679389312977,17.46564885496183,250.12977099236642
6242176800013,1.889867031,1,1.0761936462402344,3.4488474914550777,1.2126631408691406,212.1908396946565,68.87022900763358,250.12977099236642
6242181799127,1.894866145,1,0.5015852478027344,-0.45010991210937495,2.834734765625,250.12977099236642,154.00763358778627,250.12977099236642
6242186798554,1.899865572,1,-1.66636435546875,-6.927622503662109,4.514267230224609,250.12977099236642,236.04580152671755,250.12977099236642
6242191797408,1.904864426,1,-1.158793603515625,-9.03332286376953,6.2392895263671875,250.12977099236642,250.12977099236642,250.12977099236642
6242196799127,1.909866145,1,-0.1197100830078125,-10.903194360351561,9.111134417724609,250.12977099236642,250.12977099236642,250.12977099236642
6242201798294,1.914865312,1,0.12808978881835936,-12.181698046874999,11.891999645996092,215.3587786259542,250.12977099236642,250.12977099236642
6242206799700,1.919866718,1,1.0893617553710937,-12.542025396728516,14.314931726074217,134.54961832061068,250.12977099236642,197.1145038167939
6242211798033,1.924865051,1,1.9045874206542968,-11.744756243896484,16.226701751708983,84.2442748091603,250.12977099236642,99.16030534351145
6242216797617,1.929864635,1,2.816778253173828,-10.024522351074218,17.30888090209961,44.045801526717554,243.45038167938932,0.5419847328244275
6242221800638,1.934867656,1,3.068169427490234,-8.340201483154296,17.8619414855957,-22.6793893129771,166.94656488549617,-68.33587786259542
6242226799335,1.939866353,1,2.4193407775878906,-6.930016705322266,17.544709765624997,-95.20610687022901,75.61068702290076,-121.0381679389313
6242231800377,1.944867395,1,1.4305354919433593,-5.5258174316406246,16.64568704223633,-141.27480916030535,4.114503816793893,-165.50381679389312
6242236891106,1.949958124,1,0.4225765930175781,-3.365050433349609,15.07269655151367,-155.68702290076337,-53.20610687022901,-214.4732824427481
6242241804283,1.954871301,1,-0.9564835632324218,-0.9648632690429687,13.192051147460937,-176.99236641221373,-100.54198473282443,-250.13740458015266
6242246798867,1.959865885,1,-1.7190367919921874,0.3399766357421875,12.045228552246092,-206.51908396946564,-107.74809160305344,-250.13740458015266
6242251797877,1.964864895,1,-1.9991583862304687,1.2665326782226562,10.886434948730468,-185.45038167938932,-108.10687022900764,-250.13740458015266
6242256799700,1.969866718,1,-1.8064251525878905,3.034650604248047,9.751583361816406,-106.81679389312977,-112.58015267175573,-250.13740458015266
6242261797460,1.974864478,1,-2.2002713256835937,4.746504791259765,8.9255837890625,-49.29770992366412,-102.25954198473282,-250.13740458015266
6242266797565,1.979864583,1,-2.086546746826172,5.634753607177734,8.431181146240235,-37.221374045801525,-92.44274809160305,-250.13740458015266
6242271797356,1.984864374,1,-1.9979612854003905,6.270414147949219,7.752424975585937,-33.10687022900763,-95.38167938931298,-250.13740458015266
6242276799492,1.98986651,1,-1.610100616455078,6.715735656738281,7.325059979248047,-9.961832061068701,-87.12977099236642,-247.3587786259542
6242281799335,1.994866353,1,-1.388636962890625,7.053318090820312,7.085639813232421,28.435114503816795,-74.7175572519084,-223.35114503816794
6242286797773,1.999864791,1,-1.3634978454589843,7.456741070556641,6.647500909423828,67.9618320610687,-64.93893129770993,-203.54198473282443
6242291796419,2.004863437,1,-1.0139444030761717,8.122329132080077,6.074089611816406,86.73282442748092,-61.595419847328245,-194.54961832061068
6242296798346,2.009865364,1,-0.7960720520019531,8.546102825927735,5.9017070922851556,70.47328244274809,-59.717557251908396,-179.9083969465649
6242301799127,2.014866145,1,-0.7745242370605468,8.772354882812499,5.914875201416015,37.55725190839695,-49.93893129770992,-161.29007633587787
6242306799752,2.01986677,1,-0.9528922607421875,9.178172064208983,5.851428857421874,13.954198473282442,-44.9236641221374,-152.8320610687023
6242311796940,2.024863958,1,-1.024718310546875,9.143456140136719,6.368576416015625,2.786259541984733,-27.3206106870229,-133.89312977099237
6242316799804,2.029866822,1,-0.9732429748535155,8.566453540039062,7.156268762207031,21.091603053435115,-1.4427480916030535,-98.25190839694656
6242321798867,2.034865885,1,-0.9373299499511718,8.270769635009765,7.783549597167968,78.91603053435115,8.0,-72.29770992366412
6242326799544,2.039866562,1,-0.8559270935058593,7.827842327880859,8.294711651611328,132.16030534351145,18.114503816793892,-44.404580152671755
6242331796679,2.044863697,1,-0.4860229370117187,7.183802081298828,8.696937530517578,152.98473282442748,18.52671755725191,-20.282442748091604
6242336798763,2.049865781,1,-0.29568390502929687,6.56968935546875,8.814253411865234,147.58778625954199,3.3969465648854964,-5.106870229007634
6242341798971,2.054865989,1,0.21428104858398436,6.210559106445312,8.505401397705077,124.20610687022901,-18.282442748091604,-1.8702290076335877
6242346802565,2.059869583,1,0.027533319091796873,6.471527087402343,7.748833673095703,74.62595419847328,-53.76335877862596,-19.099236641221374
6242351798606,2.064865624,1,0.12808978881835936,6.265625744628906,7.232883215332031,-3.267175572519084,-72.02290076335878,-23.893129770992367
6242356798971,2.069865989,1,-0.1580173095703125,6.093243225097656,6.740874774169922,-53.6412213740458,-79.0381679389313,-29.229007633587788
6242361799335,2.074866353,1,-0.44412440795898434,6.2392895263671875,6.272808349609375,-54.54961832061068,-77.61832061068702,-34.47328244274809
6242366797981,2.079864999,1,-0.30406361083984373,6.169857678222656,5.925649108886718,-29.17557251908397,-62.54961832061068,-27.748091603053435
6242371797512,2.08486453,1,-0.143652099609375,6.2213330139160155,5.84783755493164,6.022900763358779,-46.2442748091603,-18.19083969465649
6242376798450,2.089865468,1,0.011971008300781249,6.076483813476562,5.904101293945312,30.045801526717558,-34.725190839694655,-5.969465648854962
6242381799700,2.094866718,1,0.5590460876464843,5.9208607055664055,6.133944653320312,47.12213740458015,-17.206106870229007,4.694656488549619
6242386799335,2.099866353,1,0.47644613037109373,6.0321910827636716,5.787982513427734,48.19083969465649,-26.38167938931298,2.1068702290076335
6242391797512,2.10486453,1,0.8643067993164062,5.911283898925781,5.735310076904296,16.885496183206108,-25.129770992366414,3.8473282442748094
6242396799440,2.109866458,1,0.9337386474609375,5.597643481445312,5.693411547851563,-16.068702290076335,-25.564885496183205,6.770992366412214
6242401799596,2.114866614,1,1.1073182678222655,5.202600207519531,5.7149593627929685,-20.14503816793893,-21.076335877862597,11.83969465648855
6242406798971,2.119865989,1,0.9720458740234375,5.032611889648437,5.5653217590332025,3.3969465648854964,-12.908396946564885,15.557251908396946
6242411796992,2.12486401,1,0.968454571533203,4.839878656005859,5.706579656982422,26.328244274809162,-0.816793893129771,19.16030534351145
6242416799231,2.129866249,1,1.0307038146972656,4.765658404541015,5.723339068603515,31.9618320610687,8.923664122137405,20.33587786259542
6242421799127,2.134866145,1,1.0187328063964842,4.5585599609375,5.951985327148437,22.66412213740458,15.564885496183207,20.6793893129771
6242426798606,2.139865624,1,1.0893617553710937,4.2688615600585935,6.212953308105468,13.099236641221374,19.374045801526716,21.068702290076335
6242431798085,2.144865103,1,1.0761936462402344,4.092887738037109,6.512228515625,13.274809160305344,21.442748091603054,20.00763358778626
6242436799179,2.149866197,1,1.1528080993652343,3.9264907226562498,6.788758807373046,18.251908396946565,23.946564885496183,19.015267175572518
6242441798502,2.15486552,1,0.8667010009765624,3.7433342956542965,6.97790073852539,21.633587786259543,25.6793893129771,18.099236641221374
6242446799179,2.159866197,1,0.8954314208984374,3.786429925537109,7.228094812011718,22.633587786259543,29.396946564885496,13.030534351145038
6242451796940,2.164863958,1,0.8487444885253905,3.8139632446289062,7.463923675537109,17.38167938931298,30.893129770992367,6.5038167938931295
6242456799127,2.169866145,1,0.9457096557617187,3.9133226135253905,7.781155395507812,7.305343511450381,30.3206106870229,1.6259541984732824
6242461798710,2.174865728,1,0.8032546569824218,4.045003704833984,7.902062579345703,-1.4351145038167938,22.48854961832061,-1.6030534351145038
6242466800794,2.179867812,1,0.40222587890625,4.10485874633789,8.015787158203125,-5.6183206106870225,18.519083969465647,-3.66412213740458
6242471796783,2.184863801,1,0.30047230834960936,4.29639487915039,8.110358123779296,-3.4885496183206106,15.282442748091603,-6.9465648854961835
6242476798346,2.189865364,1,0.25139117431640623,4.422090466308593,8.170213165283203,-1.1297709923664123,14.442748091603054,-9.961832061068701
6242481798606,2.194865624,1,0.2920926025390625,4.630386010742187,8.225279803466796,-0.9083969465648855,13.885496183206106,-11.549618320610687
6242486798762,2.19986578,1,0.4321533996582031,4.796783026123046,8.329427575683594,-1.7328244274809161,10.465648854961833,-12.641221374045802
6242491796679,2.204863697,1,-0.46806642456054687,4.632780212402343,8.645462194824217,-1.8091603053435115,6.778625954198473,-10.251908396946565
6242496799752,2.20986677,1,-0.6428431457519531,9.892841259765625,6.463147381591797,-52.06870229007634,-53.0,-99.91603053435115
6242501799023,2.214866041,1,-1.2342109558105467,8.528146313476562,8.43357534790039,-214.19847328244273,7.870229007633588,-37.725190839694655
6242506798710,2.219865728,1,-1.0402806213378906,9.121908325195312,8.910021478271483,-201.45801526717557,-9.694656488549619,-47.70229007633588
6242511797044,2.224864062,1,-1.291671795654297,11.990161914062499,7.5345526245117185,-118.74809160305344,-58.85496183206107,-88.22137404580153
6242516799440,2.229866458,1,-1.092953057861328,11.32577095336914,7.8912886718749995,-155.23664122137404,-37.10687022900763,-18.923664122137403
6242521798867,2.234865885,1,-0.24301146850585936,9.636661682128906,8.29351455078125,-136.70229007633588,-27.137404580152673,51.20610687022901
6242526800117,2.239867135,1,-0.5159504577636719,9.18655177001953,7.507019305419921,-5.312977099236641,-33.282442748091604,85.57251908396947
6242531797408,2.244864426,1,-0.5853823059082031,7.942764007568359,6.894103680419922,96.08396946564885,-26.610687022900763,135.6259541984733
6242536798762,2.24986578,1,-0.7266402038574218,6.236895324707031,6.833051538085937,131.29770992366412,-4.229007633587786,167.3206106870229
6242541798971,2.254865989,1,-0.4740519287109375,5.067327813720703,6.793547210693359,123.83969465648855,1.6259541984732824,170.4885496183206
6242546799231,2.259866249,1,0.17836802368164062,3.778050219726562,7.058106494140625,85.0,10.732824427480915,169.29007633587787
6242551796679,2.264863697,1,0.8870517150878906,2.5163059448242184,7.592013464355468,51.89312977099237,19.061068702290076,165.65648854961833
6242556798971,2.269865989,1,1.291671795654297,1.7274164978027342,7.538143927001952,50.00763358778626,14.13740458015267,155.0763358778626
6242561797304,2.274864322,1,1.5873557006835937,0.968454571533203,7.541735229492187,57.94656488549618,5.687022900763359,152.9083969465649
6242566800012,2.27986703,1,1.5059528442382812,0.7350199096679687,7.762001782226562,63.534351145038165,10.564885496183207,136.05343511450383
6242571796835,2.284863853,1,1.9500772521972656,0.08379705810546874,7.843404638671874,42.20610687022901,-0.22900763358778625,124.16030534351145
6242576799023,2.289866041,1,2.029085906982422,-0.6548141540527344,8.224082702636718,27.114503816793892,7.526717557251908,113.38167938931298
6242581799648,2.294866666,1,2.013523596191406,-0.7206546997070312,8.227674005126953,31.076335877862597,-1.9694656488549618,87.31297709923665
6242586798762,2.29986578,1,1.7381904052734374,-0.59376201171875,8.26837543334961,22.244274809160306,-5.969465648854962,61.595419847328245
6242591797304,2.304864322,1,1.5658078857421873,0.01915361328125,8.470685473632813,-7.564885496183206,-7.893129770992366,30.47328244274809
6242596799648,2.309866666,1,1.6328455322265625,0.689530078125,8.857349041748046,-46.541984732824424,-10.320610687022901,3.519083969465649
6242601799492,2.31486651,1,1.6136919189453125,1.5275006591796874,9.126696728515624,-73.31297709923665,-15.694656488549619,-17.557251908396946
6242606798554,2.319865572,1,1.2378022583007813,2.5450363647460934,9.381679205322266,-79.13740458015268,-21.14503816793893,-33.33587786259542
6242611796887,2.324863905,1,0.9241618408203125,3.7612908081054686,9.465476263427734,-77.53435114503817,-34.79389312977099,-43.23664122137404
6242616799179,2.329866197,1,0.8283937744140625,4.710591766357422,9.252392315673827,-82.77099236641222,-48.43511450381679,-46.80152671755725
6242621798085,2.334865103,1,0.354341845703125,5.617994195556641,9.139864837646483,-90.70229007633588,-58.94656488549618,-46.3587786259542
6242626800377,2.339867395,1,0.24061726684570311,6.434416961669921,8.917204083251953,-93.3206106870229,-70.99236641221374,-42.6793893129771
6242631796939,2.344863957,1,0.008379705810546874,7.038952880859375,8.760383874511719,-91.45038167938931,-73.61068702290076,-35.54961832061068
6242636798450,2.349865468,1,-0.1927332336425781,7.614758380126952,8.756792572021483,-82.33587786259542,-72.43511450381679,-25.870229007633586
6242641805742,2.35487276,1,0.26815058593749996,7.710526446533203,8.792705596923827,-66.76335877862596,-72.8473282442748,-7.67175572519084
6242646802304,2.359869322,1,1.227028350830078,7.577648254394531,8.635885388183594,-39.961832061068705,-76.12977099236642,11.17557251908397
6242651797096,2.364864114,1,2.1823148132324217,6.698976245117187,8.240842114257813,-10.641221374045802,-82.72519083969466,40.61832061068702
6242656800742,2.36986776,1,2.9759926635742184,5.33068999633789,7.467514978027343,28.49618320610687,-93.8854961832061,73.40458015267176
6242661800637,2.374867655,1,2.7736826232910157,3.9600095458984375,6.599616876220702,70.43511450381679,-110.61068702290076,97.48091603053435
6242666799752,2.37986677,1,1.7908628417968748,2.35589443359375,5.894524487304687,83.06870229007633,-117.2442748091603,106.91603053435115
6242671797669,2.384864687,1,1.446097802734375,0.9648632690429687,5.749675286865234,65.29770992366412,-103.92366412213741,101.80152671755725
6242676799387,2.389866405,1,1.9788076721191405,-0.076614453125,6.123170745849609,40.25190839694657,-68.70229007633588,73.45038167938931
6242681799335,2.394866353,1,2.8993782104492185,-0.7625532287597656,6.97790073852539,23.72519083969466,-39.83969465648855,47.35114503816794
6242686799492,2.39986651,1,4.152742779541016,-0.622492431640625,7.268796240234375,20.946564885496183,-34.267175572519086,19.923664122137403
6242691797669,2.404864687,1,5.307945080566406,0.834379278564453,6.26921704711914,7.091603053435114,-62.17557251908397,-12.335877862595419
6242696798867,2.409865885,1,4.745307690429687,0.8092401611328125,5.754463690185546,-47.541984732824424,-80.69465648854961,-17.64885496183206
6242701799335,2.414866353,1,3.536235852050781,0.8667010009765624,5.17746109008789,-80.47328244274809,-88.29007633587786,-25.52671755725191
6242706799700,2.419866718,1,2.6994623718261717,1.675941162109375,4.507084625244141,-73.7175572519084,-82.19847328244275,-49.74045801526717
6242711797356,2.424864374,1,2.3487118286132813,2.5246856506347655,4.760870001220703,-66.76335877862596,-44.9236641221374,-65.25190839694656
6242716799335,2.429866353,1,2.474407415771484,3.8007951354980465,5.213374114990234,-56.786259541984734,-8.465648854961833,-82.54198473282443
6242721799908,2.434866926,1,2.740163800048828,4.873397479248046,5.914875201416015,-50.82442748091603,8.022900763358779,-88.05343511450381
6242726799439,2.439866457,1,2.616862414550781,5.892130285644531,6.455964776611328,-49.961832061068705,11.458015267175572,-82.36641221374046
6242731798085,2.444865103,1,2.1416133850097654,6.715735656738281,6.770802294921874,-52.16030534351145,4.587786259541985,-72.83969465648855
6242736798867,2.449865885,1,1.7369933044433592,7.287949853515625,6.845022546386718,-55.02290076335878,-2.4656488549618323,-58.55725190839695
6242741799492,2.45486651,1,1.4161702819824218,7.6231380859375,6.943184814453125,-50.83206106870229,-3.7557251908396947,-42.38167938931298
6242746799335,2.459866353,1,1.369483349609375,7.8350249328613275,6.898892083740234,-34.0763358778626,-0.9541984732824428,-24.229007633587788
6242751797408,2.464864426,1,1.6364368347167968,7.904456781005859,6.665457421875,-10.450381679389313,2.4198473282442747,-6.251908396946565
6242756799439,2.469866457,1,1.8602946899414061,7.5716627502441405,6.625953094482422,9.923664122137405,7.030534351145038,16.72519083969466
6242761799283,2.474866301,1,1.9488801513671874,7.171831072998047,6.405686541748047,26.198473282442748,7.251908396946565,36.02290076335878
6242766799335,2.479866353,1,2.021903302001953,6.398503936767578,6.372167718505859,34.36641221374046,9.908396946564885,54.00763358778626
6242771796939,2.484863957,1,2.2062568298339844,5.345055206298828,6.53138212890625,42.229007633587784,17.709923664122137,68.54198473282443
6242776799544,2.489866562,1,2.2278046447753903,3.997119671630859,6.880935571289062,59.89312977099237,28.213740458015266,79.98473282442748
6242781799127,2.494866145,1,2.3139959045410157,2.8203695556640622,7.337030987548828,83.87786259541984,36.61832061068702,83.73282442748092
6242786799804,2.499866822,1,2.6408044311523438,1.879448303222656,7.745242370605468,94.26717557251908,46.12977099236641,79.23664122137404
6242791797200,2.504864218,1,3.028665100097656,1.0857704528808594,8.197746484375,86.96946564885496,47.916030534351144,74.04580152671755
6242796799231,2.509866249,1,3.4620156005859375,1.218648645019531,7.879317663574218,67.83969465648855,32.37404580152672,53.38167938931298
6242801799908,2.514866926,1,3.69664736328125,0.7637503295898437,7.843404638671874,26.96946564885496,22.72519083969466,40.89312977099237
6242806799700,2.519866718,1,3.794809631347656,-0.09696516723632811,7.957129217529296,6.709923664122138,17.977099236641223,36.412213740458014
6242811798710,2.524865728,1,3.2130186279296873,-0.06105214233398437,7.6614453125,26.03053435114504,9.557251908396946,16.770992366412212
6242816801471,2.529868489,1,2.7904420349121093,0.2442085693359375,7.550114935302734,30.435114503816795,13.50381679389313,-4.358778625954199
6242821799544,2.534866562,1,2.634818927001953,0.7074865905761718,7.597998968505859,6.068702290076335,20.458015267175572,-24.572519083969464
6242826799179,2.539866197,1,2.710236279296875,1.3682862487792968,7.806294512939453,-24.091603053435115,19.244274809160306,-46.17557251908397
6242831797721,2.544864739,1,2.5534160705566404,1.9943699829101562,7.898471276855468,-41.68702290076336,15.061068702290076,-57.770992366412216
6242836799231,2.549866249,1,2.2864625854492187,2.7329811950683593,7.841010437011718,-41.74809160305343,6.0534351145038165,-67.87786259541984
6242841798971,2.554865989,1,2.003946789550781,3.3195606018066406,7.654262707519531,-37.961832061068705,2.068702290076336,-69.77862595419847
6242846801835,2.559868853,1,1.9416975463867185,3.8235400512695312,7.382520819091797,-32.6793893129771,-0.9465648854961832,-71.07633587786259
6242851797616,2.564864634,1,3.303998291015625,3.9312791259765625,6.961141326904296,-23.30534351145038,1.297709923664122,-66.70992366412214
6242856799283,2.569866301,1,3.805583538818359,3.8367081604003905,6.611587884521484,1.16793893129771,14.32824427480916,-61.41984732824427
6242861799804,2.574866822,1,2.999934680175781,3.821145849609375,5.965153436279296,28.80916030534351,-6.427480916030534,-47.66412213740458
6242866800012,2.57986703,1,1.9680337646484374,3.8845921936035155,5.4779333984375,29.64885496183206,-8.916030534351146,-47.93129770992366
6242871797304,2.584864322,1,1.5981296081542968,3.6858734558105466,5.293579870605469,3.145038167938931,7.412213740458015,-52.94656488549618
6242876798033,2.589865051,1,1.687912170410156,3.7050270690917966,5.461173986816406,-10.954198473282442,26.99236641221374,-61.68702290076336
6242881800481,2.594867499,1,2.2876596862792966,3.873818286132812,5.76523759765625,1.1755725190839694,45.66412213740458,-68.74809160305344
6242886798658,2.599865676,1,3.2632968627929686,3.883395092773437,5.829881042480468,26.114503816793892,59.36641221374046,-64.31297709923665
6242891797252,2.60486427,1,2.5450363647460934,3.5601778686523438,5.967547637939453,53.51145038167939,58.29770992366412,-50.61068702290076
6242896798606,2.609865624,1,1.3096283081054687,3.4584242980957027,5.88015927734375,72.22900763358778,54.969465648854964,-43.770992366412216
6242901798189,2.614865207,1,0.6165069274902344,3.907337109375,6.1447185607910155,69.34351145038168,71.31297709923665,-61.099236641221374
6242906800585,2.619867603,1,0.5853823059082031,4.320336895751953,6.909665991210937,38.25190839694657,92.58015267175573,-75.51908396946565
6242911797044,2.624864062,1,0.8978256225585937,4.801571429443359,7.821856823730468,12.061068702290076,102.64885496183206,-87.38931297709924
6242916799387,2.629866405,1,1.1145008728027344,5.378574029541015,8.47786807861328,5.870229007633588,99.7557251908397,-91.17557251908397
6242921798606,2.634865624,1,1.0187328063964842,5.704185455322265,9.064447485351561,12.053435114503817,90.3587786259542,-83.56488549618321
6242926799439,2.639866457,1,0.7074865905761718,5.895721588134765,9.145850341796875,24.893129770992367,76.97709923664122,-71.41984732824427
6242931803346,2.644870364,1,0.040701428222656245,6.030993981933594,9.332598071289063,36.61068702290076,66.00763358778626,-61.16793893129771
6242936800585,2.649867603,1,-0.21188684692382811,5.987898352050781,9.332598071289063,39.48854961832061,54.10687022900763,-51.82442748091603
6242941799283,2.654866301,1,-0.4165910888671875,6.132747552490234,9.34696328125,37.274809160305345,50.41984732824427,-49.282442748091604
6242946799491,2.659866509,1,-0.3184288208007812,6.278793853759765,9.44871685180664,29.66412213740458,43.38167938931298,-48.30534351145038
6242951797669,2.664864687,1,-0.14604630126953125,6.519411120605469,9.60194575805664,21.229007633587788,36.63358778625954,-44.404580152671755
6242956799335,2.669866353,1,-0.044292730712890624,6.611587884521484,9.56363853149414,16.519083969465647,21.290076335877863,-40.17557251908397
6242961799439,2.674866457,1,-0.016759411621093748,6.590040069580078,9.36013139038086,11.755725190839694,5.419847328244275,-31.68702290076336
6242966799908,2.679866926,1,0.0,6.5948284729003905,9.022548956298827,6.152671755725191,-11.030534351145038,-25.206106870229007
6242971797460,2.684864478,1,-0.005985504150390624,6.481103894042969,8.512584002685546,-2.7480916030534353,-23.931297709923665,-19.572519083969464
6242976799856,2.689866874,1,-0.02633621826171875,6.337451794433593,8.137891442871092,-8.381679389312977,-29.549618320610687,-13.122137404580153
6242981799075,2.694866093,1,0.21787235107421873,6.410474945068359,7.688978631591796,-8.755725190839694,-36.7557251908397,-12.412213740458014
6242986799231,2.699866249,1,0.4944026428222656,6.150704064941406,7.3861121215820305,-11.549618320610687,-34.63358778625954,-4.793893129770993
6242991797356,2.704864374,1,0.7386112121582031,5.894524487304687,7.0090253601074215,-6.114503816793893,-34.786259541984734,1.5572519083969465
6242996799439,2.709866457,1,0.7015010864257812,5.742492681884765,6.675034228515624,2.5267175572519083,-37.25190839694657,6.656488549618321
6243001798658,2.714865676,1,1.0809820495605469,5.232527728271484,6.247669232177734,6.0,-39.778625954198475,15.916030534351146
6243006799231,2.719866249,1,0.9540893615722655,5.1319712585449215,6.007051965332031,11.641221374045802,-27.290076335877863,13.038167938931299
6243011798294,2.724865312,1,0.9421183532714843,5.00507857055664,5.823895538330078,7.099236641221374,-23.03053435114504,11.412213740458014
6243016799648,2.729866666,1,1.341950030517578,4.581304876708984,5.829881042480468,-2.786259541984733,-19.595419847328245,17.885496183206108
6243021799335,2.734866353,1,1.3431471313476562,4.486733911132812,5.680243438720702,3.145038167938931,-12.580152671755725,14.86259541984733
6243026799439,2.739866457,1,1.581370196533203,4.4376527770996095,5.562927557373047,7.969465648854962,-7.458015267175573,11.687022900763358
6243031797043,2.744864061,1,1.5286977600097655,4.254496350097656,5.766434698486328,3.6793893129770994,3.381679389312977,12.351145038167939
6243036799543,2.749866561,1,1.5945383056640625,4.220977526855468,5.881356378173828,2.404580152671756,8.648854961832061,8.67175572519084
6243041800273,2.754867291,1,1.5394716674804687,4.179078997802734,6.129156249999999,0.8320610687022901,15.32824427480916,7.66412213740458
6243046799856,2.759866874,1,1.552639776611328,4.08570513305664,6.367379315185547,2.2519083969465647,21.740458015267176,5.854961832061068
6243051795481,2.764862499,1,1.7082628845214842,4.226963031005859,6.657077716064452,3.312977099236641,26.755725190839694,0.6641221374045801
6243056797981,2.769864999,1,1.5741875915527344,4.264073156738281,7.0640919982910155,-4.213740458015267,32.213740458015266,-1.1984732824427482
6243061799856,2.774866874,1,1.5179238525390624,4.2868180725097655,7.414842541503906,-8.16793893129771,33.47328244274809,0.2595419847328244
6243066798918,2.779865936,1,1.1839327209472656,4.3239281982421875,7.7787611938476555,0.3435114503816794,35.02290076335878,-0.4732824427480916
6243071797460,2.784864478,1,0.8655039001464844,4.4196962646484375,8.11514652709961,10.0,35.9236641221374,-1.0916030534351144
6243076800325,2.789867343,1,0.7362170104980469,4.412513659667969,8.365340600585936,12.053435114503817,34.954198473282446,-0.9389312977099237
6243081799491,2.794866509,1,0.59376201171875,4.490325213623047,8.540117321777343,9.312977099236642,29.763358778625953,-3.145038167938931
6243086799179,2.799866197,1,0.5530605834960938,4.595670086669921,8.684966522216797,-0.022900763358778626,24.282442748091604,-6.885496183206107
6243091797096,2.804864114,1,0.5494692810058593,4.565742565917969,8.792705596923827,-9.267175572519085,20.076335877862597,-7.0
6243096800116,2.809867134,1,0.6057330200195312,4.677072943115234,8.936357696533202,-7.519083969465649,13.335877862595419,-8.045801526717558
6243101799179,2.814866197,1,0.5470750793457031,4.674678741455078,8.846575134277343,-0.11450381679389313,8.48091603053435,-6.885496183206107
6243106799283,2.819866301,1,0.59376201171875,4.69263525390625,8.726865051269531,6.114503816793893,0.7175572519083969,-4.694656488549619
6243111797043,2.824864061,1,0.6643909606933593,4.666299035644531,8.444349255371094,6.282442748091603,-6.251908396946565,-3.984732824427481
6243116799543,2.829866561,1,0.7996633544921875,4.6351744140625,8.276755139160155,1.4045801526717556,-11.312977099236642,-4.603053435114504
6243121800221,2.834867239,1,0.7876923461914062,4.687846850585937,8.026561065673828,-4.625954198473282,-18.770992366412212,-6.694656488549619
6243126799856,2.839866874,1,0.8295908752441405,4.529829541015625,7.6470801025390625,-11.01526717557252,-26.213740458015266,-5.190839694656488
6243131794596,2.844861614,1,0.8415618835449218,4.471171600341797,7.237671618652343,-10.98473282442748,-28.33587786259542,-5.67175572519084
6243136800325,2.849867343,1,0.9433154541015625,4.479551306152343,6.9898717468261715,-5.679389312977099,-26.633587786259543,-6.091603053435114
6243141799908,2.854866926,1,1.1552023010253905,4.396951348876953,6.801926916503906,1.4198473282442747,-21.099236641221374,-5.99236641221374
6243146799752,2.85986677,1,1.2725181823730467,4.39216294555664,6.7037646484375,8.778625954198473,-14.083969465648854,-5.694656488549619
6243151797460,2.864864478,1,1.3850456604003905,4.455609289550781,6.714538555908203,14.16030534351145,-10.13740458015267,-6.870229007633588
6243156799491,2.869866509,1,1.3563152404785155,4.566939666748047,6.679822631835937,10.198473282442748,-7.0,-9.435114503816793
6243161799075,2.874866093,1,1.2222399475097656,4.511873028564453,6.749254479980468,0.31297709923664124,-3.366412213740458,-10.366412213740459
6243166797252,2.87986427,1,0.9085995300292968,4.6627077331542965,6.782773303222656,-3.7404580152671754,-2.816793893129771,-13.526717557251908
6243171798241,2.884865259,1,0.689530078125,4.791994622802734,6.904877587890625,-5.106870229007634,-0.2748091603053435,-13.885496183206106
6243176799752,2.88986677,1,0.6296750366210937,4.8506525634765625,7.076063006591797,-0.9541984732824428,4.534351145038168,-13.267175572519085
6243181798554,2.894865572,1,0.7924807495117187,4.826710546875,7.2723875427246085,9.045801526717558,8.725190839694656,-11.900763358778626
6243186800116,2.899867134,1,0.9193734375,4.910507604980468,7.375338214111328,21.083969465648856,12.969465648854962,-9.893129770992367
6243191797512,2.90486453,1,0.948103857421875,5.0206408813476555,7.3837179199218745,25.801526717557252,11.381679389312977,-10.702290076335878
6243196799283,2.909866301,1,1.0438719238281249,4.94761773071289,7.592013464355468,16.68702290076336,8.34351145038168,-8.183206106870228
6243201800012,2.91486703,1,0.7685387329101562,5.027823486328125,7.485471490478515,7.9465648854961835,2.6030534351145036,-8.022900763358779
6243206799075,2.919866093,1,0.5746083984375,4.880580084228515,7.588422161865234,4.114503816793893,-1.2366412213740459,-5.717557251908397
6243211797200,2.924864218,1,0.8463502868652343,4.940435125732422,7.495048297119141,8.0,1.251908396946565,-9.007633587786259
6243216799387,2.929866405,1,1.054645831298828,4.915296008300781,7.4770917846679685,10.221374045801527,0.6030534351145038,-7.656488549618321
6243221805950,2.934872968,1,1.1635820068359375,4.7943888244628905,7.382520819091797,12.648854961832061,-3.122137404580153,-3.030534351145038
6243226801418,2.939868436,1,0.9756371765136718,4.805162731933594,7.187393383789062,16.770992366412212,-9.48091603053435,-2.732824427480916
6243231797096,2.944864114,1,0.8702923034667969,4.611232397460937,7.077260107421875,12.740458015267176,-8.725190839694656,-2.1603053435114505
6243236799387,2.949866405,1,0.7900865478515624,4.642357019042969,6.988674645996094,8.702290076335878,-4.679389312977099,-6.427480916030534
6243241799648,2.954866666,1,0.843956085205078,4.7931917236328125,7.094019519042968,4.625954198473282,-2.66412213740458,-10.885496183206106
6243246799700,2.959866718,1,0.9528922607421875,4.857835168457031,6.9360022094726554,0.4351145038167939,-4.290076335877862,-11.13740458015267
6243251797877,2.964864895,1,0.7721300354003906,5.009866973876953,6.931213806152344,-0.46564885496183206,-4.809160305343512,-14.091603053435115
6243256800220,2.969867238,1,0.6907271789550781,5.0206408813476555,6.97790073852539,-5.267175572519084,-6.320610687022901,-13.34351145038168
6243261799543,2.974866561,1,0.6117185241699218,5.103240838623047,6.97790073852539,-8.465648854961833,-8.206106870229007,-14.183206106870228
6243266800012,2.97986703,1,0.5327098693847656,5.29238276977539,6.845022546386718,-10.076335877862595,-7.236641221374046,-16.6793893129771
6243271797773,2.984864791,1,0.6368576416015624,5.464765289306641,6.906074688720703,-13.549618320610687,-5.442748091603053,-17.366412213740457
6243276799804,2.989866822,1,0.7386112121582031,5.592855078125,6.937199310302734,-16.34351145038168,-4.2748091603053435,-16.984732824427482
6243281799908,2.994866926,1,0.7733271362304687,5.799953521728515,6.913257293701172,-17.778625954198475,-6.67175572519084,-15.282442748091603
6243286798814,2.999865832,1,0.7781155395507812,5.781997009277344,6.9527616210937495,-19.52671755725191,-6.870229007633588,-10.404580152671755
6243291797512,3.00486453,1,0.7589619262695312,5.686228942871093,6.9156514953613275,-15.67175572519084,-6.290076335877862,-4.458015267175573
6243296800689,3.009867707,1,0.6093243225097655,5.53539423828125,6.763619689941406,-7.229007633587786,-7.4961832061068705,0.9541984732824428
6243301799283,3.014866301,1,0.718260498046875,5.317521887207031,6.794744311523437,0.11450381679389313,-6.435114503816794,8.106870229007633
6243306797564,3.019864582,1,1.1073182678222655,5.121197351074218,6.664260321044922,7.465648854961832,-2.9770992366412212,9.022900763358779
6243311797095,3.024864113,1,1.291671795654297,5.073313317871094,6.453570574951171,3.5343511450381677,-5.534351145038168,9.48091603053435
6243316799075,3.029866093,1,1.3623007446289062,4.754884497070313,6.505045910644531,-10.274809160305344,-6.129770992366412,13.84732824427481
6243321799543,3.034866561,1,1.4832079284667967,4.4376527770996095,6.276399652099609,-13.427480916030534,-7.213740458015267,14.694656488549619
6243326798866,3.039865884,1,1.446097802734375,4.274847064208984,6.36498511352539,-5.641221374045801,-1.8244274809160306,15.183206106870228
6243331797252,3.04486427,1,1.5658078857421873,4.080916729736328,6.402095239257812,4.3816793893129775,3.572519083969466,15.641221374045802
6243336800116,3.049867134,1,1.7010802795410156,4.042609503173828,6.488286499023437,7.893129770992366,8.49618320610687,13.48091603053435
6243341798762,3.05486578,1,1.7992425476074219,3.861847277832031,6.731297967529296,2.3969465648854964,14.251908396946565,11.49618320610687
6243346799023,3.059866041,1,1.9416975463867185,3.718195178222656,6.842628344726562,-3.1297709923664123,13.061068702290076,10.358778625954198
6243351798085,3.064865103,1,2.090138049316406,3.3219548034667965,6.888118176269531,-4.015267175572519,12.534351145038167,12.992366412213741
6243356799595,3.069866613,1,1.4604630126953124,2.953247747802734,7.125144140624999,10.206106870229007,19.458015267175572,15.977099236641221
6243361800220,3.074867238,1,1.227028350830078,3.071760729980469,7.012616662597656,26.85496183206107,15.641221374045802,5.206106870229007
6243366798554,3.079865572,1,1.7956512451171873,3.0538042175292968,7.295132458496093,20.18320610687023,29.65648854961832,0.8854961832061069
6243371796679,3.084863697,1,1.675941162109375,2.759317413330078,7.614758380126952,16.763358778625953,30.572519083969464,-3.519083969465649
6243376798814,3.089865832,1,1.3826514587402343,3.106476654052734,7.588422161865234,22.106870229007633,24.419847328244273,-14.198473282442748
6243381798814,3.094865832,1,1.150413897705078,3.3446997192382812,7.709329345703124,10.221374045801527,22.099236641221374,-21.595419847328245
6243386799075,3.099866093,1,0.8080430603027343,3.3075895935058592,7.89727417602539,-4.267175572519084,21.19083969465649,-24.083969465648856
6243391799231,3.104866249,1,0.7589619262695312,3.5709517761230467,7.918821990966796,-1.5954198473282444,19.732824427480917,-33.038167938931295
6243396799127,3.109866145,1,0.6344634399414062,3.8654385803222655,8.185775476074218,6.259541984732825,27.412213740458014,-38.954198473282446
6243401800793,3.114867811,1,0.6512228515624999,4.295197778320312,8.394071020507813,11.725190839694656,27.51145038167939,-45.13740458015267
6243406799335,3.119866353,1,0.6727706665039062,4.484339709472656,8.609549169921875,9.404580152671755,24.236641221374047,-45.595419847328245
6243411796887,3.124863905,1,0.5099649536132812,4.76924970703125,8.468291271972657,8.86259541984733,13.755725190839694,-46.030534351145036
6243416799023,3.129866041,1,0.38786066894531246,5.033808990478516,8.378508709716796,6.32824427480916,8.32824427480916,-50.12213740458015
6243421799387,3.134866405,1,0.055066638183593745,5.2253451232910155,8.303091357421874,-1.3053435114503817,3.8702290076335877,-48.213740458015266
6243426800116,3.139867134,1,-0.27174188842773433,5.3953334411621094,8.396465222167969,-1.1145038167938932,2.5343511450381677,-47.87022900763359
6243431797043,3.144864061,1,-0.1592144104003906,5.7329158752441405,8.307879760742187,6.534351145038168,3.519083969465649,-50.12213740458015
6243436798814,3.149865832,1,0.031124621582031248,5.9376201171875,8.349778289794921,10.938931297709924,4.809160305343512,-48.152671755725194
6243441799127,3.154866145,1,0.23702596435546874,6.141127258300781,8.391676818847655,12.244274809160306,0.5572519083969466,-44.343511450381676
6243446799023,3.159866041,1,0.3507505432128906,6.266822845458984,8.12711753540039,7.877862595419847,-11.98473282442748,-39.786259541984734
6243451796731,3.164863749,1,0.37708676147460934,6.153098266601562,7.888894470214844,-2.404580152671756,-22.68702290076336,-31.66412213740458
6243456799648,3.169866666,1,0.26695348510742184,5.9962780578613275,7.6997525390625,-4.427480916030534,-26.83206106870229,-26.84732824427481
6243461799804,3.174866822,1,0.28371289672851563,6.011840368652344,7.275978845214843,1.083969465648855,-29.885496183206108,-23.83969465648855
6243466800064,3.179867082,1,0.3495534423828125,5.834669445800781,7.017405065917968,3.099236641221374,-31.03053435114504,-18.740458015267176
6243471797460,3.184864478,1,0.373495458984375,5.644330413818359,6.764816790771484,2.954198473282443,-29.938931297709924,-15.045801526717558
6243476799700,3.189866718,1,0.49320554199218747,5.541379742431641,6.4667386840820305,3.1297709923664123,-30.389312977099237,-13.061068702290076
6243481799283,3.194866301,1,0.55545478515625,5.414487054443359,6.276399652099609,1.6717557251908397,-30.00763358778626,-10.282442748091603
6243486799283,3.199866301,1,0.45010991210937495,5.287594366455078,6.0908490234374995,1.3893129770992367,-28.206106870229007,-8.83206106870229
6243491797929,3.204864947,1,0.4429273071289062,5.194220501708984,5.792770916748046,2.099236641221374,-25.18320610687023,-9.305343511450381
6243496799335,3.209866353,1,0.36272155151367186,5.121197351074218,5.735310076904296,1.5038167938931297,-18.374045801526716,-9.732824427480915
6243501799647,3.214866665,1,0.39863457641601563,5.127182855224609,5.755660791015624,1.5801526717557253,-11.259541984732824,-11.641221374045802
6243506798918,3.219865936,1,0.46686932373046874,5.23492192993164,5.846640454101562,0.9083969465648855,-3.145038167938931,-15.114503816793894
6243511803866,3.224870884,1,0.5770026000976562,5.42047255859375,6.133944653320312,-1.9236641221374047,4.99236641221374,-17.068702290076335
6243516801783,3.229868801,1,0.6679822631835937,5.516240625,6.30752427368164,-3.8091603053435112,8.610687022900763,-17.206106870229007
6243521800793,3.234867811,1,0.5638344909667968,5.6563014221191406,6.587645867919922,-3.5801526717557253,10.82442748091603,-16.213740458015266
6243526799908,3.239866926,1,0.5099649536132812,5.701791253662109,6.691793640136718,-3.1755725190839694,11.34351145038168,-14.312977099236642
6243531796939,3.244863957,1,0.26815058593749996,5.837063647460937,6.827066033935546,-3.4732824427480917,13.534351145038167,-12.763358778625955
6243536799700,3.249866718,1,0.229843359375,5.9208607055664055,6.969521032714844,-4.297709923664122,13.870229007633588,-10.633587786259541
6243541799127,3.254866145,1,0.10295067138671875,5.829881042480468,7.262810736083984,-3.0229007633587788,17.65648854961832,-7.442748091603053
6243546799960,3.259866978,1,0.21068974609375,5.872976672363281,7.319074475097656,3.5572519083969465,18.427480916030536,-4.961832061068702
6243551798293,3.264865311,1,0.4034229797363281,5.7843912109375,7.530961322021484,9.648854961832061,21.954198473282442,0.4198473282442748
6243556800950,3.269867968,1,0.4465186096191406,5.6778492370605465,7.657854010009765,15.366412213740459,18.404580152671755,5.4961832061068705
6243561798710,3.274865728,1,0.5099649536132812,5.579686968994141,7.624335186767578,16.129770992366414,13.19083969465649,8.244274809160306
6243566799075,3.279866093,1,0.5422866760253906,5.191826300048827,7.541735229492187,10.938931297709924,11.038167938931299,13.572519083969466
6243571796314,3.284863332,1,0.6955155822753906,4.938040924072265,7.559691741943359,12.618320610687023,8.022900763358779,17.076335877862597
6243576800064,3.289867082,1,0.8271966735839843,4.608838195800781,7.350199096679687,21.3206106870229,6.717557251908397,20.30534351145038
6243581798918,3.294865936,1,0.8834604125976562,4.29639487915039,7.260416534423828,30.412213740458014,7.145038167938932,22.213740458015266
6243586799752,3.29986677,1,1.0402806213378906,4.076128326416016,7.195773089599609,34.603053435114504,7.5038167938931295,22.0
6243591796835,3.304863853,1,1.158793603515625,3.778050219726562,6.993463049316406,33.06106870229008,7.374045801526718,20.206106870229007
6243596799700,3.309866718,1,1.1180921752929687,3.518279339599609,7.022193469238281,28.68702290076336,5.343511450381679,16.290076335877863
6243601798814,3.314865832,1,1.4939818359375,3.399766357421875,6.813897924804687,22.6793893129771,4.358778625954199,10.526717557251908
6243606798450,3.319865468,1,1.2904746948242187,3.6188358093261717,6.846219647216796,12.786259541984732,7.038167938931298,-2.122137404580153
6243611797095,3.324864113,1,1.313219610595703,3.6056677001953124,6.788758807373046,-6.740458015267175,2.3969465648854964,-6.549618320610687
6243616800116,3.329867134,1,1.0175357055664063,3.5098996337890624,6.927622503662109,-14.465648854961833,5.374045801526718,-10.15267175572519
6243621799700,3.334866718,1,0.7386112121582031,3.801992236328125,6.945579016113281,-3.2213740458015265,5.221374045801527,-17.84732824427481
6243626798814,3.339865832,1,0.4082113830566406,4.067748620605468,7.077260107421875,3.564885496183206,10.633587786259541,-22.748091603053435
6243631797668,3.344864686,1,0.3854664672851562,4.3801919372558595,7.315483172607421,1.0687022900763359,14.236641221374045,-28.946564885496183
6243636800012,3.34986703,1,0.49799394531249996,4.656722229003906,7.3274541809082026,-5.267175572519084,9.725190839694656,-31.19083969465649
6243641798970,3.354865988,1,0.14963760375976562,5.045779998779296,7.430404852294921,-11.86259541984733,3.2061068702290076,-37.32824427480916
6243646797356,3.359864374,1,-0.11133037719726561,5.2073886108398435,7.398083129882812,-22.35114503816794,1.9923664122137406,-37.33587786259542
6243651797512,3.36486453,1,-0.2693476867675781,5.404910247802734,7.501033801269531,-20.885496183206108,1.3282442748091603,-37.48091603053435
6243656798710,3.369865728,1,-0.258573779296875,5.534197137451171,7.447164263916015,-7.770992366412214,1.9389312977099236,-36.89312977099237
6243661799752,3.37486677,1,-0.26815058593749996,5.791573815917968,7.538143927001952,5.396946564885496,7.6183206106870225,-37.229007633587784
6243666799179,3.379866197,1,-0.09457096557617187,5.9771244445800775,7.70573804321289,8.0,9.549618320610687,-36.42748091603053
6243671797095,3.384864113,1,-0.062249243164062495,6.13514175415039,7.770381488037109,2.0916030534351147,6.656488549618321,-34.44274809160305
6243676799335,3.389866353,1,-0.10773907470703124,6.26921704711914,7.81467421875,-4.442748091603053,0.8015267175572519,-31.900763358778626
6243681800272,3.39486729,1,-0.27174188842773433,6.217741711425781,7.738059765625,-7.343511450381679,-5.244274809160306,-28.00763358778626
6243686799022,3.39986604,1,-0.3699041564941406,6.235698223876953,7.618349682617187,-5.229007633587786,-9.641221374045802,-23.374045801526716
6243691797095,3.404864113,1,-0.5099649536132812,6.084863519287109,7.486668591308593,0.6183206106870229,-10.122137404580153,-18.00763358778626
6243696798606,3.409865624,1,-0.3136404174804687,5.9974751586914055,7.4208280456542965,9.442748091603054,-8.740458015267176,-13.412213740458014
6243701799074,3.414866092,1,0.009576806640625,5.94360562133789,7.335833886718749,17.244274809160306,-5.519083969465649,-11.320610687022901
6243706799335,3.419866353,1,0.2932897033691406,5.88015927734375,7.375338214111328,17.633587786259543,-5.190839694656488,-8.793893129770993
6243711796991,3.424864009,1,0.5123591552734374,5.759252093505859,7.2532339294433585,12.885496183206106,-9.122137404580153,-4.442748091603053
6243716799856,3.429866874,1,0.5255272644042969,5.533000036621093,7.050923889160156,9.48091603053435,-15.282442748091603,-0.03816793893129771
6243721799231,3.434866249,1,0.5039794494628906,5.23492192993164,6.7839704040527335,10.022900763358779,-19.0381679389313,4.755725190839694
6243726799439,3.439866457,1,0.5099649536132812,5.061342309570312,6.5206082214355465,14.732824427480915,-18.96946564885496,6.114503816793893
6243731797095,3.444864113,1,0.7230489013671875,4.8686090759277345,6.386532928466797,18.38167938931298,-14.17557251908397,6.183206106870229
6243736799908,3.449866926,1,0.6763619689941406,4.8889597900390624,6.399701037597656,18.442748091603054,-6.190839694656488,2.2519083969465647
6243741799543,3.454866561,1,0.834379278564453,4.556165759277343,6.209362005615234,15.893129770992367,-7.8396946564885495,6.473282442748092
6243746800481,3.459867499,1,0.6380547424316406,4.523844036865234,6.063315704345703,19.770992366412212,-10.755725190839694,2.984732824427481
6243751796574,3.464863592,1,0.6081272216796875,4.647145422363281,5.8083332275390624,12.908396946564885,-12.030534351145038,-2.5419847328244276
6243756796835,3.469863853,1,0.42018239135742186,4.351461517333984,5.965153436279296,-1.816793893129771,-2.450381679389313,-2.7709923664122136
6243761801418,3.474868436,1,0.47884033203125,4.624400506591797,6.11598814086914,-0.11450381679389313,3.366412213740458,-12.076335877862595
6243766800377,3.479867395,1,0.6931213806152343,4.866214874267578,6.155492468261718,-0.7175572519083969,6.641221374045801,-18.16793893129771
6243771796522,3.48486354,1,0.7158662963867187,5.04338579711914,6.414066247558593,-13.038167938931299,8.526717557251908,-19.717557251908396
6243776799752,3.48986677,1,0.47644613037109373,5.276820458984375,6.526593725585937,-22.480916030534353,5.893129770992366,-22.061068702290076
6243781799595,3.494866613,1,0.25258827514648435,5.31153638305664,6.543353137207031,-22.946564885496183,7.656488549618321,-20.14503816793893
6243786799179,3.499866197,1,0.07900865478515624,5.505466717529297,6.700173345947265,-10.67175572519084,12.022900763358779,-19.908396946564885
6243791797824,3.504864842,1,0.022744915771484374,5.72693037109375,6.872555865478515,1.3053435114503817,17.419847328244273,-20.51145038167939
6243796799283,3.509866301,1,0.06464344482421874,5.928043310546875,7.100005023193359,1.3587786259541985,20.091603053435115,-19.793893129770993
6243801801470,3.514868488,1,0.15682020874023436,6.092046124267577,7.308300567626953,-7.2748091603053435,18.374045801526716,-19.114503816793892
6243806802043,3.519869061,1,0.037110125732421874,6.0896519226074215,7.340622290039062,-15.885496183206106,14.961832061068701,-16.282442748091604
6243811798449,3.524865467,1,-0.00239420166015625,6.072892510986327,7.4962453979492185,-15.770992366412214,12.778625954198473,-11.65648854961832
6243816799647,3.529866665,1,-0.09696516723632811,6.060921502685546,7.5165961120605465,-5.984732824427481,11.580152671755725,-6.580152671755725
6243821799335,3.534866353,1,-0.076614453125,5.9950809570312495,7.602787371826172,5.022900763358779,12.48091603053435,-1.900763358778626
6243826799439,3.539866457,1,0.001197100830078125,5.874173773193359,7.560888842773437,10.931297709923664,14.01526717557252,3.0229007633587788
6243831796418,3.544863436,1,-0.10414777221679687,5.758054992675781,7.645883001708984,14.091603053435115,13.030534351145038,4.8320610687022905
6243836798814,3.549865832,1,-0.14125789794921875,5.872976672363281,7.538143927001952,8.129770992366412,5.5038167938931295,2.0
6243841800064,3.554867082,1,-0.1592144104003906,5.562927557373047,7.570465649414062,-7.534351145038168,2.984732824427481,7.030534351145038
6243846798814,3.559865832,1,-0.26695348510742184,5.534197137451171,7.451952667236328,-9.16793893129771,-1.83206106870229,3.9236641221374047
6243851797095,3.564864113,1,-0.2501940734863281,5.474342095947265,7.411251239013671,-7.557251908396947,-2.519083969465649,3.6946564885496183
6243856815897,3.569882915,1,-0.016759411621093748,5.3761798278808595,7.390900524902343,-6.480916030534351,0.22137404580152673,5.198473282442748
6243861814387,3.574881405,1,0.143652099609375,5.313930584716797,7.428010650634765,-1.6870229007633588,-1.0534351145038168,5.694656488549619
6243866807043,3.579874061,1,0.6069301208496093,5.164292980957031,6.9898717468261715,0.25190839694656486,-5.534351145038168,7.1603053435114505
6243871813606,3.584880624,1,0.7398083129882812,5.1152118469238275,6.734889270019531,-6.541984732824427,-10.129770992366412,4.32824427480916
6243876814231,3.589881249,1,0.8451531860351562,4.939238024902344,6.399701037597656,-22.778625954198475,-15.0,5.816793893129771
6243881813554,3.594880572,1,0.6536170532226562,4.6459483215332025,6.179434484863281,-31.51145038167939,-19.87786259541985,4.816793893129771
6243886811002,3.59987802,1,0.7326257080078125,4.604049792480469,5.647921716308593,-29.885496183206108,-20.778625954198475,-2.877862595419847
6243891811054,3.604878072,1,0.4572925170898437,4.820725042724609,5.572504364013671,-39.778625954198475,-18.18320610687023,-11.977099236641221
6243896815012,3.60988203,1,0.7661445312499999,4.844667059326172,5.528211633300781,-61.74809160305343,-8.045801526717558,-11.297709923664122
6243901812720,3.614879738,1,0.8822633117675781,4.611232397460937,5.864596966552734,-60.908396946564885,8.030534351145038,-9.732824427480915
6243906812929,3.619879947,1,0.8906430175781249,4.565742565917969,6.15429536743164,-27.244274809160306,19.328244274809162,-4.893129770992366
6243911810116,3.624877134,1,0.8774749084472656,4.839878656005859,6.205770703124999,9.778625954198473,25.916030534351144,-3.2900763358778624
6243916813189,3.629880207,1,0.36631285400390623,4.7189714721679685,6.801926916503906,18.358778625954198,43.93129770992366,3.2442748091603053
6243921813554,3.634880572,1,0.21308394775390624,4.894945294189453,7.128735443115234,14.98473282442748,44.786259541984734,-2.595419847328244
6243926811106,3.639878124,1,0.2861070983886719,4.905719201660156,7.503428002929687,0.7633587786259542,44.030534351145036,-6.206106870229007
6243931810324,3.644877342,1,0.24779987182617186,4.878185882568359,8.052897283935547,-13.083969465648854,44.30534351145038,-6.206106870229007
6243936814699,3.649881717,1,0.23343466186523437,5.027823486328125,8.062474090576172,-14.305343511450381,34.30534351145038,-9.557251908396946
6243941814751,3.654881769,1,0.35314474487304687,4.997895965576172,8.143876947021484,-18.17557251908397,28.129770992366414,-7.877862595419847
6243946810897,3.659877915,1,0.17238251953125,4.924872814941406,8.155847955322265,-23.633587786259543,24.549618320610687,-6.480916030534351
6243951809960,3.664876978,1,-0.029927520751953124,4.7943888244628905,8.06965669555664,-27.14503816793893,14.603053435114504,-4.145038167938932
6243956814387,3.669881405,1,-0.20949264526367187,4.748898992919922,7.869740856933594,-30.862595419847327,8.458015267175572,-5.458015267175573
6243961814856,3.674881874,1,-0.33518823242187495,4.7369279846191406,7.80150610961914,-37.05343511450382,8.045801526717558,-8.297709923664122
6243966811210,3.679878228,1,-0.2825157958984375,4.667496136474609,7.7799582946777335,-41.31297709923664,8.549618320610687,-8.145038167938932
6243971809960,3.684876978,1,-0.2705447875976562,4.632780212402343,7.711723547363281,-36.23664122137404,8.465648854961833,-8.389312977099237
6243976812408,3.689879426,1,-0.2597708801269531,4.638765716552734,7.669825018310546,-29.251908396946565,5.572519083969466,-8.793893129770993
6243981814960,3.694881978,1,0.5961562133789062,4.709394665527343,7.655459808349609,-28.519083969465647,6.595419847328245,-8.51908396946565
6243986810481,3.699877499,1,0.3555389465332031,4.633977313232422,7.781155395507812,-27.85496183206107,9.770992366412214,-9.351145038167939
6243991810741,3.704877759,1,0.2609679809570312,4.516661431884765,7.110778930664062,-27.85496183206107,-16.770992366412212,-5.145038167938932
6243996812929,3.709879947,1,0.8798691101074219,4.271255761718749,6.477512591552734,-37.00763358778626,-22.282442748091604,-5.206106870229007
6244001814699,3.714881717,1,0.51714755859375,4.3071687866210935,6.495469104003906,-43.595419847328245,-7.633587786259542,-17.786259541984734
6244006823970,3.719890988,1,0.7038952880859375,4.410119458007812,5.929240411376953,-48.54961832061068,-13.206106870229007,-24.27480916030534
6244011838241,3.724905259,1,0.49200844116210934,4.356249920654297,5.522226129150391,-60.61068702290076,-22.984732824427482,-22.389312977099237
6244016821054,3.729888072,1,0.06464344482421874,4.158728283691406,5.267243652343749,-65.38167938931298,-18.198473282442748,-23.061068702290076
6244021815012,3.73488203,1,-0.967257470703125,4.222174627685547,4.856638067626953,-57.2442748091603,-23.068702290076335,-25.83206106870229
6244026812147,3.739879165,1,-0.4070142822265625,4.687846850585937,4.387374542236328,-57.656488549618324,-13.076335877862595,-37.06870229007634
6244031810585,3.744877603,1,0.33758243408203126,4.791994622802734,4.935646722412109,-73.47328244274809,24.480916030534353,-40.45038167938932
6244036814647,3.749881665,1,0.42018239135742186,5.294776971435547,5.590460876464843,-74.53435114503817,36.70229007633588,-43.56488549618321
6244041810481,3.754877499,1,1.0295067138671874,5.598840582275391,5.5653217590332025,-80.36641221374046,27.053435114503817,-41.32824427480916
6244046811939,3.759878957,1,0.2154781494140625,5.499481213378906,5.68862314453125,-92.8854961832061,26.022900763358777,-29.85496183206107
6244051811679,3.764878697,1,-0.35194764404296874,5.255272644042968,5.555744952392578,-83.0381679389313,21.580152671755727,-12.145038167938932
6244056813137,3.769880155,1,-0.8966285217285156,5.108029241943359,5.68862314453125,-49.274809160305345,42.38931297709924,-3.053435114503817
6244061811210,3.774878228,1,-0.8655039001464844,5.149927770996094,5.9962780578613275,-16.48854961832061,71.3587786259542,1.0687022900763359
6244066812251,3.779879269,1,-1.7334020019531249,5.0385973937988275,6.720524060058593,-0.7938931297709924,85.65648854961832,11.549618320610687
6244071812356,3.784879374,1,-1.6268600280761718,5.006275671386718,6.870161663818359,3.435114503816794,77.3206106870229,25.366412213740457
6244076812929,3.789879947,1,-1.2342109558105467,4.704606262207031,7.463923675537109,6.00763358778626,96.46564885496183,29.64885496183206
6244081813137,3.794880155,1,-0.833182177734375,4.612429498291015,8.182184173583984,18.83969465648855,114.26717557251908,28.87786259541985
6244086817304,3.799884322,1,-0.9062053283691406,4.912901806640625,8.787917193603516,33.51908396946565,116.89312977099236,23.580152671755727
6244091813033,3.804880051,1,-0.8678981018066406,4.898536596679687,9.125499627685546,31.31297709923664,109.22900763358778,29.96946564885496
6244096813918,3.809880936,1,-1.2234370483398436,4.672284539794922,9.170989459228515,24.259541984732824,89.67175572519083,37.603053435114504
6244101813137,3.814880155,1,-1.6328455322265625,4.586093280029297,9.054870678710937,18.27480916030534,71.6412213740458,40.25190839694657
6244106811470,3.819878488,1,-1.3946224670410154,4.106055847167968,9.05367357788086,10.13740458015267,70.86259541984732,44.06106870229008
6244111810741,3.824877759,1,-1.6244658264160154,3.8367081604003905,9.320627062988281,18.015267175572518,77.8854961832061,42.847328244274806
6244116813762,3.82988078,1,-1.5203180541992187,3.833116857910156,9.343371978759764,32.969465648854964,72.12213740458016,36.396946564885496
6244121813293,3.834880311,1,-1.1240776794433593,3.422511273193359,9.491812481689452,30.66412213740458,70.72519083969466,36.76335877862596
6244126812408,3.839879426,1,-0.9900023864746094,3.2716765686035156,9.69771382446289,25.106870229007633,61.9236641221374,31.18320610687023
6244131811783,3.844878801,1,-1.5753846923828123,3.374627239990234,9.677363110351562,12.15267175572519,44.14503816793893,21.34351145038168
6244136813970,3.849880988,1,-1.5765817932128905,2.7162217834472653,9.289502441406249,-12.946564885496183,16.129770992366414,27.19083969465649
6244141813189,3.854880207,1,-1.3048399047851562,2.4971523315429685,8.80347950439453,-21.198473282442748,6.396946564885496,16.458015267175572
6244146809751,3.859876769,1,-1.0809820495605469,2.483984222412109,8.500612994384765,-32.38931297709924,0.04580152671755725,-0.1297709923664122
6244151811314,3.864878332,1,-0.8918401184082031,2.597708801269531,8.334215979003906,-52.770992366412216,-5.587786259541985,-9.351145038167939
6244156811574,3.869878592,1,-0.8511386901855468,2.4779987182617185,8.495824591064453,-58.48091603053435,0.40458015267175573,-13.091603053435115
6244161816366,3.874883384,1,-0.8319850769042968,2.883815899658203,8.672995513916016,-36.25954198473283,0.2748091603053435,-20.84732824427481
6244166811887,3.879878905,1,-0.8990227233886718,3.4775779113769527,9.047688073730468,-17.106870229007633,8.450381679389313,-28.19083969465649
6244171810012,3.88487703,1,-1.322796417236328,3.841496563720703,9.68454571533203,-17.740458015267176,11.274809160305344,-29.69465648854962
6244176813085,3.889880103,1,-0.5961562133789062,4.8135424377441405,9.414000927734374,-30.213740458015266,-8.977099236641221,-36.83206106870229
6244181814074,3.894881092,1,-0.14006079711914063,4.304774584960938,9.50617769165039,-53.38931297709924,-14.732824427480915,-17.755725190839694
6244186808085,3.899875103,1,-0.25258827514648435,3.840299462890625,9.188945971679686,-27.061068702290076,-24.27480916030534,-2.183206106870229
6244191811731,3.904878749,1,-0.8391676818847655,4.204218115234375,8.336610180664062,26.106870229007633,-41.17557251908397,-7.33587786259542
6244196813397,3.909880415,1,-1.0726023437499999,4.101267443847656,7.696161236572265,22.9618320610687,-42.54961832061068,-2.6793893129770994
6244201813449,3.914880467,1,-0.9445125549316405,3.670311145019531,7.340622290039062,-11.068702290076336,-39.725190839694655,-0.22900763358778625
6244206811262,3.91987828,1,-0.8128314636230468,3.6080619018554687,6.87614716796875,-28.427480916030536,-42.29770992366412,-12.625954198473282
6244211810116,3.924877134,1,-0.6488286499023437,3.6631285400390623,6.555324145507812,-35.87022900763359,-37.32824427480916,-22.30534351145038
6244216814595,3.929881613,1,-0.5662286926269531,3.778050219726562,6.344634399414062,-41.961832061068705,-34.67175572519084,-28.900763358778626
6244221814074,3.934881092,1,-0.8080430603027343,4.064157318115234,6.157886669921875,-49.900763358778626,-35.778625954198475,-31.778625954198475
6244226810845,3.939877863,1,-0.7661445312499999,3.9145197143554684,6.0716954101562495,-56.12977099236641,-30.72519083969466,-28.52671755725191
6244231809387,3.944876405,1,-1.1468225952148436,4.095281939697266,6.338648895263671,-42.954198473282446,-13.557251908396946,-30.137404580152673
6244236812772,3.94987979,1,-1.3000515014648437,4.46279189453125,6.80551821899414,-22.778625954198475,1.3893129770992367,-30.52671755725191
6244241813970,3.954880988,1,-1.2629413757324217,4.7393221862792965,7.305906365966797,-9.19083969465649,15.022900763358779,-24.12213740458015
6244246809960,3.959876978,1,-1.7274164978027342,4.716577270507813,8.25520732421875,3.732824427480916,28.82442748091603,-18.366412213740457
6244251809283,3.964876301,1,-1.0402806213378906,5.465962390136719,8.388085516357421,15.717557251908397,20.610687022900763,-12.473282442748092
6244256813762,3.96988078,1,-1.8231845642089843,4.85184966430664,9.752780462646484,10.83206106870229,44.961832061068705,4.694656488549619
6244261815272,3.97488229,1,-1.4963760375976562,4.474762902832031,9.379285003662108,21.366412213740457,-7.8396946564885495,18.17557251908397
6244266812303,3.979879321,1,-1.725022296142578,4.586093280029297,8.932766394042968,31.984732824427482,-24.267175572519083,15.236641221374045
6244271809595,3.984876613,1,-1.1073182678222655,4.370615130615234,8.872911352539061,6.236641221374046,-20.022900763358777,13.045801526717558
6244276812147,3.989879165,1,-0.19632453613281248,4.072537023925781,8.700528833007812,-19.564885496183205,-32.54961832061068,8.49618320610687
6244281815845,3.994882863,1,0.2741360900878906,3.8798037902832028,8.300697155761718,-26.358778625954198,-43.81679389312977,6.656488549618321
6244286811210,3.999878228,1,0.3495534423828125,3.716998077392578,7.672219219970703,-21.16793893129771,-53.656488549618324,5.732824427480916
6244291810897,4.004877915,1,0.20949264526367187,3.573345977783203,6.918045697021484,-20.0381679389313,-59.343511450381676,5.0
6244296811678,4.009878696,1,-0.04548983154296875,3.412934466552734,6.25006343383789,-28.18320610687023,-59.63358778625954,3.0229007633587788
6244301814491,4.014881509,1,-0.24061726684570311,3.286041778564453,5.673060833740234,-38.61832061068702,-53.10687022900763,-2.053435114503817
6244306810272,4.01987729,1,-0.3387795349121094,3.2561142578125,5.503072515869141,-42.51145038167939,-37.45038167938932,-7.870229007633588
6244311809543,4.024876561,1,-0.430956298828125,3.380612744140625,5.4899044067382805,-36.717557251908396,-19.603053435114504,-13.49618320610687
6244316812303,4.029879321,1,-0.5793968017578125,3.6810850524902343,5.778405706787109,-26.893129770992367,-2.351145038167939,-15.244274809160306
6244321813189,4.034880207,1,-0.9217676391601562,3.9887399658203124,6.2392895263671875,-20.984732824427482,11.32824427480916,-15.213740458015268
6244326810481,4.039877499,1,-0.8858546142578124,4.064157318115234,6.959944226074218,-15.473282442748092,24.450381679389313,-11.19083969465649
6244331810481,4.044877499,1,-0.718260498046875,4.2700586608886715,7.72489165649414,-0.6183206106870229,39.30534351145038,-12.786259541984732
6244336813241,4.049880259,1,-0.43454760131835934,4.582501977539062,8.334215979003906,11.198473282442748,43.595419847328245,-10.65648854961832
6244341814387,4.054881405,1,-0.8726865051269531,4.568136767578125,8.82981572265625,13.267175572519085,35.87786259541985,0.5343511450381679
6244346818085,4.059885103,1,-1.2629413757324217,4.490325213623047,9.120711224365234,13.458015267175572,24.66412213740458,8.610687022900763
6244351812928,4.064879946,1,-1.485602130126953,4.308365887451171,9.344569079589844,17.290076335877863,21.85496183206107,14.801526717557252
6244356857668,4.069924686,1,-1.1863269226074218,4.20062681274414,9.443928448486327,26.610687022900763,18.213740458015266,16.541984732824428
6244361815689,4.074882707,1,-0.8116343627929687,4.0222587890625,9.31464155883789,33.083969465648856,10.786259541984732,19.46564885496183
6244366810897,4.079877915,1,-0.5793968017578125,3.7098154724121093,8.945934503173827,30.633587786259543,-1.6946564885496183,21.709923664122137
6244371809751,4.084876769,1,-0.6679822631835937,3.412934466552734,8.415618835449218,20.580152671755727,-14.022900763358779,22.541984732824428
6244376813866,4.089880884,1,-0.5255272644042969,3.1004911499023438,8.032546569824218,10.870229007633588,-18.49618320610687,18.862595419847327
6244381814126,4.094881144,1,-0.4070142822265625,3.0322564025878904,7.762001782226562,5.083969465648855,-17.72519083969466,10.83206106870229
6244386810324,4.099877342,1,-0.5446808776855468,3.1639374938964844,7.44357296142578,-1.748091603053435,-20.34351145038168,3.427480916030534
6244391811418,4.104878436,1,-0.5063736511230469,3.0909143432617188,7.242460021972656,-15.114503816793894,-20.64885496183206,-2.564885496183206
6244396814595,4.109881613,1,-0.43574470214843747,3.0358477050781247,7.243657122802734,-19.671755725190838,-13.98473282442748,-6.549618320610687
6244401813033,4.114880051,1,-0.949300958251953,3.2716765686035156,7.332242584228515,-8.007633587786259,-14.770992366412214,-8.98473282442748
6244406810533,4.119877551,1,-0.7158662963867187,4.2137949218749995,6.874950067138672,-8.664122137404581,-19.66412213740458,-20.72519083969466
6244411810949,4.124877967,1,0.26216508178710934,3.554192364501953,7.413645440673828,-41.70992366412214,1.282442748091603,-11.48091603053435
6244416815116,4.129882134,1,0.3890577697753906,3.6176387084960937,7.513004809570312,-23.18320610687023,0.007633587786259542,-13.770992366412214
6244421813345,4.134880363,1,0.16998831787109375,4.205415216064453,7.170633972167968,14.267175572519085,-9.916030534351146,-19.19083969465649
6244426811522,4.13987854,1,-1.4832079284667967,5.021837982177734,7.644685900878906,-4.687022900763359,-12.86259541984733,-14.48091603053435
6244431811939,4.144878957,1,-0.7015010864257812,4.053383410644531,8.252813122558594,-40.05343511450382,-1.4351145038167938,11.687022900763358
6244436814230,4.149881248,1,-0.7314286071777343,3.7696705139160156,8.428786944580077,3.8473282442748094,-1.1068702290076335,12.534351145038167
6244441813970,4.154880988,1,-0.7386112121582031,4.535815045166015,7.706935144042968,55.916030534351144,-21.17557251908397,7.8320610687022905
6244446810220,4.159877238,1,-0.3711012573242187,4.463988995361328,7.538143927001952,28.84732824427481,-16.396946564885496,12.17557251908397
6244451809491,4.164876509,1,-0.22266075439453123,4.001908074951172,7.721300354003906,-21.31297709923664,-17.33587786259542,15.488549618320612
6244456812408,4.169879426,1,-0.39743747558593745,3.67749375,7.542932330322265,-32.465648854961835,-27.83206106870229,15.282442748091603
6244461814387,4.174881405,1,-0.6739677673339843,3.537432952880859,7.241262921142578,-12.633587786259541,-26.51145038167939,15.755725190839694
6244466811262,4.17987828,1,-0.27174188842773433,3.5972879943847653,7.055712292480468,7.809160305343512,-12.67175572519084,9.183206106870228
6244471810533,4.184877551,1,-0.12569558715820311,3.7146038757324216,7.031770275878906,9.206106870229007,3.900763358778626,2.7404580152671754
6244476815012,4.18988203,1,-0.34835634155273437,3.7912183288574215,7.164648468017577,-3.2213740458015265,3.435114503816794,0.9694656488549618
6244481814126,4.194881144,1,-0.9193734375,3.3638533325195312,7.433996154785156,-15.366412213740459,4.305343511450381,4.358778625954199
6244486810533,4.199877551,1,-1.4736311218261717,3.189076611328125,7.914033587646484,-5.198473282442748,13.534351145038167,4.244274809160306
6244491810376,4.204877394,1,-1.4496891052246093,3.5721488769531247,8.262389929199218,17.213740458015266,23.64885496183206,-3.3435114503816794
6244496814543,4.209881561,1,-1.1156979736328125,3.9276878234863277,8.756792572021483,21.045801526717558,31.595419847328245,-7.687022900763359
6244501813710,4.214880728,1,-0.6416460449218749,4.159925384521484,8.932766394042968,9.16030534351145,26.603053435114504,-9.16030534351145
6244506811939,4.219878957,1,-0.44532150878906246,4.517858532714843,9.041702569580078,-7.099236641221374,10.450381679389313,-8.473282442748092
6244511810012,4.22487703,1,-0.6955155822753906,4.3239281982421875,9.077615594482422,-17.557251908396946,-2.6106870229007635,0.05343511450381679
6244516813449,4.229880467,1,-0.8571241943359375,4.466383197021484,8.651447698974609,-12.541984732824428,-19.229007633587788,-0.17557251908396945
6244521814074,4.234881092,1,-0.7302315063476562,4.370615130615234,8.25520732421875,-8.488549618320612,-25.66412213740458,5.312977099236641
6244526811001,4.239878019,1,-0.6607996582031249,4.102464544677734,7.82065972290039,-5.4961832061068705,-30.633587786259543,10.801526717557252
6244531810428,4.244877446,1,-0.46806642456054687,3.831919757080078,7.198167291259765,4.198473282442748,-35.32824427480916,17.33587786259542
6244536814595,4.249881613,1,-0.19033903198242186,3.787627026367187,6.545747338867187,14.48091603053435,-30.076335877862597,13.694656488549619
6244541814387,4.254881405,1,-0.0718260498046875,3.5913024902343746,6.417657550048828,12.83969465648855,-21.435114503816795,14.709923664122137
6244546810064,4.259877082,1,-0.020350714111328123,3.337517114257812,6.087257720947266,11.045801526717558,-17.938931297709924,14.587786259541986
6244551810637,4.264877655,1,-0.0909796630859375,3.361459130859375,5.973533142089844,14.946564885496183,-11.007633587786259,9.01526717557252
6244556813345,4.269880363,1,-0.03232172241210937,3.422511273193359,5.92445200805664,13.267175572519085,-0.20610687022900764,4.267175572519084
6244561815116,4.274882134,1,0.06344634399414062,3.465606903076172,6.290764862060547,8.679389312977099,14.755725190839694,-0.007633587786259542
6244566811991,4.279879009,1,0.19393033447265623,3.4919431213378904,6.606799481201172,9.664122137404581,25.46564885496183,-2.9770992366412212
6244571810012,4.28487703,1,0.02633621826171875,3.6619314392089843,7.13112964477539,17.31297709923664,33.70992366412214,-4.122137404580153
6244576812460,4.289879478,1,-0.2693476867675781,3.784035723876953,7.389703424072265,24.442748091603054,36.57251908396947,-4.709923664122138
6244581814282,4.2948813,1,-0.6057330200195312,3.7912183288574215,7.864952453613281,24.72519083969466,40.01526717557252,-3.6564885496183206
6244586809803,4.299876821,1,-0.9157821350097656,3.8043864379882812,8.20971749267578,23.954198473282442,41.954198473282446,-5.595419847328245
6244591811210,4.304878228,1,-0.8499415893554687,4.064157318115234,8.582015850830077,24.16793893129771,42.778625954198475,-8.816793893129772
6244596809282,4.3098763,1,-0.7793126403808593,3.9181110168457027,8.804676605224609,21.19083969465649,40.88549618320611,-5.534351145038168
6244601815324,4.314882342,1,-0.5482721801757812,3.9516298400878904,8.850166436767578,23.69465648854962,28.587786259541986,-5.488549618320611
6244606810949,4.319877967,1,-0.7134720947265625,3.7768531188964842,9.012972149658202,26.442748091603054,26.64885496183206,-6.022900763358779
6244611811053,4.324878071,1,-0.8295908752441405,3.744531396484375,9.118317022705078,29.427480916030536,24.50381679389313,-7.709923664122138
6244616813501,4.329880519,1,-0.8499415893554687,3.7301661865234372,9.052476477050782,32.099236641221374,18.114503816793892,-6.8320610687022905
6244621812564,4.334879582,1,-0.2346317626953125,3.9181110168457027,9.026140258789061,33.97709923664122,21.977099236641223,-12.83969465648855
6244626810793,4.339877811,1,-0.3399766357421875,4.11802685546875,9.399635717773437,32.51145038167939,31.793893129770993,-20.389312977099237
6244631810585,4.344877603,1,-0.8583212951660156,4.030638494873046,9.009380847167968,24.50381679389313,-2.7099236641221376,-11.290076335877863
