timestamp_ns,t_s,sensor_id,ax,ay,az
4975848565808,0.057292396,1,0.22864625854492185,1.772906329345703,-11.135431921386719
4975851024610,0.059751198,1,0.23822306518554687,1.7022773803710936,-11.182118853759764
4975853520391,0.062246979,1,0.21188684692382811,1.705868682861328,-11.131840618896483
4975856043673,0.064770261,1,0.24660277099609373,1.7334020019531249,-11.040860955810546
4975858518256,0.067244844,1,0.20829554443359374,1.7872715393066405,-11.251550701904296
4975861020444,0.069747032,1,0.24301146850585936,1.7429788085937499,-11.233594189453123
4975863519871,0.072246459,1,0.22744915771484372,1.7513585144042967,-11.12226381225586
4975866019819,0.074746407,1,0.21428104858398436,1.7753005310058592,-11.156979736328124
4975868522683,0.077249271,1,0.2442085693359375,1.7238251953125,-11.201272467041015
4975871018933,0.079745521,1,0.2214636535644531,1.7298106994628906,-11.196484063720703
4975873517735,0.082244323,1,0.2346317626953125,1.7166425903320313,-11.118672509765624
4975876020600,0.084747188,1,0.24061726684570311,1.734599102783203,-11.146205828857422
4975878517527,0.087244115,1,0.20949264526367187,1.725022296142578,-11.213243475341796
4975881020652,0.08974724,1,0.22026655273437498,1.7130512878417967,-11.256339105224608
4975883518464,0.092245052,1,0.2262520568847656,1.7393875061035156,-11.176133349609374
4975886018360,0.094744948,1,0.2059013427734375,1.6735469604492186,-11.079168182373046
4975888520860,0.097247448,1,0.24660277099609373,1.7393875061035156,-11.267113012695312
4975891018204,0.099744792,1,0.2693476867675781,1.7130512878417967,-11.227608685302734
4975893517058,0.102243646,1,0.23822306518554687,1.7202338928222656,-11.247959399414063
4975896020860,0.104747448,1,0.22385785522460935,1.7298106994628906,-11.051634863281249
4975898517475,0.107244063,1,0.23702596435546874,1.7764976318359373,-11.239579693603515
4975901021016,0.109747604,1,0.26336218261718747,1.7621324218749999,-11.104307299804686
4975903518464,0.112245052,1,0.22744915771484372,1.705868682861328,-11.166556542968749
4975906018621,0.114745209,1,0.1975216369628906,1.7106570861816406,-11.171344946289063
4975908521381,0.117247969,1,0.16519991455078123,1.7597382202148437,-11.148600030517578
4975911018048,0.119744636,1,0.20350714111328125,1.7453730102539062,-11.208455072021483
4975913517266,0.122243854,1,0.19871873779296872,1.7896657409667969,-11.186907257080078
4975916020704,0.124747292,1,0.229843359375,1.7573440185546874,-11.204863769531249
4975918517631,0.127244219,1,0.21308394775390624,1.7417817077636717,-11.133037719726563
4975921021225,0.129747813,1,0.23104046020507812,1.734599102783203,-11.23718549194336
4975923518621,0.132245209,1,0.22266075439453123,1.7369933044433592,-11.240776794433593
4975926017996,0.134744584,1,0.26336218261718747,1.7501614135742187,-11.21683477783203
4975928520860,0.137247448,1,0.24899697265624998,1.7357962036132812,-11.225214483642578
4975931018464,0.139745052,1,0.24301146850585936,1.7393875061035156,-11.201272467041015
4975933518412,0.142245,1,0.27293898925781246,1.7465701110839842,-11.252747802734374
4975936021798,0.144748386,1,0.19871873779296872,1.7274164978027342,-11.183315954589844
4975938518569,0.147245157,1,0.2154781494140625,1.7034744812011717,-11.192892761230468
4975941020964,0.149747552,1,0.20709844360351562,1.7585411193847655,-11.136629022216797
4975943518204,0.152244792,1,0.26815058593749996,1.7214309936523438,-11.166556542968749
4975946018725,0.154745313,1,0.2501940734863281,1.7944541442871094,-11.180921752929686
4975948521641,0.157248229,1,0.2442085693359375,1.7166425903320313,-11.164162341308593
4975951017319,0.159743907,1,0.16879121704101563,1.7369933044433592,-11.24915650024414
4975953517475,0.162244063,1,0.25139117431640623,1.734599102783203,-11.128249316406249
4975956020600,0.164747188,1,0.21308394775390624,1.7274164978027342,-11.184513055419922
4975958518048,0.167244636,1,0.24660277099609373,1.7190367919921874,-11.201272467041015
4975961020704,0.169747292,1,0.21068974609375,1.7118541870117185,-11.209652172851563
4975963517787,0.172244375,1,0.22864625854492185,1.7561469177246092,-11.232397088623046
4975966018100,0.174744688,1,0.22385785522460935,1.7573440185546874,-11.2240173828125
4975968520704,0.177247292,1,0.21906945190429686,1.7274164978027342,-11.192892761230468
4975971018464,0.179745052,1,0.20829554443359374,1.7417817077636717,-11.133037719726563
4975973518152,0.18224474,1,0.24899697265624998,1.7585411193847655,-11.17254204711914
4975976021225,0.184747813,1,0.2609679809570312,1.7357962036132812,-11.213243475341796
4975978518569,0.187245157,1,0.17836802368164062,1.725022296142578,-11.186907257080078
4975981020756,0.189747344,1,0.21068974609375,1.7238251953125,-11.238382592773437
4975983517944,0.192244532,1,0.2597708801269531,1.6998831787109374,-11.222820281982422
4975986018569,0.194745157,1,0.19033903198242186,1.7609353210449217,-11.196484063720703
4975988521485,0.197248073,1,0.21906945190429686,1.7166425903320313,-11.233594189453123
4975991017787,0.199744375,1,0.20350714111328125,1.753752716064453,-11.21084927368164
4975993517787,0.202244375,1,0.22505495605468748,1.7298106994628906,-11.21683477783203
4975996020548,0.204747136,1,0.181959326171875,1.7549498168945312,-11.235988391113281
4975998518360,0.207244948,1,0.21068974609375,1.744175909423828,-11.252747802734374
4976001021277,0.209747865,1,0.21906945190429686,1.7393875061035156,-11.240776794433593
4976003518308,0.212244896,1,0.20829554443359374,1.7310078002929687,-11.146205828857422
4976006018881,0.214745469,1,0.25258827514648435,1.7477672119140624,-11.23000288696289
4976008520339,0.217246927,1,0.21428104858398436,1.68551796875,-11.173739147949219
4976011018100,0.219744688,1,0.22864625854492185,1.7357962036132812,-11.171344946289063
4976013518360,0.222244948,1,0.2501940734863281,1.7202338928222656,-11.174936248779296
4976016021016,0.224747604,1,0.2645592834472656,1.7812860351562498,-11.165359442138671
4976018518048,0.227244636,1,0.22385785522460935,1.734599102783203,-11.196484063720703
4976021021121,0.229747709,1,0.23223756103515625,1.7166425903320313,-11.19887826538086
4976023518256,0.232244844,1,0.22744915771484372,1.725022296142578,-11.215637677001952
4976026019350,0.234745938,1,0.1927332336425781,1.7214309936523438,-11.180921752929686
4976028520443,0.237247031,1,0.2537853759765625,1.707065783691406,-11.184513055419922
4976031019089,0.239745677,1,0.229843359375,1.7310078002929687,-11.182118853759764
4976033517527,0.242244115,1,0.1975216369628906,1.7513585144042967,-11.194089862060546
4976036020235,0.244746823,1,0.2442085693359375,1.7477672119140624,-11.11508120727539
4976038517839,0.247244427,1,0.16879121704101563,1.744175909423828,-11.196484063720703
4976041021121,0.249747709,1,0.19991583862304688,1.7453730102539062,-11.19887826538086
4976043517527,0.252244115,1,0.239420166015625,1.7262193969726563,-11.166556542968749
4976046018829,0.254745417,1,0.21787235107421873,1.6915034729003906,-11.215637677001952
4976048520756,0.257247344,1,0.24899697265624998,1.695094775390625,-11.133037719726563
4976051018256,0.259744844,1,0.23104046020507812,1.7369933044433592,-11.179724652099608
4976053517683,0.262244271,1,0.21428104858398436,1.7274164978027342,-11.135431921386719
4976056020860,0.264747448,1,0.1867477294921875,1.7489643127441405,-11.189301458740234
4976058517683,0.267244271,1,0.19512743530273435,1.7322049011230467,-11.202469567871093
4976061021381,0.269747969,1,0.2166752502441406,1.7573440185546874,-11.167753643798827
4976063518048,0.272244636,1,0.23582886352539062,1.7357962036132812,-11.125855114746093
4976066019037,0.274745625,1,0.21428104858398436,1.7764976318359373,-11.239579693603515
4976068520756,0.277247344,1,0.2454056701660156,1.7322049011230467,-11.201272467041015
4976071018412,0.279745,1,0.2262520568847656,1.7226280944824217,-11.173739147949219
4976073517631,0.282244219,1,0.2765302917480469,1.7298106994628906,-11.168950744628905
4976076020652,0.28474724,1,0.20709844360351562,1.7082628845214842,-11.150994232177734
4976078518829,0.287245417,1,0.22385785522460935,1.7393875061035156,-11.150994232177734
4976081020391,0.289746979,1,0.22026655273437498,1.7022773803710936,-11.174936248779296
4976083525079,0.292251667,1,0.19153613281249998,1.7238251953125,-11.21084927368164
4976086023568,0.294750156,1,0.26815058593749996,1.705868682861328,-11.129446417236327
4976088521589,0.297248177,1,0.229843359375,1.7776947326660155,-11.177330450439452
4976091018100,0.299744688,1,0.19991583862304688,1.7453730102539062,-11.171344946289063
4976093518048,0.302244636,1,0.22026655273437498,1.7322049011230467,-11.221623181152344
4976096020391,0.304746979,1,0.239420166015625,1.7298106994628906,-11.197681164550781
4976098517996,0.307244584,1,0.2214636535644531,1.7357962036132812,-11.130643518066405
4976101020443,0.309747031,1,0.21068974609375,1.7130512878417967,-11.143811627197264
4976103517318,0.312243906,1,0.2346317626953125,1.7393875061035156,-11.183315954589844
4976106018777,0.314745365,1,0.24899697265624998,1.7130512878417967,-11.228805786132812
4976108520235,0.317246823,1,0.2501940734863281,1.7513585144042967,-11.232397088623046
4976111018152,0.31974474,1,0.24181436767578124,1.7094599853515624,-11.142614526367186
4976113518048,0.322244636,1,0.24779987182617186,1.7465701110839842,-11.221623181152344
4976116020183,0.324746771,1,0.23702596435546874,1.7322049011230467,-11.190498559570312
4976118517266,0.327243854,1,0.2262520568847656,1.7286135986328124,-11.171344946289063
4976121020548,0.329747136,1,0.20350714111328125,1.7226280944824217,-11.17254204711914
4976123517475,0.332244063,1,0.23223756103515625,1.7178396911621092,-11.218031878662108
4976126018152,0.33474474,1,0.27293898925781246,1.7082628845214842,-11.152191333007812
4976128521433,0.337248021,1,0.18914193115234373,1.6998831787109374,-11.212046374511718
4976131018308,0.339744896,1,0.2214636535644531,1.7094599853515624,-11.171344946289063
4976133517579,0.342244167,1,0.23822306518554687,1.68551796875,-11.19169566040039
4976136020391,0.344746979,1,0.2693476867675781,1.7178396911621092,-11.183315954589844
4976138517162,0.34724375,1,0.23822306518554687,1.7274164978027342,-11.220426080322264
4976141020704,0.349747292,1,0.27892449340820313,1.7597382202148437,-11.158176837158203
4976143518100,0.352244688,1,0.277727392578125,1.7513585144042967,-11.152191333007812
4976146018933,0.354745521,1,0.24899697265624998,1.7214309936523438,-11.125855114746093
4976148520704,0.357247292,1,0.1927332336425781,1.734599102783203,-11.196484063720703
4976151018048,0.359744636,1,0.2597708801269531,1.7489643127441405,-11.168950744628905
4976153517735,0.362244323,1,0.23702596435546874,1.734599102783203,-11.13423482055664
4976156021173,0.364747761,1,0.2537853759765625,1.7130512878417967,-11.161768139648437
4976158518412,0.367245,1,0.25737667846679685,1.715445489501953,-11.273098516845703
4976161021173,0.369747761,1,0.22505495605468748,1.6998831787109374,-11.179724652099608
4976163518152,0.37224474,1,0.22385785522460935,1.7214309936523438,-11.143811627197264
4976166019089,0.374745677,1,0.23582886352539062,1.7094599853515624,-11.174936248779296
4976168520391,0.377246979,1,0.23104046020507812,1.7202338928222656,-11.177330450439452
4976171018308,0.379744896,1,0.18315642700195311,1.7369933044433592,-11.209652172851563
4976173517318,0.382243906,1,0.20829554443359374,1.7453730102539062,-11.18571015625
4976176020912,0.3847475,1,0.24181436767578124,1.725022296142578,-11.1474029296875
4976178517475,0.387244063,1,0.24061726684570311,1.7094599853515624,-11.225214483642578
4976181020443,0.389747031,1,0.2262520568847656,1.7561469177246092,-11.133037719726563
4976183517371,0.392243959,1,0.23104046020507812,1.7489643127441405,-11.155782635498046
4976186018308,0.394744896,1,0.2262520568847656,1.7310078002929687,-11.206060870361327
4976188518360,0.397244948,1,0.2346317626953125,1.7381904052734374,-11.23000288696289
4976191018985,0.399745573,1,0.2346317626953125,1.7693150268554687,-11.215637677001952
4976193516798,0.402243386,1,0.2059013427734375,1.6998831787109374,-11.166556542968749
4976196020235,0.404746823,1,0.2166752502441406,1.7094599853515624,-11.107898602294922
4976198516954,0.407243542,1,0.21428104858398436,1.7693150268554687,-11.123460913085937
4976201017318,0.409743906,1,0.22864625854492185,1.734599102783203,-11.170147845458983
4976203517631,0.412244219,1,0.20231004028320312,1.7573440185546874,-11.131840618896483
4976206018048,0.414744636,1,0.22026655273437498,1.7417817077636717,-11.145008728027342
4976208520443,0.417247031,1,0.239420166015625,1.7525556152343749,-11.207257971191405
4976211018308,0.419744896,1,0.20829554443359374,1.7118541870117185,-11.227608685302734
4976213517995,0.422244583,1,0.2214636535644531,1.697488977050781,-11.218031878662108
4976216021329,0.424747917,1,0.23582886352539062,1.7334020019531249,-11.203666668701171
4976218517579,0.427244167,1,0.20709844360351562,1.7429788085937499,-11.14022032470703
4976221020808,0.429747396,1,0.21308394775390624,1.7106570861816406,-11.14022032470703
4976223517058,0.432243646,1,0.20949264526367187,1.7621324218749999,-11.06360587158203
4976226018412,0.434745,1,0.18076222534179687,1.753752716064453,-11.238382592773437
4976228520652,0.43724724,1,0.17956512451171874,1.707065783691406,-11.203666668701171
4976231017423,0.439744011,1,0.21188684692382811,1.7214309936523438,-11.179724652099608
4976233516954,0.442243542,1,0.23223756103515625,1.7322049011230467,-11.068394274902342
4976236020548,0.444747136,1,0.20949264526367187,1.734599102783203,-11.188104357910156
4976238517735,0.447244323,1,0.23702596435546874,1.725022296142578,-11.21683477783203
4976241020287,0.449746875,1,0.22385785522460935,1.7226280944824217,-11.218031878662108
4976243517787,0.452244375,1,0.2549824768066406,1.7166425903320313,-11.314997045898437
4976246017266,0.454743854,1,0.23223756103515625,1.705868682861328,-11.19169566040039
4976248519870,0.457246458,1,0.28490999755859375,1.714248388671875,-11.238382592773437
4976251018204,0.459744792,1,0.22864625854492185,1.7202338928222656,-11.23718549194336
4976253517214,0.462243802,1,0.201112939453125,1.7573440185546874,-11.04564935913086
4976256020912,0.4647475,1,0.29927520751953124,1.6938976745605467,-11.182118853759764
4976258517475,0.467244063,1,0.20231004028320312,1.7477672119140624,-11.219228979492186
4976261021068,0.469747656,1,0.16639701538085935,1.7453730102539062,-11.218031878662108
4976263518152,0.47224474,1,0.2765302917480469,1.7501614135742187,-11.116278308105468
4976266018360,0.474744948,1,0.2166752502441406,1.7501614135742187,-11.19887826538086
4976268519714,0.477246302,1,0.2609679809570312,1.7082628845214842,-11.197681164550781
4976271017527,0.479744115,1,0.22505495605468748,1.7310078002929687,-11.137826123046874
4976273518829,0.482245417,1,0.2501940734863281,1.7118541870117185,-11.069591375732422
4976276022058,0.484748646,1,0.2454056701660156,1.7310078002929687,-11.152191333007812
4976278517423,0.487244011,1,0.15682020874023436,1.7405846069335937,-11.162965240478515
4976281020704,0.489747292,1,0.20231004028320312,1.7022773803710936,-11.232397088623046
4976283517318,0.492243906,1,0.1640028137207031,1.7501614135742187,-11.170147845458983
4976286017995,0.494744583,1,0.17836802368164062,1.7477672119140624,-11.226411584472656
4976288521016,0.497247604,1,0.2262520568847656,1.7357962036132812,-11.232397088623046
4976291019037,0.499745625,1,0.19153613281249998,1.7369933044433592,-11.154585534667968
4976293517318,0.502243906,1,0.24061726684570311,1.6843208679199217,-11.263521710205078
4976296021068,0.504747656,1,0.20829554443359374,1.7034744812011717,-11.226411584472656
4976298517995,0.507244583,1,0.21188684692382811,1.7573440185546874,-11.220426080322264
4976301020287,0.509746875,1,0.24779987182617186,1.7322049011230467,-11.164162341308593
4976303517527,0.512244115,1,0.24301146850585936,1.7274164978027342,-11.21683477783203
4976306018464,0.514745052,1,0.22744915771484372,1.696291876220703,-11.197681164550781
4976308520756,0.517247344,1,0.20829554443359374,1.7310078002929687,-11.154585534667968
4976311017943,0.519744531,1,0.20949264526367187,1.7764976318359373,-11.161768139648437
4976313517475,0.522244063,1,0.18076222534179687,1.7657237243652342,-11.322179650878905
4976316020652,0.52474724,1,0.23104046020507812,1.7525556152343749,-11.177330450439452
4976318523204,0.527249792,1,0.22026655273437498,1.7489643127441405,-11.201272467041015
4976321022683,0.529749271,1,0.21787235107421873,1.7489643127441405,-11.203666668701171
4976323517839,0.532244427,1,0.229843359375,1.7334020019531249,-11.19887826538086
4976326019141,0.534745729,1,0.26695348510742184,1.744175909423828,-11.218031878662108
4976328521485,0.537248073,1,0.21188684692382811,1.707065783691406,-11.183315954589844
4976331017891,0.539744479,1,0.22744915771484372,1.6771382629394531,-11.158176837158203
4976333517683,0.542244271,1,0.25139117431640623,1.7082628845214842,-11.13423482055664
4976336020704,0.544747292,1,0.19393033447265623,1.7357962036132812,-11.207257971191405
4976338518204,0.547244792,1,0.2214636535644531,1.7549498168945312,-11.214440576171874
4976341021225,0.549747813,1,0.23582886352539062,1.7513585144042967,-11.189301458740234
4976343517839,0.552244427,1,0.19512743530273435,1.772906329345703,-11.212046374511718
4976346018360,0.554744948,1,0.19512743530273435,1.695094775390625,-11.202469567871093
4976348519818,0.557246406,1,0.19153613281249998,1.7178396911621092,-11.19169566040039
4976351017787,0.559744375,1,0.21428104858398436,1.734599102783203,-11.171344946289063
4976353517527,0.562244115,1,0.2166752502441406,1.7501614135742187,-11.17852755126953
4976356020808,0.564747396,1,0.229843359375,1.714248388671875,-11.180921752929686
4976358517839,0.567244427,1,0.24301146850585936,1.7022773803710936,-11.245565197753905
4976361020443,0.569747031,1,0.16759411621093748,1.7166425903320313,-11.186907257080078
4976363517058,0.572243646,1,0.17956512451171874,1.697488977050781,-11.235988391113281
4976366018360,0.574744948,1,0.18555062866210936,1.753752716064453,-11.17254204711914
4976368520652,0.57724724,1,0.20350714111328125,1.7681179260253905,-11.148600030517578
4976371018100,0.579744688,1,0.239420166015625,1.7501614135742187,-11.215637677001952
4976373517839,0.582244427,1,0.22385785522460935,1.7741034301757812,-11.118672509765624
4976376021433,0.584748021,1,0.26336218261718747,1.7130512878417967,-11.231199987792968
4976378517318,0.587243906,1,0.18076222534179687,1.7465701110839842,-11.182118853759764
4976381021173,0.589747761,1,0.2166752502441406,1.8076222534179687,-11.165359442138671
4976383517370,0.592243958,1,0.26695348510742184,1.7381904052734374,-11.149797131347656
4976386018100,0.594744688,1,0.23822306518554687,1.705868682861328,-11.171344946289063
4976388520912,0.5972475,1,0.258573779296875,1.7525556152343749,-11.231199987792968
4976391017891,0.599744479,1,0.2262520568847656,1.7286135986328124,-11.179724652099608
4976393517423,0.602244011,1,0.24301146850585936,1.7405846069335937,-11.251550701904296
4976396021537,0.604748125,1,0.19991583862304688,1.7274164978027342,-11.137826123046874
4976398518152,0.60724474,1,0.24660277099609373,1.7681179260253905,-11.136629022216797
4976401019975,0.609746563,1,0.2154781494140625,1.7645266235351562,-11.184513055419922
4976403517423,0.612244011,1,0.2214636535644531,1.744175909423828,-11.21084927368164
4976406017995,0.614744583,1,0.22266075439453123,1.7573440185546874,-11.166556542968749
4976408519818,0.617246406,1,0.21308394775390624,1.7094599853515624,-11.192892761230468
4976411017370,0.619743958,1,0.19393033447265623,1.6986860778808592,-11.197681164550781
4976413516954,0.622243542,1,0.24660277099609373,1.7429788085937499,-11.207257971191405
4976416020548,0.624747136,1,0.2442085693359375,1.6891092712402342,-11.208455072021483
4976418517787,0.627244375,1,0.296881005859375,1.6903063720703124,-11.150994232177734
4976421020704,0.629747292,1,0.1879448303222656,1.7453730102539062,-11.264718811035156
4976423517475,0.632244063,1,0.23822306518554687,1.734599102783203,-11.207257971191405
4976426017995,0.634744583,1,0.23822306518554687,1.715445489501953,-11.186907257080078
4976428520548,0.637247136,1,0.21906945190429686,1.7334020019531249,-11.218031878662108
4976431017631,0.639744219,1,0.21906945190429686,1.725022296142578,-11.155782635498046
4976433517839,0.642244427,1,0.2214636535644531,1.7405846069335937,-11.14022032470703
4976436020600,0.644747188,1,0.18076222534179687,1.7549498168945312,-11.19169566040039
4976438517006,0.647243594,1,0.19991583862304688,1.7034744812011717,-11.228805786132812
4976441020443,0.649747031,1,0.22385785522460935,1.7561469177246092,-11.162965240478515
4976443518047,0.652244635,1,0.21308394775390624,1.7681179260253905,-11.200075366210937
4976446016641,0.654743229,1,0.1640028137207031,1.7334020019531249,-11.23718549194336
4976448521120,0.657247708,1,0.17477672119140625,1.7585411193847655,-11.204863769531249
4976451018047,0.659744635,1,0.2932897033691406,1.7417817077636717,-11.218031878662108
4976453517683,0.662244271,1,0.24301146850585936,1.7657237243652342,-11.208455072021483
4976456021068,0.664747656,1,0.20949264526367187,1.7286135986328124,-11.189301458740234
4976458517579,0.667244167,1,0.229843359375,1.7178396911621092,-11.228805786132812
4976461020860,0.669747448,1,0.22266075439453123,1.7130512878417967,-11.200075366210937
4976463518308,0.672244896,1,0.2262520568847656,1.6986860778808592,-11.110292803955078
4976466017995,0.674744583,1,0.23582886352539062,1.7501614135742187,-11.176133349609374
4976468520964,0.677247552,1,0.2166752502441406,1.714248388671875,-11.200075366210937
4976471017318,0.679743906,1,0.20350714111328125,1.70467158203125,-11.149797131347656
4976473516329,0.682242917,1,0.26216508178710934,1.7405846069335937,-11.156979736328124
4976476063881,0.684790469,1,0.20829554443359374,1.7190367919921874,-11.179724652099608
4976478517787,0.687244375,1,0.229843359375,1.7417817077636717,-11.225214483642578
4976481020652,0.68974724,1,0.23702596435546874,1.7298106994628906,-11.156979736328124
4976483517683,0.692244271,1,0.22385785522460935,1.7334020019531249,-11.250353601074218
4976486018308,0.694744896,1,0.23223756103515625,1.7429788085937499,-11.208455072021483
4976488521225,0.697247813,1,0.2454056701660156,1.734599102783203,-11.192892761230468
4976491018568,0.699745156,1,0.20350714111328125,1.7369933044433592,-11.141417425537108
4976493516850,0.702243438,1,0.19871873779296872,1.7369933044433592,-11.222820281982422
4976496020287,0.704746875,1,0.2154781494140625,1.7010802795410156,-11.166556542968749
4976498517058,0.707243646,1,0.21428104858398436,1.6915034729003906,-11.203666668701171
4976501020339,0.709746927,1,0.23822306518554687,1.744175909423828,-11.259930407714844
4976503517370,0.712243958,1,0.201112939453125,1.7753005310058592,-11.19169566040039
4976506017943,0.714744531,1,0.19632453613281248,1.753752716064453,-11.182118853759764
4976508520704,0.717247292,1,0.2214636535644531,1.696291876220703,-11.192892761230468
4976511018672,0.71974526,1,0.21428104858398436,1.725022296142578,-11.14022032470703
4976513517995,0.722244583,1,0.24301146850585936,1.7753005310058592,-11.195286962890624
4976516020756,0.724747344,1,0.23343466186523437,1.7118541870117185,-11.162965240478515
4976518517631,0.727244219,1,0.1927332336425781,1.7405846069335937,-11.241973895263671
4976521018308,0.729744896,1,0.24181436767578124,1.744175909423828,-11.262324609375
4976523518308,0.732244896,1,0.26216508178710934,1.7178396911621092,-11.168950744628905
4976526017683,0.734744271,1,0.20231004028320312,1.675941162109375,-11.214440576171874
4976528520235,0.737246823,1,0.21787235107421873,1.753752716064453,-11.213243475341796
4976531017579,0.739744167,1,0.20829554443359374,1.7322049011230467,-11.145008728027342
4976533517631,0.742244219,1,0.2609679809570312,1.7166425903320313,-11.167753643798827
4976536020600,0.744747188,1,0.2537853759765625,1.6891092712402342,-11.215637677001952
4976538517162,0.74724375,1,0.26336218261718747,1.7034744812011717,-11.166556542968749
4976541020808,0.749747396,1,0.239420166015625,1.772906329345703,-11.117475408935546
4976543518256,0.752244844,1,0.19871873779296872,1.7561469177246092,-11.21683477783203
4976546018568,0.754745156,1,0.18315642700195311,1.687912170410156,-11.146205828857422
4976548521277,0.757247865,1,0.24779987182617186,1.7381904052734374,-11.214440576171874
4976551017943,0.759744531,1,0.2214636535644531,1.7369933044433592,-11.158176837158203
4976553524037,0.762250625,1,0.181959326171875,1.68551796875,-11.200075366210937
4976556023412,0.76475,1,0.26216508178710934,1.7465701110839842,-11.221623181152344
4976558518152,0.76724474,1,0.25139117431640623,1.7286135986328124,-11.196484063720703
4976561020912,0.7697475,1,0.23343466186523437,1.6903063720703124,-11.204863769531249
4976563517422,0.77224401,1,0.26695348510742184,1.7657237243652342,-11.182118853759764
4976566018412,0.774745,1,0.24181436767578124,1.7369933044433592,-11.174936248779296
4976568521641,0.777248229,1,0.2501940734863281,1.7477672119140624,-11.253944903564452
4976571017943,0.779744531,1,0.25139117431640623,1.7465701110839842,-11.23718549194336
4976573517006,0.782243594,1,0.24181436767578124,1.725022296142578,-11.176133349609374
4976576020600,0.784747188,1,0.21188684692382811,1.7010802795410156,-11.14022032470703
4976578518152,0.78724474,1,0.16759411621093748,1.7322049011230467,-11.241973895263671
4976581020964,0.789747552,1,0.17956512451171874,1.707065783691406,-11.232397088623046
4976583517370,0.792243958,1,0.19033903198242186,1.7262193969726563,-11.159373937988281
4976586018412,0.794745,1,0.22744915771484372,1.7298106994628906,-11.135431921386719
4976588521120,0.797247708,1,0.24899697265624998,1.7226280944824217,-11.177330450439452
4976591017735,0.799744323,1,0.28012159423828126,1.707065783691406,-11.170147845458983
4976593517370,0.802243958,1,0.20350714111328125,1.7549498168945312,-11.156979736328124
4976596021485,0.804748073,1,0.20231004028320312,1.7262193969726563,-11.15338843383789
4976598517214,0.807243802,1,0.2154781494140625,1.7477672119140624,-11.18571015625
4976601020131,0.809746719,1,0.20470424194335937,1.714248388671875,-11.196484063720703
4976603517422,0.81224401,1,0.17836802368164062,1.7693150268554687,-11.141417425537108
4976606020495,0.814747083,1,0.21308394775390624,1.7262193969726563,-11.137826123046874
4976608521277,0.817247865,1,0.2537853759765625,1.7453730102539062,-11.184513055419922
4976611018204,0.819744792,1,0.229843359375,1.7573440185546874,-11.139023223876952
4976613517162,0.82224375,1,0.2442085693359375,1.7621324218749999,-11.15338843383789
4976616019766,0.824746354,1,0.19393033447265623,1.7322049011230467,-11.149797131347656
4976618517266,0.827243854,1,0.22505495605468748,1.7238251953125,-11.194089862060546
4976621021016,0.829747604,1,0.21906945190429686,1.7369933044433592,-11.192892761230468
4976623517579,0.832244167,1,0.22026655273437498,1.7405846069335937,-11.19169566040039
4976626018152,0.83474474,1,0.21188684692382811,1.7082628845214842,-11.2240173828125
4976628520183,0.837246771,1,0.18076222534179687,1.7190367919921874,-11.244368096923827
4976631017787,0.839744375,1,0.23822306518554687,1.7549498168945312,-11.18571015625
4976633518204,0.842244792,1,0.26815058593749996,1.705868682861328,-11.258733306884764
4976636020808,0.844747396,1,0.2861070983886719,1.7381904052734374,-11.142614526367186
4976638517162,0.84724375,1,0.27174188842773433,1.725022296142578,-11.15338843383789
4976641021277,0.849747865,1,0.25737667846679685,1.7657237243652342,-11.320982550048827
4976643517370,0.852243958,1,0.2214636535644531,1.7322049011230467,-11.235988391113281
4976646017995,0.854744583,1,0.21068974609375,1.7022773803710936,-11.182118853759764
4976648519974,0.857246562,1,0.229843359375,1.7753005310058592,-11.219228979492186
4976651018360,0.859744948,1,0.23582886352539062,1.695094775390625,-11.330559356689452
4976653517995,0.862244583,1,0.2501940734863281,1.7286135986328124,-11.179724652099608
4976656021745,0.864748333,1,0.22266075439453123,1.7010802795410156,-11.196484063720703
4976658517839,0.867244427,1,0.18914193115234373,1.7357962036132812,-11.2240173828125
4976661020235,0.869746823,1,0.18435352783203124,1.7010802795410156,-11.091139190673827
4976663517162,0.87224375,1,0.19512743530273435,1.7836802368164062,-11.14022032470703
4976666018933,0.874745521,1,0.24181436767578124,1.7357962036132812,-11.219228979492186
4976668520339,0.877246927,1,0.24899697265624998,1.7764976318359373,-11.225214483642578
4976671017683,0.879744271,1,0.21906945190429686,1.7585411193847655,-11.222820281982422
4976673517214,0.882243802,1,0.21308394775390624,1.7118541870117185,-11.1474029296875
4976676021329,0.884747917,1,0.19512743530273435,1.7094599853515624,-11.12226381225586
4976678517370,0.887243958,1,0.1771709228515625,1.7609353210449217,-11.148600030517578
4976681020652,0.88974724,1,0.21308394775390624,1.7489643127441405,-11.17254204711914
4976683517787,0.892244375,1,0.2166752502441406,1.734599102783203,-11.212046374511718
4976686018516,0.894745104,1,0.25139117431640623,1.7322049011230467,-11.186907257080078
4976688520547,0.897247135,1,0.23104046020507812,1.7417817077636717,-11.171344946289063
4976691017058,0.899743646,1,0.21308394775390624,1.7298106994628906,-11.231199987792968
4976693517370,0.902243958,1,0.2154781494140625,1.707065783691406,-11.200075366210937
4976696020756,0.904747344,1,0.2501940734863281,1.7417817077636717,-11.170147845458983
4976698515027,0.907241615,1,0.26216508178710934,1.715445489501953,-11.208455072021483
4976701018620,0.909745208,1,0.28969840087890625,1.763329522705078,-11.051634863281249
4976703518047,0.912244635,1,0.258573779296875,1.7286135986328124,-11.247959399414063
4976706018464,0.914745052,1,0.25258827514648435,1.7417817077636717,-11.209652172851563
4976708520443,0.917247031,1,0.20350714111328125,1.7393875061035156,-11.136629022216797
4976711018047,0.919744635,1,0.2214636535644531,1.6927005737304686,-11.12226381225586
4976713518204,0.922244792,1,0.21787235107421873,1.6903063720703124,-11.188104357910156
4976716021329,0.924747917,1,0.2609679809570312,1.714248388671875,-11.168950744628905
4976718517891,0.927244479,1,0.2154781494140625,1.678335363769531,-11.176133349609374
4976721020547,0.929747135,1,0.1975216369628906,1.7561469177246092,-11.203666668701171
4976723517891,0.932244479,1,0.24899697265624998,1.7262193969726563,-11.11508120727539
4976726017579,0.934744167,1,0.1927332336425781,1.7477672119140624,-11.189301458740234
4976728521068,0.937247656,1,0.20231004028320312,1.7549498168945312,-11.183315954589844
4976731017422,0.93974401,1,0.21787235107421873,1.714248388671875,-11.173739147949219
4976733517579,0.942244167,1,0.18315642700195311,1.6986860778808592,-11.190498559570312
4976736020860,0.944747448,1,0.26216508178710934,1.7429788085937499,-11.148600030517578
4976738518204,0.947244792,1,0.20231004028320312,1.7190367919921874,-11.180921752929686
4976741020547,0.949747135,1,0.22744915771484372,1.7322049011230467,-11.15338843383789
4976743517006,0.952243594,1,0.1927332336425781,1.7202338928222656,-11.21084927368164
4976746018204,0.954744792,1,0.24660277099609373,1.70467158203125,-11.135431921386719
4976748521016,0.957247604,1,0.21308394775390624,1.734599102783203,-11.177330450439452
4976751018256,0.959744844,1,0.19512743530273435,1.7573440185546874,-11.28746372680664
4976753517631,0.962244219,1,0.2861070983886719,1.7238251953125,-11.23000288696289
4976756021120,0.964747708,1,0.22505495605468748,1.7357962036132812,-11.21683477783203
4976758517579,0.967244167,1,0.1771709228515625,1.7549498168945312,-11.136629022216797
4976761020443,0.969747031,1,0.201112939453125,1.7310078002929687,-11.18571015625
4976763514818,0.972241406,1,0.20709844360351562,1.7573440185546874,-11.176133349609374
4976766018672,0.97474526,1,0.181959326171875,1.7477672119140624,-11.218031878662108
4976768518464,0.977245052,1,0.26336218261718747,1.7717092285156248,-11.21084927368164
4976771018516,0.979745104,1,0.17836802368164062,1.7549498168945312,-11.156979736328124
4976773517579,0.982244167,1,0.20949264526367187,1.7357962036132812,-11.213243475341796
4976776021693,0.984748281,1,0.18435352783203124,1.714248388671875,-11.110292803955078
4976778517422,0.98724401,1,0.19991583862304688,1.7202338928222656,-11.183315954589844
4976781021902,0.98974849,1,0.1879448303222656,1.7561469177246092,-11.21084927368164
4976783517891,0.992244479,1,0.23582886352539062,1.715445489501953,-11.18571015625
4976786018152,0.99474474,1,0.23104046020507812,1.7932570434570312,-11.204863769531249
4976788526589,0.997253177,1,0.2262520568847656,1.7621324218749999,-11.177330450439452
4976791018829,0.999745417,1,0.20350714111328125,1.6998831787109374,-11.142614526367186
4976793517318,1.002243906,1,0.239420166015625,1.7393875061035156,-11.212046374511718
4976796021589,1.004748177,1,0.1879448303222656,1.7010802795410156,-11.195286962890624
4976798517579,1.007244167,1,0.21906945190429686,1.7405846069335937,-11.158176837158203
4976801020964,1.009747552,1,0.22505495605468748,1.7214309936523438,-11.135431921386719
4976803518620,1.012245208,1,0.24301146850585936,1.734599102783203,-11.228805786132812
4976806019506,1.014746094,1,0.24061726684570311,1.7477672119140624,-11.158176837158203
4976808520391,1.017246979,1,0.1867477294921875,1.7561469177246092,-11.184513055419922
4976811018568,1.019745156,1,0.18076222534179687,1.7753005310058592,-11.222820281982422
4976813518360,1.022244948,1,0.19512743530273435,1.7453730102539062,-11.17852755126953
4976816021381,1.024747969,1,0.17836802368164062,1.7202338928222656,-11.133037719726563
4976818517370,1.027243958,1,0.23343466186523437,1.7549498168945312,-11.159373937988281
4976821019974,1.029746562,1,0.21428104858398436,1.7310078002929687,-11.162965240478515
4976823517474,1.032244062,1,0.2454056701660156,1.7573440185546874,-11.16057103881836
4976826018047,1.034744635,1,0.21906945190429686,1.7393875061035156,-11.167753643798827
4976828521745,1.037248333,1,0.229843359375,1.7453730102539062,-11.156979736328124
4976831018308,1.039744896,1,0.21906945190429686,1.7609353210449217,-11.273098516845703
4976833517683,1.042244271,1,0.23822306518554687,1.70467158203125,-11.221623181152344
4976836020756,1.044747344,1,0.181959326171875,1.6807295654296874,-11.176133349609374
4976838517579,1.047244167,1,0.20350714111328125,1.7477672119140624,-11.182118853759764
4976841020079,1.049746667,1,0.2346317626953125,1.7417817077636717,-11.148600030517578
4976843517318,1.052243906,1,0.2501940734863281,1.7286135986328124,-11.164162341308593
4976846019297,1.054745885,1,0.22385785522460935,1.7010802795410156,-11.180921752929686
4976848521329,1.057247917,1,0.24779987182617186,1.7166425903320313,-11.171344946289063
4976851018360,1.059744948,1,0.23582886352539062,1.763329522705078,-11.159373937988281
4976853518099,1.062244687,1,0.2154781494140625,1.7489643127441405,-11.131840618896483
4976856021224,1.064747812,1,0.2813186950683594,1.7669208251953124,-11.21084927368164
4976858517318,1.067243906,1,0.2214636535644531,1.7298106994628906,-11.182118853759764
4976861020131,1.069746719,1,0.1879448303222656,1.7310078002929687,-11.162965240478515
4976863517995,1.072244583,1,0.26815058593749996,1.7310078002929687,-11.135431921386719
4976866018360,1.074744948,1,0.16998831787109375,1.696291876220703,-11.162965240478515
4976868522214,1.077248802,1,0.22026655273437498,1.7214309936523438,-11.246762298583985
4976871017995,1.079744583,1,0.21906945190429686,1.7753005310058592,-11.201272467041015
4976873517110,1.082243698,1,0.277727392578125,1.7717092285156248,-11.142614526367186
4976876020860,1.084747448,1,0.22266075439453123,1.7262193969726563,-11.219228979492186
4976878517474,1.087244062,1,0.22266075439453123,1.725022296142578,-11.257536206054686
4976881021120,1.089747708,1,0.23343466186523437,1.6747440612792968,-11.156979736328124
4976883517526,1.092244114,1,0.24301146850585936,1.7657237243652342,-11.121066711425781
4976886019193,1.094745781,1,0.2885013000488281,1.7130512878417967,-11.18571015625
4976888520912,1.0972475,1,0.2537853759765625,1.7082628845214842,-11.142614526367186
4976891017422,1.09974401,1,0.2059013427734375,1.7010802795410156,-11.283872424316405
4976893517370,1.102243958,1,0.20350714111328125,1.7202338928222656,-11.149797131347656
4976896021224,1.104747812,1,0.22744915771484372,1.7513585144042967,-11.16057103881836
4976898518776,1.107245364,1,0.24660277099609373,1.7298106994628906,-11.189301458740234
4976901021329,1.109747917,1,0.24301146850585936,1.744175909423828,-11.131840618896483
4976903517422,1.11224401,1,0.229843359375,1.7753005310058592,-11.080365283203124
4976906018099,1.114744687,1,0.22505495605468748,1.7094599853515624,-11.174936248779296
4976908521068,1.117247656,1,0.18315642700195311,1.7166425903320313,-11.246762298583985
4976911019297,1.119745885,1,0.20350714111328125,1.7286135986328124,-11.177330450439452
4976913517579,1.122244167,1,0.23582886352539062,1.7429788085937499,-11.158176837158203
4976916021537,1.124748125,1,0.20949264526367187,1.7884686401367187,-11.155782635498046
4976918517995,1.127244583,1,0.1771709228515625,1.734599102783203,-11.194089862060546
4976921020756,1.129747344,1,0.22864625854492185,1.7298106994628906,-11.196484063720703
4976923517735,1.132244323,1,0.201112939453125,1.7322049011230467,-11.121066711425781
4976926018724,1.134745312,1,0.2059013427734375,1.6903063720703124,-11.112687005615234
4976928520547,1.137247135,1,0.2166752502441406,1.707065783691406,-11.218031878662108
4976931019766,1.139746354,1,0.21188684692382811,1.7274164978027342,-11.208455072021483
4976933518099,1.142244687,1,0.23702596435546874,1.697488977050781,-11.17254204711914
4976936021224,1.144747812,1,0.21068974609375,1.7286135986328124,-11.179724652099608
4976938517058,1.147243646,1,0.22266075439453123,1.686715069580078,-11.225214483642578
4976941020704,1.149747292,1,0.20470424194335937,1.714248388671875,-11.182118853759764
4976943517422,1.15224401,1,0.17956512451171874,1.7621324218749999,-11.183315954589844
4976946018829,1.154745417,1,0.19632453613281248,1.7453730102539062,-11.21084927368164
4976948519297,1.157245885,1,0.2501940734863281,1.7262193969726563,-11.09592759399414
4976951018204,1.159744792,1,0.2609679809570312,1.705868682861328,-11.220426080322264
4976953518256,1.162244844,1,0.1879448303222656,1.7417817077636717,-11.189301458740234
4976956020287,1.164746875,1,0.2741360900878906,1.7405846069335937,-11.14022032470703
4976958518256,1.167244844,1,0.2741360900878906,1.7238251953125,-11.226411584472656
4976961021537,1.169748125,1,0.22505495605468748,1.744175909423828,-11.19887826538086
4976963518776,1.172245364,1,0.22864625854492185,1.7298106994628906,-11.208455072021483
4976966019714,1.174746302,1,0.22744915771484372,1.707065783691406,-11.130643518066405
4976968521589,1.177248177,1,0.2561795776367187,1.7286135986328124,-11.19887826538086
4976971018099,1.179744687,1,0.20350714111328125,1.7274164978027342,-11.233594189453123
4976973518099,1.182244687,1,0.25258827514648435,1.7597382202148437,-11.197681164550781
4976976020860,1.184747448,1,0.25737667846679685,1.763329522705078,-11.203666668701171
4976978518256,1.187244844,1,0.2501940734863281,1.753752716064453,-11.129446417236327
4976981020808,1.189747396,1,0.21308394775390624,1.68551796875,-11.213243475341796
4976983518047,1.192244635,1,0.2454056701660156,1.7286135986328124,-11.158176837158203
4976986018047,1.194744635,1,0.23104046020507812,1.7310078002929687,-11.146205828857422
4976988521172,1.19724776,1,0.17597382202148437,1.6807295654296874,-11.145008728027342
4976991019245,1.199745833,1,0.2501940734863281,1.7561469177246092,-11.166556542968749
4976993518568,1.202245156,1,0.2549824768066406,1.7334020019531249,-11.176133349609374
4976996021641,1.204748229,1,0.19632453613281248,1.7310078002929687,-11.220426080322264
4976998516745,1.207243333,1,0.19393033447265623,1.7298106994628906,-11.179724652099608
4977001020079,1.209746667,1,0.2346317626953125,1.7609353210449217,-11.250353601074218
4977003517631,1.212244219,1,0.2214636535644531,1.7812860351562498,-11.183315954589844
4977006018620,1.214745208,1,0.24301146850585936,1.7429788085937499,-11.150994232177734
4977008520756,1.217247344,1,0.2645592834472656,1.7465701110839842,-11.201272467041015
4977011018568,1.219745156,1,0.24181436767578124,1.7908628417968748,-11.188104357910156
4977013517995,1.222244583,1,0.23582886352539062,1.705868682861328,-11.154585534667968
4977016020287,1.224746875,1,0.19632453613281248,1.7286135986328124,-11.204863769531249
4977018517995,1.227244583,1,0.23104046020507812,1.7429788085937499,-11.203666668701171
4977021021381,1.229747969,1,0.229843359375,1.7621324218749999,-11.16057103881836
4977023523308,1.232249896,1,0.20829554443359374,1.7310078002929687,-11.190498559570312
4977026019714,1.234746302,1,0.2059013427734375,1.6986860778808592,-11.158176837158203
4977028522318,1.237248906,1,0.22026655273437498,1.7549498168945312,-11.182118853759764
4977031018933,1.239745521,1,0.21906945190429686,1.7489643127441405,-11.218031878662108
4977033517735,1.242244323,1,0.2537853759765625,1.753752716064453,-11.179724652099608
4977036021381,1.244747969,1,0.26216508178710934,1.715445489501953,-11.127052215576171
4977038518308,1.247244896,1,0.2549824768066406,1.7298106994628906,-11.180921752929686
4977041020026,1.249746614,1,0.23223756103515625,1.7597382202148437,-11.168950744628905
4977043517891,1.252244479,1,0.21068974609375,1.7669208251953124,-11.127052215576171
4977046018620,1.254745208,1,0.17238251953125,1.7178396911621092,-11.143811627197264
4977048520599,1.257247187,1,0.2561795776367187,1.7166425903320313,-11.168950744628905
4977051018204,1.259744792,1,0.25139117431640623,1.7034744812011717,-11.183315954589844
4977053518412,1.262245,1,0.24779987182617186,1.7082628845214842,-11.220426080322264
4977056021849,1.264748437,1,0.26815058593749996,1.707065783691406,-11.227608685302734
4977058518829,1.267245417,1,0.2166752502441406,1.7417817077636717,-11.150994232177734
4977061022006,1.269748594,1,0.20231004028320312,1.686715069580078,-11.197681164550781
4977063519297,1.272245885,1,0.21308394775390624,1.7190367919921874,-11.174936248779296
4977066017943,1.274744531,1,0.22744915771484372,1.6711527587890624,-11.130643518066405
4977068521120,1.277247708,1,0.21787235107421873,1.7310078002929687,-11.167753643798827
4977071017787,1.279744375,1,0.21068974609375,1.7453730102539062,-11.146205828857422
4977073517474,1.282244062,1,0.2501940734863281,1.7298106994628906,-11.113884106445312
4977076021901,1.284748489,1,0.2561795776367187,1.7334020019531249,-11.145008728027342
4977078517787,1.287244375,1,0.2597708801269531,1.7262193969726563,-11.202469567871093
4977081020391,1.289746979,1,0.2262520568847656,1.7298106994628906,-11.182118853759764
4977083517110,1.292243698,1,0.19632453613281248,1.725022296142578,-11.111489904785156
4977086018047,1.294744635,1,0.22505495605468748,1.7705121276855467,-11.137826123046874
4977088520183,1.297246771,1,0.229843359375,1.7190367919921874,-11.21683477783203
4977091018933,1.299745521,1,0.23702596435546874,1.7645266235351562,-11.166556542968749
4977093518308,1.302244896,1,0.27892449340820313,1.7693150268554687,-11.128249316406249
4977096020599,1.304747187,1,0.21906945190429686,1.7489643127441405,-11.165359442138671
4977098516849,1.307243437,1,0.2645592834472656,1.7645266235351562,-11.060014569091797
4977101020287,1.309746875,1,0.2501940734863281,1.7477672119140624,-11.21683477783203
4977103518047,1.312244635,1,0.2454056701660156,1.6915034729003906,-11.167753643798827
4977106018464,1.314745052,1,0.21188684692382811,1.7286135986328124,-11.150994232177734
4977108521172,1.31724776,1,0.2262520568847656,1.7226280944824217,-11.280281121826171
4977111017995,1.319744583,1,0.24061726684570311,1.714248388671875,-11.121066711425781
4977113518985,1.322245573,1,0.20829554443359374,1.6927005737304686,-11.118672509765624
4977116021797,1.324748385,1,0.1771709228515625,1.6915034729003906,-11.167753643798827
4977118517683,1.327244271,1,0.201112939453125,1.6747440612792968,-11.208455072021483
4977121020183,1.329746771,1,0.20709844360351562,1.7405846069335937,-11.146205828857422
4977123518724,1.332245312,1,0.20829554443359374,1.7705121276855467,-11.139023223876952
4977126019245,1.334745833,1,0.23582886352539062,1.7393875061035156,-11.239579693603515
4977128521589,1.337248177,1,0.22266075439453123,1.7369933044433592,-11.158176837158203
4977131017631,1.339744219,1,0.239420166015625,1.6915034729003906,-11.13423482055664
4977133517162,1.34224375,1,0.19991583862304688,1.7621324218749999,-11.250353601074218
4977136020860,1.344747448,1,0.20231004028320312,1.6927005737304686,-11.21084927368164
4977138517370,1.347243958,1,0.23822306518554687,1.714248388671875,-11.192892761230468
4977141020599,1.349747187,1,0.20949264526367187,1.7094599853515624,-11.225214483642578
4977143517787,1.352244375,1,0.16998831787109375,1.7501614135742187,-11.203666668701171
4977146017995,1.354744583,1,0.2346317626953125,1.6819266662597656,-11.176133349609374
4977148520339,1.357246927,1,0.25737667846679685,1.7489643127441405,-11.036072552490234
4977151017943,1.359744531,1,0.2705447875976562,1.7130512878417967,-11.19887826538086
4977153519089,1.362245677,1,0.19632453613281248,1.696291876220703,-11.168950744628905
4977156021068,1.364747656,1,0.24899697265624998,1.7202338928222656,-11.156979736328124
4977158518308,1.367244896,1,0.21906945190429686,1.7597382202148437,-11.039663854980468
4977161020964,1.369747552,1,0.21906945190429686,1.7429788085937499,-11.139023223876952
4977163517891,1.372244479,1,0.23582886352539062,1.7489643127441405,-11.17254204711914
4977166018464,1.374745052,1,0.20470424194335937,1.734599102783203,-11.220426080322264
4977168520495,1.377247083,1,0.2609679809570312,1.7381904052734374,-11.171344946289063
4977171018516,1.379745104,1,0.24061726684570311,1.714248388671875,-11.19169566040039
4977173518151,1.382244739,1,0.2262520568847656,1.7741034301757812,-11.189301458740234
4977176020964,1.384747552,1,0.2549824768066406,1.7082628845214842,-11.14022032470703
4977178517631,1.387244219,1,0.19632453613281248,1.696291876220703,-11.167753643798827
4977181018672,1.38974526,1,0.19991583862304688,1.7010802795410156,-11.121066711425781
4977183517318,1.392243906,1,0.17357962036132812,1.734599102783203,-11.128249316406249
4977186018620,1.394745208,1,0.2454056701660156,1.7513585144042967,-11.158176837158203
4977188521016,1.397247604,1,0.22864625854492185,1.7369933044433592,-11.310208642578125
4977191018620,1.399745208,1,0.2454056701660156,1.7429788085937499,-11.159373937988281
4977193517578,1.402244166,1,0.25737667846679685,1.7357962036132812,-11.17254204711914
4977196021693,1.404748281,1,0.23582886352539062,1.7286135986328124,-11.225214483642578
4977198517839,1.407244427,1,0.1867477294921875,1.734599102783203,-11.054029064941405
4977201020599,1.409747187,1,0.20470424194335937,1.7645266235351562,-11.16057103881836
4977203517474,1.412244062,1,0.22864625854492185,1.7453730102539062,-11.180921752929686
4977206018047,1.414744635,1,0.22864625854492185,1.7393875061035156,-11.168950744628905
4977208520964,1.417247552,1,0.1771709228515625,1.7322049011230467,-11.297040533447264
4977211018203,1.419744791,1,0.22744915771484372,1.7465701110839842,-11.121066711425781
4977213519089,1.422245677,1,0.2214636535644531,1.7405846069335937,-11.214440576171874
4977216021276,1.424747864,1,0.1867477294921875,1.7226280944824217,-11.127052215576171
4977218517943,1.427244531,1,0.23582886352539062,1.7405846069335937,-11.203666668701171
4977221020703,1.429747291,1,0.24061726684570311,1.6891092712402342,-11.173739147949219
4977223518151,1.432244739,1,0.2501940734863281,1.7561469177246092,-11.189301458740234
4977226019037,1.434745625,1,0.21308394775390624,1.7178396911621092,-11.142614526367186
4977228520651,1.437247239,1,0.25139117431640623,1.7429788085937499,-11.129446417236327
4977231017370,1.439743958,1,0.21787235107421873,1.7310078002929687,-11.123460913085937
4977233517578,1.442244166,1,0.2346317626953125,1.7298106994628906,-11.159373937988281
4977236021068,1.444747656,1,0.22266075439453123,1.7405846069335937,-11.168950744628905
4977238517891,1.447244479,1,0.17597382202148437,1.7369933044433592,-11.218031878662108
4977241019818,1.449746406,1,0.2346317626953125,1.714248388671875,-11.244368096923827
4977243518203,1.452244791,1,0.2454056701660156,1.7429788085937499,-11.170147845458983
4977246018464,1.454745052,1,0.17836802368164062,1.6735469604492186,-11.143811627197264
4977248520183,1.457246771,1,0.19632453613281248,1.7489643127441405,-11.228805786132812
4977251017526,1.459744114,1,0.2932897033691406,1.7274164978027342,-11.174936248779296
4977253517995,1.462244583,1,0.23104046020507812,1.7310078002929687,-11.103110198974608
4977256021120,1.464747708,1,0.26336218261718747,1.7322049011230467,-11.176133349609374
4977258523412,1.46725,1,0.2346317626953125,1.7741034301757812,-11.183315954589844
4977261023360,1.469749948,1,0.22026655273437498,1.7465701110839842,-11.219228979492186
4977263517058,1.472243646,1,0.21428104858398436,1.7178396911621092,-11.222820281982422
4977266018308,1.474744896,1,0.2166752502441406,1.7130512878417967,-11.213243475341796
4977268520808,1.477247396,1,0.19512743530273435,1.7334020019531249,-11.243170996093749
4977271018412,1.479745,1,0.19153613281249998,1.70467158203125,-11.192892761230468
4977273518360,1.482244948,1,0.2346317626953125,1.734599102783203,-11.208455072021483
4977276020860,1.484747448,1,0.24301146850585936,1.7812860351562498,-11.142614526367186
4977278518933,1.487245521,1,0.2561795776367187,1.7334020019531249,-11.16057103881836
4977281021589,1.489748177,1,0.39863457641601563,1.7788918334960937,-11.228805786132812
4977283518360,1.492244948,1,0.20949264526367187,1.7082628845214842,-11.226411584472656
4977286018151,1.494744739,1,0.20949264526367187,1.6938976745605467,-11.204863769531249
4977288521068,1.497247656,1,0.239420166015625,1.7393875061035156,-11.125855114746093
4977291018568,1.499745156,1,0.24899697265624998,1.7393875061035156,-11.186907257080078
4977293517266,1.502243854,1,0.19033903198242186,1.7286135986328124,-11.204863769531249
4977296020912,1.5047475,1,0.2166752502441406,1.696291876220703,-11.167753643798827
4977298517787,1.507244375,1,0.21787235107421873,1.7381904052734374,-11.127052215576171
4977301021016,1.509747604,1,0.20949264526367187,1.68551796875,-11.182118853759764
4977303518360,1.512244948,1,0.20231004028320312,1.6927005737304686,-11.194089862060546
4977306019401,1.514745989,1,0.2537853759765625,1.7357962036132812,-11.174936248779296
4977308521433,1.517248021,1,0.2657563842773437,1.7489643127441405,-11.23000288696289
4977311018151,1.519744739,1,0.25737667846679685,1.7429788085937499,-11.182118853759764
4977313518308,1.522244896,1,0.20949264526367187,1.7262193969726563,-11.046846459960937
4977316022162,1.52474875,1,0.23343466186523437,1.744175909423828,-11.128249316406249
4977318517683,1.527244271,1,0.21428104858398436,1.725022296142578,-11.186907257080078
4977321021276,1.529747864,1,0.22864625854492185,1.7334020019531249,-11.197681164550781
4977323517214,1.532243802,1,0.21308394775390624,1.7238251953125,-11.139023223876952
4977326018203,1.534744791,1,0.24779987182617186,1.7178396911621092,-11.189301458740234
4977328521120,1.537247708,1,0.21787235107421873,1.7357962036132812,-11.173739147949219
4977331017735,1.539744323,1,0.1927332336425781,1.7238251953125,-11.208455072021483
4977333517630,1.542244218,1,0.20231004028320312,1.7286135986328124,-11.202469567871093
4977336020651,1.544747239,1,0.2154781494140625,1.7609353210449217,-11.165359442138671
4977338516745,1.547243333,1,0.2346317626953125,1.7561469177246092,-11.192892761230468
4977341021276,1.549747864,1,0.21308394775390624,1.7310078002929687,-11.197681164550781
4977343517943,1.552244531,1,0.22266075439453123,1.714248388671875,-11.194089862060546
4977346017891,1.554744479,1,0.19871873779296872,1.7130512878417967,-11.145008728027342
4977348520287,1.557246875,1,0.26336218261718747,1.7489643127441405,-11.212046374511718
4977351018099,1.559744687,1,0.201112939453125,1.734599102783203,-11.240776794433593
4977353517578,1.562244166,1,0.1879448303222656,1.7118541870117185,-11.2240173828125
4977356021276,1.564747864,1,0.28490999755859375,1.763329522705078,-11.23718549194336
4977358517683,1.567244271,1,0.17836802368164062,1.7166425903320313,-11.17852755126953
4977361020860,1.569747448,1,0.19991583862304688,1.7298106994628906,-11.173739147949219
4977363517578,1.572244166,1,0.23343466186523437,1.7274164978027342,-11.16057103881836
4977366018776,1.574745364,1,0.24301146850585936,1.7549498168945312,-11.113884106445312
4977368520599,1.577247187,1,0.14484920043945312,1.725022296142578,-11.176133349609374
4977371017683,1.579744271,1,0.2454056701660156,1.7190367919921874,-11.2240173828125
4977373517578,1.582244166,1,0.2454056701660156,1.782483135986328,-11.241973895263671
4977376020755,1.584747343,1,0.2454056701660156,1.7800889343261719,-11.190498559570312
4977378518360,1.587244948,1,0.23343466186523437,1.7286135986328124,-11.145008728027342
4977381020860,1.589747448,1,0.20829554443359374,1.687912170410156,-11.164162341308593
4977383517474,1.592244062,1,0.20829554443359374,1.7489643127441405,-11.176133349609374
4977386019037,1.594745625,1,0.22266075439453123,1.7501614135742187,-11.15338843383789
4977388521485,1.597248073,1,0.21787235107421873,1.7489643127441405,-11.264718811035156
4977391017058,1.599743646,1,0.23702596435546874,1.7417817077636717,-11.125855114746093
4977393516901,1.602243489,1,0.23104046020507812,1.7621324218749999,-11.201272467041015
4977396020703,1.604747291,1,0.2609679809570312,1.7657237243652342,-11.179724652099608
4977398517578,1.607244166,1,0.24061726684570311,1.7429788085937499,-11.150994232177734
4977401020547,1.609747135,1,0.24181436767578124,1.705868682861328,-11.182118853759764
4977403517266,1.612243854,1,0.20470424194335937,1.7022773803710936,-11.235988391113281
4977406019401,1.614745989,1,0.23343466186523437,1.7118541870117185,-11.183315954589844
4977408520599,1.617247187,1,0.23702596435546874,1.618480322265625,-11.159373937988281
4977411018412,1.619745,1,0.24779987182617186,1.7621324218749999,-11.171344946289063
4977413517526,1.622244114,1,0.20470424194335937,1.7693150268554687,-11.150994232177734
4977416021380,1.624747968,1,0.22864625854492185,1.7669208251953124,-11.182118853759764
4977418517578,1.627244166,1,0.201112939453125,1.744175909423828,-11.196484063720703
4977421020651,1.629747239,1,0.25139117431640623,1.7357962036132812,-11.17254204711914
4977423517318,1.632243906,1,0.20709844360351562,1.7453730102539062,-11.24915650024414
4977426018255,1.634744843,1,0.17597382202148437,1.6986860778808592,-11.124658013916015
4977428520755,1.637247343,1,0.20709844360351562,1.7022773803710936,-11.19169566040039
4977431017787,1.639744375,1,0.18914193115234373,1.715445489501953,-11.16057103881836
4977433517422,1.64224401,1,0.25139117431640623,1.753752716064453,-11.196484063720703
4977436020808,1.644747396,1,0.24181436767578124,1.7669208251953124,-11.226411584472656
4977438518151,1.647244739,1,0.22505495605468748,1.7681179260253905,-11.103110198974608
4977441021016,1.649747604,1,0.2346317626953125,1.7322049011230467,-11.184513055419922
4977443517370,1.652243958,1,0.1867477294921875,1.7549498168945312,-11.234791290283203
4977446018255,1.654744843,1,0.2885013000488281,1.7226280944824217,-11.183315954589844
4977448520651,1.657247239,1,0.22385785522460935,1.7010802795410156,-11.15338843383789
4977451017839,1.659744427,1,0.26695348510742184,1.7166425903320313,-11.17852755126953
4977453517422,1.66224401,1,0.2561795776367187,1.7429788085937499,-11.21084927368164
4977456021068,1.664747656,1,0.20350714111328125,1.7465701110839842,-11.219228979492186
4977458517422,1.66724401,1,0.2454056701660156,1.7657237243652342,-11.221623181152344
4977461020130,1.669746718,1,0.20709844360351562,1.7322049011230467,-11.212046374511718
4977463517474,1.672244062,1,0.26336218261718747,1.68551796875,-11.19887826538086
4977466018724,1.674745312,1,0.20350714111328125,1.7561469177246092,-11.170147845458983
4977468518672,1.67724526,1,0.1879448303222656,1.7513585144042967,-11.186907257080078
4977471019089,1.679745677,1,0.18315642700195311,1.7417817077636717,-11.1474029296875
4977473517526,1.682244114,1,0.2059013427734375,1.7274164978027342,-11.209652172851563
4977476021120,1.684747708,1,0.24181436767578124,1.7166425903320313,-11.251550701904296
4977478518151,1.687244739,1,0.24181436767578124,1.715445489501953,-11.226411584472656
4977481020912,1.6897475,1,0.26336218261718747,1.7322049011230467,-11.182118853759764
4977483517266,1.692243854,1,0.23343466186523437,1.7405846069335937,-11.235988391113281
4977486018672,1.69474526,1,0.17836802368164062,1.7609353210449217,-11.23718549194336
4977488520183,1.697246771,1,0.1879448303222656,1.7393875061035156,-11.17852755126953
4977491017943,1.699744531,1,0.24061726684570311,1.7238251953125,-11.232397088623046
4977493523464,1.702250052,1,0.21308394775390624,1.7369933044433592,-11.19887826538086
4977496023412,1.70475,1,0.21428104858398436,1.6915034729003906,-11.222820281982422
4977498515547,1.707242135,1,0.21308394775390624,1.7094599853515624,-11.209652172851563
4977501018308,1.709744896,1,0.23343466186523437,1.714248388671875,-11.159373937988281
4977503518412,1.712245,1,0.2501940734863281,1.695094775390625,-11.18571015625
4977506019193,1.714745781,1,0.2166752502441406,1.695094775390625,-11.141417425537108
4977508520964,1.717247552,1,0.21428104858398436,1.714248388671875,-11.194089862060546
4977511018308,1.719744896,1,0.22385785522460935,1.7286135986328124,-11.156979736328124
4977513518047,1.722244635,1,0.22505495605468748,1.7082628845214842,-11.128249316406249
4977516021589,1.724748177,1,0.21188684692382811,1.7465701110839842,-11.214440576171874
4977518518568,1.727245156,1,0.2442085693359375,1.725022296142578,-11.141417425537108
4977521020860,1.729747448,1,0.22026655273437498,1.7573440185546874,-11.17852755126953
4977523517891,1.732244479,1,0.22026655273437498,1.734599102783203,-11.233594189453123
4977526018307,1.734744895,1,0.20470424194335937,1.7238251953125,-11.165359442138671
4977528521537,1.737248125,1,0.19512743530273435,1.7106570861816406,-11.207257971191405
4977531017474,1.739744062,1,0.2262520568847656,1.7202338928222656,-11.2240173828125
4977533518672,1.74224526,1,0.229843359375,1.7022773803710936,-11.161768139648437
4977536020807,1.744747395,1,0.26336218261718747,1.7609353210449217,-11.118672509765624
4977538518307,1.747244895,1,0.24181436767578124,1.7214309936523438,-11.158176837158203
4977541020443,1.749747031,1,0.20949264526367187,1.7322049011230467,-11.167753643798827
4977543517422,1.75224401,1,0.19991583862304688,1.7657237243652342,-11.221623181152344
4977546018099,1.754744687,1,0.23104046020507812,1.7717092285156248,-11.335347760009764
4977548520339,1.757246927,1,0.19512743530273435,1.7034744812011717,-11.227608685302734
4977551016120,1.759742708,1,0.2166752502441406,1.7693150268554687,-11.214440576171874
4977553518099,1.762244687,1,0.2166752502441406,1.7645266235351562,-11.262324609375
4977556038724,1.764765312,1,0.22744915771484372,1.7322049011230467,-11.14022032470703
4977558518568,1.767245156,1,0.21428104858398436,1.7381904052734374,-11.221623181152344
4977561021485,1.769748073,1,0.2262520568847656,1.70467158203125,-11.23000288696289
4977563517839,1.772244427,1,0.2059013427734375,1.7585411193847655,-11.208455072021483
4977566018255,1.774744843,1,0.19871873779296872,1.744175909423828,-11.241973895263671
4977568520964,1.777247552,1,0.2166752502441406,1.668758557128906,-11.197681164550781
4977571019037,1.779745625,1,0.24779987182617186,1.7034744812011717,-11.125855114746093
4977573518568,1.782245156,1,0.2537853759765625,1.707065783691406,-11.166556542968749
4977576022110,1.784748698,1,0.22385785522460935,1.7465701110839842,-11.15338843383789
4977578517057,1.787243645,1,0.21787235107421873,1.7298106994628906,-11.215637677001952
4977581020599,1.789747187,1,0.17238251953125,1.7381904052734374,-11.225214483642578
4977583517214,1.792243802,1,0.2154781494140625,1.7322049011230467,-11.275492718505859
4977586017735,1.794744323,1,0.2813186950683594,1.7274164978027342,-11.148600030517578
4977588520703,1.797247291,1,0.2597708801269531,1.7453730102539062,-11.13423482055664
4977591018516,1.799745104,1,0.21188684692382811,1.697488977050781,-11.209652172851563
4977593518047,1.802244635,1,0.21787235107421873,1.714248388671875,-11.128249316406249
4977596021328,1.804747916,1,0.21428104858398436,1.7357962036132812,-11.0707884765625
4977598517839,1.807244427,1,0.22744915771484372,1.7274164978027342,-11.192892761230468
4977601020964,1.809747552,1,0.20231004028320312,1.7118541870117185,-11.145008728027342
4977603518776,1.812245364,1,0.2549824768066406,1.7274164978027342,-11.150994232177734
4977606018620,1.814745208,1,0.20709844360351562,1.6986860778808592,-11.118672509765624
4977608520443,1.817247031,1,0.2166752502441406,1.6998831787109374,-11.225214483642578
4977611017735,1.819744323,1,0.20231004028320312,1.7357962036132812,-11.128249316406249
4977613518047,1.822244635,1,0.27293898925781246,1.6795324645996093,-11.164162341308593
4977616021849,1.824748437,1,0.25258827514648435,1.7477672119140624,-11.091139190673827
4977618517735,1.827244323,1,0.2501940734863281,1.7334020019531249,-11.166556542968749
4977621021380,1.829747968,1,0.20949264526367187,1.7465701110839842,-11.174936248779296
4977623518203,1.832244791,1,0.26695348510742184,1.7118541870117185,-11.06360587158203
4977626018412,1.834745,1,0.23223756103515625,1.695094775390625,-11.202469567871093
4977628520182,1.83724677,1,0.1867477294921875,1.7106570861816406,-11.150994232177734
4977631017943,1.839744531,1,0.21068974609375,1.7334020019531249,-11.226411584472656
4977633517578,1.842244166,1,0.22385785522460935,1.7286135986328124,-11.12226381225586
4977636020235,1.844746823,1,0.26336218261718747,1.7465701110839842,-11.335347760009764
4977638517422,1.84724401,1,0.2705447875976562,1.744175909423828,-11.166556542968749
4977641020339,1.849746927,1,0.20949264526367187,1.7489643127441405,-11.149797131347656
4977643517630,1.852244218,1,0.23104046020507812,1.7609353210449217,-11.190498559570312
4977646018360,1.854744948,1,0.1927332336425781,1.7178396911621092,-11.194089862060546
4977648521485,1.857248073,1,0.20829554443359374,1.7573440185546874,-11.180921752929686
4977651018203,1.859744791,1,0.22026655273437498,1.7369933044433592,-11.195286962890624
4977653517735,1.862244323,1,0.23582886352539062,1.7106570861816406,-11.23000288696289
4977656020495,1.864747083,1,0.23822306518554687,1.7310078002929687,-11.075576879882812
4977658518151,1.867244739,1,0.22505495605468748,1.7489643127441405,-11.14022032470703
4977661020547,1.869747135,1,0.22026655273437498,1.7369933044433592,-11.189301458740234
4977663518672,1.87224526,1,0.20350714111328125,1.6903063720703124,-11.113884106445312
4977666019037,1.874745625,1,0.20350714111328125,1.7022773803710936,-11.214440576171874
4977668520703,1.877247291,1,0.18435352783203124,1.7022773803710936,-11.228805786132812
4977671017995,1.879744583,1,0.2262520568847656,1.687912170410156,-11.179724652099608
4977673518047,1.882244635,1,0.2166752502441406,1.7405846069335937,-11.093533392333983
4977676020860,1.884747448,1,0.23104046020507812,1.7178396911621092,-11.148600030517578
4977678518047,1.887244635,1,0.22385785522460935,1.7561469177246092,-11.2240173828125
4977681020547,1.889747135,1,0.17118541870117188,1.7429788085937499,-11.209652172851563
4977683518307,1.892244895,1,0.21428104858398436,1.7657237243652342,-11.18571015625
4977686019141,1.894745729,1,0.19153613281249998,1.7465701110839842,-11.150994232177734
4977688520599,1.897247187,1,0.24181436767578124,1.7034744812011717,-11.195286962890624
4977691017995,1.899744583,1,0.19991583862304688,1.7190367919921874,-11.19169566040039
4977693518099,1.902244687,1,0.2346317626953125,1.7034744812011717,-11.239579693603515
4977696022214,1.904748802,1,0.2645592834472656,1.7094599853515624,-11.190498559570312
4977698517839,1.907244427,1,0.2214636535644531,1.7118541870117185,-11.173739147949219
4977701021432,1.90974802,1,0.2166752502441406,1.7453730102539062,-11.177330450439452
4977703517891,1.912244479,1,0.2454056701660156,1.7322049011230467,-11.234791290283203
4977706018255,1.914744843,1,0.2454056701660156,1.7405846069335937,-11.137826123046874
4977708520912,1.9172475,1,0.2346317626953125,1.6938976745605467,-11.213243475341796
4977711017839,1.919744427,1,0.28490999755859375,1.7501614135742187,-11.184513055419922
4977713518203,1.922244791,1,0.22266075439453123,1.715445489501953,-11.189301458740234
4977716021120,1.924747708,1,0.2549824768066406,1.687912170410156,-11.202469567871093
4977718517735,1.927244323,1,0.26336218261718747,1.715445489501953,-11.215637677001952
4977721020599,1.929747187,1,0.2645592834472656,1.7262193969726563,-11.277886920166015
4977723514714,1.932241302,1,0.2501940734863281,1.792059942626953,-11.146205828857422
4977726018932,1.93474552,1,0.2609679809570312,1.7717092285156248,-11.252747802734374
4977728526953,1.937253541,1,0.20470424194335937,1.7453730102539062,-11.239579693603515
4977731020182,1.93974677,1,0.2262520568847656,1.7082628845214842,-11.226411584472656
4977733517839,1.942244427,1,0.21308394775390624,1.6915034729003906,-11.201272467041015
4977736021797,1.944748385,1,0.181959326171875,1.7334020019531249,-11.240776794433593
4977738517839,1.947244427,1,0.25258827514648435,1.7549498168945312,-11.158176837158203
4977741021328,1.949747916,1,0.2765302917480469,1.6938976745605467,-11.125855114746093
4977743517995,1.952244583,1,0.24061726684570311,1.7405846069335937,-11.11508120727539
4977746018151,1.954744739,1,0.21906945190429686,1.7764976318359373,-11.173739147949219
4977748520859,1.957247447,1,0.24660277099609373,1.714248388671875,-11.213243475341796
4977751018880,1.959745468,1,0.22744915771484372,1.6891092712402342,-11.145008728027342
4977753517943,1.962244531,1,0.2549824768066406,1.7334020019531249,-11.206060870361327
4977756020443,1.964747031,1,0.24061726684570311,1.70467158203125,-11.188104357910156
4977758517162,1.96724375,1,0.18914193115234373,1.695094775390625,-11.184513055419922
4977761019037,1.969745625,1,0.1879448303222656,1.714248388671875,-11.201272467041015
4977763518568,1.972245156,1,0.24899697265624998,1.7657237243652342,-11.142614526367186
4977766017734,1.974744322,1,0.229843359375,1.753752716064453,-11.159373937988281
4977768521120,1.977247708,1,0.20231004028320312,1.7645266235351562,-11.18571015625
4977771018568,1.979745156,1,0.24779987182617186,1.7513585144042967,-11.11508120727539
4977773516901,1.982243489,1,0.2059013427734375,1.7214309936523438,-11.195286962890624
4977776020234,1.984746822,1,0.229843359375,1.7238251953125,-11.183315954589844
4977778517370,1.987243958,1,0.23582886352539062,1.7298106994628906,-11.14022032470703
4977781020703,1.989747291,1,0.2059013427734375,1.6998831787109374,-11.213243475341796
4977783517630,1.992244218,1,0.22385785522460935,1.744175909423828,-11.194089862060546
4977786018412,1.994745,1,0.2501940734863281,1.7453730102539062,-11.213243475341796
4977788520287,1.997246875,1,0.21787235107421873,1.6938976745605467,-11.213243475341796
4977791017787,1.999744375,1,0.2442085693359375,1.715445489501953,-11.188104357910156
4977793517682,2.00224427,1,0.22026655273437498,1.7369933044433592,-11.137826123046874
4977796021328,2.004747916,1,0.23343466186523437,1.7322049011230467,-11.100715997314452
4977798517630,2.007244218,1,0.21428104858398436,1.7310078002929687,-11.069591375732422
4977801020339,2.009746927,1,0.2693476867675781,1.7992425476074219,-11.180921752929686
4977803517370,2.012243958,1,0.3232172241210937,1.734599102783203,-11.156979736328124
4977806018203,2.014744791,1,0.24061726684570311,1.7094599853515624,-11.259930407714844
4977808521380,2.017247968,1,0.2741360900878906,1.6795324645996093,-11.215637677001952
4977811018724,2.019745312,1,0.201112939453125,1.7310078002929687,-11.206060870361327
4977813517682,2.02224427,1,0.181959326171875,1.725022296142578,-11.16057103881836
4977816020651,2.024747239,1,0.23343466186523437,1.715445489501953,-11.171344946289063
4977818518099,2.027244687,1,0.26695348510742184,1.7381904052734374,-11.245565197753905
4977821020912,2.0297475,1,0.20949264526367187,1.763329522705078,-11.194089862060546
4977823517318,2.032243906,1,0.201112939453125,1.714248388671875,-11.197681164550781
4977826018255,2.034744843,1,0.22385785522460935,1.7501614135742187,-11.197681164550781
4977828520651,2.037247239,1,0.19153613281249998,1.7369933044433592,-11.16057103881836
4977831017578,2.039744166,1,0.229843359375,1.7453730102539062,-11.162965240478515
4977833517995,2.042244583,1,0.26695348510742184,1.7369933044433592,-11.227608685302734
4977836022682,2.04474927,1,0.21787235107421873,1.705868682861328,-11.204863769531249
4977838517318,2.047243906,1,0.19991583862304688,1.6843208679199217,-11.235988391113281
4977841020287,2.049746875,1,0.2549824768066406,1.7022773803710936,-11.23000288696289
4977843517318,2.052243906,1,0.2693476867675781,1.7118541870117185,-11.231199987792968
4977846023307,2.054749895,1,0.23104046020507812,1.5682020874023437,-11.14022032470703
4977848523359,2.057249947,1,0.19871873779296872,1.7214309936523438,-11.213243475341796
4977851017943,2.059744531,1,0.20709844360351562,1.744175909423828,-11.244368096923827
4977853518516,2.062245104,1,0.2454056701660156,1.7369933044433592,-11.183315954589844
4977856021380,2.064747968,1,0.25139117431640623,1.6938976745605467,-11.195286962890624
4977858517578,2.067244166,1,0.2346317626953125,1.7393875061035156,-11.165359442138671
4977861021693,2.069748281,1,0.26216508178710934,1.7465701110839842,-11.220426080322264
4977863517057,2.072243645,1,0.19632453613281248,1.715445489501953,-11.21683477783203
4977866017891,2.074744479,1,0.2059013427734375,1.697488977050781,-11.194089862060546
4977868520755,2.077247343,1,0.2059013427734375,1.734599102783203,-11.196484063720703
4977871018255,2.079744843,1,0.24181436767578124,1.7549498168945312,-11.168950744628905
4977873517578,2.082244166,1,0.27174188842773433,1.7525556152343749,-11.17852755126953
4977876021589,2.084748177,1,0.2597708801269531,1.7310078002929687,-11.196484063720703
4977878517214,2.087243802,1,0.21787235107421873,1.7681179260253905,-11.201272467041015
4977881021016,2.089747604,1,0.2645592834472656,1.7190367919921874,-11.162965240478515
4977883517734,2.092244322,1,0.2262520568847656,1.7621324218749999,-11.203666668701171
4977886018359,2.094744947,1,0.20949264526367187,1.7585411193847655,-11.212046374511718
4977888520391,2.097246979,1,0.2214636535644531,1.7597382202148437,-11.221623181152344
4977891018568,2.099745156,1,0.20231004028320312,1.696291876220703,-11.195286962890624
4977893517943,2.102244531,1,0.229843359375,1.6543933471679686,-11.148600030517578
4977896021484,2.104748072,1,0.2537853759765625,1.696291876220703,-11.136629022216797
4977898518047,2.107244635,1,0.24061726684570311,1.7082628845214842,-11.161768139648437
4977901020755,2.109747343,1,0.21188684692382811,1.7405846069335937,-11.168950744628905
4977903517370,2.112243958,1,0.24061726684570311,1.7166425903320313,-11.17852755126953
4977906017839,2.114744427,1,0.25737667846679685,1.7812860351562498,-11.162965240478515
4977908518828,2.117245416,1,0.24660277099609373,1.6998831787109374,-11.158176837158203
4977911018932,2.11974552,1,0.19393033447265623,1.7597382202148437,-11.171344946289063
4977913517839,2.122244427,1,0.22266075439453123,1.782483135986328,-11.213243475341796
4977916021068,2.124747656,1,0.201112939453125,1.6986860778808592,-11.203666668701171
4977918517266,2.127243854,1,0.18914193115234373,1.7836802368164062,-11.15338843383789
4977921021432,2.12974802,1,0.21428104858398436,1.744175909423828,-11.194089862060546
4977923518151,2.132244739,1,0.23822306518554687,1.7848773376464844,-11.148600030517578
4977926018568,2.134745156,1,0.22266075439453123,1.7202338928222656,-11.213243475341796
4977928520182,2.13724677,1,0.21308394775390624,1.7693150268554687,-11.176133349609374
4977931018307,2.139744895,1,0.19512743530273435,1.7429788085937499,-11.196484063720703
4977933517526,2.142244114,1,0.23104046020507812,1.68551796875,-11.214440576171874
4977936021276,2.144747864,1,0.277727392578125,1.7561469177246092,-11.161768139648437
4977938517422,2.14724401,1,0.21188684692382811,1.744175909423828,-11.170147845458983
4977941020495,2.149747083,1,0.21428104858398436,1.7465701110839842,-11.179724652099608
4977943517474,2.152244062,1,0.2442085693359375,1.7417817077636717,-11.23718549194336
4977946018568,2.154745156,1,0.24779987182617186,1.7525556152343749,-11.227608685302734
4977948521641,2.157248229,1,0.26815058593749996,1.7609353210449217,-11.149797131347656
4977951017839,2.159744427,1,0.25139117431640623,1.6903063720703124,-11.182118853759764
4977953517682,2.16224427,1,0.19991583862304688,1.7465701110839842,-11.113884106445312
4977956021068,2.164747656,1,0.24061726684570311,1.7393875061035156,-11.156979736328124
4977958517422,2.16724401,1,0.19512743530273435,1.7381904052734374,-11.174936248779296
4977961020703,2.169747291,1,0.20350714111328125,1.7298106994628906,-11.162965240478515
4977963517318,2.172243906,1,0.24181436767578124,1.7753005310058592,-11.040860955810546
4977966017734,2.174744322,1,0.23702596435546874,1.7681179260253905,-11.19169566040039
4977968520547,2.177247135,1,0.17477672119140625,1.7393875061035156,-11.16057103881836
4977971018203,2.179744791,1,0.21906945190429686,1.7848773376464844,-11.155782635498046
4977973517839,2.182244427,1,0.22266075439453123,1.7609353210449217,-11.334150659179686
4977976021224,2.184747812,1,0.21308394775390624,1.6831237670898436,-11.222820281982422
4977978518516,2.187245104,1,0.22026655273437498,1.7357962036132812,-11.215637677001952
4977981018828,2.189745416,1,0.22505495605468748,1.725022296142578,-11.202469567871093
4977983518620,2.192245208,1,0.21068974609375,1.725022296142578,-11.23718549194336
4977986018620,2.194745208,1,0.23343466186523437,1.714248388671875,-11.194089862060546
4977988520911,2.197247499,1,0.2346317626953125,1.7381904052734374,-11.167753643798827
4977991018359,2.199744947,1,0.2059013427734375,1.7393875061035156,-11.201272467041015
4977993517630,2.202244218,1,0.20709844360351562,1.7286135986328124,-11.073182678222656
4977996020964,2.204747552,1,0.2059013427734375,1.705868682861328,-11.1474029296875
4977998517214,2.207243802,1,0.24181436767578124,1.744175909423828,-11.146205828857422
4978001160807,2.209887395,1,0.18555062866210936,1.7298106994628906,-11.184513055419922
4978003521536,2.212248124,1,0.2657563842773437,1.7609353210449217,-11.177330450439452
4978006025911,2.214752499,1,0.2693476867675781,1.7513585144042967,-11.200075366210937
4978008522891,2.217249479,1,0.21428104858398436,1.7393875061035156,-11.228805786132812
4978011016953,2.219743541,1,0.2154781494140625,1.7130512878417967,-11.201272467041015
4978013516328,2.222242916,1,0.20350714111328125,1.7717092285156248,-11.042058056640624
4978016033411,2.224759999,1,0.18435352783203124,1.6986860778808592,-11.179724652099608
4978018515599,2.227242187,1,0.19033903198242186,1.744175909423828,-11.150994232177734
4978021015859,2.229742447,1,0.19871873779296872,1.7393875061035156,-11.167753643798827
4978023515807,2.232242395,1,0.17597382202148437,1.7609353210449217,-11.318588348388671
4978026017995,2.234744583,1,0.23582886352539062,1.7477672119140624,-11.168950744628905
4978028520755,2.237247343,1,0.22385785522460935,1.7286135986328124,-11.204863769531249
4978031018047,2.239744635,1,0.21428104858398436,1.7489643127441405,-11.189301458740234
4978033517839,2.242244427,1,0.17477672119140625,1.70467158203125,-11.326968054199218
4978036020599,2.244747187,1,0.2346317626953125,1.7274164978027342,-11.177330450439452
4978038519349,2.247245937,1,0.21787235107421873,1.744175909423828,-11.125855114746093
4978041021172,2.24974776,1,0.20829554443359374,1.7932570434570312,-11.176133349609374
4978043519089,2.252245677,1,0.21308394775390624,1.7501614135742187,-11.235988391113281
4978046017891,2.254744479,1,0.21787235107421873,1.7010802795410156,-11.135431921386719
4978048520078,2.257246666,1,0.20949264526367187,1.7334020019531249,-11.173739147949219
4978051017943,2.259744531,1,0.20709844360351562,1.7381904052734374,-11.177330450439452
4978053516536,2.262243124,1,0.21188684692382811,1.7238251953125,-11.311405743408203
4978056020755,2.264747343,1,0.22385785522460935,1.7477672119140624,-11.212046374511718
4978058517630,2.267244218,1,0.25139117431640623,1.7082628845214842,-11.165359442138671
4978061020807,2.269747395,1,0.21428104858398436,1.7561469177246092,-11.219228979492186
4978063517682,2.27224427,1,0.21188684692382811,1.7381904052734374,-11.207257971191405
4978066019297,2.274745885,1,0.26216508178710934,1.7262193969726563,-11.208455072021483
4978068520547,2.277247135,1,0.23822306518554687,1.7286135986328124,-11.218031878662108
4978071017839,2.279744427,1,0.25139117431640623,1.7561469177246092,-11.252747802734374
4978073517839,2.282244427,1,0.23702596435546874,1.7980454467773437,-11.197681164550781
4978076020599,2.284747187,1,0.1927332336425781,1.7082628845214842,-11.139023223876952
4978078517630,2.287244218,1,0.19153613281249998,1.7298106994628906,-11.190498559570312
4978081026901,2.289753489,1,0.25258827514648435,1.7166425903320313,-11.158176837158203
4978083519453,2.292246041,1,0.22026655273437498,1.7417817077636717,-11.10191309814453
4978086017734,2.294744322,1,0.2537853759765625,1.7585411193847655,-11.137826123046874
4978088521328,2.297247916,1,0.23343466186523437,1.7800889343261719,-11.173739147949219
4978091017839,2.299744427,1,0.229843359375,1.7489643127441405,-11.149797131347656
4978093517422,2.30224401,1,0.2454056701660156,1.7274164978027342,-11.183315954589844
4978096021693,2.304748281,1,0.2059013427734375,1.7238251953125,-11.097124694824219
4978098518151,2.307244739,1,0.2549824768066406,1.7381904052734374,-11.218031878662108
4978101020911,2.309747499,1,0.2166752502441406,1.7561469177246092,-11.166556542968749
4978103517266,2.312243854,1,0.201112939453125,1.7705121276855467,-11.149797131347656
4978106018620,2.314745208,1,0.2059013427734375,1.7298106994628906,-11.183315954589844
4978108521172,2.31724776,1,0.2537853759765625,1.7393875061035156,-11.150994232177734
4978111018464,2.319745052,1,0.27293898925781246,1.7429788085937499,-11.184513055419922
4978113517786,2.322244374,1,0.22385785522460935,1.772906329345703,-11.141417425537108
4978116020443,2.324747031,1,0.19991583862304688,1.7860744384765623,-11.183315954589844
4978118518255,2.327244843,1,0.22385785522460935,1.7549498168945312,-11.256339105224608
4978121020755,2.329747343,1,0.20709844360351562,1.7681179260253905,-11.142614526367186
4978123517839,2.332244427,1,0.19871873779296872,1.715445489501953,-11.143811627197264
4978126019297,2.334745885,1,0.19512743530273435,1.696291876220703,-11.206060870361327
4978128521016,2.337247604,1,0.19871873779296872,1.6915034729003906,-11.190498559570312
4978131017995,2.339744583,1,0.20350714111328125,1.707065783691406,-11.164162341308593
4978133517578,2.342244166,1,0.229843359375,1.725022296142578,-11.168950744628905
4978136021328,2.344747916,1,0.22505495605468748,1.7262193969726563,-11.19169566040039
4978138521016,2.347247604,1,0.22266075439453123,1.705868682861328,-11.214440576171874
4978141021068,2.349747656,1,0.23223756103515625,1.7226280944824217,-11.226411584472656
4978143518047,2.352244635,1,0.20231004028320312,1.7417817077636717,-11.2240173828125
4978146018828,2.354745416,1,0.229843359375,1.782483135986328,-11.240776794433593
4978148520391,2.357246979,1,0.22744915771484372,1.744175909423828,-11.221623181152344
4978151018099,2.359744687,1,0.2693476867675781,1.7513585144042967,-11.184513055419922
4978153516589,2.362243177,1,0.26336218261718747,1.7573440185546874,-11.231199987792968
4978156021380,2.364747968,1,0.18076222534179687,1.6927005737304686,-11.119869610595703
4978158518828,2.367245416,1,0.19153613281249998,1.6927005737304686,-11.142614526367186
4978161021224,2.369747812,1,0.23582886352539062,1.7405846069335937,-11.170147845458983
4978163518464,2.372245052,1,0.27174188842773433,1.705868682861328,-11.161768139648437
4978166017526,2.374744114,1,0.20709844360351562,1.725022296142578,-11.197681164550781
4978168520234,2.377246822,1,0.1867477294921875,1.7405846069335937,-11.142614526367186
4978171017109,2.379743697,1,0.24301146850585936,1.7130512878417967,-11.136629022216797
4978173517682,2.38224427,1,0.1771709228515625,1.7178396911621092,-11.202469567871093
4978176020964,2.384747552,1,0.20829554443359374,1.7417817077636717,-11.179724652099608
4978178518255,2.387244843,1,0.22505495605468748,1.7489643127441405,-11.161768139648437
4978181020495,2.389747083,1,0.24779987182617186,1.7334020019531249,-11.161768139648437
4978183517786,2.392244374,1,0.20709844360351562,1.715445489501953,-11.192892761230468
4978186017891,2.394744479,1,0.23582886352539062,1.7214309936523438,-11.128249316406249
4978188519922,2.39724651,1,0.2609679809570312,1.7298106994628906,-11.159373937988281
4978191017891,2.399744479,1,0.23223756103515625,1.70467158203125,-11.204863769531249
4978193517995,2.402244583,1,0.28371289672851563,1.7286135986328124,-11.152191333007812
4978196020651,2.404747239,1,0.18914193115234373,1.7190367919921874,-11.220426080322264
4978198517422,2.40724401,1,0.23582886352539062,1.7094599853515624,-11.19887826538086
4978201020859,2.409747447,1,0.2705447875976562,1.7573440185546874,-11.188104357910156
4978203517161,2.412243749,1,0.24899697265624998,1.7202338928222656,-11.189301458740234
4978206020547,2.414747135,1,0.24660277099609373,1.7298106994628906,-11.173739147949219
4978208521849,2.417248437,1,0.24660277099609373,1.707065783691406,-11.241973895263671
4978211018568,2.419745156,1,0.22385785522460935,1.7082628845214842,-11.194089862060546
4978213517838,2.422244426,1,0.2346317626953125,1.7118541870117185,-11.150994232177734
4978216021484,2.424748072,1,0.2609679809570312,1.686715069580078,-11.110292803955078
4978218517734,2.427244322,1,0.24181436767578124,1.7034744812011717,-11.170147845458983
4978221020651,2.429747239,1,0.229843359375,1.7525556152343749,-11.257536206054686
4978223518724,2.432245312,1,0.18315642700195311,1.7369933044433592,-11.189301458740234
4978226019349,2.434745937,1,0.20231004028320312,1.7274164978027342,-11.097124694824219
4978228521380,2.437247968,1,0.2214636535644531,1.7381904052734374,-11.17852755126953
4978231018203,2.439744791,1,0.22744915771484372,1.7657237243652342,-11.196484063720703
4978233515443,2.442242031,1,0.22026655273437498,1.7597382202148437,-11.201272467041015
4978236054505,2.444781093,1,0.25737667846679685,1.6986860778808592,-11.168950744628905
4978238518672,2.44724526,1,0.16639701538085935,1.7322049011230467,-11.239579693603515
4978241021328,2.449747916,1,0.20470424194335937,1.753752716064453,-11.158176837158203
4978243518307,2.452244895,1,0.2920926025390625,1.7298106994628906,-11.204863769531249
4978246018255,2.454744843,1,0.18914193115234373,1.7334020019531249,-11.166556542968749
4978248520547,2.457247135,1,0.19393033447265623,1.7274164978027342,-11.158176837158203
4978251018307,2.459744895,1,0.18435352783203124,1.7286135986328124,-11.197681164550781
4978253517995,2.462244583,1,0.20949264526367187,1.715445489501953,-11.173739147949219
4978256019974,2.464746562,1,0.20709844360351562,1.7214309936523438,-11.202469567871093
4978258519401,2.467245989,1,0.2154781494140625,1.7393875061035156,-11.279084020996093
4978261021849,2.469748437,1,0.20829554443359374,1.715445489501953,-11.186907257080078
4978263517630,2.472244218,1,0.2442085693359375,1.705868682861328,-11.206060870361327
4978266018307,2.474744895,1,0.23223756103515625,1.7393875061035156,-11.165359442138671
4978268520391,2.477246979,1,0.2346317626953125,1.7357962036132812,-11.17254204711914
4978271017995,2.479744583,1,0.22505495605468748,1.7573440185546874,-11.238382592773437
4978273517943,2.482244531,1,0.23702596435546874,1.7322049011230467,-11.176133349609374
4978276021901,2.484748489,1,0.21906945190429686,1.7286135986328124,-11.100715997314452
4978278517995,2.487244583,1,0.19512743530273435,1.7130512878417967,-11.201272467041015
4978281020338,2.489746926,1,0.229843359375,1.7274164978027342,-11.207257971191405
4978283517422,2.49224401,1,0.2537853759765625,1.7549498168945312,-11.118672509765624
4978286018359,2.494744947,1,0.2166752502441406,1.7106570861816406,-11.180921752929686
4978288520130,2.497246718,1,0.24660277099609373,1.7226280944824217,-11.19169566040039
4978291018255,2.499744843,1,0.22385785522460935,1.7082628845214842,-11.225214483642578
4978293517682,2.50224427,1,0.2549824768066406,1.7525556152343749,-11.186907257080078
4978296020807,2.504747395,1,0.22744915771484372,1.772906329345703,-11.227608685302734
4978298517370,2.507243958,1,0.17357962036132812,1.7585411193847655,-11.133037719726563
4978301020599,2.509747187,1,0.21906945190429686,1.744175909423828,-11.136629022216797
4978303517422,2.51224401,1,0.2537853759765625,1.705868682861328,-11.145008728027342
4978306018203,2.514744791,1,0.19871873779296872,1.7202338928222656,-11.164162341308593
4978308521328,2.517247916,1,0.21308394775390624,1.7130512878417967,-11.17852755126953
4978311016901,2.519743489,1,0.22505495605468748,1.7393875061035156,-11.207257971191405
4978313536224,2.522262812,1,0.25139117431640623,1.7034744812011717,-11.214440576171874
4978316027161,2.524753749,1,0.21308394775390624,1.7022773803710936,-11.2240173828125
4978318519193,2.527245781,1,0.19632453613281248,1.7753005310058592,-11.221623181152344
4978321020651,2.529747239,1,0.239420166015625,1.7717092285156248,-11.184513055419922
4978323517578,2.532244166,1,0.239420166015625,1.7298106994628906,-11.139023223876952
4978326018984,2.534745572,1,0.23343466186523437,1.697488977050781,-11.19887826538086
4978328521380,2.537247968,1,0.21906945190429686,1.763329522705078,-11.239579693603515
4978331018203,2.539744791,1,0.2597708801269531,1.7561469177246092,-11.190498559570312
4978333517630,2.542244218,1,0.2537853759765625,1.7681179260253905,-11.202469567871093
4978336020495,2.544747083,1,0.2262520568847656,1.744175909423828,-11.206060870361327
4978338518516,2.547245104,1,0.2346317626953125,1.7693150268554687,-11.188104357910156
4978341021328,2.549747916,1,0.20949264526367187,1.7429788085937499,-11.201272467041015
4978343516901,2.552243489,1,0.21308394775390624,1.8375497741699218,-11.219228979492186
4978346018099,2.554744687,1,0.22026655273437498,1.714248388671875,-11.219228979492186
4978348520234,2.557246822,1,0.18435352783203124,1.7262193969726563,-11.192892761230468
4978351018255,2.559744843,1,0.239420166015625,1.7393875061035156,-11.247959399414063
4978353517370,2.562243958,1,0.15682020874023436,1.7369933044433592,-11.150994232177734
4978356020911,2.564747499,1,0.23343466186523437,1.7214309936523438,-11.195286962890624
4978358517786,2.567244374,1,0.23343466186523437,1.7549498168945312,-11.195286962890624
4978361019922,2.56974651,1,0.21308394775390624,1.7453730102539062,-11.168950744628905
4978363517995,2.572244583,1,0.1879448303222656,1.7010802795410156,-11.156979736328124
4978366018255,2.574744843,1,0.23702596435546874,1.7513585144042967,-11.171344946289063
4978368520495,2.577247083,1,0.20709844360351562,1.7417817077636717,-11.128249316406249
4978371019036,2.579745624,1,0.21787235107421873,1.7764976318359373,-11.137826123046874
4978373537370,2.582263958,1,0.16998831787109375,1.7262193969726563,-11.259930407714844
4978376021276,2.584747864,1,0.2549824768066406,1.7489643127441405,-11.11508120727539
4978378516901,2.587243489,1,0.21068974609375,1.7513585144042967,-11.116278308105468
4978381020391,2.589746979,1,0.239420166015625,1.7525556152343749,-11.156979736328124
4978383517630,2.592244218,1,0.229843359375,1.6723498596191406,-11.133037719726563
4978386018516,2.594745104,1,0.19632453613281248,1.6938976745605467,-11.188104357910156
4978388522109,2.597248697,1,0.23582886352539062,1.705868682861328,-11.167753643798827
4978391018672,2.59974526,1,0.25258827514648435,1.7561469177246092,-11.12226381225586
4978393537213,2.602263801,1,0.21188684692382811,1.6891092712402342,-11.21683477783203
4978396039297,2.604765885,1,0.18076222534179687,1.68551796875,-11.180921752929686
4978398517943,2.607244531,1,0.21188684692382811,1.7298106994628906,-11.207257971191405
4978401021745,2.609748333,1,0.2214636535644531,1.7477672119140624,-11.208455072021483
4978403518620,2.612245208,1,0.30885201416015623,1.7381904052734374,-11.225214483642578
4978406018047,2.614744635,1,0.24899697265624998,1.695094775390625,-11.184513055419922
4978408520703,2.617247291,1,0.21906945190429686,1.705868682861328,-11.197681164550781
4978411017578,2.619744166,1,0.21068974609375,1.7298106994628906,-11.093533392333983
4978413517057,2.622243645,1,0.2693476867675781,1.7178396911621092,-11.194089862060546
4978416020807,2.624747395,1,0.23702596435546874,1.6998831787109374,-11.204863769531249
4978418517995,2.627244583,1,0.20231004028320312,1.7393875061035156,-11.155782635498046
4978421021015,2.629747603,1,0.2597708801269531,1.7166425903320313,-11.204863769531249
4978423518099,2.632244687,1,0.20350714111328125,1.7992425476074219,-11.215637677001952
4978426019245,2.634745833,1,0.239420166015625,1.7453730102539062,-11.158176837158203
4978428520651,2.637247239,1,0.1975216369628906,1.7214309936523438,-11.186907257080078
4978431017995,2.639744583,1,0.2166752502441406,1.7130512878417967,-11.19169566040039
4978433517786,2.642244374,1,0.24181436767578124,1.7334020019531249,-11.150994232177734
4978436021797,2.644748385,1,0.22505495605468748,1.7190367919921874,-11.218031878662108
4978438517786,2.647244374,1,0.2537853759765625,1.7357962036132812,-11.171344946289063
4978441020755,2.649747343,1,0.2501940734863281,1.714248388671875,-11.208455072021483
4978443517265,2.652243853,1,0.22744915771484372,1.7238251953125,-11.189301458740234
4978446018880,2.654745468,1,0.19871873779296872,1.744175909423828,-11.250353601074218
4978448520547,2.657247135,1,0.25139117431640623,1.7657237243652342,-11.221623181152344
4978451017943,2.659744531,1,0.19512743530273435,1.7609353210449217,-11.054029064941405
4978453518099,2.662244687,1,0.19033903198242186,1.7322049011230467,-11.14022032470703
4978456021276,2.664747864,1,0.22266075439453123,1.7202338928222656,-11.182118853759764
4978458517578,2.667244166,1,0.2454056701660156,1.744175909423828,-11.125855114746093
4978461020443,2.669747031,1,0.2537853759765625,1.7286135986328124,-11.166556542968749
4978463517057,2.672243645,1,0.26336218261718747,1.7178396911621092,-11.180921752929686
4978466018620,2.674745208,1,0.2597708801269531,1.7393875061035156,-11.165359442138671
4978468520443,2.677247031,1,0.2813186950683594,1.7082628845214842,-11.139023223876952
4978471018307,2.679744895,1,0.29089550170898437,1.7082628845214842,-11.335347760009764
4978473517838,2.682244426,1,0.19871873779296872,1.68551796875,-11.173739147949219
4978476020911,2.684747499,1,0.25139117431640623,1.7453730102539062,-11.165359442138671
4978478517474,2.687244062,1,0.2262520568847656,1.7357962036132812,-11.195286962890624
4978481020495,2.689747083,1,0.25737667846679685,1.7274164978027342,-11.197681164550781
4978483517890,2.692244478,1,0.2262520568847656,1.6986860778808592,-11.21084927368164
4978486018307,2.694744895,1,0.23822306518554687,1.7178396911621092,-11.155782635498046
4978488521484,2.697248072,1,0.26815058593749996,1.7549498168945312,-11.186907257080078
4978491018151,2.699744739,1,0.2166752502441406,1.782483135986328,-11.104307299804686
4978493536224,2.702262812,1,0.239420166015625,1.744175909423828,-11.15338843383789
4978496021380,2.704747968,1,0.22026655273437498,1.7190367919921874,-11.166556542968749
4978498518255,2.707244843,1,0.21787235107421873,1.7429788085937499,-11.130643518066405
4978501021276,2.709747864,1,0.2214636535644531,1.7549498168945312,-11.319785449218749
4978503517682,2.71224427,1,0.21188684692382811,1.7489643127441405,-11.246762298583985
4978506018255,2.714744843,1,0.24181436767578124,1.6915034729003906,-11.123460913085937
4978508521276,2.717247864,1,0.1975216369628906,1.7429788085937499,-11.168950744628905
4978511017213,2.719743801,1,0.21906945190429686,1.7393875061035156,-11.081562384033202
4978513517057,2.722243645,1,0.2166752502441406,1.7968483459472655,-11.130643518066405
4978516021172,2.72474776,1,0.20470424194335937,1.7082628845214842,-11.189301458740234
4978518517265,2.727243853,1,0.2214636535644531,1.7501614135742187,-11.150994232177734
4978521021120,2.729747708,1,0.2645592834472656,1.7561469177246092,-11.159373937988281
4978523515234,2.732241822,1,0.21068974609375,1.7322049011230467,-11.143811627197264
4978526019974,2.734746562,1,0.24061726684570311,1.7393875061035156,-11.158176837158203
4978528521068,2.737247656,1,0.2501940734863281,1.763329522705078,-11.139023223876952
4978531019245,2.739745833,1,0.25139117431640623,1.744175909423828,-11.180921752929686
4978533536797,2.742263385,1,0.21906945190429686,1.7286135986328124,-11.142614526367186
4978536020755,2.744747343,1,0.2166752502441406,1.7657237243652342,-11.186907257080078
4978538518099,2.747244687,1,0.2501940734863281,1.7657237243652342,-11.165359442138671
4978541020651,2.749747239,1,0.23104046020507812,1.725022296142578,-11.139023223876952
4978543517943,2.752244531,1,0.19393033447265623,1.7453730102539062,-11.218031878662108
4978546018672,2.75474526,1,0.27892449340820313,1.6903063720703124,-11.152191333007812
4978548520651,2.757247239,1,0.201112939453125,1.707065783691406,-11.17852755126953
4978551024557,2.759751145,1,0.14006079711914063,1.6938976745605467,-11.213243475341796
4978553519661,2.762246249,1,0.23223756103515625,1.7118541870117185,-11.186907257080078
4978556021484,2.764748072,1,0.18555062866210936,1.7621324218749999,-11.186907257080078
4978558517682,2.76724427,1,0.258573779296875,1.7501614135742187,-11.14022032470703
4978561020859,2.769747447,1,0.21188684692382811,1.7585411193847655,-11.143811627197264
4978563518307,2.772244895,1,0.23104046020507812,1.7848773376464844,-11.135431921386719
4978566019036,2.774745624,1,0.20470424194335937,1.7357962036132812,-11.149797131347656
4978568521588,2.777248176,1,0.18076222534179687,1.7286135986328124,-11.180921752929686
4978571018620,2.779745208,1,0.20709844360351562,1.7298106994628906,-11.156979736328124
4978573517838,2.782244426,1,0.23104046020507812,1.6998831787109374,-11.203666668701171
4978576020495,2.784747083,1,0.22505495605468748,1.696291876220703,-11.204863769531249
4978578517526,2.787244114,1,0.1927332336425781,1.734599102783203,-11.159373937988281
4978581020495,2.789747083,1,0.1975216369628906,1.7705121276855467,-11.263521710205078
4978583518307,2.792244895,1,0.20350714111328125,1.7322049011230467,-11.159373937988281
4978586018880,2.794745468,1,0.21428104858398436,1.7310078002929687,-11.15338843383789
4978588521120,2.797247708,1,0.20709844360351562,1.7357962036132812,-11.218031878662108
4978591019036,2.799745624,1,0.2154781494140625,1.7322049011230467,-11.113884106445312
4978593537213,2.802263801,1,0.2705447875976562,1.7298106994628906,-11.195286962890624
4978596021224,2.804747812,1,0.25737667846679685,1.7681179260253905,-11.135431921386719
4978598517995,2.807244583,1,0.23104046020507812,1.7010802795410156,-11.121066711425781
4978601020651,2.809747239,1,0.23582886352539062,1.6843208679199217,-11.247959399414063
4978603518307,2.812244895,1,0.2645592834472656,1.7381904052734374,-11.155782635498046
4978606020390,2.814746978,1,0.2501940734863281,1.70467158203125,-11.174936248779296
4978608522318,2.817248906,1,0.2442085693359375,1.734599102783203,-11.207257971191405
4978611018672,2.81974526,1,0.24181436767578124,1.7429788085937499,-11.184513055419922
4978613518307,2.822244895,1,0.21308394775390624,1.7106570861816406,-11.166556542968749
4978616021484,2.824748072,1,0.19153613281249998,1.7286135986328124,-11.203666668701171
4978618518515,2.827245103,1,0.22864625854492185,1.6903063720703124,-11.195286962890624
4978621020338,2.829746926,1,0.21428104858398436,1.763329522705078,-11.1474029296875
4978623517422,2.83224401,1,0.2166752502441406,1.7477672119140624,-11.133037719726563
4978626019088,2.834745676,1,0.239420166015625,1.7178396911621092,-11.128249316406249
4978628521172,2.83724776,1,0.17836802368164062,1.7513585144042967,-11.161768139648437
4978631017838,2.839744426,1,0.19033903198242186,1.7178396911621092,-11.228805786132812
4978633518463,2.842245051,1,0.27892449340820313,1.7357962036132812,-11.23718549194336
4978636021640,2.844748228,1,0.22385785522460935,1.697488977050781,-11.226411584472656
4978638518047,2.847244635,1,0.22505495605468748,1.7178396911621092,-11.208455072021483
4978641020807,2.849747395,1,0.22744915771484372,1.7298106994628906,-11.155782635498046
4978643518151,2.852244739,1,0.24061726684570311,1.675941162109375,-11.129446417236327
4978646018620,2.854745208,1,0.18315642700195311,1.7465701110839842,-11.177330450439452
4978648521380,2.857247968,1,0.20829554443359374,1.7405846069335937,-11.231199987792968
4978651018463,2.859745051,1,0.2753331909179687,1.7381904052734374,-11.150994232177734
4978653517578,2.862244166,1,0.21906945190429686,1.7214309936523438,-11.154585534667968
4978656020547,2.864747135,1,0.2549824768066406,1.7298106994628906,-11.18571015625
4978658518463,2.867245051,1,0.18076222534179687,1.7369933044433592,-11.164162341308593
4978661021120,2.869747708,1,0.21428104858398436,1.7693150268554687,-11.188104357910156
4978663517630,2.872244218,1,0.20949264526367187,1.7501614135742187,-11.154585534667968
4978666018151,2.874744739,1,0.24061726684570311,1.7968483459472655,-11.139023223876952
4978668521640,2.877248228,1,0.2753331909179687,1.7178396911621092,-11.158176837158203
4978671018099,2.879744687,1,0.23702596435546874,1.7238251953125,-11.125855114746093
4978673537005,2.882263593,1,0.1975216369628906,1.696291876220703,-11.171344946289063
4978676020963,2.884747551,1,0.19991583862304688,1.7609353210449217,-11.188104357910156
4978678517422,2.88724401,1,0.1975216369628906,1.7381904052734374,-11.129446417236327
4978681020495,2.889747083,1,0.14604630126953125,1.7118541870117185,-11.221623181152344
4978683518099,2.892244687,1,0.2059013427734375,1.7609353210449217,-11.179724652099608
4978686017890,2.894744478,1,0.24301146850585936,1.7214309936523438,-11.247959399414063
4978688520755,2.897247343,1,0.21188684692382811,1.6795324645996093,-11.19887826538086
4978691019088,2.899745676,1,0.21188684692382811,1.7118541870117185,-11.190498559570312
4978693517057,2.902243645,1,0.22026655273437498,1.7310078002929687,-11.19887826538086
4978696021120,2.904747708,1,0.23822306518554687,1.7417817077636717,-11.204863769531249
4978698517786,2.907244374,1,0.1879448303222656,1.7298106994628906,-11.206060870361327
4978701021692,2.90974828,1,0.21428104858398436,1.7214309936523438,-11.133037719726563
4978703517786,2.912244374,1,0.21906945190429686,1.763329522705078,-11.156979736328124
4978706018307,2.914744895,1,0.19632453613281248,1.714248388671875,-11.159373937988281
4978708520442,2.91724703,1,0.1975216369628906,1.7393875061035156,-11.179724652099608
4978711017890,2.919744478,1,0.24660277099609373,1.7034744812011717,-11.202469567871093
4978713518672,2.92224526,1,0.24061726684570311,1.7022773803710936,-11.19169566040039
4978716021328,2.924747916,1,0.2059013427734375,1.715445489501953,-11.19169566040039
4978718517370,2.927243958,1,0.23104046020507812,1.7226280944824217,-11.207257971191405
4978721020651,2.929747239,1,0.23582886352539062,1.7525556152343749,-11.184513055419922
4978723517630,2.932244218,1,0.18914193115234373,1.772906329345703,-11.17254204711914
4978726017370,2.934743958,1,0.24779987182617186,1.7621324218749999,-11.202469567871093
4978728520442,2.93724703,1,0.18076222534179687,1.7202338928222656,-11.150994232177734
4978731017682,2.93974427,1,0.21906945190429686,1.7262193969726563,-11.190498559570312
4978733518047,2.942244635,1,0.2346317626953125,1.714248388671875,-11.188104357910156
4978736021067,2.944747655,1,0.24061726684570311,1.7429788085937499,-11.238382592773437
4978738517578,2.947244166,1,0.26695348510742184,1.7393875061035156,-11.195286962890624
4978741020234,2.949746822,1,0.20231004028320312,1.7393875061035156,-11.173739147949219
4978743517838,2.952244426,1,0.24899697265624998,1.7561469177246092,-11.143811627197264
4978746016015,2.954742603,1,0.20350714111328125,1.7202338928222656,-11.130643518066405
4978748514661,2.957241249,1,0.2442085693359375,1.7681179260253905,-11.124658013916015
4978751018567,2.959745155,1,0.23822306518554687,1.7453730102539062,-11.142614526367186
4978753530495,2.962257083,1,0.22266075439453123,1.7274164978027342,-11.173739147949219
4978756020651,2.964747239,1,0.21428104858398436,1.6771382629394531,-11.128249316406249
4978758517317,2.967243905,1,0.2262520568847656,1.66636435546875,-11.121066711425781
4978761020495,2.969747083,1,0.2166752502441406,1.7310078002929687,-11.220426080322264
4978763517786,2.972244374,1,0.27892449340820313,1.7298106994628906,-11.135431921386719
4978766019453,2.974746041,1,0.21787235107421873,1.7621324218749999,-11.195286962890624
4978768521380,2.977247968,1,0.22266075439453123,1.753752716064453,-11.164162341308593
4978771017942,2.97974453,1,0.2346317626953125,1.7274164978027342,-11.165359442138671
4978773517786,2.982244374,1,0.27174188842773433,1.734599102783203,-11.186907257080078
4978776021172,2.98474776,1,0.24899697265624998,1.7190367919921874,-11.167753643798827
4978778515234,2.987241822,1,0.25737667846679685,1.753752716064453,-11.152191333007812
4978781019245,2.989745833,1,0.21787235107421873,1.707065783691406,-11.220426080322264
4978783524505,2.992251093,1,0.2262520568847656,1.7561469177246092,-11.195286962890624
4978786020911,2.994747499,1,0.24061726684570311,1.7525556152343749,-11.124658013916015
4978788521588,2.997248176,1,0.2501940734863281,1.707065783691406,-11.149797131347656
4978791017213,2.999743801,1,0.1927332336425781,1.7357962036132812,-11.124658013916015
4978793517995,3.002244583,1,0.1879448303222656,1.7106570861816406,-11.174936248779296
4978796021484,3.004748072,1,0.18435352783203124,1.7286135986328124,-11.17852755126953
4978798518151,3.007244739,1,0.2561795776367187,1.7657237243652342,-11.165359442138671
4978801020703,3.009747291,1,0.25737667846679685,1.763329522705078,-11.164162341308593
4978803518255,3.012244843,1,0.2214636535644531,1.7489643127441405,-11.19887826538086
4978806017786,3.014744374,1,0.2501940734863281,1.7166425903320313,-11.123460913085937
4978808520651,3.017247239,1,0.20949264526367187,1.734599102783203,-11.168950744628905
4978811018776,3.019745364,1,0.21906945190429686,1.7453730102539062,-11.166556542968749
4978813517630,3.022244218,1,0.25258827514648435,1.7465701110839842,-11.21683477783203
4978816020859,3.024747447,1,0.21188684692382811,1.7322049011230467,-11.225214483642578
4978818518620,3.027245208,1,0.21787235107421873,1.7274164978027342,-11.164162341308593
4978821020859,3.029747447,1,0.22744915771484372,1.7657237243652342,-11.149797131347656
4978823517682,3.03224427,1,0.2501940734863281,1.7022773803710936,-11.222820281982422
4978826018411,3.034744999,1,0.2166752502441406,1.7094599853515624,-11.197681164550781
4978828520442,3.03724703,1,0.20829554443359374,1.763329522705078,-11.146205828857422
4978831018359,3.039744947,1,0.20231004028320312,1.7489643127441405,-11.13423482055664
4978833518359,3.042244947,1,0.24899697265624998,1.7298106994628906,-11.123460913085937
4978836020859,3.044747447,1,0.25258827514648435,1.715445489501953,-11.161768139648437
4978838518255,3.047244843,1,0.229843359375,1.7369933044433592,-11.194089862060546
4978841021015,3.049747603,1,0.21787235107421873,1.744175909423828,-11.166556542968749
4978843518047,3.052244635,1,0.19393033447265623,1.753752716064453,-11.162965240478515
4978846017786,3.054744374,1,0.229843359375,1.7561469177246092,-11.15338843383789
4978848520599,3.057247187,1,0.22266075439453123,1.7022773803710936,-11.303026037597656
4978851018567,3.059745155,1,0.2501940734863281,1.7238251953125,-11.23000288696289
4978853517474,3.062244062,1,0.2059013427734375,1.7489643127441405,-11.240776794433593
4978856019349,3.064745937,1,0.2154781494140625,1.7190367919921874,-11.17254204711914
4978858544140,3.067270728,1,0.2609679809570312,1.7166425903320313,-11.15338843383789
4978861036536,3.069763124,1,0.2657563842773437,1.7106570861816406,-11.206060870361327
4978863534297,3.072260885,1,0.229843359375,1.7310078002929687,-11.219228979492186
4978866019349,3.074745937,1,0.22864625854492185,1.7334020019531249,-11.21683477783203
4978868515599,3.077242187,1,0.22744915771484372,1.6843208679199217,-11.100715997314452
4978871016432,3.07974302,1,0.14604630126953125,1.7381904052734374,-11.164162341308593
4978873515963,3.082242551,1,0.18435352783203124,1.7621324218749999,-11.13423482055664
4978876028255,3.084754843,1,0.229843359375,1.734599102783203,-11.202469567871093
4978878516849,3.087243437,1,0.20231004028320312,1.7501614135742187,-11.174936248779296
4978881014922,3.08974151,1,0.229843359375,1.7561469177246092,-11.220426080322264
4978883516224,3.092242812,1,0.229843359375,1.7788918334960937,-11.233594189453123
4978886015807,3.094742395,1,0.21787235107421873,1.705868682861328,-11.225214483642578
4978888517838,3.097244426,1,0.19033903198242186,1.7753005310058592,-11.222820281982422
4978891018515,3.099745103,1,0.21308394775390624,1.7166425903320313,-11.186907257080078
4978893518567,3.102245155,1,0.19393033447265623,1.7298106994628906,-11.135431921386719
4978896022005,3.104748593,1,0.15322890625,1.753752716064453,-11.192892761230468
4978898518567,3.107245155,1,0.20231004028320312,1.707065783691406,-11.131840618896483
4978901020703,3.109747291,1,0.23343466186523437,1.7393875061035156,-11.227608685302734
4978903518203,3.112244791,1,0.2262520568847656,1.707065783691406,-11.183315954589844
4978906017057,3.114743645,1,0.19033903198242186,1.714248388671875,-11.188104357910156
4978908521067,3.117247655,1,0.23822306518554687,1.7190367919921874,-11.077971081542968
4978911018359,3.119744947,1,0.2346317626953125,1.7118541870117185,-11.19887826538086
4978913521119,3.122247707,1,0.143652099609375,1.763329522705078,-11.200075366210937
4978916023099,3.124749687,1,0.2442085693359375,1.7190367919921874,-11.16057103881836
4978918518203,3.127244791,1,0.2537853759765625,1.7513585144042967,-11.167753643798827
4978921021744,3.129748332,1,0.21428104858398436,1.7896657409667969,-11.158176837158203
4978923517734,3.132244322,1,0.1927332336425781,1.7669208251953124,-11.130643518066405
4978926018359,3.134744947,1,0.22505495605468748,1.7477672119140624,-11.222820281982422
4978928521380,3.137247968,1,0.25737667846679685,1.7381904052734374,-11.241973895263671
4978931018463,3.139745051,1,0.21188684692382811,1.7094599853515624,-11.168950744628905
4978933517369,3.142243957,1,0.23822306518554687,1.7226280944824217,-11.170147845458983
4978936021224,3.144747812,1,0.21787235107421873,1.6986860778808592,-11.252747802734374
4978938517422,3.14724401,1,0.23343466186523437,1.7381904052734374,-11.21683477783203
4978941020963,3.149747551,1,0.24779987182617186,1.7262193969726563,-11.192892761230468
4978943517474,3.152244062,1,0.24779987182617186,1.7417817077636717,-11.189301458740234
4978946019505,3.154746093,1,0.2561795776367187,1.7597382202148437,-11.162965240478515
4978948520963,3.157247551,1,0.2741360900878906,1.7848773376464844,-11.113884106445312
4978951019036,3.159745624,1,0.18435352783203124,1.675941162109375,-11.180921752929686
4978953544505,3.162271093,1,0.2442085693359375,1.687912170410156,-11.176133349609374
4978956021588,3.164748176,1,0.22864625854492185,1.7417817077636717,-11.156979736328124
4978958517942,3.16724453,1,0.20949264526367187,1.7238251953125,-11.105504400634764
4978961021224,3.169747812,1,0.2597708801269531,1.7501614135742187,-11.190498559570312
4978963517682,3.17224427,1,0.25258827514648435,1.7130512878417967,-11.174936248779296
4978966018359,3.174744947,1,0.2442085693359375,1.7525556152343749,-11.206060870361327
4978968520286,3.177246874,1,0.22026655273437498,1.7322049011230467,-11.208455072021483
4978971017630,3.179744218,1,0.1879448303222656,1.7429788085937499,-11.195286962890624
4978973517369,3.182243957,1,0.14724340209960937,1.7393875061035156,-11.1474029296875
4978976020651,3.184747239,1,0.23223756103515625,1.7214309936523438,-11.161768139648437
4978978518411,3.187244999,1,0.20470424194335937,1.6998831787109374,-11.150994232177734
4978981021484,3.189748072,1,0.23104046020507812,1.7465701110839842,-11.200075366210937
4978983517890,3.192244478,1,0.18076222534179687,1.695094775390625,-11.204863769531249
4978986017994,3.194744582,1,0.26216508178710934,1.7417817077636717,-11.145008728027342
4978988520651,3.197247239,1,0.1879448303222656,1.7501614135742187,-11.201272467041015
4978991017890,3.199744478,1,0.25258827514648435,1.7178396911621092,-11.234791290283203
4978993518203,3.202244791,1,0.24061726684570311,1.705868682861328,-11.21084927368164
4978996021224,3.204747812,1,0.20709844360351562,1.6903063720703124,-11.141417425537108
4978998518307,3.207244895,1,0.1927332336425781,1.7477672119140624,-11.2240173828125
4979001018047,3.209744635,1,0.17956512451171874,1.7369933044433592,-11.171344946289063
4979003517682,3.21224427,1,0.19153613281249998,1.744175909423828,-11.258733306884764
4979006017838,3.214744426,1,0.19033903198242186,1.7262193969726563,-11.250353601074218
4979008520807,3.217247395,1,0.25258827514648435,1.7322049011230467,-11.136629022216797
4979011018307,3.219744895,1,0.2693476867675781,1.7800889343261719,-11.152191333007812
4979013541015,3.222267603,1,0.28490999755859375,1.7322049011230467,-11.136629022216797
4979016021328,3.224747916,1,0.2346317626953125,1.68551796875,-11.1474029296875
4979018523151,3.227249739,1,0.1927332336425781,1.707065783691406,-11.194089862060546
4979021023255,3.229749843,1,0.21906945190429686,1.7238251953125,-11.21683477783203
4979023517526,3.232244114,1,0.2454056701660156,1.6735469604492186,-11.189301458740234
4979026018307,3.234744895,1,0.25139117431640623,1.725022296142578,-11.203666668701171
4979028521067,3.237247655,1,0.21068974609375,1.7405846069335937,-11.219228979492186
4979031018932,3.23974552,1,0.239420166015625,1.7489643127441405,-11.294646331787108
4979033517057,3.242243645,1,0.25258827514648435,1.744175909423828,-11.168950744628905
4979036020651,3.244747239,1,0.2262520568847656,1.7357962036132812,-11.166556542968749
4979038517474,3.247244062,1,0.21428104858398436,1.6639701538085936,-11.167753643798827
4979041021432,3.24974802,1,0.229843359375,1.7094599853515624,-11.19887826538086
4979043519869,3.252246457,1,0.24301146850585936,1.7334020019531249,-11.176133349609374
4979046018619,3.254745207,1,0.28490999755859375,1.7465701110839842,-11.158176837158203
4979048520963,3.257247551,1,0.22864625854492185,1.7393875061035156,-11.162965240478515
4979051017630,3.259744218,1,0.20470424194335937,1.715445489501953,-11.183315954589844
4979053517474,3.262244062,1,0.2166752502441406,1.7417817077636717,-11.202469567871093
4979056020442,3.26474703,1,0.239420166015625,1.7310078002929687,-11.17254204711914
4979058517838,3.267244426,1,0.229843359375,1.7513585144042967,-11.137826123046874
4979061021015,3.269747603,1,0.229843359375,1.6927005737304686,-11.13423482055664
4979063517838,3.272244426,1,0.1640028137207031,1.7322049011230467,-11.240776794433593
4979066018619,3.274745207,1,0.2645592834472656,1.7549498168945312,-11.209652172851563
4979068521067,3.277247655,1,0.2549824768066406,1.715445489501953,-11.143811627197264
4979071018255,3.279744843,1,0.2609679809570312,1.7178396911621092,-11.186907257080078
4979073518463,3.282245051,1,0.2346317626953125,1.6927005737304686,-11.196484063720703
4979076021171,3.284747759,1,0.21068974609375,1.7286135986328124,-11.179724652099608
4979078518046,3.287244634,1,0.23223756103515625,1.734599102783203,-11.201272467041015
4979081020546,3.289747134,1,0.2214636535644531,1.7274164978027342,-11.179724652099608
4979083517421,3.292244009,1,0.23702596435546874,1.7094599853515624,-11.219228979492186
4979086018619,3.294745207,1,0.2561795776367187,1.7238251953125,-11.250353601074218
4979088519869,3.297246457,1,0.2657563842773437,1.696291876220703,-11.21683477783203
4979091018463,3.299745051,1,0.229843359375,1.744175909423828,-11.202469567871093
4979093517682,3.30224427,1,0.2262520568847656,1.7381904052734374,-11.233594189453123
4979096021744,3.304748332,1,0.19632453613281248,1.7094599853515624,-11.159373937988281
4979098517838,3.307244426,1,0.21428104858398436,1.7453730102539062,-11.129446417236327
4979101020546,3.309747134,1,0.24181436767578124,1.7298106994628906,-11.103110198974608
4979103517057,3.312243645,1,0.20709844360351562,1.7489643127441405,-11.06360587158203
4979106017838,3.314744426,1,0.21787235107421873,1.7381904052734374,-11.129446417236327
4979108521328,3.317247916,1,0.20949264526367187,1.7681179260253905,-11.186907257080078
4979111018776,3.319745364,1,0.2262520568847656,1.7369933044433592,-11.233594189453123
4979113517526,3.322244114,1,0.2501940734863281,1.7621324218749999,-11.204863769531249
4979116021276,3.324747864,1,0.2154781494140625,1.7094599853515624,-11.168950744628905
4979118518046,3.327244634,1,0.2825157958984375,1.7453730102539062,-11.152191333007812
4979121020286,3.329746874,1,0.21906945190429686,1.7130512878417967,-11.196484063720703
4979123518671,3.332245259,1,0.29089550170898437,1.707065783691406,-11.161768139648437
4979126018932,3.33474552,1,0.2454056701660156,1.70467158203125,-11.204863769531249
4979128521224,3.337247812,1,0.2154781494140625,1.7597382202148437,-11.168950744628905
4979131018151,3.339744739,1,0.21068974609375,1.8052280517578123,-11.10191309814453
4979133517578,3.342244166,1,0.21308394775390624,1.7262193969726563,-11.154585534667968
4979136021224,3.344747812,1,0.20709844360351562,1.7585411193847655,-11.192892761230468
4979138518046,3.347244634,1,0.2645592834472656,1.7190367919921874,-11.190498559570312
4979141021015,3.349747603,1,0.17597382202148437,1.7381904052734374,-11.221623181152344
4979143517838,3.352244426,1,0.2861070983886719,1.715445489501953,-11.156979736328124
4979146019453,3.354746041,1,0.18435352783203124,1.7022773803710936,-11.113884106445312
4979148520703,3.357247291,1,0.23822306518554687,1.7513585144042967,-11.19169566040039
4979151018411,3.359744999,1,0.21787235107421873,1.7393875061035156,-11.156979736328124
4979153538151,3.362264739,1,0.21906945190429686,1.7190367919921874,-11.180921752929686
4979156021171,3.364747759,1,0.22385785522460935,1.7357962036132812,-11.238382592773437
4979158518515,3.367245103,1,0.22864625854492185,1.7525556152343749,-11.203666668701171
4979161021380,3.369747968,1,0.20709844360351562,1.7393875061035156,-11.177330450439452
4979163517109,3.372243697,1,0.2705447875976562,1.7334020019531249,-11.171344946289063
4979166029921,3.374756509,1,0.23343466186523437,1.714248388671875,-11.158176837158203
4979168534296,3.377260884,1,0.277727392578125,1.7549498168945312,-11.25514200439453
4979171019817,3.379746405,1,0.24061726684570311,1.7501614135742187,-11.176133349609374
4979173524088,3.382250676,1,0.2454056701660156,1.7525556152343749,-11.129446417236327
4979176024869,3.384751457,1,0.21906945190429686,1.7453730102539062,-11.168950744628905
4979178518411,3.387244999,1,0.21787235107421873,1.7334020019531249,-11.106701501464842
4979181021328,3.389747916,1,0.20470424194335937,1.7489643127441405,-11.154585534667968
4979183518671,3.392245259,1,0.23582886352539062,1.7549498168945312,-11.1474029296875
4979186018619,3.394745207,1,0.22026655273437498,1.7274164978027342,-11.162965240478515
4979188520963,3.397247551,1,0.22385785522460935,1.7585411193847655,-11.201272467041015
4979191017578,3.399744166,1,0.21068974609375,1.7681179260253905,-11.15338843383789
4979193537682,3.40226427,1,0.21906945190429686,1.7357962036132812,-11.194089862060546
4979196020442,3.40474703,1,0.20709844360351562,1.7010802795410156,-11.235988391113281
4979198517213,3.407243801,1,0.2597708801269531,1.7429788085937499,-11.214440576171874
4979201021171,3.409747759,1,0.20709844360351562,1.7453730102539062,-11.164162341308593
4979203517734,3.412244322,1,0.22744915771484372,1.6986860778808592,-11.196484063720703
4979206018724,3.414745312,1,0.2501940734863281,1.7106570861816406,-11.220426080322264
4979208521588,3.417248176,1,0.29568390502929687,1.734599102783203,-11.24915650024414
4979211017838,3.419744426,1,0.23104046020507812,1.7405846069335937,-11.21084927368164
4979213545599,3.422272187,1,0.2705447875976562,1.7381904052734374,-11.201272467041015
4979216021380,3.424747968,1,0.23702596435546874,1.695094775390625,-11.25514200439453
4979218517474,3.427244062,1,0.18914193115234373,1.7549498168945312,-11.21683477783203
4979221021224,3.429747812,1,0.23343466186523437,1.7549498168945312,-11.218031878662108
4979223517734,3.432244322,1,0.2657563842773437,1.7609353210449217,-11.164162341308593
4979226018671,3.434745259,1,0.26815058593749996,1.7513585144042967,-11.195286962890624
4979228520026,3.437246614,1,0.26815058593749996,1.715445489501953,-11.165359442138671
4979231019713,3.439746301,1,0.2705447875976562,1.7310078002929687,-11.2240173828125
4979233538828,3.442265416,1,0.22864625854492185,1.7393875061035156,-11.209652172851563
4979236021536,3.444748124,1,0.2059013427734375,1.734599102783203,-11.184513055419922
4979238515390,3.447241978,1,0.20709844360351562,1.7669208251953124,-11.171344946289063
4979241018515,3.449745103,1,0.24660277099609373,1.714248388671875,-11.280281121826171
4979243518932,3.45224552,1,0.2059013427734375,1.7214309936523438,-11.250353601074218
4979246018411,3.454744999,1,0.20829554443359374,1.7884686401367187,-11.182118853759764
4979248518567,3.457245155,1,0.22026655273437498,1.714248388671875,-11.19169566040039
4979251018619,3.459745207,1,0.18555062866210936,1.715445489501953,-11.17852755126953
4979253544036,3.462270624,1,0.25737667846679685,1.7214309936523438,-11.174936248779296
4979256025442,3.46475203,1,0.2154781494140625,1.7298106994628906,-11.225214483642578
4979258514974,3.467241562,1,0.19991583862304688,1.705868682861328,-11.23000288696289
4979261019609,3.469746197,1,0.2346317626953125,1.7082628845214842,-11.174936248779296
4979263518619,3.472245207,1,0.23104046020507812,1.7214309936523438,-11.166556542968749
4979266019557,3.474746145,1,0.21787235107421873,1.772906329345703,-11.241973895263671
4979268522161,3.477248749,1,0.21308394775390624,1.7310078002929687,-11.204863769531249
4979271018411,3.479744999,1,0.19033903198242186,1.7465701110839842,-11.244368096923827
4979273537890,3.482264478,1,0.19632453613281248,1.763329522705078,-11.243170996093749
4979276021119,3.484747707,1,0.258573779296875,1.7453730102539062,-11.222820281982422
4979278517526,3.487244114,1,0.22385785522460935,1.7190367919921874,-11.208455072021483
4979281020078,3.489746666,1,0.17118541870117188,1.744175909423828,-11.196484063720703
4979283517890,3.492244478,1,0.23104046020507812,1.7298106994628906,-11.227608685302734
4979286018151,3.494744739,1,0.22385785522460935,1.7848773376464844,-11.307814440917968
4979288521328,3.497247916,1,0.2501940734863281,1.7405846069335937,-11.143811627197264
4979291017786,3.499744374,1,0.20829554443359374,1.7573440185546874,-11.17254204711914
4979293517890,3.502244478,1,0.229843359375,1.7573440185546874,-11.240776794433593
4979296021276,3.504747864,1,0.24660277099609373,1.7274164978027342,-11.299434735107422
4979298519244,3.507245832,1,0.2501940734863281,1.7190367919921874,-11.173739147949219
4979301020703,3.509747291,1,0.19033903198242186,1.7022773803710936,-11.161768139648437
4979303518203,3.512244791,1,0.27174188842773433,1.70467158203125,-11.25514200439453
4979306018515,3.514745103,1,0.18555062866210936,1.7130512878417967,-11.303026037597656
4979308521328,3.517247916,1,0.239420166015625,1.7106570861816406,-11.231199987792968
4979311018359,3.519744947,1,0.2346317626953125,1.7645266235351562,-11.189301458740234
4979313517786,3.522244374,1,0.24660277099609373,1.7190367919921874,-11.121066711425781
4979316021119,3.524747707,1,0.21787235107421873,1.7657237243652342,-11.182118853759764
4979318517161,3.527243749,1,0.19153613281249998,1.744175909423828,-11.3006318359375
4979321020234,3.529746822,1,0.2693476867675781,1.7381904052734374,-11.164162341308593
4979323517942,3.53224453,1,0.22385785522460935,1.7274164978027342,-11.13423482055664
4979326018203,3.534744791,1,0.19033903198242186,1.7417817077636717,-11.328165155029296
4979328520130,3.537246718,1,0.2262520568847656,1.7310078002929687,-11.201272467041015
4979331018046,3.539744634,1,0.21188684692382811,1.7262193969726563,-11.164162341308593
4979333538515,3.542265103,1,0.23223756103515625,1.714248388671875,-11.227608685302734
4979336021328,3.544747916,1,0.24779987182617186,1.7705121276855467,-11.297040533447264
