timestamp_ns,t_s,sensor_id,ax,ay,az,gx,gy,gz
5309258382973,0.171126927,2,7.970297326660156,5.743689782714843,0.7278373046875,-1.717557251908397,0.3282442748091603,-1.4961832061068703
5309264617348,0.177361302,2,8.124723333740233,5.762843395996094,0.6955155822753906,-1.7251908396946565,0.1984732824427481,-1.6030534351145038
5309270609587,0.183353541,2,8.098387115478515,5.76523759765625,0.7481880187988281,-1.6946564885496183,0.2366412213740458,-1.4961832061068703
5309276548754,0.189292708,2,8.12711753540039,5.7891796142578125,0.8020575561523438,-1.786259541984733,0.2748091603053435,-1.5114503816793894
5309282519587,0.195263541,2,8.070853796386718,5.754463690185546,0.7134720947265625,-1.717557251908397,0.1984732824427481,-1.6870229007633588
5309288461410,0.201205364,2,8.134300140380859,5.7149593627929685,0.74699091796875,-1.7328244274809161,0.22900763358778625,-1.6946564885496183
5309294369691,0.207113645,2,8.143876947021484,5.708973858642578,0.7433996154785156,-1.816793893129771,0.2366412213740458,-1.6030534351145038
5309300323077,0.213067031,2,8.095992913818359,5.815515832519531,0.7110778930664062,-1.7251908396946565,0.1984732824427481,-1.6259541984732824
5309306228806,0.21897276,2,8.110358123779296,5.781997009277344,0.7254431030273437,-1.7709923664122138,0.2595419847328244,-1.450381679389313
5309312169327,0.224913281,2,8.13310303955078,5.7317187744140625,0.7122749938964843,-1.7251908396946565,0.3435114503816794,-1.5954198473282444
5309318123077,0.230867031,2,8.149862451171874,5.744886883544922,0.7649474304199219,-1.7328244274809161,0.2595419847328244,-1.5038167938931297
5309324078337,0.236822291,2,8.163030560302733,5.777208605957031,0.709880792236328,-1.7786259541984732,0.26717557251908397,-1.6030534351145038
5309330018233,0.242762187,2,8.118737829589843,5.758054992675781,0.6811503723144531,-1.717557251908397,0.25190839694656486,-1.6946564885496183
5309335874223,0.248618177,2,8.161833459472655,5.6958057495117185,0.7457938171386719,-1.8015267175572518,0.3969465648854962,-1.5114503816793894
5309341850525,0.254594479,2,8.110358123779296,5.766434698486328,0.7362170104980469,-1.6488549618320612,0.3893129770992366,-1.5572519083969465
5309347772816,0.26051677,2,8.117540728759765,5.723339068603515,0.7026981872558593,-1.7633587786259541,0.32061068702290074,-1.6106870229007633
5309353756983,0.266500937,2,8.17859287109375,5.780799908447265,0.7134720947265625,-1.8396946564885497,0.3282442748091603,-1.5877862595419847
5309359660525,0.272404479,2,8.074445098876952,5.7843912109375,0.7817068420410156,-1.7786259541984732,0.37404580152671757,-1.7251908396946565
5309365601827,0.278345781,2,8.134300140380859,5.706579656982422,0.7170633972167968,-1.8091603053435115,0.17557251908396945,-1.618320610687023
5309371518441,0.284262395,2,8.109161022949218,5.7520694885253905,0.6667851623535156,-1.8091603053435115,0.1297709923664122,-1.5267175572519085
5309377461827,0.290205781,2,8.16542476196289,5.740098480224609,0.737414111328125,-1.83206106870229,0.15267175572519084,-1.6488549618320612
5309383341150,0.296085104,2,8.14627114868164,5.710170959472656,0.7350199096679687,-1.816793893129771,0.13740458015267176,-1.702290076335878
5309389237452,0.301981406,2,8.130708837890625,5.7700260009765625,0.7266402038574218,-1.6870229007633588,0.21374045801526717,-1.549618320610687
5309395139483,0.307883437,2,8.105569720458984,5.722141967773437,0.7577648254394531,-1.717557251908397,0.3816793893129771,-1.6564885496183206
5309401064379,0.313808333,2,8.136694342041014,5.740098480224609,0.7242460021972655,-1.7404580152671756,0.37404580152671757,-1.633587786259542
5309406954743,0.319698697,2,8.147468249511718,5.802347723388672,0.7864952453613281,-1.8473282442748091,0.21374045801526717,-1.4961832061068703
5309412856775,0.325600729,2,8.111555224609374,5.7149593627929685,0.7817068420410156,-1.7786259541984732,0.37404580152671757,-1.4961832061068703
5309418780316,0.33152427,2,8.117540728759765,5.805939025878906,0.7254431030273437,-1.7328244274809161,0.25190839694656486,-1.5954198473282444
5309424688025,0.337431979,2,8.14028564453125,5.701791253662109,0.7481880187988281,-1.748091603053435,0.3282442748091603,-1.5725190839694656
5309430501098,0.343245052,2,8.093598712158203,5.729324572753906,0.5889736083984375,-1.7633587786259541,0.17557251908396945,-1.5572519083969465
5309436370577,0.349114531,2,8.105569720458984,5.729324572753906,0.6955155822753906,-1.7938931297709924,0.22900763358778625,-1.6259541984732824
5309442241514,0.354985468,2,8.122329132080077,5.783194110107422,0.7170633972167968,-1.7786259541984732,0.32061068702290074,-1.5725190839694656
5309448166150,0.360910104,2,7.994239343261718,5.742492681884765,0.7242460021972655,-1.748091603053435,0.24427480916030533,-1.6106870229007633
5309454057920,0.366801874,2,8.090007409667969,5.7508723876953125,0.7074865905761718,-1.786259541984733,0.17557251908396945,-1.6259541984732824
5309459978077,0.372722031,2,8.139088543701172,5.730521673583984,0.6464344482421874,-1.7938931297709924,0.4122137404580153,-1.5114503816793894
5309465948233,0.378692187,2,8.045714678955077,5.773617303466796,0.7505822204589844,-1.7557251908396947,0.24427480916030533,-1.5801526717557253
5309471877920,0.384621874,2,8.166621862792969,5.781997009277344,0.6715735656738281,-1.7786259541984732,0.32061068702290074,-1.5877862595419847
5309477836618,0.390580572,2,8.123526232910155,5.767631799316406,0.6787561706542968,-1.748091603053435,0.2366412213740458,-1.5267175572519085
5309483763493,0.396507447,2,8.080430603027343,5.705382556152343,0.6907271789550781,-1.7709923664122138,0.16030534351145037,-1.5190839694656488
5309489671723,0.402415677,2,8.143876947021484,5.777208605957031,0.6883329772949218,-1.7251908396946565,0.16793893129770993,-1.549618320610687
5309495582816,0.40832677,2,8.105569720458984,5.76523759765625,0.689530078125,-1.83206106870229,0.22137404580152673,-1.6717557251908397
5309501455629,0.414199583,2,8.118737829589843,5.781997009277344,0.7541735229492187,-1.7557251908396947,0.37404580152671757,-1.5190839694656488
5309507350420,0.420094374,2,8.097190014648437,5.737704278564453,0.689530078125,-1.8244274809160306,0.22900763358778625,-1.549618320610687
5309513250056,0.42599401,2,8.122329132080077,5.781997009277344,0.7038952880859375,-1.7938931297709924,0.21374045801526717,-1.549618320610687
5309519168025,0.431911979,2,8.112752325439452,5.756857891845703,0.7625532287597656,-1.7099236641221374,0.2366412213740458,-1.6030534351145038
5309525096358,0.437840312,2,8.066065393066406,5.7508723876953125,0.7170633972167968,-1.786259541984733,0.33587786259541985,-1.6488549618320612
5309530997348,0.443741302,2,8.112752325439452,5.761646295166015,0.6919242797851562,-1.748091603053435,0.0916030534351145,-1.6564885496183206
5309536915837,0.449659791,2,8.1594392578125,5.72693037109375,0.7326257080078125,-1.6717557251908397,0.1450381679389313,-1.6488549618320612
5309542773493,0.455517447,2,8.079233502197265,5.72693037109375,0.6775590698242188,-1.7557251908396947,0.20610687022900764,-1.5190839694656488
5309548672139,0.461416093,2,8.135497241210937,5.77122310180664,0.7254431030273437,-1.7633587786259541,0.26717557251908397,-1.5877862595419847
5309554560941,0.467304895,2,8.147468249511718,5.764040496826172,0.7218518005371093,-1.7328244274809161,0.183206106870229,-1.5267175572519085
5309560454795,0.473198749,2,8.129511737060547,5.7508723876953125,0.7673416320800781,-1.6870229007633588,0.32061068702290074,-1.5877862595419847
5309566406983,0.479150937,2,8.135497241210937,5.728127471923828,0.7326257080078125,-1.7099236641221374,0.26717557251908397,-1.534351145038168
5309572321670,0.485065624,2,8.131905938720703,5.724536169433593,0.7062894897460937,-1.7328244274809161,0.17557251908396945,-1.5572519083969465
5309578235108,0.490979062,2,8.10197841796875,5.7329158752441405,0.6835445739746093,-1.7709923664122138,0.2824427480916031,-1.6641221374045803
5309584097452,0.496841406,2,8.092401611328125,5.759252093505859,0.8307879760742187,-1.8625954198473282,0.24427480916030533,-1.6564885496183206
5309590155785,0.502899739,2,8.13310303955078,5.777208605957031,0.7230489013671875,-1.8244274809160306,0.22900763358778625,-1.5954198473282444
5309596095160,0.508839114,2,8.134300140380859,5.787982513427734,0.70868369140625,-1.748091603053435,0.20610687022900764,-1.534351145038168
5309602107556,0.51485151,2,8.148665350341796,5.723339068603515,0.8020575561523438,-1.7328244274809161,0.26717557251908397,-1.7328244274809161
5309608049118,0.520793072,2,8.097190014648437,5.746083984375,0.709880792236328,-1.7557251908396947,0.2595419847328244,-1.6717557251908397
5309613899222,0.526643176,2,8.122329132080077,5.777208605957031,0.729034405517578,-1.7786259541984732,0.3053435114503817,-1.6946564885496183
5309619817452,0.532561406,2,8.131905938720703,5.781997009277344,0.7314286071777343,-1.717557251908397,0.2595419847328244,-1.534351145038168
5309627230368,0.539974322,2,8.111555224609374,5.730521673583984,0.7457938171386719,-1.7328244274809161,0.16793893129770993,-1.6564885496183206
5309633321410,0.546065364,2,8.084021905517577,5.761646295166015,0.7649474304199219,-1.7709923664122138,0.2824427480916031,-1.6412213740458015
5309639230785,0.551974739,2,8.116343627929687,5.711368060302734,0.6883329772949218,-1.717557251908397,0.35877862595419846,-1.6030534351145038
5309645143129,0.557887083,2,8.135497241210937,5.701791253662109,0.7254431030273437,-1.8091603053435115,0.3511450381679389,-1.6793893129770991
5309651031514,0.563775468,2,8.103175518798828,5.753266589355468,0.7398083129882812,-1.7557251908396947,0.2366412213740458,-1.5954198473282444
5309656946722,0.569690676,2,8.129511737060547,5.795165118408203,0.6727706665039062,-1.748091603053435,0.35877862595419846,-1.6030534351145038
5309662963389,0.575707343,2,8.117540728759765,5.734112976074218,0.6931213806152343,-1.6793893129770991,0.2900763358778626,-1.5954198473282444
5309668996462,0.581740416,2,8.143876947021484,5.738901379394531,0.6907271789550781,-1.7709923664122138,0.3053435114503817,-1.5725190839694656
5309674882243,0.587626197,2,8.118737829589843,5.738901379394531,0.7158662963867187,-1.6717557251908397,0.22900763358778625,-1.5419847328244274
5309680784014,0.593527968,2,8.097190014648437,5.773617303466796,0.7410054138183594,-1.6870229007633588,0.29770992366412213,-1.633587786259542
5309686670108,0.599414062,2,8.100781317138672,5.797559320068359,0.7505822204589844,-1.786259541984733,0.1984732824427481,-1.549618320610687
5309692536358,0.605280312,2,8.269572534179687,5.778405706787109,0.7613561279296874,-1.816793893129771,0.20610687022900764,-1.534351145038168
5309698466150,0.611210104,2,8.103175518798828,5.791573815917968,0.8307879760742187,-1.8244274809160306,0.20610687022900764,-1.6030534351145038
5309704387764,0.617131718,2,8.160636358642577,5.773617303466796,0.7338228088378905,-1.7557251908396947,0.37404580152671757,-1.6564885496183206
5309710288806,0.62303276,2,8.093598712158203,5.796362219238281,0.6955155822753906,-1.8396946564885497,0.183206106870229,-1.6488549618320612
5309716221306,0.62896526,2,8.086416107177733,5.7317187744140625,0.7170633972167968,-1.7709923664122138,0.2595419847328244,-1.6870229007633588
5309722132660,0.634876614,2,8.145074047851562,5.76523759765625,0.6787561706542968,-1.816793893129771,0.31297709923664124,-1.6488549618320612
5309728064066,0.64080802,2,8.078036401367187,5.758054992675781,0.6284779357910156,-1.717557251908397,0.3511450381679389,-1.5801526717557253
5309734009795,0.646753749,2,8.14028564453125,5.722141967773437,0.689530078125,-1.7938931297709924,0.2366412213740458,-1.5190839694656488
5309739952400,0.652696354,2,8.122329132080077,5.7508723876953125,0.7613561279296874,-1.6564885496183206,0.19083969465648856,-1.6259541984732824
5309745864170,0.658608124,2,8.129511737060547,5.753266589355468,0.7015010864257812,-1.8244274809160306,0.2366412213740458,-1.618320610687023
5309751799118,0.664543072,2,8.125920434570313,5.807136126708984,0.6332663391113281,-1.786259541984733,0.07633587786259542,-1.6488549618320612
5309757757243,0.670501197,2,8.095992913818359,5.728127471923828,0.7254431030273437,-1.8625954198473282,0.2748091603053435,-1.5954198473282444
5309763690577,0.676434531,2,8.104372619628906,5.725733270263672,0.8128314636230468,-1.7786259541984732,0.33587786259541985,-1.6106870229007633
5309769546097,0.682290051,2,8.09479581298828,5.742492681884765,0.689530078125,-1.748091603053435,0.3816793893129771,-1.5877862595419847
5309775470212,0.688214166,2,8.137891442871092,5.787982513427734,0.7050923889160156,-1.7251908396946565,0.022900763358778626,-1.5725190839694656
5309781438285,0.694182239,2,8.149862451171874,5.77122310180664,0.7793126403808593,-1.7709923664122138,0.2748091603053435,-1.5114503816793894
5309787339847,0.700083801,2,8.10197841796875,5.697002850341796,0.7314286071777343,-1.7404580152671756,0.3282442748091603,-1.6259541984732824
5309793283233,0.706027187,2,8.141482745361328,5.783194110107422,0.6607996582031249,-1.8015267175572518,0.1984732824427481,-1.6564885496183206
5309799210577,0.711954531,2,8.090007409667969,5.754463690185546,0.8104372619628906,-1.8244274809160306,0.25190839694656486,-1.618320610687023
5309805090681,0.717834635,2,8.095992913818359,5.716156463623046,0.7601590270996094,-1.7328244274809161,0.29770992366412213,-1.618320610687023
5309810982712,0.723726666,2,8.134300140380859,5.805939025878906,0.6667851623535156,-1.7099236641221374,0.3282442748091603,-1.5954198473282444
5309816871670,0.729615624,2,8.074445098876952,5.7329158752441405,0.7050923889160156,-1.748091603053435,0.2366412213740458,-1.7099236641221374
5309822785837,0.735529791,2,8.085219006347655,5.76523759765625,0.7553706237792969,-1.786259541984733,0.31297709923664124,-1.6412213740458015
5309828686983,0.741430937,2,8.11514652709961,5.742492681884765,0.7242460021972655,-1.748091603053435,0.25190839694656486,-1.5572519083969465
5309834545629,0.747289583,2,8.134300140380859,5.718550665283203,0.6943184814453125,-1.717557251908397,0.1984732824427481,-1.6030534351145038
5309840481618,0.753225572,2,8.113949426269532,5.734112976074218,0.7410054138183594,-1.7251908396946565,0.16793893129770993,-1.6717557251908397
5309846389691,0.759133645,2,8.109161022949218,5.773617303466796,0.7314286071777343,-1.717557251908397,0.16030534351145037,-1.633587786259542
5309852370264,0.765114218,2,8.251616021728514,5.723339068603515,0.7074865905761718,-1.8091603053435115,0.29770992366412213,-1.6564885496183206
5309858292556,0.77103651,2,8.169016064453125,5.7508723876953125,0.7278373046875,-1.816793893129771,0.19083969465648856,-1.5648854961832062
5309864228806,0.77697276,2,8.090007409667969,5.7329158752441405,0.7218518005371093,-1.7557251908396947,0.33587786259541985,-1.6412213740458015
5309870146097,0.782890051,2,8.145074047851562,5.753266589355468,0.7338228088378905,-1.7328244274809161,0.21374045801526717,-1.5419847328244274
5309876085264,0.788829218,2,8.14028564453125,5.716156463623046,0.7122749938964843,-1.7938931297709924,0.22137404580152673,-1.4885496183206106
5309882026566,0.79477052,2,8.103175518798828,5.7149593627929685,0.6619967590332031,-1.7099236641221374,0.2824427480916031,-1.5725190839694656
5309887952452,0.800696406,2,8.0828248046875,5.753266589355468,0.7350199096679687,-1.7633587786259541,0.2900763358778626,-1.618320610687023
5309893977139,0.806721093,2,8.123526232910155,5.704185455322265,0.604535919189453,-1.8549618320610688,0.24427480916030533,-1.5801526717557253
5309899930837,0.812674791,2,8.119934930419921,5.72693037109375,0.6727706665039062,-1.7404580152671756,0.2595419847328244,-1.5648854961832062
5309905926670,0.818670624,2,8.078036401367187,5.7700260009765625,0.6847416748046875,-1.7709923664122138,0.3511450381679389,-1.5572519083969465
5309911885160,0.824629114,2,8.11514652709961,5.762843395996094,0.7158662963867187,-1.8091603053435115,0.1984732824427481,-1.5954198473282444
5309917912816,0.83065677,2,8.166621862792969,5.792770916748046,0.7577648254394531,-1.7404580152671756,0.16793893129770993,-1.5572519083969465
5309923970212,0.836714166,2,8.12711753540039,5.7125651611328125,0.7038952880859375,-1.7557251908396947,0.3511450381679389,-1.4809160305343512
5309929964118,0.842708072,2,8.097190014648437,5.786785412597656,0.7242460021972655,-1.748091603053435,0.2824427480916031,-1.4809160305343512
5309935901462,0.848645416,2,8.072050897216796,5.735310076904296,0.6476315490722656,-1.6870229007633588,0.1450381679389313,-1.5877862595419847
5309941929170,0.854673124,2,8.157045056152343,5.737704278564453,0.7326257080078125,-1.7633587786259541,0.3053435114503817,-1.549618320610687
5309947881774,0.860625728,2,8.122329132080077,5.734112976074218,0.74699091796875,-1.8015267175572518,0.26717557251908397,-1.618320610687023
5309953864066,0.86660802,2,8.122329132080077,5.699397052001952,0.612915625,-1.6793893129770991,0.25190839694656486,-1.702290076335878
5309959817347,0.872561301,2,8.10197841796875,5.7508723876953125,0.6727706665039062,-1.717557251908397,0.183206106870229,-1.6641221374045803
5309965768597,0.878512551,2,8.136694342041014,5.747281085205078,0.6955155822753906,-1.6793893129770991,0.29770992366412213,-1.6717557251908397
5309971685629,0.884429583,2,8.164227661132813,5.743689782714843,0.7781155395507812,-1.8091603053435115,0.2900763358778626,-1.549618320610687
5309977594066,0.89033802,2,8.099584216308592,5.785588311767578,0.7529764221191406,-1.8091603053435115,0.21374045801526717,-1.6412213740458015
5309983552712,0.896296666,2,8.098387115478515,5.742492681884765,0.7529764221191406,-1.816793893129771,0.3435114503816794,-1.5267175572519085
5309989468285,0.902212239,2,8.10197841796875,5.736507177734374,0.6727706665039062,-1.7404580152671756,0.2748091603053435,-1.5877862595419847
5309995349535,0.908093489,2,8.119934930419921,5.764040496826172,0.6955155822753906,-1.8015267175572518,0.20610687022900764,-1.5725190839694656
5310001286722,0.914030676,2,8.106766821289062,5.729324572753906,0.6787561706542968,-1.7633587786259541,0.3893129770992366,-1.717557251908397
5310007223181,0.919967135,2,8.128314636230469,5.747281085205078,0.7876923461914062,-1.7709923664122138,0.2366412213740458,-1.6488549618320612
5310013168545,0.925912499,2,8.13310303955078,5.768828900146484,0.7398083129882812,-1.7938931297709924,0.3435114503816794,-1.5648854961832062
5310019094743,0.931838697,2,8.139088543701172,5.767631799316406,0.7170633972167968,-1.717557251908397,0.2748091603053435,-1.5038167938931297
5310025020212,0.937764166,2,8.109161022949218,5.706579656982422,0.7541735229492187,-1.7786259541984732,0.2824427480916031,-1.6259541984732824
5310030977556,0.94372151,2,8.166621862792969,5.728127471923828,0.7015010864257812,-1.7328244274809161,0.16030534351145037,-1.5801526717557253
5310036926826,0.94967078,2,7.97388862915039,5.743689782714843,0.737414111328125,-1.7404580152671756,0.22900763358778625,-1.5801526717557253
5310042845576,0.95558953,2,8.110358123779296,5.742492681884765,0.7398083129882812,-1.8549618320610688,0.3053435114503817,-1.5725190839694656
5310048830785,0.961574739,2,8.097190014648437,5.710170959472656,0.7457938171386719,-1.7251908396946565,0.4351145038167939,-1.633587786259542
5310054740056,0.96748401,2,8.06367119140625,5.741295581054687,0.7326257080078125,-1.786259541984733,0.2748091603053435,-1.5801526717557253
5310060680056,0.97342401,2,8.090007409667969,5.697002850341796,0.7577648254394531,-1.702290076335878,0.21374045801526717,-1.534351145038168
5310066601306,0.97934526,2,8.091204510498047,5.801150622558594,0.6823474731445313,-1.7099236641221374,0.33587786259541985,-1.5114503816793894
5310072549222,0.985293176,2,8.075642199707032,5.738901379394531,0.7733271362304687,-1.7099236641221374,0.1450381679389313,-1.5725190839694656
5310078419743,0.991163697,2,8.135497241210937,5.747281085205078,0.7673416320800781,-1.8244274809160306,0.2595419847328244,-1.5877862595419847
5310084360733,0.997104687,2,8.12113203125,5.7508723876953125,0.7326257080078125,-1.7404580152671756,0.33587786259541985,-1.633587786259542
5310090252868,1.002996822,2,8.123526232910155,5.777208605957031,0.7266402038574218,-1.786259541984733,0.2900763358778626,-1.5725190839694656
5310096210004,1.008953958,2,8.112752325439452,5.741295581054687,0.7278373046875,-1.7786259541984732,0.19083969465648856,-1.5114503816793894
5310102140941,1.014884895,2,8.131905938720703,5.761646295166015,0.7637503295898437,-1.786259541984733,0.2748091603053435,-1.633587786259542
5310108050056,1.02079401,2,8.125920434570313,5.730521673583984,0.7062894897460937,-1.7251908396946565,0.2366412213740458,-1.4885496183206106
5310114017660,1.026761614,2,8.061276989746093,5.717353564453124,0.7422025146484375,-1.748091603053435,0.366412213740458,-1.6106870229007633
5310119957660,1.032701614,2,8.148665350341796,5.744886883544922,0.679953271484375,-1.8015267175572518,0.26717557251908397,-1.549618320610687
5310125909118,1.038653072,2,8.075642199707032,5.778405706787109,0.6787561706542968,-1.7786259541984732,0.31297709923664124,-1.6259541984732824
5310131855056,1.04459901,2,8.24802471923828,5.762843395996094,0.7493851196289062,-1.7099236641221374,0.33587786259541985,-1.5572519083969465
5310137829535,1.050573489,2,8.116343627929687,5.759252093505859,0.6907271789550781,-1.7099236641221374,0.16793893129770993,-1.633587786259542
5310143770629,1.056514583,2,8.125920434570313,5.7843912109375,0.6404489440917969,-1.6412213740458015,0.2900763358778626,-1.633587786259542
5310149706045,1.062449999,2,8.118737829589843,5.77122310180664,0.7637503295898437,-1.7938931297709924,0.2748091603053435,-1.618320610687023
5310155642191,1.068386145,2,8.117540728759765,5.744886883544922,0.7122749938964843,-1.717557251908397,0.22137404580152673,-1.5267175572519085
5310161595316,1.07433927,2,8.136694342041014,5.749675286865234,0.6871358764648438,-1.7099236641221374,0.17557251908396945,-1.5267175572519085
5310167539587,1.080283541,2,8.161833459472655,5.685031842041015,0.6392518432617187,-1.7786259541984732,0.22137404580152673,-1.6259541984732824
5310173476045,1.086219999,2,8.044517578125,5.787982513427734,0.7254431030273437,-1.8091603053435115,0.2824427480916031,-1.6793893129770991
5310179407608,1.092151562,2,8.081627703857421,5.779602807617187,0.7422025146484375,-1.7938931297709924,0.25190839694656486,-1.5725190839694656
5310185332295,1.098076249,2,8.13310303955078,5.807136126708984,0.7110778930664062,-1.7938931297709924,0.22900763358778625,-1.549618320610687
5310191285264,1.104029218,2,8.172607366943359,5.742492681884765,0.7529764221191406,-1.7328244274809161,0.29770992366412213,-1.6030534351145038
5310197202295,1.109946249,2,8.122329132080077,5.741295581054687,0.6679822631835937,-1.8015267175572518,0.1297709923664122,-1.6259541984732824
5310203167764,1.115911718,2,8.116343627929687,5.774814404296874,0.7709329345703124,-1.786259541984733,0.16793893129770993,-1.5954198473282444
5310209103076,1.12184703,2,8.10197841796875,5.758054992675781,0.6607996582031249,-1.7328244274809161,0.35877862595419846,-1.5572519083969465
5310215028441,1.127772395,2,8.116343627929687,5.729324572753906,0.7386112121582031,-1.7938931297709924,0.3816793893129771,-1.6030534351145038
5310220974170,1.133718124,2,8.075642199707032,5.762843395996094,0.6967126831054687,-1.7251908396946565,0.22137404580152673,-1.5877862595419847
5310226903389,1.139647343,2,8.11514652709961,5.716156463623046,0.7110778930664062,-1.8015267175572518,0.2900763358778626,-1.5114503816793894
5310232832712,1.145576666,2,8.117540728759765,5.748478186035156,0.6596025573730468,-1.7786259541984732,0.31297709923664124,-1.5648854961832062
5310238755056,1.15149901,2,8.155847955322265,5.802347723388672,0.7122749938964843,-1.7404580152671756,0.183206106870229,-1.6106870229007633
5310244725108,1.157469062,2,8.12113203125,5.741295581054687,0.6596025573730468,-1.7633587786259541,0.15267175572519084,-1.6030534351145038
5310250682816,1.16342677,2,8.173804467773436,5.743689782714843,0.7422025146484375,-1.717557251908397,0.3511450381679389,-1.633587786259542
5310256710681,1.169454635,2,8.122329132080077,5.738901379394531,0.7410054138183594,-1.7633587786259541,0.16793893129770993,-1.6259541984732824
5310262660733,1.175404687,2,8.110358123779296,5.759252093505859,0.8008604553222656,-1.7099236641221374,0.16793893129770993,-1.7251908396946565
5310268539951,1.181283905,2,8.137891442871092,5.749675286865234,0.699106884765625,-1.702290076335878,0.22900763358778625,-1.6030534351145038
5310274513337,1.187257291,2,8.141482745361328,5.747281085205078,0.7266402038574218,-1.8931297709923665,0.3435114503816794,-1.5801526717557253
5310280540368,1.193284322,2,8.09479581298828,5.744886883544922,0.7410054138183594,-1.6412213740458015,0.22900763358778625,-1.5801526717557253
5310286464378,1.199208332,2,8.14627114868164,5.764040496826172,0.7326257080078125,-1.7099236641221374,0.2824427480916031,-1.6106870229007633
5310292377816,1.20512177,2,8.081627703857421,5.777208605957031,0.699106884765625,-1.6946564885496183,0.2366412213740458,-1.534351145038168
5310298304847,1.211048801,2,8.137891442871092,5.736507177734374,0.699106884765625,-1.7099236641221374,0.33587786259541985,-1.618320610687023
5310304247295,1.216991249,2,8.095992913818359,5.741295581054687,0.6955155822753906,-1.7557251908396947,0.16030534351145037,-1.5725190839694656
5310310202816,1.22294677,2,8.13310303955078,5.740098480224609,0.7445967163085937,-1.748091603053435,0.35877862595419846,-1.549618320610687
5310316122712,1.228866666,2,8.129511737060547,5.780799908447265,0.6859387756347656,-1.7404580152671756,0.20610687022900764,-1.6030534351145038
5310322077035,1.234820989,2,8.12113203125,5.725733270263672,0.6512228515624999,-1.8091603053435115,0.24427480916030533,-1.534351145038168
5310327931097,1.240675051,2,8.078036401367187,5.734112976074218,0.7230489013671875,-1.7786259541984732,0.16030534351145037,-1.618320610687023
5310333890316,1.24663427,2,8.125920434570313,5.722141967773437,0.7577648254394531,-1.7328244274809161,0.3053435114503817,-1.6717557251908397
5310339833910,1.252577864,2,8.074445098876952,5.792770916748046,0.7302315063476562,-1.816793893129771,0.21374045801526717,-1.5572519083969465
5310345806670,1.258550624,2,8.128314636230469,5.762843395996094,0.6931213806152343,-1.7786259541984732,0.17557251908396945,-1.534351145038168
5310351762451,1.264506405,2,8.086416107177733,5.741295581054687,0.7206546997070312,-1.7557251908396947,0.17557251908396945,-1.5267175572519085
5310357720576,1.27046453,2,8.129511737060547,5.743689782714843,0.74699091796875,-1.7328244274809161,0.25190839694656486,-1.5572519083969465
5310363647972,1.276391926,2,8.143876947021484,5.741295581054687,0.8176198669433593,-1.717557251908397,0.1984732824427481,-1.5648854961832062
5310369601045,1.282344999,2,8.136694342041014,5.7077767578125,0.7673416320800781,-1.6870229007633588,0.1984732824427481,-1.5725190839694656
5310375526097,1.288270051,2,8.098387115478515,5.748478186035156,0.7170633972167968,-1.7786259541984732,0.366412213740458,-1.6488549618320612
5310381463597,1.294207551,2,8.160636358642577,5.728127471923828,0.7170633972167968,-1.7709923664122138,0.17557251908396945,-1.6106870229007633
5310387398337,1.300142291,2,8.106766821289062,5.736507177734374,0.7661445312499999,-1.7328244274809161,0.3053435114503817,-1.5572519083969465
5310393314170,1.306058124,2,8.092401611328125,5.7125651611328125,0.7733271362304687,-1.7099236641221374,0.3816793893129771,-1.534351145038168
5310399245524,1.311989478,2,8.110358123779296,5.76523759765625,0.7350199096679687,-1.83206106870229,0.2595419847328244,-1.633587786259542
5310405188962,1.317932916,2,8.117540728759765,5.766434698486328,0.7733271362304687,-1.8244274809160306,0.2366412213740458,-1.5877862595419847
5310411143285,1.323887239,2,7.9846625366210935,5.7317187744140625,0.7553706237792969,-1.8244274809160306,0.2824427480916031,-1.5114503816793894
5310417088753,1.329832707,2,8.09479581298828,5.754463690185546,0.6823474731445313,-1.7786259541984732,0.33587786259541985,-1.5648854961832062
5310423018024,1.335761978,2,8.145074047851562,5.748478186035156,0.6572083557128906,-1.786259541984733,0.3053435114503817,-1.5190839694656488
5310428937816,1.34168177,2,8.0828248046875,5.768828900146484,0.8259995727539062,-1.6793893129770991,0.31297709923664124,-1.5801526717557253
5310434876722,1.347620676,2,8.130708837890625,5.724536169433593,0.7493851196289062,-1.7328244274809161,0.35877862595419846,-1.633587786259542
5310440828858,1.353572812,2,8.111555224609374,5.768828900146484,0.7577648254394531,-1.786259541984733,0.2824427480916031,-1.5267175572519085
5310446744066,1.35948802,2,8.123526232910155,5.791573815917968,0.718260498046875,-1.748091603053435,0.12213740458015267,-1.5572519083969465
5310452703493,1.365447447,2,8.080430603027343,5.746083984375,0.7709329345703124,-1.7786259541984732,0.20610687022900764,-1.5877862595419847
5310458630889,1.371374843,2,8.125920434570313,5.7520694885253905,0.7410054138183594,-1.8473282442748091,0.26717557251908397,-1.5419847328244274
5310464554847,1.377298801,2,8.143876947021484,5.728127471923828,0.7589619262695312,-1.7557251908396947,0.22137404580152673,-1.5038167938931297
5310470475003,1.383218957,2,8.113949426269532,5.755660791015624,0.7457938171386719,-1.748091603053435,0.25190839694656486,-1.6412213740458015
5310476397087,1.389141041,2,8.125920434570313,5.772420202636718,0.7158662963867187,-1.6488549618320612,0.3511450381679389,-1.5572519083969465
5310482320212,1.395064166,2,8.14028564453125,5.776011505126953,0.7613561279296874,-1.7328244274809161,0.25190839694656486,-1.4809160305343512
5310488233024,1.400976978,2,8.10796392211914,5.704185455322265,0.6536170532226562,-1.7709923664122138,0.31297709923664124,-1.6030534351145038
5310494169222,1.406913176,2,8.11514652709961,5.783194110107422,0.7146691955566405,-1.7404580152671756,0.35877862595419846,-1.6106870229007633
5310500103805,1.412847759,2,8.06367119140625,5.79037671508789,0.6835445739746093,-1.7938931297709924,0.32061068702290074,-1.6488549618320612
5310506054274,1.418798228,2,8.26837543334961,5.719747766113281,0.7386112121582031,-1.748091603053435,0.32061068702290074,-1.4580152671755726
5310511998076,1.42474203,2,8.068459594726562,5.6778492370605465,0.6069301208496093,-1.8244274809160306,0.3969465648854962,-1.6641221374045803
5310517975628,1.430719582,2,8.062474090576172,5.777208605957031,0.7302315063476562,-1.8778625954198473,0.29770992366412213,-1.6259541984732824
5310523923701,1.436667655,2,8.100781317138672,5.76523759765625,0.7709329345703124,-1.748091603053435,0.16793893129770993,-1.6412213740458015
5310529894378,1.442638332,2,8.147468249511718,5.764040496826172,0.7709329345703124,-1.7938931297709924,0.2824427480916031,-1.5114503816793894
5310535847764,1.448591718,2,8.06965669555664,5.744886883544922,0.7218518005371093,-1.8931297709923665,0.3511450381679389,-1.5114503816793894
5310541808545,1.454552499,2,8.11514652709961,5.760449194335937,0.7026981872558593,-1.7099236641221374,0.24427480916030533,-1.549618320610687
5310547729326,1.46047328,2,8.10197841796875,5.7329158752441405,0.7003039855957031,-1.7633587786259541,0.2595419847328244,-1.5114503816793894
5310553655837,1.466399791,2,8.106766821289062,5.734112976074218,0.7158662963867187,-1.6717557251908397,0.2366412213740458,-1.5038167938931297
5310559606618,1.472350572,2,8.12711753540039,5.691017346191406,0.7050923889160156,-1.7099236641221374,0.26717557251908397,-1.5954198473282444
5310565558597,1.478302551,2,8.129511737060547,5.747281085205078,0.7278373046875,-1.786259541984733,0.1984732824427481,-1.717557251908397
5310571529430,1.484273384,2,8.097190014648437,5.753266589355468,0.7158662963867187,-1.6946564885496183,0.3435114503816794,-1.5801526717557253
5310577403337,1.490147291,2,8.103175518798828,5.725733270263672,0.7218518005371093,-1.8091603053435115,0.2748091603053435,-1.6641221374045803
5310583332712,1.496076666,2,8.12711753540039,5.742492681884765,0.7577648254394531,-1.8015267175572518,0.2824427480916031,-1.5801526717557253
5310589330368,1.502074322,2,8.139088543701172,5.774814404296874,0.6631938598632812,-1.7328244274809161,0.17557251908396945,-1.5648854961832062
5310595307139,1.508051093,2,8.118737829589843,5.755660791015624,0.7661445312499999,-1.7633587786259541,0.2824427480916031,-1.4885496183206106
5310601290264,1.514034218,2,8.113949426269532,5.7077767578125,0.7864952453613281,-1.6793893129770991,0.15267175572519084,-1.4961832061068703
5310607238233,1.519982187,2,8.098387115478515,5.779602807617187,0.7158662963867187,-1.748091603053435,0.1450381679389313,-1.6259541984732824
5310613155316,1.52589927,2,8.137891442871092,5.759252093505859,0.7110778930664062,-1.8473282442748091,0.17557251908396945,-1.5572519083969465
5310619136930,1.531880884,2,8.137891442871092,5.780799908447265,0.6560112548828124,-1.7633587786259541,0.3435114503816794,-1.5801526717557253
5310625127608,1.537871562,2,8.106766821289062,5.749675286865234,0.7158662963867187,-1.8396946564885497,0.24427480916030533,-1.6488549618320612
5310631056045,1.543799999,2,8.134300140380859,5.7149593627929685,0.6751648681640625,-1.7557251908396947,0.24427480916030533,-1.6030534351145038
5310637009378,1.549753332,2,8.11514652709961,5.773617303466796,0.7134720947265625,-1.7709923664122138,0.3816793893129771,-1.534351145038168
5310642940941,1.555684895,2,8.098387115478515,5.762843395996094,0.6859387756347656,-1.7938931297709924,0.19083969465648856,-1.5419847328244274
5310648865993,1.561609947,2,8.173804467773436,5.774814404296874,0.7697358337402344,-1.786259541984733,0.20610687022900764,-1.618320610687023
5310654843701,1.567587655,2,8.098387115478515,5.72693037109375,0.7362170104980469,-1.7557251908396947,0.3893129770992366,-1.5801526717557253
5310660788024,1.573531978,2,7.969100225830077,5.779602807617187,0.7122749938964843,-1.7786259541984732,0.32061068702290074,-1.5572519083969465
5310666719795,1.579463749,2,8.118737829589843,5.749675286865234,0.7505822204589844,-1.7633587786259541,0.29770992366412213,-1.5801526717557253
5310672669847,1.585413801,2,8.135497241210937,5.779602807617187,0.709880792236328,-1.8244274809160306,0.2748091603053435,-1.5648854961832062
5310678593962,1.591337916,2,8.095992913818359,5.755660791015624,0.7062894897460937,-1.8091603053435115,0.2366412213740458,-1.618320610687023
5310684538441,1.597282395,2,8.129511737060547,5.746083984375,0.7517793212890624,-1.748091603053435,0.21374045801526717,-1.5038167938931297
5310690475264,1.603219218,2,8.062474090576172,5.759252093505859,0.7577648254394531,-1.7251908396946565,0.2595419847328244,-1.6564885496183206
5310696406826,1.60915078,2,8.104372619628906,5.735310076904296,0.7649474304199219,-1.816793893129771,0.32061068702290074,-1.5725190839694656
5310702370732,1.615114686,2,8.097190014648437,5.760449194335937,0.7589619262695312,-1.7709923664122138,0.2748091603053435,-1.6030534351145038
5310708325107,1.621069061,2,8.130708837890625,5.742492681884765,0.7338228088378905,-1.8244274809160306,0.25190839694656486,-1.5114503816793894
5310714246410,1.626990364,2,8.113949426269532,5.734112976074218,0.7338228088378905,-1.8549618320610688,0.32061068702290074,-1.5954198473282444
5310720168232,1.632912186,2,8.116343627929687,5.742492681884765,0.7015010864257812,-1.8091603053435115,0.2748091603053435,-1.6106870229007633
5310726097764,1.638841718,2,8.131905938720703,5.691017346191406,0.7541735229492187,-1.786259541984733,0.2824427480916031,-1.5648854961832062
5310732053493,1.644797447,2,8.123526232910155,5.746083984375,0.7362170104980469,-1.786259541984733,0.22900763358778625,-1.5190839694656488
5310738010264,1.650754218,2,8.182184173583984,5.730521673583984,0.6787561706542968,-1.7709923664122138,0.3053435114503817,-1.5725190839694656
5310743948753,1.656692707,2,8.097190014648437,5.735310076904296,0.7362170104980469,-1.6870229007633588,0.3053435114503817,-1.6106870229007633
5310749921201,1.662665155,2,8.129511737060547,5.719747766113281,0.6380547424316406,-1.786259541984733,0.183206106870229,-1.6259541984732824
5310755885785,1.668629739,2,8.135497241210937,5.768828900146484,0.7829039428710937,-1.7938931297709924,0.2366412213740458,-1.6030534351145038
5310761863962,1.674607916,2,8.129511737060547,5.718550665283203,0.6607996582031249,-1.7251908396946565,0.183206106870229,-1.7633587786259541
5310767807139,1.680551093,2,8.123526232910155,5.7137622619628905,0.7481880187988281,-1.702290076335878,0.16030534351145037,-1.6259541984732824
5310773768180,1.686512134,2,8.129511737060547,5.772420202636718,0.7302315063476562,-1.6870229007633588,0.13740458015267176,-1.549618320610687
5310779628285,1.692372239,2,8.143876947021484,5.7520694885253905,0.7338228088378905,-1.8549618320610688,0.26717557251908397,-1.6870229007633588
5310785602920,1.698346874,2,8.125920434570313,5.736507177734374,0.6751648681640625,-1.8091603053435115,0.25190839694656486,-1.5801526717557253
5310791506357,1.704250311,2,8.08881030883789,5.748478186035156,0.6727706665039062,-1.717557251908397,0.22900763358778625,-1.6259541984732824
5310797461045,1.710204999,2,8.095992913818359,5.764040496826172,0.7326257080078125,-1.7633587786259541,0.3511450381679389,-1.5725190839694656
5310803380420,1.716124374,2,8.117540728759765,5.742492681884765,0.6931213806152343,-1.7938931297709924,0.3282442748091603,-1.549618320610687
5310809298701,1.722042655,2,8.105569720458984,5.737704278564453,0.7038952880859375,-1.8778625954198473,0.1297709923664122,-1.5954198473282444
5310815230316,1.72797427,2,8.123526232910155,5.758054992675781,0.74699091796875,-1.8015267175572518,0.33587786259541985,-1.5572519083969465
5310821138441,1.733882395,2,8.091204510498047,5.728127471923828,0.7601590270996094,-1.8091603053435115,0.3511450381679389,-1.633587786259542
5310827075003,1.739818957,2,8.099584216308592,5.805939025878906,0.6619967590332031,-1.7404580152671756,0.22137404580152673,-1.5572519083969465
5310833003753,1.745747707,2,8.105569720458984,5.748478186035156,0.7805097412109374,-1.7709923664122138,0.17557251908396945,-1.5190839694656488
5310838939847,1.751683801,2,8.109161022949218,5.7891796142578125,0.6524199523925781,-1.7786259541984732,0.3282442748091603,-1.6030534351145038
5310844857764,1.757601718,2,8.14028564453125,5.749675286865234,0.7793126403808593,-1.7404580152671756,0.183206106870229,-1.5267175572519085
5310850797191,1.763541145,2,8.12711753540039,5.792770916748046,0.7924807495117187,-1.748091603053435,0.2366412213740458,-1.6106870229007633
5310856751357,1.769495311,2,8.125920434570313,5.760449194335937,0.7433996154785156,-1.83206106870229,0.16793893129770993,-1.6030534351145038
5310862700212,1.775444166,2,8.163030560302733,5.730521673583984,0.6560112548828124,-1.7938931297709924,0.31297709923664124,-1.618320610687023
5310868634170,1.781378124,2,8.111555224609374,5.7329158752441405,0.7158662963867187,-1.7633587786259541,0.3511450381679389,-1.633587786259542
5310874558441,1.787302395,2,8.073247998046874,5.774814404296874,0.6979097839355468,-1.8244274809160306,0.08396946564885496,-1.5190839694656488
5310880482451,1.793226405,2,8.119934930419921,5.76523759765625,0.7302315063476562,-1.7633587786259541,0.3969465648854962,-1.618320610687023
5310886395524,1.799139478,2,8.113949426269532,5.768828900146484,0.7410054138183594,-1.786259541984733,0.3435114503816794,-1.5648854961832062
5310892372191,1.805116145,2,8.095992913818359,5.793968017578124,0.737414111328125,-1.7404580152671756,0.22900763358778625,-1.6259541984732824
5310898344274,1.811088228,2,8.085219006347655,5.7077767578125,0.7038952880859375,-1.7938931297709924,0.26717557251908397,-1.6641221374045803
5310904379587,1.817123541,2,8.172607366943359,5.706579656982422,0.8152256652832031,-1.748091603053435,0.3053435114503817,-1.6641221374045803
5310910313232,1.823057186,2,8.249221820068358,5.785588311767578,0.7745242370605468,-1.7557251908396947,0.1297709923664122,-1.6564885496183206
5310916230472,1.828974426,2,8.157045056152343,5.754463690185546,0.7673416320800781,-1.6564885496183206,0.15267175572519084,-1.5954198473282444
5310922227451,1.834971405,2,8.090007409667969,5.7508723876953125,0.6763619689941406,-1.7633587786259541,0.3282442748091603,-1.5725190839694656
5310928209326,1.84095328,2,8.119934930419921,5.743689782714843,0.7793126403808593,-1.816793893129771,0.3969465648854962,-1.6106870229007633
5310934137399,1.846881353,2,8.062474090576172,5.753266589355468,0.7529764221191406,-1.786259541984733,0.1297709923664122,-1.6030534351145038
5310940065055,1.852809009,2,8.085219006347655,5.761646295166015,0.7817068420410156,-1.6564885496183206,0.22900763358778625,-1.5877862595419847
5310946037920,1.858781874,2,8.104372619628906,5.710170959472656,0.7769184387207031,-1.717557251908397,0.19083969465648856,-1.549618320610687
5310952025316,1.86476927,2,8.119934930419921,5.819107135009765,0.718260498046875,-1.7786259541984732,0.13740458015267176,-1.6717557251908397
5310958054326,1.87079828,2,8.118737829589843,5.766434698486328,0.6823474731445313,-1.7328244274809161,0.22900763358778625,-1.5877862595419847
5310964041514,1.876785468,2,8.087613208007811,5.795165118408203,0.7242460021972655,-1.8015267175572518,0.3053435114503817,-1.748091603053435
5310970029691,1.882773645,2,8.13310303955078,5.735310076904296,0.7026981872558593,-1.748091603053435,0.10687022900763359,-1.633587786259542
5310976026045,1.888769999,2,8.112752325439452,5.725733270263672,0.7206546997070312,-1.748091603053435,0.19083969465648856,-1.5725190839694656
5310981981982,1.894725936,2,8.11514652709961,5.76523759765625,0.7601590270996094,-1.748091603053435,0.2824427480916031,-1.5801526717557253
5310987927972,1.900671926,2,8.078036401367187,5.756857891845703,0.7613561279296874,-1.7557251908396947,0.3511450381679389,-1.5801526717557253
5310994060524,1.906804478,2,8.129511737060547,5.756857891845703,0.6967126831054687,-1.7099236641221374,0.17557251908396945,-1.618320610687023
5311000034274,1.912778228,2,8.116343627929687,5.746083984375,0.7146691955566405,-1.7633587786259541,0.37404580152671757,-1.633587786259542
5311005914014,1.918657968,2,8.124723333740233,5.738901379394531,0.7685387329101562,-1.7633587786259541,0.29770992366412213,-1.534351145038168
5311011865159,1.924609113,2,8.092401611328125,5.749675286865234,0.7661445312499999,-1.748091603053435,0.2595419847328244,-1.549618320610687
5311017824326,1.93056828,2,8.158242156982421,5.747281085205078,0.7050923889160156,-1.8549618320610688,0.25190839694656486,-1.6030534351145038
5311023764795,1.936508749,2,8.113949426269532,5.738901379394531,0.6847416748046875,-1.7557251908396947,0.24427480916030533,-1.5877862595419847
5311029749066,1.94249302,2,8.054094384765625,5.748478186035156,0.7565677246093749,-1.83206106870229,0.29770992366412213,-1.702290076335878
5311035620159,1.948364113,2,8.10197841796875,5.72693037109375,0.8164227661132812,-1.816793893129771,0.2824427480916031,-1.5801526717557253
5311041596826,1.95434078,2,8.087613208007811,5.719747766113281,0.7110778930664062,-1.816793893129771,0.26717557251908397,-1.6106870229007633
5311047517451,1.960261405,2,8.16542476196289,5.7137622619628905,0.7601590270996094,-1.7328244274809161,0.3053435114503817,-1.6106870229007633
5311053476097,1.966220051,2,8.128314636230469,5.746083984375,0.7936778503417968,-1.702290076335878,0.0916030534351145,-1.5725190839694656
5311059405837,1.972149791,2,8.137891442871092,5.756857891845703,0.7457938171386719,-1.748091603053435,0.12213740458015267,-1.5725190839694656
5311065335524,1.978079478,2,8.125920434570313,5.753266589355468,0.7445967163085937,-1.7557251908396947,0.4122137404580153,-1.5038167938931297
5311071224326,1.98396828,2,8.119934930419921,5.7508723876953125,0.6871358764648438,-1.7786259541984732,0.2824427480916031,-1.4885496183206106
5311077149118,1.989893072,2,8.080430603027343,5.754463690185546,0.6691793640136718,-1.7938931297709924,0.2366412213740458,-1.618320610687023
5311083083545,1.995827499,2,8.122329132080077,5.740098480224609,0.6871358764648438,-1.7557251908396947,0.15267175572519084,-1.5725190839694656
5311089008962,2.001752916,2,8.119934930419921,5.744886883544922,0.7062894897460937,-1.748091603053435,0.32061068702290074,-1.7328244274809161
5311094917034,2.007660988,2,8.267178332519531,5.781997009277344,0.7541735229492187,-1.702290076335878,0.22900763358778625,-1.6564885496183206
5311100857972,2.013601926,2,8.149862451171874,5.768828900146484,0.7254431030273437,-1.7938931297709924,0.24427480916030533,-1.5954198473282444
5311106835889,2.019579843,2,8.152256652832031,5.779602807617187,0.7445967163085937,-1.6946564885496183,0.33587786259541985,-1.5267175572519085
5311112788180,2.025532134,2,8.147468249511718,5.742492681884765,0.7793126403808593,-1.7328244274809161,0.1984732824427481,-1.6564885496183206
5311118717295,2.031461249,2,8.12711753540039,5.780799908447265,0.6931213806152343,-1.8473282442748091,0.16793893129770993,-1.5114503816793894
5311124679534,2.037423488,2,8.147468249511718,5.7520694885253905,0.6416460449218749,-1.7709923664122138,0.33587786259541985,-1.6717557251908397
5311130582607,2.043326561,2,8.149862451171874,5.76523759765625,0.8116343627929687,-1.7633587786259541,0.29770992366412213,-1.534351145038168
5311136546097,2.049290051,2,8.062474090576172,5.7329158752441405,0.7410054138183594,-1.7404580152671756,0.29770992366412213,-1.6259541984732824
5311142459586,2.05520354,2,8.111555224609374,5.755660791015624,0.6117185241699218,-1.7709923664122138,0.15267175572519084,-1.618320610687023
5311148465420,2.061209374,2,8.136694342041014,5.725733270263672,0.7146691955566405,-1.7251908396946565,0.20610687022900764,-1.6412213740458015
5311154404951,2.067148905,2,8.160636358642577,5.704185455322265,0.7026981872558593,-1.717557251908397,0.22900763358778625,-1.549618320610687
5311160331566,2.07307552,2,8.092401611328125,5.805939025878906,0.7326257080078125,-1.748091603053435,0.1984732824427481,-1.5877862595419847
5311166258128,2.079002082,2,8.081627703857421,5.754463690185546,0.7745242370605468,-1.83206106870229,0.2900763358778626,-1.5648854961832062
5311172220003,2.084963957,2,8.130708837890625,5.725733270263672,0.7505822204589844,-1.6946564885496183,0.3435114503816794,-1.5648854961832062
5311178148024,2.090891978,2,8.091204510498047,5.6958057495117185,0.6500257507324219,-1.7938931297709924,0.2366412213740458,-1.6564885496183206
5311184077191,2.096821145,2,8.095992913818359,5.754463690185546,0.6272808349609375,-1.8244274809160306,0.20610687022900764,-1.5419847328244274
5311190043961,2.102787915,2,8.129511737060547,5.762843395996094,0.7589619262695312,-1.7786259541984732,0.3511450381679389,-1.6412213740458015
5311196025941,2.108769895,2,8.124723333740233,5.767631799316406,0.6596025573730468,-1.7786259541984732,0.15267175572519084,-1.5877862595419847
5311202069534,2.114813488,2,8.13310303955078,5.779602807617187,0.7410054138183594,-1.7328244274809161,0.20610687022900764,-1.6106870229007633
5311208053441,2.120797395,2,8.095992913818359,5.764040496826172,0.7637503295898437,-1.7251908396946565,0.3435114503816794,-1.6412213740458015
5311214015003,2.126758957,2,8.111555224609374,5.798756420898437,0.7206546997070312,-1.7633587786259541,0.21374045801526717,-1.4809160305343512
5311219972399,2.132716353,2,8.129511737060547,5.766434698486328,0.719457598876953,-1.9312977099236641,0.20610687022900764,-1.5648854961832062
5311225996982,2.138740936,2,8.142679846191406,5.77122310180664,0.737414111328125,-1.6946564885496183,0.24427480916030533,-1.5877862595419847
5311231991982,2.144735936,2,8.128314636230469,5.705382556152343,0.7852981445312499,-1.748091603053435,0.32061068702290074,-1.717557251908397
5311237979170,2.150723124,2,8.111555224609374,5.722141967773437,0.7481880187988281,-1.8015267175572518,0.25190839694656486,-1.6488549618320612
5311243916461,2.156660415,2,8.128314636230469,5.7508723876953125,0.7553706237792969,-1.6717557251908397,0.22900763358778625,-1.5572519083969465
5311249889430,2.162633384,2,8.116343627929687,5.795165118408203,0.7170633972167968,-1.7786259541984732,0.3282442748091603,-1.549618320610687
5311255870680,2.168614634,2,8.128314636230469,5.710170959472656,0.7266402038574218,-1.7404580152671756,0.1984732824427481,-1.5572519083969465
5311261895836,2.17463979,2,8.070853796386718,5.792770916748046,0.718260498046875,-1.748091603053435,0.2366412213740458,-1.6564885496183206
5311267837295,2.180581249,2,8.111555224609374,5.724536169433593,0.6835445739746093,-1.7404580152671756,0.3053435114503817,-1.5801526717557253
5311273815211,2.186559165,2,8.110358123779296,5.815515832519531,0.7050923889160156,-1.7709923664122138,0.2748091603053435,-1.633587786259542
5311279771097,2.192515051,2,8.11514652709961,5.754463690185546,0.7888894470214843,-1.7938931297709924,0.1450381679389313,-1.5801526717557253
5311285748961,2.198492915,2,8.122329132080077,5.777208605957031,0.7278373046875,-1.7251908396946565,0.2595419847328244,-1.6717557251908397
5311291610680,2.204354634,2,8.103175518798828,5.761646295166015,0.729034405517578,-1.6793893129770991,0.32061068702290074,-1.5877862595419847
5311297589899,2.210333853,2,8.058882788085937,5.749675286865234,0.6739677673339843,-1.6946564885496183,0.29770992366412213,-1.6106870229007633
5311303496201,2.216240155,2,8.195352282714843,5.746083984375,0.7122749938964843,-1.7328244274809161,0.22137404580152673,-1.4809160305343512
5311309449691,2.222193645,2,7.9846625366210935,5.779602807617187,0.7158662963867187,-1.7709923664122138,0.2900763358778626,-1.5572519083969465
5311315371618,2.228115572,2,8.12711753540039,5.699397052001952,0.718260498046875,-1.8244274809160306,0.26717557251908397,-1.5572519083969465
5311321178545,2.233922499,2,8.100781317138672,5.704185455322265,0.7733271362304687,-1.8396946564885497,0.2366412213740458,-1.5419847328244274
5311327070368,2.239814322,2,8.10197841796875,5.7125651611328125,0.7529764221191406,-1.7633587786259541,0.29770992366412213,-1.702290076335878
5311332997295,2.245741249,2,8.125920434570313,5.7508723876953125,0.7673416320800781,-1.6870229007633588,0.33587786259541985,-1.5267175572519085
5311338913597,2.251657551,2,8.122329132080077,5.754463690185546,0.7649474304199219,-1.7633587786259541,0.10687022900763359,-1.6030534351145038
5311344843753,2.257587707,2,8.098387115478515,5.756857891845703,0.6943184814453125,-1.702290076335878,0.29770992366412213,-1.5648854961832062
5311350840628,2.263584582,2,8.086416107177733,5.743689782714843,0.7338228088378905,-1.8244274809160306,0.2900763358778626,-1.5877862595419847
5311356822607,2.269566561,2,8.104372619628906,5.7329158752441405,0.7326257080078125,-1.8015267175572518,0.26717557251908397,-1.5114503816793894
5311362758701,2.275502655,2,8.135497241210937,5.767631799316406,0.7649474304199219,-1.83206106870229,0.25190839694656486,-1.5954198473282444
5311368684951,2.281428905,2,8.118737829589843,5.7317187744140625,0.6871358764648438,-1.8702290076335877,0.32061068702290074,-1.549618320610687
5311374607920,2.287351874,2,8.084021905517577,5.758054992675781,0.6931213806152343,-1.8091603053435115,0.3969465648854962,-1.5572519083969465
5311380540472,2.293284426,2,8.105569720458984,5.783194110107422,0.7003039855957031,-1.7328244274809161,0.16793893129770993,-1.5648854961832062
5311386465941,2.299209895,2,8.10197841796875,5.80354482421875,0.6871358764648438,-1.816793893129771,0.2900763358778626,-1.534351145038168
5311392399222,2.305143176,2,8.075642199707032,5.719747766113281,0.7314286071777343,-1.7786259541984732,0.25190839694656486,-1.6946564885496183
5311398319378,2.311063332,2,8.11514652709961,5.749675286865234,0.7206546997070312,-1.7709923664122138,0.07633587786259542,-1.5725190839694656
5311404250784,2.316994738,2,8.227674005126953,5.779602807617187,0.7457938171386719,-1.7251908396946565,0.2748091603053435,-1.5190839694656488
5311410208493,2.322952447,2,8.098387115478515,5.700594152832031,0.7697358337402344,-1.748091603053435,0.3511450381679389,-1.4885496183206106
5311416161461,2.328905415,2,8.105569720458984,5.7700260009765625,0.8044517578125,-1.7938931297709924,0.2748091603053435,-1.5190839694656488
5311422158232,2.334902186,2,8.110358123779296,5.760449194335937,0.7158662963867187,-1.717557251908397,0.32061068702290074,-1.6106870229007633
5311428067295,2.340811249,2,8.07683930053711,5.807136126708984,0.7146691955566405,-1.748091603053435,0.35877862595419846,-1.702290076335878
5311433985524,2.346729478,2,8.11514652709961,5.728127471923828,0.7649474304199219,-1.7633587786259541,0.25190839694656486,-1.5267175572519085
5311439913857,2.352657811,2,8.139088543701172,5.749675286865234,0.7649474304199219,-1.7633587786259541,0.1984732824427481,-1.5801526717557253
5311445879951,2.358623905,2,8.135497241210937,5.729324572753906,0.7003039855957031,-1.7709923664122138,0.1984732824427481,-1.6793893129770991
5311451742191,2.364486145,2,8.093598712158203,5.72693037109375,0.7781155395507812,-1.7328244274809161,0.22900763358778625,-1.5419847328244274
5311458667034,2.371410988,2,8.194155181884765,5.766434698486328,0.7074865905761718,-1.7786259541984732,0.22137404580152673,-1.6106870229007633
5311464950420,2.377694374,2,8.16542476196289,5.738901379394531,0.7817068420410156,-1.7328244274809161,0.16793893129770993,-1.549618320610687
5311470925211,2.383669165,2,8.095992913818359,5.708973858642578,0.6907271789550781,-1.6717557251908397,0.3511450381679389,-1.5877862595419847
5311476849170,2.389593124,2,8.093598712158203,5.762843395996094,0.8008604553222656,-1.6870229007633588,0.31297709923664124,-1.5877862595419847
5311482726357,2.395470311,2,8.145074047851562,5.747281085205078,0.6751648681640625,-1.7404580152671756,0.1984732824427481,-1.6030534351145038
5311488718753,2.401462707,2,8.08881030883789,5.774814404296874,0.6584054565429687,-1.7709923664122138,0.3435114503816794,-1.549618320610687
5311494618493,2.407362447,2,8.13310303955078,5.729324572753906,0.7505822204589844,-1.7709923664122138,0.29770992366412213,-1.5572519083969465
5311500526670,2.413270624,2,8.170213165283203,5.7329158752441405,0.7852981445312499,-1.7938931297709924,0.26717557251908397,-1.5267175572519085
5311506429743,2.419173697,2,8.100781317138672,5.817910034179687,0.7505822204589844,-1.7328244274809161,0.09923664122137404,-1.5190839694656488
5311512366566,2.42511052,2,8.086416107177733,5.791573815917968,0.7062894897460937,-1.7633587786259541,0.37404580152671757,-1.5648854961832062
5311518242243,2.430986197,2,8.10796392211914,5.778405706787109,0.6560112548828124,-1.7099236641221374,0.17557251908396945,-1.6030534351145038
5311524205680,2.436949634,2,8.14627114868164,5.746083984375,0.7206546997070312,-1.786259541984733,0.16030534351145037,-1.5877862595419847
5311530111878,2.442855832,2,8.112752325439452,5.740098480224609,0.7829039428710937,-1.7557251908396947,0.3053435114503817,-1.6106870229007633
5311536033493,2.448777447,2,8.110358123779296,5.786785412597656,0.6715735656738281,-1.8015267175572518,0.3511450381679389,-1.633587786259542
5311541970732,2.454714686,2,8.08881030883789,5.702988354492187,0.8104372619628906,-1.7251908396946565,0.15267175572519084,-1.618320610687023
5311547980107,2.460724061,2,8.122329132080077,5.7520694885253905,0.6979097839355468,-1.8396946564885497,0.1984732824427481,-1.5954198473282444
5311553963909,2.466707863,2,8.252813122558594,5.741295581054687,0.7541735229492187,-1.7404580152671756,0.20610687022900764,-1.5267175572519085
5311559898440,2.472642394,2,8.123526232910155,5.7891796142578125,0.6943184814453125,-1.7786259541984732,0.2748091603053435,-1.5954198473282444
5311565833753,2.478577707,2,8.084021905517577,5.700594152832031,0.7410054138183594,-1.8473282442748091,0.20610687022900764,-1.6412213740458015
5311571701461,2.484445415,2,8.097190014648437,5.758054992675781,0.7410054138183594,-1.7633587786259541,0.33587786259541985,-1.6564885496183206
5311577612555,2.490356509,2,8.10796392211914,5.776011505126953,0.7302315063476562,-1.7328244274809161,0.31297709923664124,-1.6030534351145038
5311583515263,2.496259217,2,8.081627703857421,5.761646295166015,0.7637503295898437,-1.7938931297709924,0.24427480916030533,-1.5267175572519085
5311589471618,2.502215572,2,8.131905938720703,5.754463690185546,0.6859387756347656,-1.717557251908397,0.2824427480916031,-1.5954198473282444
5311595416982,2.508160936,2,8.128314636230469,5.718550665283203,0.7805097412109374,-1.7404580152671756,0.3511450381679389,-1.5725190839694656
5311601321513,2.514065467,2,8.086416107177733,5.773617303466796,0.7074865905761718,-1.7251908396946565,0.29770992366412213,-1.5801526717557253
5311607206982,2.519950936,2,8.106766821289062,5.77122310180664,0.7003039855957031,-1.7404580152671756,0.25190839694656486,-1.5801526717557253
5311613098909,2.525842863,2,8.093598712158203,5.737704278564453,0.729034405517578,-1.7099236641221374,0.42748091603053434,-1.5648854961832062
5311618984638,2.531728592,2,8.113949426269532,5.746083984375,0.7745242370605468,-1.7938931297709924,0.22137404580152673,-1.6717557251908397
5311624858232,2.537602186,2,8.157045056152343,5.692214447021484,0.7326257080078125,-1.7251908396946565,0.20610687022900764,-1.5648854961832062
5311630747138,2.543491092,2,8.084021905517577,5.783194110107422,0.6943184814453125,-1.8015267175572518,0.24427480916030533,-1.5954198473282444
5311636682868,2.549426822,2,8.128314636230469,5.753266589355468,0.7697358337402344,-1.7786259541984732,0.2366412213740458,-1.5725190839694656
5311642584482,2.555328436,2,8.106766821289062,5.729324572753906,0.7637503295898437,-1.7709923664122138,0.2366412213740458,-1.5648854961832062
5311648583024,2.561326978,2,8.105569720458984,5.737704278564453,0.718260498046875,-1.7557251908396947,0.24427480916030533,-1.5648854961832062
5311654543128,2.567287082,2,8.118737829589843,5.780799908447265,0.6775590698242188,-1.717557251908397,0.3511450381679389,-1.633587786259542
5311660428076,2.57317203,2,8.14028564453125,5.7137622619628905,0.7577648254394531,-1.816793893129771,0.2366412213740458,-1.6488549618320612
5311666357503,2.579101457,2,8.106766821289062,5.774814404296874,0.719457598876953,-1.786259541984733,0.16030534351145037,-1.618320610687023
5311672272138,2.585016092,2,8.106766821289062,5.772420202636718,0.6751648681640625,-1.7633587786259541,0.22900763358778625,-1.5877862595419847
5311678206670,2.590950624,2,8.118737829589843,5.76523759765625,0.7015010864257812,-1.816793893129771,0.22137404580152673,-1.5114503816793894
5311684103232,2.596847186,2,8.104372619628906,5.720944866943359,0.7781155395507812,-1.7709923664122138,0.1450381679389313,-1.465648854961832
5311690043961,2.602787915,2,8.149862451171874,5.773617303466796,0.6847416748046875,-1.7709923664122138,0.22900763358778625,-1.5648854961832062
5311695942920,2.608686874,2,8.15345375366211,5.762843395996094,0.7410054138183594,-1.786259541984733,0.2748091603053435,-1.5419847328244274
5311701925680,2.614669634,2,8.10197841796875,5.725733270263672,0.7505822204589844,-1.702290076335878,0.24427480916030533,-1.5801526717557253
5311707855420,2.620599374,2,8.12711753540039,5.7329158752441405,0.7170633972167968,-1.6641221374045803,0.09923664122137404,-1.6259541984732824
5311713807399,2.626551353,2,8.10796392211914,5.735310076904296,0.7481880187988281,-1.702290076335878,0.22137404580152673,-1.633587786259542
5311719706305,2.632450259,2,8.061276989746093,5.725733270263672,0.7493851196289062,-1.786259541984733,0.29770992366412213,-1.633587786259542
5311725623597,2.638367551,2,8.116343627929687,5.758054992675781,0.7230489013671875,-1.8549618320610688,0.22900763358778625,-1.5801526717557253
5311731517815,2.644261769,2,8.113949426269532,5.773617303466796,0.7158662963867187,-1.7709923664122138,0.16793893129770993,-1.5419847328244274
5311737393076,2.65013703,2,8.111555224609374,5.717353564453124,0.7062894897460937,-1.7404580152671756,0.29770992366412213,-1.5954198473282444
5311743285576,2.65602953,2,8.103175518798828,5.746083984375,0.6655880615234374,-1.8091603053435115,0.17557251908396945,-1.618320610687023
5311749181670,2.661925624,2,8.105569720458984,5.736507177734374,0.7481880187988281,-1.6717557251908397,0.16793893129770993,-1.5877862595419847
5311755087295,2.667831249,2,8.112752325439452,5.777208605957031,0.7326257080078125,-1.8931297709923665,0.22900763358778625,-1.534351145038168
5311760988180,2.673732134,2,8.129511737060547,5.717353564453124,0.6248866333007812,-1.8091603053435115,0.26717557251908397,-1.5038167938931297
5311766849690,2.679593644,2,8.129511737060547,5.705382556152343,0.82360537109375,-1.7557251908396947,0.32061068702290074,-1.5572519083969465
5311772718284,2.685462238,2,8.128314636230469,5.741295581054687,0.7661445312499999,-1.7404580152671756,0.2748091603053435,-1.549618320610687
5311778648128,2.691392082,2,8.137891442871092,5.702988354492187,0.7996633544921875,-1.6793893129770991,0.24427480916030533,-1.5725190839694656
5311784555420,2.697299374,2,8.092401611328125,5.787982513427734,0.7457938171386719,-1.7709923664122138,0.17557251908396945,-1.6030534351145038
5311790450003,2.703193957,2,8.14028564453125,5.783194110107422,0.8559270935058593,-1.748091603053435,0.2748091603053435,-1.5572519083969465
5311796374326,2.70911828,2,8.13310303955078,5.738901379394531,0.7266402038574218,-1.7709923664122138,0.22900763358778625,-1.6106870229007633
5311802220784,2.714964738,2,8.105569720458984,5.787982513427734,0.7757213378906249,-1.7404580152671756,0.2900763358778626,-1.5877862595419847
5311808108649,2.720852603,2,8.129511737060547,5.797559320068359,0.7015010864257812,-1.748091603053435,0.16030534351145037,-1.618320610687023
5311814025159,2.726769113,2,8.136694342041014,5.7508723876953125,0.7541735229492187,-1.7251908396946565,0.1984732824427481,-1.6564885496183206
5311820044326,2.73278828,2,8.104372619628906,5.746083984375,0.7015010864257812,-1.8015267175572518,0.24427480916030533,-1.5725190839694656
5311825979117,2.738723071,2,8.095992913818359,5.744886883544922,0.7230489013671875,-1.7786259541984732,0.2900763358778626,-1.4961832061068703
5311831906722,2.744650676,2,8.075642199707032,5.772420202636718,0.7170633972167968,-1.7404580152671756,0.1450381679389313,-1.6488549618320612
5311837861513,2.750605467,2,8.11514652709961,5.777208605957031,0.9002198242187499,-1.7633587786259541,0.3282442748091603,-1.6488549618320612
5311843753597,2.756497551,2,8.075642199707032,5.724536169433593,0.729034405517578,-1.7404580152671756,0.19083969465648856,-1.6412213740458015
5311849694899,2.762438853,2,8.092401611328125,5.776011505126953,0.6931213806152343,-1.6717557251908397,0.06870229007633588,-1.7251908396946565
5311855610732,2.768354686,2,8.128314636230469,5.702988354492187,0.7577648254394531,-1.717557251908397,0.21374045801526717,-1.6412213740458015
5311861550367,2.774294321,2,8.074445098876952,5.734112976074218,0.7769184387207031,-1.786259541984733,0.2900763358778626,-1.6717557251908397
5311867451565,2.780195519,2,8.087613208007811,5.717353564453124,0.8092401611328125,-1.7786259541984732,0.16030534351145037,-1.5877862595419847
5311873386097,2.786130051,2,7.976282830810546,5.746083984375,0.7302315063476562,-1.83206106870229,0.20610687022900764,-1.6106870229007633
5311879298597,2.792042551,2,8.09479581298828,5.80354482421875,0.7062894897460937,-1.7328244274809161,0.25190839694656486,-1.5954198473282444
5311885304534,2.798048488,2,8.141482745361328,5.740098480224609,0.6919242797851562,-1.8473282442748091,0.20610687022900764,-1.6030534351145038
5311891201670,2.803945624,2,8.14028564453125,5.7317187744140625,0.6524199523925781,-1.7404580152671756,0.1984732824427481,-1.6030534351145038
5311897097399,2.809841353,2,8.113949426269532,5.746083984375,0.7254431030273437,-1.8549618320610688,0.3282442748091603,-1.6106870229007633
5311902999638,2.815743592,2,8.090007409667969,5.736507177734374,0.6919242797851562,-1.7938931297709924,0.2748091603053435,-1.7099236641221374
5311908929117,2.821673071,2,8.09479581298828,5.723339068603515,0.7242460021972655,-1.786259541984733,0.15267175572519084,-1.5801526717557253
5311914888805,2.827632759,2,8.11514652709961,5.747281085205078,0.7338228088378905,-1.8091603053435115,0.22900763358778625,-1.5954198473282444
5311920852034,2.833595988,2,8.105569720458984,5.741295581054687,0.6859387756347656,-1.748091603053435,0.31297709923664124,-1.5954198473282444
5311926749847,2.839493801,2,8.105569720458984,5.735310076904296,0.7015010864257812,-1.7709923664122138,0.3053435114503817,-1.5954198473282444
5311932665367,2.845409321,2,8.02536396484375,5.736507177734374,0.6715735656738281,-1.7404580152671756,0.21374045801526717,-1.534351145038168
5311938572242,2.851316196,2,8.173804467773436,5.747281085205078,0.7158662963867187,-1.6412213740458015,0.366412213740458,-1.549618320610687
5311944452295,2.857196249,2,8.10796392211914,5.725733270263672,0.6871358764648438,-1.7786259541984732,0.2595419847328244,-1.6030534351145038
5311950375107,2.863119061,2,8.09479581298828,5.754463690185546,0.7649474304199219,-1.702290076335878,0.08396946564885496,-1.6106870229007633
5311956309951,2.869053905,2,8.149862451171874,5.779602807617187,0.7398083129882812,-1.8396946564885497,0.21374045801526717,-1.633587786259542
5311962209951,2.874953905,2,8.066065393066406,5.716156463623046,0.7386112121582031,-1.8091603053435115,0.2900763358778626,-1.6641221374045803
5311968117555,2.880861509,2,8.074445098876952,5.716156463623046,0.679953271484375,-1.8015267175572518,0.2366412213740458,-1.5419847328244274
5311974049534,2.886793488,2,8.118737829589843,5.747281085205078,0.7326257080078125,-1.748091603053435,0.2366412213740458,-1.6412213740458015
5311979976357,2.892720311,2,8.072050897216796,5.737704278564453,0.709880792236328,-1.786259541984733,0.2900763358778626,-1.6259541984732824
5311985926409,2.898670363,2,8.074445098876952,5.7329158752441405,0.6631938598632812,-1.7938931297709924,0.3282442748091603,-1.6717557251908397
5311991853544,2.904597498,2,8.14028564453125,5.755660791015624,0.7170633972167968,-1.7404580152671756,0.16030534351145037,-1.5572519083969465
5311997900003,2.910643957,2,8.124723333740233,5.743689782714843,0.6859387756347656,-1.6412213740458015,0.29770992366412213,-1.6488549618320612
5312003834742,2.916578696,2,8.085219006347655,5.685031842041015,0.7613561279296874,-1.7328244274809161,0.31297709923664124,-1.6412213740458015
5312009777919,2.922521873,2,8.130708837890625,5.762843395996094,0.7589619262695312,-1.8473282442748091,0.17557251908396945,-1.618320610687023
5312015669847,2.928413801,2,8.100781317138672,5.766434698486328,0.7074865905761718,-1.7709923664122138,0.17557251908396945,-1.5801526717557253
5312021538284,2.934282238,2,8.149862451171874,5.768828900146484,0.7218518005371093,-1.748091603053435,0.32061068702290074,-1.618320610687023
5312027408440,2.940152394,2,8.139088543701172,5.748478186035156,0.7338228088378905,-1.6641221374045803,0.20610687022900764,-1.5877862595419847
5312033325315,2.946069269,2,8.128314636230469,5.776011505126953,0.7062894897460937,-1.7709923664122138,0.12213740458015267,-1.6030534351145038
5312039215940,2.951959894,2,8.130708837890625,5.730521673583984,0.6955155822753906,-1.6946564885496183,0.16793893129770993,-1.5954198473282444
5312045132138,2.957876092,2,8.099584216308592,5.756857891845703,0.719457598876953,-1.702290076335878,0.2824427480916031,-1.5648854961832062
5312051026253,2.963770207,2,8.09479581298828,5.730521673583984,0.7398083129882812,-1.748091603053435,0.25190839694656486,-1.5419847328244274
5312056910784,2.969654738,2,8.136694342041014,5.753266589355468,0.74699091796875,-1.7557251908396947,0.24427480916030533,-1.5725190839694656
5312062733076,2.97547703,2,8.117540728759765,5.801150622558594,0.7577648254394531,-1.8091603053435115,0.3435114503816794,-1.5954198473282444
5312068663232,2.981407186,2,8.106766821289062,5.780799908447265,0.7134720947265625,-1.7328244274809161,0.183206106870229,-1.549618320610687
5312074562138,2.987306092,2,8.143876947021484,5.777208605957031,0.6069301208496093,-1.7786259541984732,0.22900763358778625,-1.5572519083969465
5312080449586,2.99319354,2,8.11514652709961,5.758054992675781,0.7230489013671875,-1.7709923664122138,0.25190839694656486,-1.5419847328244274
5312086372867,2.999116821,2,8.128314636230469,5.7125651611328125,0.7649474304199219,-1.6564885496183206,0.33587786259541985,-1.633587786259542
5312092300107,3.005044061,2,8.086416107177733,5.723339068603515,0.6703764648437499,-1.717557251908397,0.2366412213740458,-1.717557251908397
5312098211409,3.010955363,2,8.130708837890625,5.758054992675781,0.6955155822753906,-1.8015267175572518,0.2824427480916031,-1.618320610687023
5312104079430,3.016823384,2,8.111555224609374,5.768828900146484,0.6655880615234374,-1.7786259541984732,0.2900763358778626,-1.5572519083969465
5312110017503,3.022761457,2,8.081627703857421,5.7520694885253905,0.7625532287597656,-1.7251908396946565,0.22137404580152673,-1.5648854961832062
5312115949899,3.028693853,2,8.113949426269532,5.762843395996094,0.5817910034179687,-1.7328244274809161,0.2595419847328244,-1.5190839694656488
5312121899482,3.034643436,2,8.173804467773436,5.742492681884765,0.7026981872558593,-1.7251908396946565,0.3282442748091603,-1.5877862595419847
5312127822555,3.040566509,2,8.243236315917969,5.737704278564453,0.7350199096679687,-1.7633587786259541,0.22900763358778625,-1.6259541984732824
5312133767399,3.046511353,2,8.130708837890625,5.759252093505859,0.679953271484375,-1.7404580152671756,0.2748091603053435,-1.5725190839694656
5312139661461,3.052405415,2,8.129511737060547,5.743689782714843,0.7254431030273437,-1.702290076335878,0.16030534351145037,-1.5954198473282444
5312145534117,3.058278071,2,8.157045056152343,5.753266589355468,0.7673416320800781,-1.7099236641221374,0.3282442748091603,-1.549618320610687
5312151490732,3.064234686,2,8.067262493896484,5.734112976074218,0.7589619262695312,-1.7557251908396947,0.26717557251908397,-1.5572519083969465
5312157438961,3.070182915,2,8.137891442871092,5.724536169433593,0.718260498046875,-1.786259541984733,0.21374045801526717,-1.6564885496183206
5312163343805,3.076087759,2,8.12711753540039,5.772420202636718,0.7254431030273437,-1.7709923664122138,0.3053435114503817,-1.5954198473282444
5312169248909,3.081992863,2,8.07683930053711,5.761646295166015,0.7350199096679687,-1.8091603053435115,0.29770992366412213,-1.5190839694656488
5312175136617,3.087880571,2,8.143876947021484,5.720944866943359,0.7422025146484375,-1.748091603053435,0.1450381679389313,-1.5267175572519085
5312180999430,3.093743384,2,8.084021905517577,5.734112976074218,0.6955155822753906,-1.8625954198473282,0.22137404580152673,-1.534351145038168
5312186883232,3.099627186,2,8.128314636230469,5.748478186035156,0.7757213378906249,-1.7633587786259541,0.2824427480916031,-1.5954198473282444
5312192825836,3.10556979,2,8.084021905517577,5.6958057495117185,0.699106884765625,-1.8091603053435115,0.2595419847328244,-1.6793893129770991
5312198725888,3.111469842,2,8.122329132080077,5.753266589355468,0.70868369140625,-1.7404580152671756,0.13740458015267176,-1.5419847328244274
5312204622399,3.117366353,2,8.111555224609374,5.755660791015624,0.7038952880859375,-1.702290076335878,0.3282442748091603,-1.5648854961832062
5312210515940,3.123259894,2,8.106766821289062,5.72693037109375,0.7457938171386719,-1.7404580152671756,0.33587786259541985,-1.5572519083969465
5312216414169,3.129158123,2,8.12711753540039,5.7317187744140625,0.699106884765625,-1.7709923664122138,0.15267175572519084,-1.5725190839694656
5312222412138,3.135156092,2,8.155847955322265,5.79037671508789,0.6715735656738281,-1.717557251908397,0.37404580152671757,-1.5572519083969465
5312228321253,3.141065207,2,8.148665350341796,5.747281085205078,0.7242460021972655,-1.7709923664122138,0.3053435114503817,-1.5725190839694656
5312234224065,3.146968019,2,8.124723333740233,5.734112976074218,0.7433996154785156,-1.7709923664122138,0.16793893129770993,-1.5572519083969465
5312240230107,3.152974061,2,8.137891442871092,5.746083984375,0.6763619689941406,-1.7557251908396947,0.19083969465648856,-1.5190839694656488
5312246166721,3.158910675,2,8.11514652709961,5.79037671508789,0.7553706237792969,-1.6870229007633588,0.3893129770992366,-1.6030534351145038
5312252074065,3.164818019,2,8.060079888916015,5.766434698486328,0.7350199096679687,-1.7328244274809161,0.183206106870229,-1.534351145038168
5312258016617,3.170760571,2,8.128314636230469,5.736507177734374,0.7218518005371093,-1.8473282442748091,0.20610687022900764,-1.5877862595419847
5312263934482,3.176678436,2,8.10796392211914,5.786785412597656,0.6631938598632812,-1.8396946564885497,0.26717557251908397,-1.6412213740458015
5312269876096,3.18262005,2,8.0828248046875,5.756857891845703,0.7433996154785156,-1.6870229007633588,0.37404580152671757,-1.5954198473282444
5312275798180,3.188542134,2,8.086416107177733,5.738901379394531,0.7062894897460937,-1.6106870229007633,0.3282442748091603,-1.6259541984732824
5312281699482,3.194443436,2,8.12113203125,5.7329158752441405,0.7266402038574218,-1.8854961832061068,0.366412213740458,-1.633587786259542
5312287618961,3.200362915,2,7.995436444091796,5.718550665283203,0.7134720947265625,-1.7633587786259541,0.32061068702290074,-1.6717557251908397
5312293549690,3.206293644,2,8.10197841796875,5.741295581054687,0.6643909606933593,-1.816793893129771,0.366412213740458,-1.4732824427480915
5312299449326,3.21219328,2,8.073247998046874,5.791573815917968,0.7038952880859375,-1.816793893129771,0.16793893129770993,-1.6488549618320612
5312305327555,3.218071509,2,8.119934930419921,5.758054992675781,0.6787561706542968,-1.7404580152671756,0.29770992366412213,-1.618320610687023
5312311153544,3.223897498,2,8.100781317138672,5.768828900146484,0.7829039428710937,-1.816793893129771,0.25190839694656486,-1.5038167938931297
5312316986201,3.229730155,2,8.060079888916015,5.760449194335937,0.7864952453613281,-1.7709923664122138,0.26717557251908397,-1.5877862595419847
5312322892451,3.235636405,2,8.149862451171874,5.797559320068359,0.7433996154785156,-1.8015267175572518,0.19083969465648856,-1.5954198473282444
5312328822086,3.24156604,2,8.125920434570313,5.761646295166015,0.7721300354003906,-1.748091603053435,0.2900763358778626,-1.6412213740458015
5312334706201,3.247450155,2,8.103175518798828,5.740098480224609,0.7218518005371093,-1.8854961832061068,0.33587786259541985,-1.6946564885496183
5312340663440,3.253407394,2,8.12711753540039,5.729324572753906,0.7601590270996094,-1.8015267175572518,0.12213740458015267,-1.5725190839694656
5312346539378,3.259283332,2,8.131905938720703,5.738901379394531,0.7134720947265625,-1.8015267175572518,0.22900763358778625,-1.6488549618320612
5312352485055,3.265229009,2,8.122329132080077,5.766434698486328,0.7781155395507812,-1.6793893129770991,0.3282442748091603,-1.6793893129770991
5312358394013,3.271137967,2,8.112752325439452,5.758054992675781,0.7302315063476562,-1.8473282442748091,0.1984732824427481,-1.6259541984732824
5312364359638,3.277103592,2,8.105569720458984,5.7508723876953125,0.6667851623535156,-1.7786259541984732,0.3053435114503817,-1.5648854961832062
5312370259482,3.283003436,2,8.128314636230469,5.786785412597656,0.7003039855957031,-1.7709923664122138,0.2900763358778626,-1.633587786259542
5312376157607,3.288901561,2,8.125920434570313,5.811924530029296,0.7338228088378905,-1.7709923664122138,0.20610687022900764,-1.618320610687023
5312382058076,3.29480203,2,8.110358123779296,5.755660791015624,0.6835445739746093,-1.748091603053435,0.25190839694656486,-1.549618320610687
5312387990107,3.300734061,2,8.145074047851562,5.736507177734374,0.6536170532226562,-1.7404580152671756,0.2900763358778626,-1.534351145038168
5312393927503,3.306671457,2,8.08881030883789,5.759252093505859,0.7326257080078125,-1.786259541984733,0.29770992366412213,-1.549618320610687
5312399848961,3.312592915,2,8.112752325439452,5.716156463623046,0.7038952880859375,-1.7709923664122138,0.2900763358778626,-1.5954198473282444
5312405810680,3.318554634,2,8.1594392578125,5.76523759765625,0.7110778930664062,-1.7786259541984732,0.2595419847328244,-1.5877862595419847
5312411717451,3.324461405,2,8.098387115478515,5.720944866943359,0.7218518005371093,-1.786259541984733,0.22900763358778625,-1.6106870229007633
5312417623857,3.330367811,2,8.090007409667969,5.758054992675781,0.7505822204589844,-1.8015267175572518,0.20610687022900764,-1.6259541984732824
5312423525003,3.336268957,2,8.135497241210937,5.801150622558594,0.6368576416015624,-1.702290076335878,0.3053435114503817,-1.6412213740458015
5312429388596,3.34213255,2,8.167818963623047,5.730521673583984,0.6907271789550781,-1.8396946564885497,0.3511450381679389,-1.5877862595419847
5312435294169,3.348038123,2,8.125920434570313,5.746083984375,0.6775590698242188,-1.816793893129771,0.22137404580152673,-1.5954198473282444
5312441195680,3.353939634,2,8.139088543701172,5.7329158752441405,0.7457938171386719,-1.6870229007633588,0.2900763358778626,-1.5877862595419847
5312447114378,3.359858332,2,8.09479581298828,5.795165118408203,0.7026981872558593,-1.7404580152671756,0.22900763358778625,-1.5725190839694656
5312453017867,3.365761821,2,8.086416107177733,5.762843395996094,0.7661445312499999,-1.7251908396946565,0.3282442748091603,-1.5954198473282444
5312458936826,3.37168078,2,8.08881030883789,5.7520694885253905,0.7278373046875,-1.8396946564885497,0.2900763358778626,-1.6946564885496183
5312464853076,3.37759703,2,8.130708837890625,5.77122310180664,0.6655880615234374,-1.7251908396946565,0.3282442748091603,-1.618320610687023
5312470748388,3.383492342,2,8.100781317138672,5.737704278564453,0.7517793212890624,-1.7251908396946565,0.31297709923664124,-1.5801526717557253
5312476622294,3.389366248,2,8.111555224609374,5.776011505126953,0.7134720947265625,-1.7633587786259541,0.1450381679389313,-1.6030534351145038
5312482604638,3.395348592,2,8.130708837890625,5.76523759765625,0.6931213806152343,-1.7709923664122138,0.2595419847328244,-1.633587786259542
5312488416565,3.401160519,2,8.058882788085937,5.761646295166015,0.7912836486816406,-1.8244274809160306,0.3435114503816794,-1.549618320610687
5312494344221,3.407088175,2,8.130708837890625,5.730521673583984,0.7038952880859375,-1.8549618320610688,0.33587786259541985,-1.5801526717557253
5312500250471,3.412994425,2,8.104372619628906,5.761646295166015,0.7410054138183594,-1.8091603053435115,0.19083969465648856,-1.5572519083969465
5312506157919,3.418901873,2,8.10197841796875,5.766434698486328,0.7146691955566405,-1.7099236641221374,0.2595419847328244,-1.618320610687023
5312512080992,3.424824946,2,8.117540728759765,5.768828900146484,0.7410054138183594,-1.7557251908396947,0.3053435114503817,-1.6564885496183206
5312518009690,3.430753644,2,8.161833459472655,5.760449194335937,0.7266402038574218,-1.717557251908397,0.1984732824427481,-1.5419847328244274
5312523935836,3.43667979,2,8.123526232910155,5.746083984375,0.6859387756347656,-1.6793893129770991,0.15267175572519084,-1.5801526717557253
5312529878544,3.442622498,2,8.128314636230469,5.7508723876953125,0.7517793212890624,-1.7557251908396947,0.3282442748091603,-1.6412213740458015
5312535809169,3.448553123,2,8.12711753540039,5.7329158752441405,0.7062894897460937,-1.717557251908397,0.19083969465648856,-1.5114503816793894
5312541753648,3.454497602,2,8.117540728759765,5.748478186035156,0.6679822631835937,-1.702290076335878,0.3435114503816794,-1.6030534351145038
5312547648440,3.460392394,2,8.098387115478515,5.754463690185546,0.6787561706542968,-1.6946564885496183,0.2595419847328244,-1.6030534351145038
5312553556617,3.466300571,2,8.125920434570313,5.746083984375,0.7829039428710937,-1.7633587786259541,0.3435114503816794,-1.6106870229007633
5312559441253,3.472185207,2,8.092401611328125,5.738901379394531,0.709880792236328,-1.7328244274809161,0.17557251908396945,-1.5572519083969465
5312565386305,3.478130259,2,8.141482745361328,5.764040496826172,0.6931213806152343,-1.717557251908397,0.17557251908396945,-1.633587786259542
5312571252815,3.483996769,2,8.080430603027343,5.7700260009765625,0.7386112121582031,-1.7786259541984732,0.2900763358778626,-1.6946564885496183
5312577172659,3.489916613,2,8.154650854492187,5.718550665283203,0.6715735656738281,-1.7251908396946565,0.21374045801526717,-1.702290076335878
5312583069742,3.495813696,2,8.058882788085937,5.764040496826172,0.7433996154785156,-1.6793893129770991,0.2595419847328244,-1.6412213740458015
5312589090680,3.501834634,2,8.125920434570313,5.755660791015624,0.7110778930664062,-1.7786259541984732,0.33587786259541985,-1.5114503816793894
5312596489378,3.509233332,2,8.182184173583984,5.698199951171874,0.7110778930664062,-1.7251908396946565,0.1450381679389313,-1.5954198473282444
5312603799013,3.516542967,2,8.068459594726562,5.736507177734374,0.7242460021972655,-1.7709923664122138,0.25190839694656486,-1.5725190839694656
5312611159169,3.523903123,2,8.100781317138672,5.768828900146484,0.737414111328125,-1.7251908396946565,0.2900763358778626,-1.534351145038168
5312618530471,3.531274425,2,8.141482745361328,5.729324572753906,0.7362170104980469,-1.816793893129771,0.24427480916030533,-1.5038167938931297
5312625826826,3.53857078,2,8.118737829589843,5.749675286865234,0.7062894897460937,-1.7404580152671756,0.22137404580152673,-1.6564885496183206
5312633212503,3.545956457,2,8.128314636230469,5.716156463623046,0.718260498046875,-1.7557251908396947,0.3511450381679389,-1.5190839694656488
5312640529430,3.553273384,2,8.105569720458984,5.710170959472656,0.6703764648437499,-1.7404580152671756,0.1297709923664122,-1.6717557251908397
5312647882971,3.560626925,2,8.129511737060547,5.734112976074218,0.7565677246093749,-1.7404580152671756,0.17557251908396945,-1.633587786259542
5312655229378,3.567973332,2,8.07683930053711,5.724536169433593,0.6212953308105469,-1.7709923664122138,0.04580152671755725,-1.6488549618320612
5312662538909,3.575282863,2,8.135497241210937,5.729324572753906,0.6368576416015624,-1.8244274809160306,0.20610687022900764,-1.5572519083969465
5312669850575,3.582594529,2,8.095992913818359,5.776011505126953,0.6667851623535156,-1.6793893129770991,0.22900763358778625,-1.6412213740458015
5312677212346,3.5899563,2,8.103175518798828,5.77122310180664,0.7254431030273437,-1.8854961832061068,0.25190839694656486,-1.5572519083969465
5312684510992,3.597254946,2,8.050503082275391,5.719747766113281,0.7134720947265625,-1.786259541984733,0.22900763358778625,-1.5419847328244274
5312691871357,3.604615311,2,8.106766821289062,5.787982513427734,0.7074865905761718,-1.7404580152671756,0.3969465648854962,-1.618320610687023
5312699210992,3.611954946,2,8.137891442871092,5.734112976074218,0.6919242797851562,-1.786259541984733,0.35877862595419846,-1.549618320610687
5312706567867,3.619311821,2,8.131905938720703,5.741295581054687,0.6751648681640625,-1.7099236641221374,0.11450381679389313,-1.5801526717557253
5312713902971,3.626646925,2,8.073247998046874,5.761646295166015,0.7170633972167968,-1.786259541984733,0.29770992366412213,-1.6412213740458015
5312721247607,3.633991561,2,8.099584216308592,5.744886883544922,0.63206923828125,-1.748091603053435,0.1450381679389313,-1.5572519083969465
5312728554221,3.641298175,2,8.105569720458984,5.736507177734374,0.6919242797851562,-1.816793893129771,0.21374045801526717,-1.5877862595419847
5312735838180,3.648582134,2,8.128314636230469,5.741295581054687,0.7386112121582031,-1.7633587786259541,0.2824427480916031,-1.6488549618320612
5312743171096,3.65591505,2,8.111555224609374,5.7508723876953125,0.7326257080078125,-1.8015267175572518,0.2824427480916031,-1.5801526717557253
5312750520419,3.663264373,2,8.143876947021484,5.791573815917968,0.6596025573730468,-1.7404580152671756,0.366412213740458,-1.7099236641221374
5312757830680,3.670574634,2,8.104372619628906,5.797559320068359,0.8116343627929687,-1.786259541984733,0.3282442748091603,-1.618320610687023
5312765197294,3.677941248,2,8.104372619628906,5.717353564453124,0.7481880187988281,-1.7786259541984732,0.22137404580152673,-1.6641221374045803
5312772514898,3.685258852,2,8.099584216308592,5.718550665283203,0.6631938598632812,-1.8015267175572518,0.35877862595419846,-1.6030534351145038
5312779815367,3.692559321,2,8.129511737060547,5.766434698486328,0.7529764221191406,-1.8244274809160306,0.3893129770992366,-1.6793893129770991
5312787169013,3.699912967,2,8.128314636230469,5.700594152832031,0.7326257080078125,-1.816793893129771,0.17557251908396945,-1.5801526717557253
5312794499638,3.707243592,2,8.157045056152343,5.7329158752441405,0.7314286071777343,-1.7557251908396947,0.2900763358778626,-1.5419847328244274
5312801824846,3.7145688,2,8.105569720458984,5.761646295166015,0.7553706237792969,-1.7404580152671756,0.2748091603053435,-1.5648854961832062
5312809110419,3.721854373,2,8.147468249511718,5.706579656982422,0.6931213806152343,-1.7404580152671756,0.2366412213740458,-1.5954198473282444
5312816482971,3.729226925,2,8.09479581298828,5.72693037109375,0.7230489013671875,-1.900763358778626,0.3816793893129771,-1.6259541984732824
5312823796617,3.736540571,2,8.129511737060547,5.746083984375,0.6524199523925781,-1.7557251908396947,0.24427480916030533,-1.633587786259542
5312831159221,3.743903175,2,8.119934930419921,5.785588311767578,0.6643909606933593,-1.7709923664122138,0.25190839694656486,-1.6030534351145038
5312838537919,3.751281873,2,8.15345375366211,5.776011505126953,0.7026981872558593,-1.8091603053435115,0.1984732824427481,-1.6030534351145038
5312845860055,3.758604009,2,8.099584216308592,5.780799908447265,0.6835445739746093,-1.7633587786259541,0.3435114503816794,-1.6412213740458015
5312853213805,3.765957759,2,8.135497241210937,5.781997009277344,0.7158662963867187,-1.8473282442748091,0.2748091603053435,-1.6946564885496183
5312860514742,3.773258696,2,8.15345375366211,5.767631799316406,0.7386112121582031,-1.786259541984733,0.1450381679389313,-1.633587786259542
5312867935367,3.780679321,2,8.13310303955078,5.767631799316406,0.6847416748046875,-1.7557251908396947,0.24427480916030533,-1.633587786259542
5312875327294,3.788071248,2,8.104372619628906,5.761646295166015,0.74699091796875,-1.7786259541984732,0.3511450381679389,-1.5877862595419847
5312882639273,3.795383227,2,8.125920434570313,5.744886883544922,0.7529764221191406,-1.6946564885496183,0.13740458015267176,-1.5267175572519085
5312890015471,3.802759425,2,8.142679846191406,5.741295581054687,0.6368576416015624,-1.7938931297709924,0.2824427480916031,-1.6259541984732824
5312897405732,3.810149686,2,8.128314636230469,5.740098480224609,0.7996633544921875,-1.7328244274809161,0.20610687022900764,-1.6259541984732824
5312904833492,3.817577446,2,8.149862451171874,5.7508723876953125,0.7386112121582031,-1.7786259541984732,0.20610687022900764,-1.6030534351145038
5312912145315,3.824889269,2,8.080430603027343,5.7700260009765625,0.6955155822753906,-1.6488549618320612,0.25190839694656486,-1.6412213740458015
5312919493388,3.832237342,2,8.079233502197265,5.722141967773437,0.7026981872558593,-1.7557251908396947,0.366412213740458,-1.633587786259542
5312926815836,3.83955979,2,8.124723333740233,5.718550665283203,0.7673416320800781,-1.786259541984733,0.25190839694656486,-1.4274809160305344
5312934172659,3.846916613,2,8.081627703857421,5.785588311767578,0.6452373474121094,-1.786259541984733,0.2366412213740458,-1.618320610687023
5312941525523,3.854269477,2,8.130708837890625,5.747281085205078,0.6931213806152343,-1.7709923664122138,0.33587786259541985,-1.6030534351145038
5312948844377,3.861588331,2,8.061276989746093,5.7317187744140625,0.6500257507324219,-1.8091603053435115,0.183206106870229,-1.5725190839694656
5312956161305,3.868905259,2,8.078036401367187,5.724536169433593,0.7493851196289062,-1.8091603053435115,0.3969465648854962,-1.5954198473282444
5312963565680,3.876309634,2,8.097190014648437,5.758054992675781,0.7577648254394531,-1.7938931297709924,0.29770992366412213,-1.5190839694656488
5312970983752,3.883727706,2,8.097190014648437,5.741295581054687,0.7817068420410156,-1.702290076335878,0.183206106870229,-1.5954198473282444
5312978355315,3.891099269,2,8.10796392211914,5.735310076904296,0.6739677673339843,-1.6793893129770991,0.3053435114503817,-1.6412213740458015
5312985675263,3.898419217,2,8.128314636230469,5.722141967773437,0.7230489013671875,-1.83206106870229,0.16793893129770993,-1.534351145038168
5312993037867,3.905781821,2,8.103175518798828,5.760449194335937,0.689530078125,-1.6030534351145038,0.3282442748091603,-1.5648854961832062
5313000328596,3.91307255,2,8.109161022949218,5.772420202636718,0.7457938171386719,-1.702290076335878,0.3816793893129771,-1.618320610687023
5313007606148,3.920350102,2,8.116343627929687,5.718550665283203,0.7481880187988281,-1.6564885496183206,0.22137404580152673,-1.6641221374045803
5313014918909,3.927662863,2,8.110358123779296,5.746083984375,0.6811503723144531,-1.83206106870229,0.3511450381679389,-1.5877862595419847
5313022280419,3.935024373,2,8.148665350341796,5.785588311767578,0.7457938171386719,-1.7709923664122138,0.32061068702290074,-1.618320610687023
5313029630159,3.942374113,2,8.11514652709961,5.72693037109375,0.7577648254394531,-1.7557251908396947,0.08396946564885496,-1.6488549618320612
5313037006461,3.949750415,2,8.15345375366211,5.6946086486816405,0.7769184387207031,-1.6946564885496183,0.26717557251908397,-1.6030534351145038
5313044325107,3.957069061,2,8.078036401367187,5.823895538330078,0.7062894897460937,-1.816793893129771,0.25190839694656486,-1.6488549618320612
5313051555471,3.964299425,2,8.10796392211914,5.68862314453125,0.7206546997070312,-1.748091603053435,0.15267175572519084,-1.6641221374045803
5313058871096,3.97161505,2,8.085219006347655,5.728127471923828,0.7302315063476562,-1.717557251908397,0.24427480916030533,-1.6488549618320612
5313066196982,3.978940936,2,8.130708837890625,5.746083984375,0.7338228088378905,-1.8091603053435115,0.2824427480916031,-1.5801526717557253
5313073522919,3.986266873,2,8.111555224609374,5.716156463623046,0.70868369140625,-1.6870229007633588,0.1450381679389313,-1.534351145038168
5313080836721,3.993580675,2,8.129511737060547,5.776011505126953,0.6847416748046875,-1.8015267175572518,0.183206106870229,-1.633587786259542
5313088106044,4.000849998,2,8.112752325439452,5.6946086486816405,0.622492431640625,-1.748091603053435,0.2824427480916031,-1.5572519083969465
5313095428336,4.00817229,2,8.10197841796875,5.728127471923828,0.74699091796875,-1.7938931297709924,0.19083969465648856,-1.6717557251908397
5313102752242,4.015496196,2,8.118737829589843,5.734112976074218,0.718260498046875,-1.786259541984733,0.3816793893129771,-1.5725190839694656
5313110115732,4.022859686,2,8.080430603027343,5.754463690185546,0.6931213806152343,-1.7099236641221374,0.22137404580152673,-1.5725190839694656
5313117449273,4.030193227,2,8.113949426269532,5.795165118408203,0.7362170104980469,-1.7709923664122138,0.26717557251908397,-1.5877862595419847
5313124843336,4.03758729,2,8.160636358642577,5.723339068603515,0.7398083129882812,-1.6870229007633588,0.3282442748091603,-1.6106870229007633
5313132159065,4.044903019,2,8.125920434570313,5.702988354492187,0.7206546997070312,-1.6717557251908397,0.2748091603053435,-1.5877862595419847
5313139505523,4.052249477,2,8.079233502197265,5.743689782714843,0.679953271484375,-1.786259541984733,0.31297709923664124,-1.534351145038168
5313146839482,4.059583436,2,8.139088543701172,5.741295581054687,0.7170633972167968,-1.7328244274809161,0.22137404580152673,-1.534351145038168
5313154285471,4.067029425,2,8.075642199707032,5.742492681884765,0.70868369140625,-1.8091603053435115,0.24427480916030533,-1.5801526717557253
5313161608752,4.074352706,2,8.117540728759765,5.780799908447265,0.6607996582031249,-1.702290076335878,0.3893129770992366,-1.6106870229007633
5313168966409,4.081710363,2,8.10197841796875,5.720944866943359,0.6811503723144531,-1.6870229007633588,0.32061068702290074,-1.6412213740458015
5313176307450,4.089051404,2,8.095992913818359,5.736507177734374,0.7146691955566405,-1.6641221374045803,0.12213740458015267,-1.5267175572519085
5313183629534,4.096373488,2,8.160636358642577,5.698199951171874,0.7026981872558593,-1.748091603053435,0.22137404580152673,-1.6106870229007633
5313190930367,4.103674321,2,8.129511737060547,5.768828900146484,0.7529764221191406,-1.8244274809160306,0.17557251908396945,-1.5648854961832062
5313198317398,4.111061352,2,8.113949426269532,5.772420202636718,0.7074865905761718,-1.8091603053435115,0.21374045801526717,-1.5190839694656488
5313205663127,4.118407081,2,8.118737829589843,5.766434698486328,0.7888894470214843,-1.7404580152671756,0.26717557251908397,-1.549618320610687
5313213012919,4.125756873,2,8.106766821289062,5.740098480224609,0.719457598876953,-1.8473282442748091,0.17557251908396945,-1.5877862595419847
5313220343127,4.133087081,2,8.104372619628906,5.77122310180664,0.6943184814453125,-1.702290076335878,0.40458015267175573,-1.5114503816793894
5313227687763,4.140431717,2,8.058882788085937,5.744886883544922,0.7026981872558593,-1.633587786259542,0.40458015267175573,-1.6259541984732824
5313235066148,4.147810102,2,8.08881030883789,5.748478186035156,0.699106884765625,-1.8473282442748091,0.20610687022900764,-1.6870229007633588
5313242413023,4.155156977,2,8.173804467773436,5.8083332275390624,0.7410054138183594,-1.717557251908397,0.2366412213740458,-1.5877862595419847
5313249778075,4.162522029,2,8.090007409667969,5.77122310180664,0.7637503295898437,-1.7709923664122138,0.1984732824427481,-1.5954198473282444
5313257149169,4.169893123,2,8.142679846191406,5.756857891845703,0.7457938171386719,-1.7786259541984732,0.15267175572519084,-1.6030534351145038
5313264487711,4.177231665,2,8.099584216308592,5.741295581054687,0.7936778503417968,-1.786259541984733,0.20610687022900764,-1.6412213740458015
5313271782398,4.184526352,2,8.143876947021484,5.722141967773437,0.7517793212890624,-1.786259541984733,0.2595419847328244,-1.618320610687023
5313279136304,4.191880258,2,8.087613208007811,5.764040496826172,0.6919242797851562,-1.8015267175572518,0.2595419847328244,-1.5114503816793894
5313286519794,4.199263748,2,8.0828248046875,5.717353564453124,0.7852981445312499,-1.7633587786259541,0.2748091603053435,-1.5954198473282444
5313293986252,4.206730206,2,8.112752325439452,5.741295581054687,0.7230489013671875,-1.7786259541984732,0.20610687022900764,-1.5572519083969465
5313301319221,4.214063175,2,8.163030560302733,5.742492681884765,0.7170633972167968,-1.6793893129770991,0.32061068702290074,-1.4961832061068703
5313308580523,4.221324477,2,8.128314636230469,5.720944866943359,0.7170633972167968,-1.7328244274809161,0.24427480916030533,-1.5572519083969465
5313315895211,4.228639165,2,8.152256652832031,5.719747766113281,0.718260498046875,-1.7328244274809161,0.22137404580152673,-1.5114503816793894
5313323220836,4.23596479,2,8.12113203125,5.754463690185546,0.6200982299804687,-1.7709923664122138,0.2748091603053435,-1.5954198473282444
5313330572190,4.243316144,2,8.10796392211914,5.738901379394531,0.7218518005371093,-1.6870229007633588,0.1450381679389313,-1.6717557251908397
5313337875627,4.250619581,2,8.079233502197265,5.787982513427734,0.6823474731445313,-1.6870229007633588,0.183206106870229,-1.6488549618320612
5313345231304,4.257975258,2,8.103175518798828,5.729324572753906,0.74699091796875,-1.8396946564885497,0.33587786259541985,-1.5877862595419847
5313352550263,4.265294217,2,8.13310303955078,5.743689782714843,0.7050923889160156,-1.8473282442748091,0.17557251908396945,-1.5801526717557253
5313359904846,4.2726488,2,8.117540728759765,5.755660791015624,0.7410054138183594,-1.7938931297709924,0.22137404580152673,-1.5572519083969465
5313367231929,4.279975883,2,8.161833459472655,5.685031842041015,0.8295908752441405,-1.8473282442748091,0.2824427480916031,-1.6641221374045803
5313374513023,4.287256977,2,8.100781317138672,5.746083984375,0.7206546997070312,-1.8015267175572518,0.030534351145038167,-1.618320610687023
5313381835002,4.294578956,2,8.143876947021484,5.753266589355468,0.7553706237792969,-1.7557251908396947,0.2595419847328244,-1.5725190839694656
5313389205002,4.301948956,2,8.123526232910155,5.730521673583984,0.6572083557128906,-1.7633587786259541,0.25190839694656486,-1.5954198473282444
5313396562971,4.309306925,2,8.176198669433592,5.749675286865234,0.6548141540527344,-1.7404580152671756,0.19083969465648856,-1.4809160305343512
5313403914065,4.316658019,2,8.14028564453125,5.706579656982422,0.6272808349609375,-1.7099236641221374,0.32061068702290074,-1.6030534351145038
5313411246409,4.323990363,2,8.055291485595703,5.773617303466796,0.7529764221191406,-1.7251908396946565,0.37404580152671757,-1.6717557251908397
5313418550106,4.33129406,2,8.129511737060547,5.768828900146484,0.7146691955566405,-1.786259541984733,0.1984732824427481,-1.6030534351145038
5313425859221,4.338603175,2,8.080430603027343,5.77122310180664,0.7326257080078125,-1.6946564885496183,0.366412213740458,-1.5877862595419847
5313433199690,4.345943644,2,8.100781317138672,5.768828900146484,0.689530078125,-1.7099236641221374,0.24427480916030533,-1.6030534351145038
5313440494742,4.353238696,2,8.08881030883789,5.767631799316406,0.7781155395507812,-1.7633587786259541,0.1297709923664122,-1.549618320610687
5313447834950,4.360578904,2,8.119934930419921,5.734112976074218,0.7589619262695312,-1.8091603053435115,0.366412213740458,-1.5572519083969465
5313455152138,4.367896092,2,8.099584216308592,5.760449194335937,0.6560112548828124,-1.7557251908396947,0.25190839694656486,-1.5801526717557253
5313462537763,4.375281717,2,8.167818963623047,5.749675286865234,0.6667851623535156,-1.7251908396946565,0.16030534351145037,-1.6259541984732824
5313469875627,4.382619581,2,8.057685687255859,5.773617303466796,0.6907271789550781,-1.6793893129770991,0.25190839694656486,-1.5648854961832062
5313477215159,4.389959113,2,8.176198669433592,5.767631799316406,0.7266402038574218,-1.786259541984733,0.25190839694656486,-1.6106870229007633
5313484556148,4.397300102,2,8.134300140380859,5.7508723876953125,0.7206546997070312,-1.748091603053435,0.2824427480916031,-1.549618320610687
5313491893440,4.404637394,2,8.119934930419921,5.741295581054687,0.7146691955566405,-1.748091603053435,0.22137404580152673,-1.5419847328244274
5313499292086,4.41203604,2,8.11514652709961,5.773617303466796,0.6739677673339843,-1.7099236641221374,0.183206106870229,-1.534351145038168
5313506625315,4.419369269,2,8.148665350341796,5.738901379394531,0.7362170104980469,-1.7633587786259541,0.2595419847328244,-1.5419847328244274
5313513986773,4.426730727,2,8.14028564453125,5.741295581054687,0.6811503723144531,-1.7709923664122138,0.2900763358778626,-1.5877862595419847
5313521308648,4.434052602,2,8.080430603027343,5.816712933349609,0.7410054138183594,-1.786259541984733,0.25190839694656486,-1.5648854961832062
5313528623908,4.441367862,2,8.139088543701172,5.704185455322265,0.7302315063476562,-1.748091603053435,0.29770992366412213,-1.5190839694656488
5313535906356,4.44865031,2,8.110358123779296,5.744886883544922,0.7338228088378905,-1.8396946564885497,0.17557251908396945,-1.4809160305343512
5313543294169,4.456038123,2,8.103175518798828,5.764040496826172,0.8008604553222656,-1.7709923664122138,0.0916030534351145,-1.5954198473282444
5313550584013,4.463327967,2,8.11514652709961,5.7520694885253905,0.7314286071777343,-1.6717557251908397,0.31297709923664124,-1.4961832061068703
5313557917919,4.470661873,2,8.135497241210937,5.766434698486328,0.7015010864257812,-1.9083969465648856,0.2595419847328244,-1.534351145038168
5313565224898,4.477968852,2,8.097190014648437,5.737704278564453,0.718260498046875,-1.7099236641221374,0.35877862595419846,-1.6106870229007633
5313572654169,4.485398123,2,8.10197841796875,5.760449194335937,0.7314286071777343,-1.7938931297709924,0.22900763358778625,-1.702290076335878
5313579946461,4.492690415,2,8.24802471923828,5.783194110107422,0.7015010864257812,-1.6717557251908397,0.22900763358778625,-1.5419847328244274
5313587306721,4.500050675,2,8.092401611328125,5.758054992675781,0.8104372619628906,-1.717557251908397,0.3053435114503817,-1.6488549618320612
5313594706096,4.50745005,2,8.12113203125,5.766434698486328,0.729034405517578,-1.8091603053435115,0.24427480916030533,-1.5877862595419847
5313602032919,4.514776873,2,8.151059552001952,5.7329158752441405,0.7254431030273437,-1.7786259541984732,0.21374045801526717,-1.5190839694656488
5313609322554,4.522066508,2,8.106766821289062,5.744886883544922,0.7218518005371093,-1.786259541984733,0.29770992366412213,-1.6870229007633588
5313616671981,4.529415935,2,8.155847955322265,5.76523759765625,0.63206923828125,-1.8091603053435115,0.11450381679389313,-1.5954198473282444
5313623967450,4.536711404,2,8.10796392211914,5.76523759765625,0.7074865905761718,-1.7633587786259541,0.35877862595419846,-1.5801526717557253
5313631389533,4.544133487,2,8.110358123779296,5.747281085205078,0.6967126831054687,-1.7786259541984732,0.3053435114503817,-1.5419847328244274
5313638773648,4.551517602,2,8.1594392578125,5.756857891845703,0.6751648681640625,-1.717557251908397,0.15267175572519084,-1.549618320610687
5313646168752,4.558912706,2,8.11514652709961,5.754463690185546,0.6919242797851562,-1.7328244274809161,0.2824427480916031,-1.6412213740458015
5313653497346,4.5662413,2,8.119934930419921,5.780799908447265,0.7565677246093749,-1.7786259541984732,0.21374045801526717,-1.6259541984732824
5313660850158,4.573594112,2,8.134300140380859,5.778405706787109,0.7589619262695312,-1.717557251908397,0.19083969465648856,-1.618320610687023
5313668268075,4.581012029,2,8.123526232910155,5.802347723388672,0.7817068420410156,-1.8244274809160306,0.3435114503816794,-1.5419847328244274
5313675643856,4.58838781,2,8.084021905517577,5.7329158752441405,0.6751648681640625,-1.8091603053435115,0.13740458015267176,-1.5877862595419847
5313682946148,4.595690102,2,8.112752325439452,5.786785412597656,0.6883329772949218,-1.8396946564885497,0.20610687022900764,-1.5954198473282444
5313690361981,4.603105935,2,8.070853796386718,5.724536169433593,0.7314286071777343,-1.7633587786259541,0.3511450381679389,-1.5801526717557253
5313697790106,4.61053406,2,8.139088543701172,5.746083984375,0.74699091796875,-1.8015267175572518,0.20610687022900764,-1.618320610687023
5313705110992,4.617854946,2,8.119934930419921,5.754463690185546,0.7960720520019531,-1.633587786259542,0.19083969465648856,-1.5572519083969465
5313712402086,4.62514604,2,8.139088543701172,5.730521673583984,0.8080430603027343,-1.8396946564885497,0.46564885496183206,-1.6412213740458015
5313719712346,4.6324563,2,8.11514652709961,5.786785412597656,0.7338228088378905,-1.7709923664122138,0.26717557251908397,-1.5954198473282444
5313727026877,4.639770831,2,8.142679846191406,5.787982513427734,0.7481880187988281,-1.8091603053435115,0.16793893129770993,-1.6030534351145038
5313734369117,4.647113071,2,8.151059552001952,5.734112976074218,0.7158662963867187,-1.6870229007633588,0.3053435114503817,-1.5267175572519085
5313741773804,4.654517758,2,8.098387115478515,5.767631799316406,0.7218518005371093,-1.702290076335878,0.16793893129770993,-1.702290076335878
5313749096929,4.661840883,2,8.135497241210937,5.7843912109375,0.729034405517578,-1.717557251908397,0.22900763358778625,-1.6641221374045803
5313756392919,4.669136873,2,8.130708837890625,5.7137622619628905,0.7445967163085937,-1.6870229007633588,0.31297709923664124,-1.6259541984732824
5313763726148,4.676470102,2,8.176198669433592,5.758054992675781,0.6871358764648438,-1.7099236641221374,0.17557251908396945,-1.4961832061068703
5313771118283,4.683862237,2,8.060079888916015,5.76523759765625,0.7565677246093749,-1.6870229007633588,0.35877862595419846,-1.4809160305343512
5313778511044,4.691254998,2,8.064868292236328,5.77122310180664,0.6751648681640625,-1.7251908396946565,0.16030534351145037,-1.465648854961832
5313785804690,4.698548644,2,8.128314636230469,5.741295581054687,0.6631938598632812,-1.786259541984733,0.22900763358778625,-1.5877862595419847
5313793189221,4.705933175,2,8.091204510498047,5.755660791015624,0.7517793212890624,-1.7633587786259541,0.32061068702290074,-1.702290076335878
5313800407710,4.713151664,2,8.105569720458984,5.723339068603515,0.6955155822753906,-1.786259541984733,0.2748091603053435,-1.5877862595419847
5313807727138,4.720471092,2,8.111555224609374,5.725733270263672,0.7541735229492187,-1.717557251908397,0.26717557251908397,-1.6030534351145038
5313815118335,4.727862289,2,8.0828248046875,5.724536169433593,0.6883329772949218,-1.8015267175572518,0.25190839694656486,-1.3893129770992367
5313822573908,4.735317862,2,8.128314636230469,5.755660791015624,0.74699091796875,-1.8091603053435115,0.20610687022900764,-1.6030534351145038
5313829980315,4.742724269,2,8.128314636230469,5.7149593627929685,0.7697358337402344,-1.748091603053435,0.3282442748091603,-1.7099236641221374
5313837351669,4.750095623,2,8.109161022949218,5.746083984375,0.6476315490722656,-1.7786259541984732,0.32061068702290074,-1.6488549618320612
5313844675627,4.757419581,2,8.137891442871092,5.7137622619628905,0.6811503723144531,-1.8549618320610688,0.21374045801526717,-1.6870229007633588
5313851902867,4.764646821,2,8.119934930419921,5.738901379394531,0.7433996154785156,-1.7404580152671756,0.3435114503816794,-1.6564885496183206
5313859345419,4.772089373,2,8.269572534179687,5.7329158752441405,0.7338228088378905,-1.6870229007633588,0.16793893129770993,-1.4961832061068703
5313866754638,4.779498592,2,8.131905938720703,5.76523759765625,0.6763619689941406,-1.748091603053435,0.1984732824427481,-1.5725190839694656
5313874155575,4.786899529,2,8.079233502197265,5.754463690185546,0.7757213378906249,-1.7709923664122138,0.16793893129770993,-1.5648854961832062
5313881467502,4.794211456,2,8.118737829589843,5.736507177734374,0.6943184814453125,-1.7328244274809161,0.3282442748091603,-1.5801526717557253
5313888851356,4.80159531,2,8.09479581298828,5.743689782714843,0.6907271789550781,-1.7404580152671756,0.366412213740458,-1.549618320610687
5313896169429,4.808913383,2,8.129511737060547,5.759252093505859,0.6967126831054687,-1.7557251908396947,0.3053435114503817,-1.618320610687023
5313903525367,4.816269321,2,8.103175518798828,5.762843395996094,0.7134720947265625,-1.83206106870229,0.17557251908396945,-1.4885496183206106
5313910922033,4.823665987,2,8.137891442871092,5.7700260009765625,0.7577648254394531,-1.7328244274809161,0.20610687022900764,-1.6641221374045803
5313918365731,4.831109685,2,8.155847955322265,5.736507177734374,0.7230489013671875,-1.8091603053435115,0.19083969465648856,-1.6793893129770991
5313925791148,4.838535102,2,8.129511737060547,5.76523759765625,0.7242460021972655,-1.816793893129771,0.16793893129770993,-1.5038167938931297
5313933128596,4.84587255,2,8.13310303955078,5.755660791015624,0.6631938598632812,-1.7404580152671756,0.3053435114503817,-1.6259541984732824
5313940479742,4.853223696,2,8.091204510498047,5.766434698486328,0.7613561279296874,-1.748091603053435,0.19083969465648856,-1.618320610687023
5313947776252,4.860520206,2,8.116343627929687,5.786785412597656,0.7003039855957031,-1.7633587786259541,0.3511450381679389,-1.6259541984732824
5313955133544,4.867877498,2,8.100781317138672,5.76523759765625,0.6919242797851562,-1.8244274809160306,0.24427480916030533,-1.6030534351145038
5313962527815,4.875271769,2,8.055291485595703,5.762843395996094,0.737414111328125,-1.7557251908396947,0.26717557251908397,-1.4885496183206106
5313969817658,4.882561612,2,8.084021905517577,5.740098480224609,0.6871358764648438,-1.6564885496183206,0.2824427480916031,-1.5114503816793894
5313977142085,4.889886039,2,8.119934930419921,5.761646295166015,0.7493851196289062,-1.7786259541984732,0.2900763358778626,-1.5725190839694656
5313984565210,4.897309164,2,8.137891442871092,5.785588311767578,0.7757213378906249,-1.748091603053435,0.20610687022900764,-1.5725190839694656
5313991907190,4.904651144,2,8.112752325439452,5.767631799316406,0.7445967163085937,-1.816793893129771,0.2595419847328244,-1.534351145038168
5313999330262,4.912074216,2,8.11514652709961,5.766434698486328,0.6368576416015624,-1.7938931297709924,0.4198473282442748,-1.5648854961832062
5314006890679,4.919634633,2,8.152256652832031,5.7508723876953125,0.7362170104980469,-1.7557251908396947,0.12213740458015267,-1.5954198473282444
5314014589273,4.927333227,2,8.07683930053711,5.7520694885253905,0.6955155822753906,-1.717557251908397,0.3282442748091603,-1.5419847328244274
5314021857294,4.934601248,2,8.10197841796875,5.756857891845703,0.6979097839355468,-1.748091603053435,0.3511450381679389,-1.6717557251908397
5314029222033,4.941965987,2,7.975085729980468,5.746083984375,0.7038952880859375,-1.6641221374045803,0.2748091603053435,-1.7404580152671756
5314036545679,4.949289633,2,8.119934930419921,5.736507177734374,0.7074865905761718,-1.7938931297709924,0.2595419847328244,-1.633587786259542
5314043842450,4.956586404,2,8.119934930419921,5.68862314453125,0.7230489013671875,-1.7328244274809161,0.20610687022900764,-1.5725190839694656
5314051224117,4.963968071,2,8.106766821289062,5.776011505126953,0.6955155822753906,-1.7633587786259541,0.20610687022900764,-1.6488549618320612
5314058552137,4.971296091,2,8.112752325439452,5.755660791015624,0.7601590270996094,-1.7709923664122138,0.3282442748091603,-1.549618320610687
5314065974117,4.978718071,2,8.12711753540039,5.787982513427734,0.7110778930664062,-1.7328244274809161,0.24427480916030533,-1.4961832061068703
5314073413752,4.986157706,2,8.116343627929687,5.737704278564453,0.7074865905761718,-1.7786259541984732,0.24427480916030533,-1.5648854961832062
5314080839950,4.993583904,2,8.117540728759765,5.760449194335937,0.8068459594726562,-1.83206106870229,0.33587786259541985,-1.7099236641221374
5314088175992,5.000919946,2,8.12711753540039,5.742492681884765,0.7015010864257812,-1.717557251908397,0.24427480916030533,-1.717557251908397
5314095549065,5.008293019,2,8.13310303955078,5.753266589355468,0.7457938171386719,-1.7251908396946565,0.3511450381679389,-1.5267175572519085
5314102932919,5.015676873,2,8.111555224609374,5.734112976074218,0.7984662536621093,-1.7938931297709924,0.2824427480916031,-1.6030534351145038
5314110329950,5.023073904,2,8.125920434570313,5.772420202636718,0.6967126831054687,-1.7938931297709924,0.1450381679389313,-1.6259541984732824
5314117682762,5.030426716,2,8.134300140380859,5.719747766113281,0.6943184814453125,-1.6488549618320612,0.29770992366412213,-1.5419847328244274
5314125033804,5.037777758,2,8.10197841796875,5.718550665283203,0.6979097839355468,-1.7404580152671756,0.22900763358778625,-1.633587786259542
5314132334898,5.045078852,2,8.103175518798828,5.774814404296874,0.7218518005371093,-1.816793893129771,0.2900763358778626,-1.6030534351145038
5314139655940,5.052399894,2,8.14028564453125,5.724536169433593,0.7062894897460937,-1.7786259541984732,0.3893129770992366,-1.6488549618320612
5314147001825,5.059745779,2,8.14627114868164,5.755660791015624,0.7206546997070312,-1.7557251908396947,0.22137404580152673,-1.748091603053435
5314154384533,5.067128487,2,8.119934930419921,5.6946086486816405,0.7015010864257812,-1.6717557251908397,0.2900763358778626,-1.5954198473282444
5314161795679,5.074539633,2,8.160636358642577,5.742492681884765,0.7529764221191406,-1.7938931297709924,0.26717557251908397,-1.5572519083969465
5314169204950,5.081948904,2,8.099584216308592,5.730521673583984,0.6739677673339843,-1.717557251908397,0.22900763358778625,-1.5648854961832062
5314176538648,5.089282602,2,8.14627114868164,5.730521673583984,0.7888894470214843,-1.8091603053435115,0.3816793893129771,-1.534351145038168
5314183925783,5.096669737,2,8.117540728759765,5.7137622619628905,0.8271966735839843,-1.6946564885496183,0.19083969465648856,-1.5648854961832062
5314191328179,5.104072133,2,8.103175518798828,5.737704278564453,0.6452373474121094,-1.7633587786259541,0.13740458015267176,-1.5877862595419847
5314198756773,5.111500727,2,8.106766821289062,5.749675286865234,0.7015010864257812,-1.7938931297709924,0.33587786259541985,-1.6946564885496183
5314206126564,5.118870518,2,8.173804467773436,5.766434698486328,0.7026981872558593,-1.6870229007633588,0.26717557251908397,-1.5648854961832062
5314213479794,5.126223748,2,8.142679846191406,5.753266589355468,0.7445967163085937,-1.8015267175572518,0.22900763358778625,-1.6564885496183206
5314220851564,5.133595518,2,8.087613208007811,5.737704278564453,0.7757213378906249,-1.7709923664122138,0.29770992366412213,-1.6030534351145038
5314228193439,5.140937393,2,8.125920434570313,5.746083984375,0.7026981872558593,-1.7633587786259541,0.21374045801526717,-1.5877862595419847
5314235546200,5.148290154,2,8.110358123779296,5.797559320068359,0.7577648254394531,-1.748091603053435,0.25190839694656486,-1.5801526717557253
5314242944377,5.155688331,2,8.104372619628906,5.762843395996094,0.6787561706542968,-1.717557251908397,0.24427480916030533,-1.5114503816793894
5314250355835,5.163099789,2,8.12711753540039,5.755660791015624,0.7481880187988281,-1.7938931297709924,0.16793893129770993,-1.5877862595419847
5314257744429,5.170488383,2,8.110358123779296,5.736507177734374,0.7433996154785156,-1.7709923664122138,0.3282442748091603,-1.5725190839694656
5314265094846,5.1778388,2,8.116343627929687,5.746083984375,0.7613561279296874,-1.7786259541984732,0.29770992366412213,-1.5954198473282444
5314272482919,5.185226873,2,8.14627114868164,5.773617303466796,0.7326257080078125,-1.786259541984733,0.2824427480916031,-1.5725190839694656
5314279814846,5.1925588,2,8.137891442871092,5.729324572753906,0.7757213378906249,-1.7938931297709924,0.22137404580152673,-1.6259541984732824
5314287193439,5.199937393,2,8.167818963623047,5.741295581054687,0.7457938171386719,-1.7938931297709924,0.2748091603053435,-1.6717557251908397
5314294525471,5.207269425,2,8.109161022949218,5.761646295166015,0.7386112121582031,-1.717557251908397,0.1297709923664122,-1.5954198473282444
5314301906044,5.214649998,2,8.110358123779296,5.741295581054687,0.6667851623535156,-1.702290076335878,0.2748091603053435,-1.534351145038168
5314309249742,5.221993696,2,8.091204510498047,5.761646295166015,0.7757213378906249,-1.7404580152671756,0.12213740458015267,-1.5267175572519085
5314316559377,5.229303331,2,8.145074047851562,5.7317187744140625,0.7134720947265625,-1.7633587786259541,0.1984732824427481,-1.7328244274809161
5314323902398,5.236646352,2,8.085219006347655,5.758054992675781,0.7697358337402344,-1.8549618320610688,0.2824427480916031,-1.618320610687023
5314331306304,5.244050258,2,8.130708837890625,5.797559320068359,0.7733271362304687,-1.7404580152671756,0.1984732824427481,-1.534351145038168
5314338719846,5.2514638,2,8.10197841796875,5.780799908447265,0.6967126831054687,-1.8015267175572518,0.32061068702290074,-1.549618320610687
5314346054585,5.258798539,2,8.087613208007811,5.748478186035156,0.70868369140625,-1.6870229007633588,0.24427480916030533,-1.5190839694656488
5314353364221,5.266108175,2,8.12711753540039,5.7891796142578125,0.7900865478515624,-1.7404580152671756,0.16030534351145037,-1.5954198473282444
5314360726825,5.273470779,2,8.119934930419921,5.749675286865234,0.7038952880859375,-1.7938931297709924,0.16030534351145037,-1.5038167938931297
5314368123960,5.280867914,2,8.118737829589843,5.7137622619628905,0.7350199096679687,-1.7709923664122138,0.183206106870229,-1.6717557251908397
5314375508648,5.288252602,2,8.112752325439452,5.7329158752441405,0.6907271789550781,-1.6793893129770991,0.16793893129770993,-1.618320610687023
5314382923387,5.295667341,2,8.10796392211914,5.741295581054687,0.7158662963867187,-1.7099236641221374,0.2366412213740458,-1.5725190839694656
5314390352241,5.303096195,2,8.066065393066406,5.783194110107422,0.7386112121582031,-1.7786259541984732,0.2595419847328244,-1.534351145038168
5314397997606,5.31074156,2,8.079233502197265,5.755660791015624,0.6739677673339843,-1.7633587786259541,0.17557251908396945,-1.5954198473282444
5314405435419,5.318179373,2,8.098387115478515,5.825092639160156,0.6883329772949218,-1.816793893129771,0.22137404580152673,-1.6793893129770991
5314412865679,5.325609633,2,8.08881030883789,5.773617303466796,0.7026981872558593,-1.7099236641221374,0.19083969465648856,-1.6030534351145038
5314420206825,5.332950779,2,8.08881030883789,5.743689782714843,0.7338228088378905,-1.6641221374045803,0.13740458015267176,-1.618320610687023
5314427577346,5.3403213,2,8.151059552001952,5.730521673583984,0.7230489013671875,-1.786259541984733,0.19083969465648856,-1.6106870229007633
5314434966616,5.34771057,2,8.14028564453125,5.716156463623046,0.6919242797851562,-1.7938931297709924,0.0916030534351145,-1.5648854961832062
5314442361148,5.355105102,2,8.105569720458984,5.693411547851563,0.729034405517578,-1.8015267175572518,0.2748091603053435,-1.5572519083969465
5314449748491,5.362492445,2,8.143876947021484,5.767631799316406,0.8200140686035156,-1.7557251908396947,0.24427480916030533,-1.6030534351145038
5314457102085,5.369846039,2,8.164227661132813,5.747281085205078,0.7170633972167968,-1.7404580152671756,0.25190839694656486,-1.5725190839694656
5314464498648,5.377242602,2,8.124723333740233,5.758054992675781,0.729034405517578,-1.816793893129771,0.3435114503816794,-1.5267175572519085
5314471944794,5.384688748,2,8.13310303955078,5.72693037109375,0.679953271484375,-1.7709923664122138,0.26717557251908397,-1.6412213740458015
5314479374794,5.392118748,2,8.118737829589843,5.741295581054687,0.7218518005371093,-1.7786259541984732,0.31297709923664124,-1.6641221374045803
5314486771773,5.399515727,2,8.135497241210937,5.754463690185546,0.74699091796875,-1.8015267175572518,0.1984732824427481,-1.5801526717557253
5314494168596,5.40691255,2,8.130708837890625,5.753266589355468,0.7553706237792969,-1.9236641221374047,0.21374045801526717,-1.5954198473282444
5314501554273,5.414298227,2,8.129511737060547,5.764040496826172,0.7805097412109374,-1.702290076335878,0.2748091603053435,-1.6259541984732824
5314508937294,5.421681248,2,8.10796392211914,5.754463690185546,0.70868369140625,-1.8091603053435115,0.16793893129770993,-1.748091603053435
5314516282658,5.429026612,2,8.097190014648437,5.754463690185546,0.689530078125,-1.7786259541984732,0.13740458015267176,-1.6106870229007633
5314523570627,5.436314581,2,8.112752325439452,5.720944866943359,0.7338228088378905,-1.7251908396946565,0.35877862595419846,-1.534351145038168
5314530960314,5.443704268,2,8.124723333740233,5.756857891845703,0.7266402038574218,-1.7786259541984732,0.25190839694656486,-1.5267175572519085
5314538354377,5.451098331,2,8.129511737060547,5.741295581054687,0.719457598876953,-1.7633587786259541,0.1450381679389313,-1.549618320610687
5314545613960,5.458357914,2,8.155847955322265,5.7149593627929685,0.7589619262695312,-1.7099236641221374,0.3282442748091603,-1.618320610687023
5314553017658,5.465761612,2,7.978677032470703,5.777208605957031,0.6763619689941406,-1.7557251908396947,0.1450381679389313,-1.633587786259542
5314560331669,5.473075623,2,8.10197841796875,5.774814404296874,0.6631938598632812,-1.7938931297709924,0.15267175572519084,-1.6870229007633588
5314567693231,5.480437185,2,8.124723333740233,5.724536169433593,0.7493851196289062,-1.7328244274809161,0.37404580152671757,-1.5801526717557253
5314575044429,5.487788383,2,8.119934930419921,5.743689782714843,0.7254431030273437,-1.7786259541984732,0.12213740458015267,-1.5877862595419847
5314582370210,5.495114164,2,8.158242156982421,5.738901379394531,0.718260498046875,-1.748091603053435,0.19083969465648856,-1.5725190839694656
5314589704741,5.502448695,2,8.164227661132813,5.743689782714843,0.6679822631835937,-1.7251908396946565,0.22900763358778625,-1.5267175572519085
5314597050731,5.509794685,2,8.10796392211914,5.724536169433593,0.8176198669433593,-1.717557251908397,0.183206106870229,-1.5114503816793894
5314604378908,5.517122862,2,8.097190014648437,5.736507177734374,0.7876923461914062,-1.7557251908396947,0.2748091603053435,-1.6030534351145038
5314611690210,5.524434164,2,8.08881030883789,5.734112976074218,0.7206546997070312,-1.702290076335878,0.1984732824427481,-1.6259541984732824
5314618996148,5.531740102,2,8.164227661132813,5.7508723876953125,0.709880792236328,-1.7938931297709924,0.19083969465648856,-1.6030534351145038
5314626373439,5.539117393,2,8.142679846191406,5.725733270263672,0.729034405517578,-1.7557251908396947,0.2900763358778626,-1.633587786259542
5314634577866,5.54732182,2,8.091204510498047,5.748478186035156,0.7505822204589844,-1.748091603053435,0.22900763358778625,-1.4809160305343512
5314642999846,5.5557438,2,8.10197841796875,5.767631799316406,0.7254431030273437,-1.83206106870229,0.25190839694656486,-1.5648854961832062
5314650363648,5.563107602,2,8.155847955322265,5.773617303466796,0.70868369140625,-1.7328244274809161,0.2366412213740458,-1.5725190839694656
5314657781721,5.570525675,2,8.257601525878906,5.738901379394531,0.6919242797851562,-1.8091603053435115,0.15267175572519084,-1.5572519083969465
5314665086252,5.577830206,2,8.081627703857421,5.740098480224609,0.718260498046875,-1.7709923664122138,0.19083969465648856,-1.5801526717557253
5314672395835,5.585139789,2,8.141482745361328,5.773617303466796,0.7589619262695312,-1.8702290076335877,0.33587786259541985,-1.5877862595419847
5314679751721,5.592495675,2,8.11514652709961,5.736507177734374,0.6979097839355468,-1.8702290076335877,0.1984732824427481,-1.618320610687023
5314687140887,5.599884841,2,8.13310303955078,5.742492681884765,0.6452373474121094,-1.8015267175572518,0.37404580152671757,-1.5725190839694656
