timestamp_ns,t_s,sensor_id,ax,ay,az,gx,gy,gz
5309260475264,0.173219218,3,-0.1927332336425781,-0.55545478515625,-8.936357696533202,-4.358778625954199,-0.24427480916030533,-3.114503816793893
5309266592296,0.17933625,3,-0.20231004028320312,-0.5446808776855468,-8.960299713134765,-4.358778625954199,-0.32061068702290074,-3.213740458015267
5309272601983,0.185345937,3,-0.19033903198242186,-0.5626373901367188,-9.026140258789061,-4.396946564885496,-0.33587786259541985,-3.1374045801526718
5309278533441,0.191277395,3,-0.2214636535644531,-0.5602431884765625,-9.011775048828124,-4.473282442748092,-0.1450381679389313,-3.16793893129771
5309284515212,0.197259166,3,-0.17597382202148437,-0.5051765502929687,-9.005789544677734,-4.419847328244275,-0.3053435114503817,-3.213740458015267
5309290427296,0.20317125,3,-0.19871873779296872,-0.5267243652343749,-8.930372192382812,-4.404580152671755,-0.4122137404580153,-3.145038167938931
5309296374483,0.209118437,3,-0.229843359375,-0.5159504577636719,-8.942343200683593,-4.427480916030534,-0.21374045801526717,-3.1297709923664123
5309302288650,0.215032604,3,-0.21068974609375,-0.5566518859863281,-8.917204083251953,-4.312977099236641,-0.32061068702290074,-3.16793893129771
5309308217035,0.220960989,3,-0.19393033447265623,-0.5781997009277343,-9.014169250488282,-4.5038167938931295,-0.35877862595419846,-3.053435114503817
5309314153598,0.226897552,3,-0.25258827514648435,-0.5303156677246094,-8.919598284912109,-4.427480916030534,-0.35877862595419846,-3.1603053435114505
5309320100368,0.232844322,3,-0.23104046020507812,-0.5770026000976562,-9.003395343017578,-4.435114503816794,-0.1297709923664122,-3.1908396946564888
5309326046983,0.238790937,3,-0.1484405029296875,-0.5530605834960938,-8.96987651977539,-4.32824427480916,-0.32061068702290074,-3.2061068702290076
5309331986931,0.244730885,3,-0.16041151123046873,-0.5458779785156249,-8.961496813964843,-4.4961832061068705,-0.366412213740458,-3.1374045801526718
5309337877243,0.250621197,3,-0.17477672119140625,-0.5255272644042969,-8.93875189819336,-4.351145038167939,-0.2595419847328244,-3.1374045801526718
5309343820316,0.25656427,3,-0.24061726684570311,-0.5195417602539062,-8.968679418945312,-4.358778625954199,-0.17557251908396945,-3.0839694656488548
5309349780733,0.262524687,3,-0.27892449340820313,-0.5003881469726562,-8.954314208984375,-4.366412213740458,-0.366412213740458,-3.030534351145038
5309355726514,0.268470468,3,-0.21906945190429686,-0.5662286926269531,-8.882488159179687,-4.427480916030534,-0.29770992366412213,-3.053435114503817
5309361634066,0.27437802,3,-0.21428104858398436,-0.5363011718749999,-8.93156929321289,-4.351145038167939,-0.26717557251908397,-3.1374045801526718
5309367581827,0.280325781,3,-0.1592144104003906,-0.5363011718749999,-8.980650427246093,-4.32824427480916,-0.40458015267175573,-3.1068702290076335
5309373493962,0.286237916,3,-0.19153613281249998,-0.5351040710449219,-9.029731561279297,-4.473282442748092,-0.3435114503816794,-3.0916030534351147
5309379423702,0.292167656,3,-0.1927332336425781,-0.5458779785156249,-8.955511309814453,-4.450381679389313,-0.26717557251908397,-3.1297709923664123
5309385303858,0.298047812,3,-0.19512743530273435,-0.5147533569335937,-8.896853369140624,-4.3816793893129775,-0.3435114503816794,-3.099236641221374
5309391196358,0.303940312,3,-0.201112939453125,-0.5243301635742187,-8.927977990722656,-4.488549618320611,-0.35877862595419846,-3.198473282442748
5309397139275,0.309883229,3,-0.143652099609375,-0.5291185668945312,-9.068038787841797,-4.404580152671755,-0.20610687022900764,-3.1603053435114505
5309402998754,0.315742708,3,-0.20709844360351562,-0.5686228942871093,-8.96269391479492,-4.450381679389313,-0.22900763358778625,-3.1068702290076335
5309408918233,0.321662187,3,-0.258573779296875,-0.5315127685546874,-8.985438830566405,-4.450381679389313,-0.33587786259541985,-3.122137404580153
5309414818025,0.327561979,3,-0.23104046020507812,-0.5183446594238281,-8.987833032226561,-4.511450381679389,-0.2748091603053435,-3.1374045801526718
5309420747920,0.333491874,3,-0.2454056701660156,-0.5578489868164063,-8.929175091552734,-4.473282442748092,-0.2366412213740458,-3.1755725190839694
5309426646410,0.339390364,3,-0.17836802368164062,-0.5578489868164063,-8.910021478271483,-4.427480916030534,-0.40458015267175573,-3.16793893129771
5309432428181,0.345172135,3,-0.22385785522460935,-0.5470750793457031,-8.953117108154297,-4.480916030534351,-0.3893129770992366,-3.2290076335877864
5309438335941,0.351079895,3,-0.17597382202148437,-0.5339069702148437,-8.91840118408203,-4.366412213740458,-0.2748091603053435,-3.2061068702290076
5309444222348,0.356966302,3,-0.1927332336425781,-0.5219359619140624,-8.833407025146483,-4.343511450381679,-0.3053435114503817,-3.183206106870229
5309450120629,0.362864583,3,-0.20829554443359374,-0.5662286926269531,-8.947131604003905,-4.3893129770992365,-0.4122137404580153,-3.045801526717557
5309456042712,0.368786666,3,-0.2454056701660156,-0.5722141967773438,-8.92438668823242,-4.396946564885496,-0.4580152671755725,-3.236641221374046
5309461963598,0.374707552,3,-0.18914193115234373,-0.4848258361816406,-8.960299713134765,-4.320610687022901,-0.2595419847328244,-3.183206106870229
5309467911098,0.380655052,3,-0.18315642700195311,-0.4704606262207031,-9.0021982421875,-4.458015267175573,-0.32061068702290074,-3.1297709923664123
5309473869535,0.386613489,3,-0.19512743530273435,-0.4860229370117187,-8.990227233886719,-4.427480916030534,-0.42748091603053434,-2.9770992366412212
5309479800056,0.39254401,3,-0.1927332336425781,-0.5351040710449219,-8.919598284912109,-4.396946564885496,-0.2366412213740458,-3.1297709923664123
5309485740160,0.398484114,3,-0.1640028137207031,-0.5698199951171875,-8.93875189819336,-4.404580152671755,-0.3053435114503817,-3.1297709923664123
5309491617139,0.404361093,3,-0.1879448303222656,-0.5231330627441406,-8.966285217285156,-4.358778625954199,-0.3435114503816794,-3.1297709923664123
5309497515160,0.410259114,3,-0.21188684692382811,-0.5027823486328125,-8.968679418945312,-4.488549618320611,-0.3511450381679389,-3.099236641221374
5309503414535,0.416158489,3,-0.20470424194335937,-0.5506663818359374,-8.890867864990234,-4.412213740458015,-0.29770992366412213,-3.1908396946564888
5309509297973,0.422041927,3,-0.20829554443359374,-0.5542576843261718,-9.011775048828124,-4.427480916030534,-0.33587786259541985,-3.122137404580153
5309515226827,0.427970781,3,-0.20949264526367187,-0.5494692810058593,-8.959102612304687,-4.396946564885496,-0.3969465648854962,-3.2061068702290076
5309521150004,0.433893958,3,-0.20949264526367187,-0.5422866760253906,-8.911218579101561,-4.343511450381679,-0.3053435114503817,-3.0763358778625953
5309527061045,0.439804999,3,-0.1771709228515625,-0.5530605834960938,-8.912415679931641,-4.404580152671755,-0.3435114503816794,-3.1374045801526718
5309532972348,0.445716302,3,-0.23223756103515625,-0.5770026000976562,-8.857349041748046,-4.488549618320611,-0.4732824427480916,-3.1374045801526718
5309538860420,0.451604374,3,-0.19393033447265623,-0.5410895751953124,-8.96987651977539,-4.488549618320611,-0.2595419847328244,-3.2290076335877864
5309544733754,0.457477708,3,-0.1771709228515625,-0.5674257934570313,-8.908824377441405,-4.5038167938931295,-0.24427480916030533,-3.1603053435114505
5309550628598,0.463372552,3,-0.17118541870117188,-0.5363011718749999,-9.014169250488282,-4.442748091603053,-0.3511450381679389,-3.0763358778625953
5309556521098,0.469265052,3,-0.21906945190429686,-0.5662286926269531,-8.959102612304687,-4.374045801526718,-0.25190839694656486,-3.1297709923664123
5309562412139,0.475156093,3,-0.1975216369628906,-0.5422866760253906,-8.96269391479492,-4.465648854961832,-0.2824427480916031,-3.122137404580153
5309568383129,0.481127083,3,-0.20949264526367187,-0.5351040710449219,-9.003395343017578,-4.442748091603053,-0.3969465648854962,-3.1603053435114505
5309574294535,0.487038489,3,-0.20470424194335937,-0.44891281127929683,-9.03332286376953,-4.419847328244275,-0.3282442748091603,-3.114503816793893
5309580215212,0.492959166,3,-0.19632453613281248,-0.565031591796875,-8.966285217285156,-4.480916030534351,-0.24427480916030533,-3.1297709923664123
5309586128910,0.498872864,3,-0.22026655273437498,-0.5470750793457031,-8.979453326416015,-4.358778625954199,-0.21374045801526717,-3.068702290076336
5309592141670,0.504885624,3,-0.22385785522460935,-0.5363011718749999,-8.9255837890625,-4.442748091603053,-0.3511450381679389,-3.1297709923664123
5309598065368,0.510809322,3,-0.19033903198242186,-0.5303156677246094,-8.948328704833983,-4.427480916030534,-0.1984732824427481,-3.1526717557251906
5309604094795,0.516838749,3,-0.19033903198242186,-0.584185205078125,-8.93156929321289,-4.427480916030534,-0.3053435114503817,-3.145038167938931
5309610003545,0.522747499,3,-0.16280571289062498,-0.5027823486328125,-8.864531646728516,-4.404580152671755,-0.35877862595419846,-3.213740458015267
5309615860629,0.528604583,3,-0.21787235107421873,-0.5135562561035156,-9.0021982421875,-4.435114503816794,-0.42748091603053434,-3.16793893129771
5309622419431,0.535163385,3,-0.22026655273437498,-0.5722141967773438,-8.967482318115234,-4.442748091603053,-0.19083969465648856,-3.0916030534351147
5309629327139,0.542071093,3,-0.18555062866210936,-0.5339069702148437,-8.905233074951171,-4.534351145038168,-0.37404580152671757,-3.1526717557251906
5309635285577,0.548029531,3,-0.2214636535644531,-0.55545478515625,-8.870517150878905,-4.412213740458015,-0.40458015267175573,-3.0763358778625953
5309641195941,0.553939895,3,-0.16759411621093748,-0.5255272644042969,-8.936357696533202,-4.358778625954199,-0.16030534351145037,-3.0610687022900764
5309647099275,0.559843229,3,-0.21068974609375,-0.5327098693847656,-9.02135185546875,-4.3893129770992365,-0.3893129770992366,-3.1068702290076335
5309652996202,0.565740156,3,-0.19033903198242186,-0.5410895751953124,-8.96987651977539,-4.435114503816794,-0.3816793893129771,-3.2290076335877864
5309658921514,0.571665468,3,-0.16041151123046873,-0.5530605834960938,-8.866925848388671,-4.412213740458015,-0.3435114503816794,-3.1526717557251906
5309665018337,0.577762291,3,-0.21068974609375,-0.5662286926269531,-8.9255837890625,-4.541984732824427,-0.24427480916030533,-3.2748091603053435
5309670955472,0.583699426,3,-0.17477672119140625,-0.565031591796875,-8.955511309814453,-4.465648854961832,-0.3511450381679389,-3.1908396946564888
5309676846775,0.589590729,3,-0.19871873779296872,-0.565031591796875,-8.923189587402343,-4.519083969465649,-0.20610687022900764,-3.145038167938931
5309682740160,0.595484114,3,-0.19871873779296872,-0.5470750793457031,-8.979453326416015,-4.473282442748092,-0.2900763358778626,-3.1755725190839694
5309688615420,0.601359374,3,-0.19512743530273435,-0.5518634826660156,-8.94473740234375,-4.534351145038168,-0.3893129770992366,-3.1755725190839694
5309694512139,0.607256093,3,-0.21188684692382811,-0.5099649536132812,-8.93875189819336,-4.320610687022901,-0.35877862595419846,-3.236641221374046
5309700441566,0.61318552,3,-0.21308394775390624,-0.5578489868164063,-8.980650427246093,-4.374045801526718,-0.2748091603053435,-3.16793893129771
5309706353650,0.619097604,3,-0.2262520568847656,-0.5746083984375,-8.86812294921875,-4.458015267175573,-0.25190839694656486,-3.1526717557251906
5309712258650,0.625002604,3,-0.2059013427734375,-0.5279214660644531,-8.951920007324219,-4.396946564885496,-0.33587786259541985,-3.1526717557251906
5309718189118,0.630933072,3,-0.22385785522460935,-0.47764323120117186,-8.866925848388671,-4.374045801526718,-0.29770992366412213,-3.2061068702290076
5309724093389,0.636837343,3,-0.19512743530273435,-0.4800374328613281,-8.853757739257812,-4.473282442748092,-0.32061068702290074,-3.145038167938931
5309730036306,0.64278026,3,-0.22385785522460935,-0.5410895751953124,-8.89326206665039,-4.358778625954199,-0.3435114503816794,-3.1374045801526718
5309735978233,0.648722187,3,-0.21188684692382811,-0.5243301635742187,-8.95670841064453,-4.450381679389313,-0.3893129770992366,-3.183206106870229
5309741907452,0.654651406,3,-0.2214636535644531,-0.5446808776855468,-9.018957653808593,-4.465648854961832,-0.2748091603053435,-3.213740458015267
5309747826202,0.660570156,3,-0.17836802368164062,-0.603338818359375,-9.03332286376953,-4.343511450381679,-0.24427480916030533,-3.1526717557251906
5309753784743,0.666528697,3,-0.20709844360351562,-0.5710170959472656,-8.917204083251953,-4.358778625954199,-0.40458015267175573,-3.1603053435114505
5309759743129,0.672487083,3,-0.23822306518554687,-0.55545478515625,-8.960299713134765,-4.458015267175573,-0.32061068702290074,-3.1374045801526718
5309765657608,0.678401562,3,-0.20231004028320312,-0.565031591796875,-8.990227233886719,-4.5038167938931295,-0.3511450381679389,-3.122137404580153
5309771525993,0.684269947,3,-0.18555062866210936,-0.5087678527832031,-8.917204083251953,-4.4961832061068705,-0.2748091603053435,-3.1603053435114505
5309777469118,0.690213072,3,-0.22864625854492185,-0.5614402893066406,-8.911218579101561,-4.435114503816794,-0.2900763358778626,-3.2595419847328246
5309783406983,0.696150937,3,-0.16519991455078123,-0.5207388610839844,-8.921992486572265,-4.450381679389313,-0.2748091603053435,-3.1526717557251906
5309789311254,0.702055208,3,-0.1867477294921875,-0.5374982727050781,-8.927977990722656,-4.3816793893129775,-0.2748091603053435,-3.0916030534351147
5309795262868,0.708006822,3,-0.2154781494140625,-0.5494692810058593,-8.955511309814453,-4.366412213740458,-0.26717557251908397,-3.1755725190839694
5309801179847,0.713923801,3,-0.19393033447265623,-0.5243301635742187,-8.936357696533202,-4.412213740458015,-0.2366412213740458,-3.1374045801526718
5309807050420,0.719794374,3,-0.17118541870117188,-0.4704606262207031,-8.929175091552734,-4.442748091603053,-0.2900763358778626,-3.145038167938931
5309812939327,0.725683281,3,-0.19512743530273435,-0.5542576843261718,-8.97705912475586,-4.427480916030534,-0.3816793893129771,-3.1908396946564888
5309818838441,0.731582395,3,-0.201112939453125,-0.5518634826660156,-8.99501563720703,-4.419847328244275,-0.2824427480916031,-3.213740458015267
5309824757608,0.737501562,3,-0.17118541870117188,-0.5363011718749999,-8.960299713134765,-4.488549618320611,-0.25190839694656486,-3.236641221374046
5309830612035,0.743355989,3,-0.19632453613281248,-0.5123591552734374,-8.894459167480468,-4.465648854961832,-0.366412213740458,-3.2061068702290076
5309836541306,0.74928526,3,-0.20949264526367187,-0.5506663818359374,-8.929175091552734,-4.305343511450381,-0.2824427480916031,-3.198473282442748
5309842445524,0.755189478,3,-0.19153613281249998,-0.5506663818359374,-8.945934503173827,-4.3893129770992365,-0.33587786259541985,-3.0763358778625953
5309848392452,0.761136406,3,-0.16280571289062498,-0.5698199951171875,-8.913612780761719,-4.343511450381679,-0.35877862595419846,-3.0916030534351147
5309854354170,0.767098124,3,-0.19033903198242186,-0.5315127685546874,-8.94473740234375,-4.404580152671755,-0.3282442748091603,-3.0839694656488548
5309860259274,0.773003228,3,-0.19033903198242186,-0.5147533569335937,-8.920795385742187,-4.351145038167939,-0.26717557251908397,-3.145038167938931
5309866197556,0.77894151,3,-0.18914193115234373,-0.5398924743652344,-8.876502655029297,-4.442748091603053,-0.29770992366412213,-3.198473282442748
5309872115420,0.784859374,3,-0.18315642700195311,-0.5734112976074218,-8.951920007324219,-4.3893129770992365,-0.26717557251908397,-3.114503816793893
5309878056306,0.79080026,3,-0.20829554443359374,-0.5183446594238281,-8.981847528076171,-4.419847328244275,-0.183206106870229,-3.1068702290076335
5309883990160,0.796734114,3,-0.18435352783203124,-0.5734112976074218,-8.955511309814453,-4.358778625954199,-0.29770992366412213,-3.1603053435114505
5309889987608,0.802731562,3,-0.19153613281249998,-0.5482721801757812,-8.926780889892578,-4.374045801526718,-0.3282442748091603,-3.1755725190839694
5309895950524,0.808694478,3,-0.181959326171875,-0.5506663818359374,-9.022548956298827,-4.480916030534351,-0.37404580152671757,-3.2290076335877864
5309901920004,0.814663958,3,-0.23223756103515625,-0.5255272644042969,-8.933963494873046,-4.458015267175573,-0.3282442748091603,-3.16793893129771
5309907902504,0.820646458,3,-0.20231004028320312,-0.5231330627441406,-8.878896856689453,-4.442748091603053,-0.366412213740458,-3.0
5309913890889,0.826634843,3,-0.22744915771484372,-0.5434837768554687,-8.986635931396483,-4.4961832061068705,-0.366412213740458,-3.1374045801526718
5309919948910,0.832692864,3,-0.17956512451171874,-0.5530605834960938,-8.939948999023438,-4.427480916030534,-0.22900763358778625,-3.1526717557251906
5309925981358,0.838725312,3,-0.19871873779296872,-0.5339069702148437,-8.955511309814453,-4.519083969465649,-0.26717557251908397,-3.1068702290076335
5309931941410,0.844685364,3,-0.22266075439453123,-0.5147533569335937,-8.955511309814453,-4.435114503816794,-0.3282442748091603,-3.16793893129771
5309937895837,0.850639791,3,-0.21308394775390624,-0.5602431884765625,-9.029731561279297,-4.473282442748092,-0.26717557251908397,-3.1526717557251906
5309943903285,0.856647239,3,-0.19393033447265623,-0.5662286926269531,-9.02135185546875,-4.412213740458015,-0.3053435114503817,-3.0763358778625953
5309949884222,0.862628176,3,-0.20350714111328125,-0.5602431884765625,-8.926780889892578,-4.465648854961832,-0.3435114503816794,-3.1068702290076335
5309955837660,0.868581614,3,-0.21188684692382811,-0.5351040710449219,-8.979453326416015,-4.519083969465649,-0.4122137404580153,-3.0916030534351147
5309961802035,0.874545989,3,-0.18435352783203124,-0.5458779785156249,-8.929175091552734,-4.458015267175573,-0.33587786259541985,-3.099236641221374
5309967738754,0.880482708,3,-0.19632453613281248,-0.4848258361816406,-8.997409838867187,-4.435114503816794,-0.3053435114503817,-3.145038167938931
5309973651931,0.886395885,3,-0.16041151123046873,-0.5410895751953124,-9.009380847167968,-4.4961832061068705,-0.3053435114503817,-3.145038167938931
5309979522191,0.892266145,3,-0.17477672119140625,-0.5518634826660156,-8.94473740234375,-4.473282442748092,-0.21374045801526717,-3.1908396946564888
5309985529639,0.898273593,3,-0.25258827514648435,-0.5458779785156249,-8.947131604003905,-4.427480916030534,-0.21374045801526717,-3.1068702290076335
5309991430629,0.904174583,3,-0.1927332336425781,-0.5351040710449219,-8.942343200683593,-4.435114503816794,-0.3053435114503817,-3.0839694656488548
5309997315264,0.910059218,3,-0.23343466186523437,-0.5674257934570313,-8.945934503173827,-4.3816793893129775,-0.32061068702290074,-3.2595419847328246
5310003251045,0.915994999,3,-0.18435352783203124,-0.5590460876464843,-8.951920007324219,-4.3893129770992365,-0.3053435114503817,-3.1755725190839694
5310009206462,0.921950416,3,-0.21906945190429686,-0.5578489868164063,-8.99501563720703,-4.435114503816794,-0.366412213740458,-3.1908396946564888
5310015144170,0.927888124,3,-0.21308394775390624,-0.5015852478027344,-8.978256225585938,-4.4961832061068705,-0.2748091603053435,-3.16793893129771
5310021066670,0.933810624,3,-0.22505495605468748,-0.51714755859375,-8.967482318115234,-4.435114503816794,-0.24427480916030533,-3.1603053435114505
5310026992243,0.939736197,3,-0.1975216369628906,-0.5506663818359374,-8.914809881591797,-4.488549618320611,-0.3816793893129771,-3.0610687022900764
5310032978129,0.945722083,3,-0.16998831787109375,-0.47644613037109373,-8.920795385742187,-4.480916030534351,-0.2595419847328244,-3.213740458015267
5310038897660,0.951641614,3,-0.1927332336425781,-0.565031591796875,-8.945934503173827,-4.465648854961832,-0.2748091603053435,-3.1755725190839694
5310044854170,0.957598124,3,-0.19393033447265623,-0.5351040710449219,-8.954314208984375,-4.458015267175573,-0.2595419847328244,-3.1068702290076335
5310050805108,0.963549062,3,-0.21188684692382811,-0.5422866760253906,-8.949525805664061,-4.419847328244275,-0.37404580152671757,-3.213740458015267
5310056705056,0.96944901,3,-0.20829554443359374,-0.4991910461425781,-8.993818536376953,-4.435114503816794,-0.22900763358778625,-3.068702290076336
5310062659587,0.975403541,3,-0.22864625854492185,-0.5207388610839844,-8.939948999023438,-4.3893129770992365,-0.3282442748091603,-3.122137404580153
5310068574743,0.981318697,3,-0.19393033447265623,-0.5805939025878906,-8.960299713134765,-4.32824427480916,-0.3511450381679389,-3.1603053435114505
5310074518910,0.987262864,3,-0.143652099609375,-0.5374982727050781,-8.948328704833983,-4.412213740458015,-0.37404580152671757,-3.198473282442748
5310080388754,0.993132708,3,-0.19153613281249998,-0.5207388610839844,-8.95670841064453,-4.519083969465649,-0.3816793893129771,-3.2061068702290076
5310086330420,0.999074374,3,-0.21787235107421873,-0.565031591796875,-8.94473740234375,-4.473282442748092,-0.3969465648854962,-3.122137404580153
5310092230837,1.004974791,3,-0.2214636535644531,-0.5566518859863281,-8.960299713134765,-4.32824427480916,-0.22900763358778625,-3.1374045801526718
5310098180681,1.010924635,3,-0.2346317626953125,-0.5494692810058593,-8.971073620605468,-4.366412213740458,-0.2824427480916031,-3.2290076335877864
5310104118493,1.016862447,3,-0.17238251953125,-0.49679684448242184,-8.965088116455078,-4.442748091603053,-0.31297709923664124,-3.0763358778625953
5310110043701,1.022787655,3,-0.18435352783203124,-0.5590460876464843,-8.94473740234375,-4.442748091603053,-0.366412213740458,-3.2213740458015265
5310115990993,1.028734947,3,-0.22505495605468748,-0.5135562561035156,-8.942343200683593,-4.450381679389313,-0.22900763358778625,-3.2061068702290076
5310121955629,1.034699583,3,-0.23104046020507812,-0.5746083984375,-8.963891015625,-4.366412213740458,-0.25190839694656486,-3.0610687022900764
5310127880420,1.040624374,3,-0.2346317626953125,-0.5339069702148437,-8.97705912475586,-4.3816793893129775,-0.3893129770992366,-3.1297709923664123
5310133851983,1.046595937,3,-0.19632453613281248,-0.5746083984375,-8.921992486572265,-4.442748091603053,-0.22900763358778625,-3.2290076335877864
5310139798858,1.052542812,3,-0.20350714111328125,-0.5374982727050781,-8.914809881591797,-4.442748091603053,-0.22900763358778625,-3.1908396946564888
5310145766774,1.058510728,3,-0.16998831787109375,-0.5614402893066406,-8.89326206665039,-4.412213740458015,-0.2824427480916031,-3.0610687022900764
5310151682295,1.064426249,3,-0.1640028137207031,-0.51714755859375,-8.878896856689453,-4.351145038167939,-0.2748091603053435,-3.122137404580153
5310157614379,1.070358333,3,-0.201112939453125,-0.5422866760253906,-8.991424334716797,-4.366412213740458,-0.24427480916030533,-3.198473282442748
5310163584066,1.07632802,3,-0.1592144104003906,-0.5398924743652344,-8.943540301513671,-4.435114503816794,-0.2824427480916031,-3.236641221374046
5310169522764,1.082266718,3,-0.14724340209960937,-0.5566518859863281,-8.97705912475586,-4.404580152671755,-0.37404580152671757,-3.2213740458015265
5310175445837,1.088189791,3,-0.2166752502441406,-0.5363011718749999,-8.950722906494141,-4.435114503816794,-0.32061068702290074,-3.145038167938931
5310181382556,1.09412651,3,-0.16879121704101563,-0.5363011718749999,-8.91840118408203,-4.419847328244275,-0.17557251908396945,-3.213740458015267
5310187305004,1.100048958,3,-0.1484405029296875,-0.5183446594238281,-8.89326206665039,-4.404580152671755,-0.2824427480916031,-3.1603053435114505
5310193250629,1.105994583,3,-0.21188684692382811,-0.5446808776855468,-8.9255837890625,-4.511450381679389,-0.35877862595419846,-3.198473282442748
5310199177816,1.11192177,3,-0.19512743530273435,-0.5889736083984375,-8.942343200683593,-4.442748091603053,-0.2824427480916031,-3.145038167938931
5310205146306,1.11789026,3,-0.1879448303222656,-0.5099649536132812,-8.941146099853515,-4.442748091603053,-0.3435114503816794,-3.1526717557251906
5310211080420,1.123824374,3,-0.23702596435546874,-0.5458779785156249,-8.914809881591797,-4.435114503816794,-0.5343511450381679,-3.1755725190839694
5310217001045,1.129744999,3,-0.23702596435546874,-0.5494692810058593,-8.936357696533202,-4.412213740458015,-0.2595419847328244,-3.1603053435114505
5310222950681,1.135694635,3,-0.23343466186523437,-0.5805939025878906,-8.939948999023438,-4.404580152671755,-0.4122137404580153,-3.145038167938931
5310228875889,1.141619843,3,-0.21428104858398436,-0.5327098693847656,-8.892064965820312,-4.419847328244275,-0.35877862595419846,-3.099236641221374
5310234804587,1.147548541,3,-0.181959326171875,-0.565031591796875,-8.927977990722656,-4.450381679389313,-0.25190839694656486,-3.145038167938931
5310240729431,1.153473385,3,-0.20709844360351562,-0.5698199951171875,-8.907627276611327,-4.404580152671755,-0.2366412213740458,-3.1908396946564888
5310246719743,1.159463697,3,-0.181959326171875,-0.4908113403320312,-8.935160595703124,-4.480916030534351,-0.3969465648854962,-3.145038167938931
5310252701670,1.165445624,3,-0.16160861206054686,-0.5363011718749999,-8.94473740234375,-4.427480916030534,-0.32061068702290074,-3.145038167938931
5310258685889,1.171429843,3,-0.181959326171875,-0.47165772705078124,-8.950722906494141,-4.534351145038168,-0.16030534351145037,-3.0763358778625953
5310264623753,1.177367707,3,-0.19393033447265623,-0.5291185668945312,-8.926780889892578,-4.488549618320611,-0.33587786259541985,-3.0763358778625953
5310270529326,1.18327328,3,-0.18076222534179687,-0.5686228942871093,-8.985438830566405,-4.488549618320611,-0.44274809160305345,-3.1297709923664123
5310276523962,1.189267916,3,-0.17118541870117188,-0.5219359619140624,-8.945934503173827,-4.427480916030534,-0.183206106870229,-3.1068702290076335
5310282512712,1.195256666,3,-0.15083470458984374,-0.5590460876464843,-8.96269391479492,-4.442748091603053,-0.3053435114503817,-3.1603053435114505
5310288429014,1.201172968,3,-0.16280571289062498,-0.5351040710449219,-8.979453326416015,-4.427480916030534,-0.3435114503816794,-3.1297709923664123
5310294350628,1.207094582,3,-0.181959326171875,-0.5602431884765625,-9.003395343017578,-4.419847328244275,-0.33587786259541985,-3.145038167938931
5310300284743,1.213028697,3,-0.21787235107421873,-0.5805939025878906,-9.009380847167968,-4.3893129770992365,-0.20610687022900764,-3.145038167938931
5310306216201,1.218960155,3,-0.17477672119140625,-0.5817910034179687,-8.987833032226561,-4.404580152671755,-0.31297709923664124,-3.114503816793893
5310312168962,1.224912916,3,-0.19871873779296872,-0.5446808776855468,-9.034519964599609,-4.358778625954199,-0.2900763358778626,-3.183206106870229
5310318093649,1.230837603,3,-0.20829554443359374,-0.5003881469726562,-8.911218579101561,-4.3893129770992365,-0.35877862595419846,-3.0839694656488548
5310324072035,1.236815989,3,-0.20470424194335937,-0.4944026428222656,-8.987833032226561,-4.412213740458015,-0.32061068702290074,-3.213740458015267
5310329916670,1.242660624,3,-0.22505495605468748,-0.5530605834960938,-8.95670841064453,-4.427480916030534,-0.4198473282442748,-3.145038167938931
5310335861774,1.248605728,3,-0.19871873779296872,-0.5686228942871093,-8.92438668823242,-4.374045801526718,-0.2900763358778626,-3.0916030534351147
5310341829066,1.25457302,3,-0.16519991455078123,-0.5446808776855468,-8.951920007324219,-4.396946564885496,-0.2366412213740458,-3.099236641221374
5310347782243,1.260526197,3,-0.18076222534179687,-0.5422866760253906,-8.94473740234375,-4.419847328244275,-0.3969465648854962,-3.145038167938931
5310353763389,1.266507343,3,-0.2262520568847656,-0.5578489868164063,-8.890867864990234,-4.435114503816794,-0.31297709923664124,-3.0916030534351147
5310359692764,1.272436718,3,-0.17956512451171874,-0.5518634826660156,-8.881291058349609,-4.519083969465649,-0.21374045801526717,-3.2748091603053435
5310365621045,1.278364999,3,-0.181959326171875,-0.5207388610839844,-8.993818536376953,-4.519083969465649,-0.2366412213740458,-3.1526717557251906
5310371569951,1.284313905,3,-0.2166752502441406,-0.5410895751953124,-9.020154754638671,-4.465648854961832,-0.29770992366412213,-3.198473282442748
5310377494847,1.290238801,3,-0.21068974609375,-0.48722003784179685,-8.935160595703124,-4.404580152671755,-0.20610687022900764,-3.198473282442748
5310383443545,1.296187499,3,-0.20231004028320312,-0.5207388610839844,-9.017760552978515,-4.450381679389313,-0.2748091603053435,-3.2213740458015265
5310389359170,1.302103124,3,-0.21188684692382811,-0.5219359619140624,-8.966285217285156,-4.427480916030534,-0.37404580152671757,-3.1603053435114505
5310395288910,1.308032864,3,-0.2059013427734375,-0.5422866760253906,-8.955511309814453,-4.450381679389313,-0.21374045801526717,-3.1755725190839694
5310401229066,1.31397302,3,-0.2454056701660156,-0.5231330627441406,-8.881291058349609,-4.473282442748092,-0.2748091603053435,-3.16793893129771
5310407158441,1.319902395,3,-0.20829554443359374,-0.4800374328613281,-8.98304462890625,-4.458015267175573,-0.4122137404580153,-3.213740458015267
5310413144587,1.325888541,3,-0.1879448303222656,-0.5482721801757812,-8.907627276611327,-4.404580152671755,-0.2748091603053435,-3.2061068702290076
5310419065368,1.331809322,3,-0.1975216369628906,-0.5458779785156249,-8.93875189819336,-4.351145038167939,-0.1297709923664122,-3.0839694656488548
5310424987660,1.337731614,3,-0.23104046020507812,-0.5434837768554687,-8.908824377441405,-4.442748091603053,-0.29770992366412213,-3.122137404580153
5310430922920,1.343666874,3,-0.23702596435546874,-0.5901707092285156,-8.872911352539061,-4.3893129770992365,-0.4122137404580153,-3.053435114503817
5310436857868,1.349601822,3,-0.2214636535644531,-0.5518634826660156,-8.947131604003905,-4.473282442748092,-0.06870229007633588,-3.1068702290076335
5310442801931,1.355545885,3,-0.1975216369628906,-0.5027823486328125,-8.96269391479492,-4.5038167938931295,-0.26717557251908397,-3.0839694656488548
5310448712035,1.361455989,3,-0.18435352783203124,-0.5279214660644531,-8.967482318115234,-4.427480916030534,-0.45038167938931295,-3.213740458015267
5310454675837,1.367419791,3,-0.23223756103515625,-0.5638344909667968,-9.02135185546875,-4.480916030534351,-0.37404580152671757,-3.1526717557251906
5310460605837,1.373349791,3,-0.2166752502441406,-0.5351040710449219,-9.00100114135742,-4.465648854961832,-0.20610687022900764,-3.1755725190839694
5310466531097,1.379275051,3,-0.17836802368164062,-0.5566518859863281,-9.030928662109375,-4.259541984732825,-0.45038167938931295,-3.2061068702290076
5310472449274,1.385193228,3,-0.22266075439453123,-0.5315127685546874,-8.936357696533202,-4.351145038167939,-0.2900763358778626,-3.183206106870229
5310478361514,1.391105468,3,-0.23104046020507812,-0.5518634826660156,-8.998606939697265,-4.33587786259542,-0.22900763358778625,-3.183206106870229
5310484296930,1.397040884,3,-0.19393033447265623,-0.5255272644042969,-8.968679418945312,-4.419847328244275,-0.24427480916030533,-3.1068702290076335
5310490213545,1.402957499,3,-0.20829554443359374,-0.5339069702148437,-9.0021982421875,-4.419847328244275,-0.40458015267175573,-3.1297709923664123
5310496147920,1.408891874,3,-0.19512743530273435,-0.5686228942871093,-8.991424334716797,-4.396946564885496,-0.1984732824427481,-3.122137404580153
5310502077399,1.414821353,3,-0.19153613281249998,-0.5542576843261718,-8.961496813964843,-4.435114503816794,-0.35877862595419846,-3.2290076335877864
5310508045628,1.420789582,3,-0.23702596435546874,-0.5339069702148437,-8.985438830566405,-4.427480916030534,-0.4351145038167939,-3.0076335877862594
5310513994587,1.426738541,3,-0.19033903198242186,-0.5195417602539062,-8.94473740234375,-4.595419847328245,-0.4122137404580153,-3.0916030534351147
5310519950941,1.432694895,3,-0.1867477294921875,-0.5602431884765625,-8.965088116455078,-4.519083969465649,-0.31297709923664124,-3.183206106870229
5310525916097,1.438660051,3,-0.17238251953125,-0.5279214660644531,-8.94473740234375,-4.3893129770992365,-0.3893129770992366,-3.1908396946564888
5310531866097,1.444610051,3,-0.19512743530273435,-0.5410895751953124,-8.898050469970702,-4.465648854961832,-0.31297709923664124,-3.145038167938931
5310537844170,1.450588124,3,-0.22744915771484372,-0.5710170959472656,-8.907627276611327,-4.427480916030534,-0.1297709923664122,-3.1755725190839694
5310543781462,1.456525416,3,-0.15562310791015624,-0.604535919189453,-8.882488159179687,-4.427480916030534,-0.25190839694656486,-3.0
5310549695733,1.462439687,3,-0.21188684692382811,-0.5015852478027344,-8.90643017578125,-4.412213740458015,-0.44274809160305345,-3.030534351145038
5310555625837,1.468369791,3,-0.21068974609375,-0.5386953735351562,-8.992621435546875,-4.450381679389313,-0.3816793893129771,-3.16793893129771
5310561603649,1.474347603,3,-0.143652099609375,-0.5123591552734374,-8.926780889892578,-4.3893129770992365,-0.31297709923664124,-3.122137404580153
5310567528753,1.480272707,3,-0.22505495605468748,-0.5219359619140624,-9.016563452148437,-4.526717557251908,-0.2748091603053435,-3.0763358778625953
5310573499795,1.486243749,3,-0.16879121704101563,-0.55545478515625,-8.951920007324219,-4.412213740458015,-0.3435114503816794,-3.1297709923664123
5310579380368,1.492124322,3,-0.18555062866210936,-0.5686228942871093,-8.881291058349609,-4.435114503816794,-0.21374045801526717,-3.145038167938931
5310585357399,1.498101353,3,-0.16759411621093748,-0.5123591552734374,-8.967482318115234,-4.488549618320611,-0.366412213740458,-3.16793893129771
5310591315055,1.504059009,3,-0.17238251953125,-0.5386953735351562,-9.003395343017578,-4.4961832061068705,-0.37404580152671757,-3.16793893129771
5310597312191,1.510056145,3,-0.258573779296875,-0.5327098693847656,-8.992621435546875,-4.473282442748092,-0.2824427480916031,-3.2519083969465647
5310603266826,1.51601078,3,-0.20470424194335937,-0.5195417602539062,-8.953117108154297,-4.374045801526718,-0.3053435114503817,-3.1603053435114505
5310609207191,1.521951145,3,-0.16639701538085935,-0.5339069702148437,-8.968679418945312,-4.488549618320611,-0.37404580152671757,-3.1526717557251906
5310615117087,1.527861041,3,-0.18555062866210936,-0.5099649536132812,-8.930372192382812,-4.427480916030534,-0.31297709923664124,-3.1908396946564888
5310621141774,1.533885728,3,-0.18315642700195311,-0.5351040710449219,-8.917204083251953,-4.366412213740458,-0.2595419847328244,-3.198473282442748
5310627098285,1.539842239,3,-0.20949264526367187,-0.5363011718749999,-8.890867864990234,-4.450381679389313,-0.3969465648854962,-3.16793893129771
5310633030420,1.545774374,3,-0.16160861206054686,-0.5279214660644531,-8.966285217285156,-4.511450381679389,-0.33587786259541985,-3.0610687022900764
5310638988233,1.551732187,3,-0.20949264526367187,-0.5207388610839844,-8.908824377441405,-4.419847328244275,-0.24427480916030533,-3.145038167938931
5310644915420,1.557659374,3,-0.20350714111328125,-0.5147533569335937,-8.852560638427734,-4.312977099236641,-0.2900763358778626,-3.2213740458015265
5310650854899,1.563598853,3,-0.21068974609375,-0.5195417602539062,-8.910021478271483,-4.4961832061068705,-0.3816793893129771,-3.1526717557251906
5310656841045,1.569584999,3,-0.22505495605468748,-0.5279214660644531,-8.972270721435546,-4.435114503816794,-0.2900763358778626,-3.183206106870229
5310662767035,1.575510989,3,-0.23822306518554687,-0.5422866760253906,-8.953117108154297,-4.343511450381679,-0.1984732824427481,-3.1755725190839694
5310668688857,1.581432811,3,-0.19632453613281248,-0.5291185668945312,-8.892064965820312,-4.312977099236641,-0.31297709923664124,-3.1297709923664123
5310674644430,1.587388384,3,-0.2214636535644531,-0.5410895751953124,-8.999804040527343,-4.419847328244275,-0.32061068702290074,-3.0916030534351147
5310680567243,1.593311197,3,-0.20949264526367187,-0.5027823486328125,-8.884882360839843,-4.458015267175573,-0.20610687022900764,-3.2213740458015265
5310686519482,1.599263436,3,-0.1771709228515625,-0.5578489868164063,-8.920795385742187,-4.404580152671755,-0.3053435114503817,-3.2061068702290076
5310692454274,1.605198228,3,-0.19991583862304688,-0.5051765502929687,-8.998606939697265,-4.320610687022901,-0.29770992366412213,-3.0763358778625953
5310698376670,1.611120624,3,-0.18315642700195311,-0.5327098693847656,-8.921992486572265,-4.465648854961832,-0.15267175572519084,-3.1603053435114505
5310704373597,1.617117551,3,-0.14484920043945312,-0.5303156677246094,-8.932766394042968,-4.458015267175573,-0.21374045801526717,-3.16793893129771
5310710302555,1.623046509,3,-0.17357962036132812,-0.49799394531249996,-8.89924757080078,-4.427480916030534,-0.44274809160305345,-3.1297709923664123
5310716222868,1.628966822,3,-0.21308394775390624,-0.4944026428222656,-8.923189587402343,-4.374045801526718,-0.44274809160305345,-3.1297709923664123
5310722147764,1.634891718,3,-0.18914193115234373,-0.507570751953125,-9.024943157958983,-4.442748091603053,-0.19083969465648856,-3.2213740458015265
5310728067764,1.640811718,3,-0.17836802368164062,-0.5674257934570313,-8.921992486572265,-4.4961832061068705,-0.4732824427480916,-3.183206106870229
5310734029274,1.646773228,3,-0.2346317626953125,-0.5542576843261718,-8.987833032226561,-4.419847328244275,-0.46564885496183206,-3.1908396946564888
5310739974743,1.652718697,3,-0.1879448303222656,-0.5578489868164063,-9.03332286376953,-4.419847328244275,-0.22137404580152673,-3.1908396946564888
5310745947712,1.658691666,3,-0.2597708801269531,-0.5865794067382812,-8.907627276611327,-4.427480916030534,-0.33587786259541985,-3.1374045801526718
5310751899847,1.664643801,3,-0.2154781494140625,-0.5039794494628906,-8.907627276611327,-4.488549618320611,-0.366412213740458,-3.1755725190839694
5310757887764,1.670631718,3,-0.20470424194335937,-0.5279214660644531,-8.876502655029297,-4.419847328244275,-0.20610687022900764,-3.1755725190839694
5310763836201,1.676580155,3,-0.24301146850585936,-0.5351040710449219,-8.945934503173827,-4.427480916030534,-0.21374045801526717,-3.145038167938931
5310769809847,1.682553801,3,-0.2741360900878906,-0.5578489868164063,-9.0021982421875,-4.3816793893129775,-0.3816793893129771,-3.1908396946564888
5310775741357,1.688485311,3,-0.258573779296875,-0.5374982727050781,-8.953117108154297,-4.3893129770992365,-0.366412213740458,-3.1908396946564888
5310781624118,1.694368072,3,-0.20470424194335937,-0.5686228942871093,-8.947131604003905,-4.435114503816794,-0.2366412213740458,-3.1526717557251906
5310787552868,1.700296822,3,-0.22385785522460935,-0.5698199951171875,-8.930372192382812,-4.465648854961832,-0.3816793893129771,-3.16793893129771
5310793479118,1.706223072,3,-0.19632453613281248,-0.5410895751953124,-8.980650427246093,-4.419847328244275,-0.2595419847328244,-3.236641221374046
5310799439535,1.712183489,3,-0.18076222534179687,-0.5506663818359374,-8.971073620605468,-4.480916030534351,-0.0916030534351145,-3.16793893129771
5310805355368,1.718099322,3,-0.19153613281249998,-0.5303156677246094,-8.917204083251953,-4.442748091603053,-0.183206106870229,-3.1908396946564888
5310811278232,1.724022186,3,-0.23702596435546874,-0.5710170959472656,-8.892064965820312,-4.442748091603053,-0.366412213740458,-3.2442748091603053
5310817205889,1.729949843,3,-0.19512743530273435,-0.5363011718749999,-8.936357696533202,-4.419847328244275,-0.183206106870229,-3.1526717557251906
5310823074118,1.735818072,3,-0.19632453613281248,-0.5410895751953124,-8.933963494873046,-4.473282442748092,-0.2748091603053435,-3.16793893129771
5310829040003,1.741783957,3,-0.16041151123046873,-0.5291185668945312,-8.921992486572265,-4.480916030534351,-0.35877862595419846,-3.122137404580153
5310834979430,1.747723384,3,-0.1771709228515625,-0.5817910034179687,-8.941146099853515,-4.4961832061068705,-0.3893129770992366,-3.1603053435114505
5310840915628,1.753659582,3,-0.239420166015625,-0.4860229370117187,-8.883685260009765,-4.465648854961832,-0.26717557251908397,-3.1755725190839694
5310846835576,1.75957953,3,-0.18555062866210936,-0.5494692810058593,-8.999804040527343,-4.32824427480916,-0.3893129770992366,-3.145038167938931
5310852782555,1.765526509,3,-0.21188684692382811,-0.5374982727050781,-8.95670841064453,-4.427480916030534,-0.4961832061068702,-3.099236641221374
5310858716201,1.771460155,3,-0.2154781494140625,-0.5877765075683593,-8.972270721435546,-4.351145038167939,-0.22137404580152673,-3.1603053435114505
5310864681305,1.777425259,3,-0.16998831787109375,-0.5530605834960938,-8.864531646728516,-4.435114503816794,-0.2595419847328244,-3.1908396946564888
5310870606878,1.783350832,3,-0.22026655273437498,-0.4896142395019531,-8.926780889892578,-4.412213740458015,-0.25190839694656486,-3.3282442748091605
5310876536253,1.789280207,3,-0.2501940734863281,-0.5542576843261718,-8.951920007324219,-4.427480916030534,-0.3816793893129771,-3.236641221374046
5310882455680,1.795199634,3,-0.2214636535644531,-0.5051765502929687,-8.914809881591797,-4.450381679389313,-0.29770992366412213,-3.2213740458015265
5310888385368,1.801129322,3,-0.20231004028320312,-0.5698199951171875,-8.953117108154297,-4.3816793893129775,-0.31297709923664124,-3.1297709923664123
5310894345368,1.807089322,3,-0.20949264526367187,-0.5410895751953124,-8.920795385742187,-4.3893129770992365,-0.37404580152671757,-3.122137404580153
5310900379430,1.813123384,3,-0.17836802368164062,-0.5386953735351562,-8.979453326416015,-4.358778625954199,-0.32061068702290074,-3.1068702290076335
5310906355576,1.81909953,3,-0.17956512451171874,-0.5674257934570313,-9.009380847167968,-4.534351145038168,-0.2748091603053435,-3.1374045801526718
5310912280993,1.825024947,3,-0.21308394775390624,-0.5111620544433594,-8.89924757080078,-4.450381679389313,-0.2900763358778626,-3.0839694656488548
5310918257868,1.831001822,3,-0.201112939453125,-0.5363011718749999,-8.999804040527343,-4.465648854961832,-0.32061068702290074,-3.068702290076336
5310924234795,1.836978749,3,-0.17118541870117188,-0.5255272644042969,-8.978256225585938,-4.480916030534351,-0.22900763358778625,-3.2519083969465647
5310930184014,1.842927968,3,-0.2166752502441406,-0.5374982727050781,-9.0021982421875,-4.374045801526718,-0.3435114503816794,-3.236641221374046
5310936113232,1.848857186,3,-0.24899697265624998,-0.47285482788085936,-8.974664923095702,-4.427480916030534,-0.25190839694656486,-3.0916030534351147
5310942046097,1.854790051,3,-0.22744915771484372,-0.5255272644042969,-8.908824377441405,-4.351145038167939,-0.29770992366412213,-3.16793893129771
5310948039743,1.860783697,3,-0.20350714111328125,-0.5303156677246094,-8.981847528076171,-4.374045801526718,-0.3511450381679389,-3.1908396946564888
5310954005420,1.866749374,3,-0.2166752502441406,-0.5770026000976562,-8.998606939697265,-4.412213740458015,-0.366412213740458,-3.183206106870229
5310960058232,1.872802186,3,-0.229843359375,-0.5506663818359374,-8.88607946166992,-4.374045801526718,-0.29770992366412213,-3.145038167938931
5310966017712,1.878761666,3,-0.1879448303222656,-0.5231330627441406,-8.975862023925782,-4.480916030534351,-0.4351145038167939,-3.1526717557251906
5310972038805,1.884782759,3,-0.181959326171875,-0.49320554199218747,-8.93755479736328,-4.358778625954199,-0.37404580152671757,-3.236641221374046
5310978008753,1.890752707,3,-0.21308394775390624,-0.4848258361816406,-8.985438830566405,-4.32824427480916,-0.1984732824427481,-3.1526717557251906
5310983951045,1.896694999,3,-0.181959326171875,-0.49679684448242184,-8.959102612304687,-4.480916030534351,-0.22900763358778625,-3.1068702290076335
5310989990264,1.902734218,3,-0.20231004028320312,-0.5123591552734374,-8.95670841064453,-4.473282442748092,-0.26717557251908397,-3.0916030534351147
5310996056409,1.908800363,3,-0.18315642700195311,-0.5315127685546874,-8.9255837890625,-4.427480916030534,-0.3969465648854962,-3.2595419847328246
5311001979014,1.914722968,3,-0.1771709228515625,-0.5482721801757812,-8.960299713134765,-4.351145038167939,-0.2900763358778626,-3.145038167938931
5311007886670,1.920630624,3,-0.19632453613281248,-0.5303156677246094,-8.8872765625,-4.427480916030534,-0.33587786259541985,-3.16793893129771
5311013863389,1.926607343,3,-0.20829554443359374,-0.5770026000976562,-9.017760552978515,-4.458015267175573,-0.46564885496183206,-3.2290076335877864
5311019796670,1.932540624,3,-0.2442085693359375,-0.5315127685546874,-8.93755479736328,-4.465648854961832,-0.1450381679389313,-3.1603053435114505
5311025771514,1.938515468,3,-0.19393033447265623,-0.5817910034179687,-8.953117108154297,-4.450381679389313,-0.24427480916030533,-3.122137404580153
5311031729743,1.944473697,3,-0.19991583862304688,-0.565031591796875,-8.912415679931641,-4.465648854961832,-0.3435114503816794,-3.1068702290076335
5311037616722,1.950360676,3,-0.21188684692382811,-0.5159504577636719,-8.923189587402343,-4.4961832061068705,-0.3282442748091603,-3.053435114503817
5311043570420,1.956314374,3,-0.16519991455078123,-0.5015852478027344,-8.939948999023438,-4.435114503816794,-0.40458015267175573,-3.114503816793893
5311049485420,1.962229374,3,-0.20470424194335937,-0.5207388610839844,-8.932766394042968,-4.374045801526718,-0.2748091603053435,-3.183206106870229
5311055450420,1.968194374,3,-0.18555062866210936,-0.5530605834960938,-8.985438830566405,-4.488549618320611,-0.2748091603053435,-3.2061068702290076
5311061380159,1.974124113,3,-0.19871873779296872,-0.5327098693847656,-9.010577947998046,-4.442748091603053,-0.3282442748091603,-3.122137404580153
5311067308857,1.980052811,3,-0.16041151123046873,-0.5602431884765625,-8.998606939697265,-4.5038167938931295,-0.40458015267175573,-3.2213740458015265
5311073195524,1.985939478,3,-0.21428104858398436,-0.5327098693847656,-9.005789544677734,-4.442748091603053,-0.20610687022900764,-3.0763358778625953
5311079128753,1.991872707,3,-0.21308394775390624,-0.5710170959472656,-8.96987651977539,-4.351145038167939,-0.22900763358778625,-3.2442748091603053
5311085061930,1.997805884,3,-0.1771709228515625,-0.5255272644042969,-8.93875189819336,-4.526717557251908,-0.29770992366412213,-3.145038167938931
5311090973493,2.003717447,3,-0.21068974609375,-0.5291185668945312,-8.984241729736327,-4.480916030534351,-0.29770992366412213,-3.2977099236641223
5311096882555,2.009626509,3,-0.19153613281249998,-0.5470750793457031,-9.014169250488282,-4.419847328244275,-0.35877862595419846,-3.1068702290076335
5311102840420,2.015584374,3,-0.21068974609375,-0.5674257934570313,-8.921992486572265,-4.5038167938931295,-0.3282442748091603,-3.1374045801526718
5311108843961,2.021587915,3,-0.1927332336425781,-0.5482721801757812,-8.921992486572265,-4.488549618320611,-0.3053435114503817,-3.2290076335877864
5311114761722,2.027505676,3,-0.23582886352539062,-0.5410895751953124,-8.914809881591797,-4.450381679389313,-0.2748091603053435,-3.1526717557251906
5311120695420,2.033439374,3,-0.21308394775390624,-0.5626373901367188,-8.953117108154297,-4.442748091603053,-0.22900763358778625,-3.1908396946564888
5311126648441,2.039392395,3,-0.17118541870117188,-0.5590460876464843,-8.950722906494141,-4.419847328244275,-0.21374045801526717,-3.213740458015267
5311132567503,2.045311457,3,-0.22744915771484372,-0.5422866760253906,-8.965088116455078,-4.435114503816794,-0.24427480916030533,-3.16793893129771
5311138518909,2.051262863,3,-0.2166752502441406,-0.5506663818359374,-8.955511309814453,-4.3893129770992365,-0.22900763358778625,-3.145038167938931
5311144490524,2.057234478,3,-0.18555062866210936,-0.5674257934570313,-8.902838873291016,-4.458015267175573,-0.35877862595419846,-3.1526717557251906
5311150446618,2.063190572,3,-0.19393033447265623,-0.5614402893066406,-8.92438668823242,-4.473282442748092,-0.29770992366412213,-3.1526717557251906
5311156379274,2.069123228,3,-0.22385785522460935,-0.5374982727050781,-8.973467822265624,-4.32824427480916,-0.33587786259541985,-3.1374045801526718
5311162303649,2.075047603,3,-0.2154781494140625,-0.5243301635742187,-8.96269391479492,-4.435114503816794,-0.3816793893129771,-3.16793893129771
5311168233649,2.080977603,3,-0.1975216369628906,-0.5303156677246094,-8.92438668823242,-4.4961832061068705,-0.2748091603053435,-3.183206106870229
5311174194482,2.086938436,3,-0.21308394775390624,-0.4944026428222656,-8.985438830566405,-4.4961832061068705,-0.4122137404580153,-3.0839694656488548
5311180122920,2.092866874,3,-0.2442085693359375,-0.5267243652343749,-8.947131604003905,-4.412213740458015,-0.3053435114503817,-3.1068702290076335
5311186057711,2.098801665,3,-0.1927332336425781,-0.5386953735351562,-8.97705912475586,-4.435114503816794,-0.3282442748091603,-3.1526717557251906
5311192046409,2.104790363,3,-0.19632453613281248,-0.5339069702148437,-8.985438830566405,-4.343511450381679,-0.33587786259541985,-3.0839694656488548
5311198009378,2.110753332,3,-0.2657563842773437,-0.5219359619140624,-9.004592443847656,-4.3893129770992365,-0.33587786259541985,-3.1526717557251906
5311204076149,2.116820103,3,-0.1975216369628906,-0.5638344909667968,-8.95670841064453,-4.3893129770992365,-0.2900763358778626,-3.0610687022900764
5311210034118,2.122778072,3,-0.22385785522460935,-0.5470750793457031,-8.905233074951171,-4.435114503816794,-0.2824427480916031,-3.2061068702290076
5311215990107,2.128734061,3,-0.25737667846679685,-0.5363011718749999,-8.910021478271483,-4.396946564885496,-0.26717557251908397,-3.213740458015267
5311221978024,2.134721978,3,-0.15083470458984374,-0.5482721801757812,-8.987833032226561,-4.312977099236641,-0.25190839694656486,-3.1374045801526718
5311227993336,2.14073729,3,-0.2980781066894531,-0.565031591796875,-8.863334545898438,-4.465648854961832,-0.35877862595419846,-3.198473282442748
5311233997451,2.146741405,3,-0.21068974609375,-0.5159504577636719,-8.889670764160156,-4.3893129770992365,-0.37404580152671757,-3.183206106870229
5311239958649,2.152702603,3,-0.16879121704101563,-0.5291185668945312,-8.957905511474609,-4.419847328244275,-0.2748091603053435,-3.1603053435114505
5311245910003,2.158653957,3,-0.201112939453125,-0.5303156677246094,-8.966285217285156,-4.374045801526718,-0.2900763358778626,-3.1755725190839694
5311251875420,2.164619374,3,-0.19871873779296872,-0.5889736083984375,-9.011775048828124,-4.374045801526718,-0.2748091603053435,-3.1603053435114505
5311257902972,2.170646926,3,-0.20231004028320312,-0.5602431884765625,-8.932766394042968,-4.33587786259542,-0.1984732824427481,-3.1908396946564888
5311263865836,2.17660979,3,-0.21787235107421873,-0.5518634826660156,-8.93755479736328,-4.320610687022901,-0.26717557251908397,-3.0610687022900764
5311269844014,2.182587968,3,-0.20829554443359374,-0.5327098693847656,-8.923189587402343,-4.320610687022901,-0.2824427480916031,-3.2061068702290076
5311275790576,2.18853453,3,-0.22864625854492185,-0.5422866760253906,-8.98304462890625,-4.412213740458015,-0.37404580152671757,-3.2061068702290076
5311281768857,2.194512811,3,-0.23582886352539062,-0.5087678527832031,-8.89924757080078,-4.374045801526718,-0.3435114503816794,-3.145038167938931
5311287720628,2.200464582,3,-0.2262520568847656,-0.5039794494628906,-9.012972149658202,-4.450381679389313,-0.33587786259541985,-3.267175572519084
5311293611878,2.206355832,3,-0.1867477294921875,-0.5147533569335937,-8.933963494873046,-4.526717557251908,-0.2748091603053435,-3.1526717557251906
5311299561826,2.21230578,3,-0.17357962036132812,-0.5135562561035156,-8.93156929321289,-4.534351145038168,-0.1450381679389313,-3.0839694656488548
5311305471045,2.218214999,3,-0.21188684692382811,-0.5662286926269531,-8.997409838867187,-4.526717557251908,-0.25190839694656486,-3.2061068702290076
5311311425576,2.22416953,3,-0.16639701538085935,-0.5231330627441406,-8.935160595703124,-4.541984732824427,-0.366412213740458,-3.2290076335877864
5311317312034,2.230055988,3,-0.22026655273437498,-0.5446808776855468,-8.954314208984375,-4.343511450381679,-0.15267175572519084,-3.1755725190839694
5311323120055,2.235864009,3,-0.19632453613281248,-0.5339069702148437,-8.968679418945312,-4.374045801526718,-0.26717557251908397,-3.1908396946564888
5311329045107,2.241789061,3,-0.21308394775390624,-0.5386953735351562,-8.894459167480468,-4.312977099236641,-0.4198473282442748,-3.1374045801526718
5311334962711,2.247706665,3,-0.201112939453125,-0.5279214660644531,-8.8872765625,-4.396946564885496,-0.2595419847328244,-3.2442748091603053
5311340887555,2.253631509,3,-0.22266075439453123,-0.5458779785156249,-8.945934503173827,-4.374045801526718,-0.2748091603053435,-3.213740458015267
5311346856357,2.259600311,3,-0.22505495605468748,-0.5734112976074218,-8.936357696533202,-4.404580152671755,-0.35877862595419846,-3.1603053435114505
5311352843961,2.265587915,3,-0.20231004028320312,-0.5446808776855468,-8.927977990722656,-4.3816793893129775,-0.21374045801526717,-3.0839694656488548
5311358800055,2.271544009,3,-0.258573779296875,-0.5781997009277343,-8.892064965820312,-4.396946564885496,-0.22137404580152673,-3.1908396946564888
5311364729326,2.27747328,3,-0.21188684692382811,-0.5482721801757812,-8.967482318115234,-4.404580152671755,-0.22900763358778625,-3.2595419847328246
5311370650941,2.283394895,3,-0.20829554443359374,-0.5219359619140624,-9.004592443847656,-4.488549618320611,-0.3816793893129771,-3.2519083969465647
5311376585107,2.289329061,3,-0.1484405029296875,-0.5686228942871093,-8.912415679931641,-4.511450381679389,-0.3053435114503817,-3.1068702290076335
5311382512399,2.295256353,3,-0.20829554443359374,-0.5590460876464843,-8.904035974121093,-4.442748091603053,-0.25190839694656486,-3.2442748091603053
5311388436357,2.301180311,3,-0.23822306518554687,-0.5590460876464843,-8.968679418945312,-4.480916030534351,-0.3511450381679389,-3.2061068702290076
5311394371409,2.307115363,3,-0.20709844360351562,-0.5446808776855468,-8.888473663330078,-4.404580152671755,-0.32061068702290074,-3.2900763358778624
5311400302868,2.313046822,3,-0.19512743530273435,-0.5363011718749999,-8.951920007324219,-4.442748091603053,-0.31297709923664124,-3.122137404580153
5311406223649,2.318967603,3,-0.181959326171875,-0.5015852478027344,-8.889670764160156,-4.396946564885496,-0.3435114503816794,-3.045801526717557
5311412206201,2.324950155,3,-0.18555062866210936,-0.5722141967773438,-8.954314208984375,-4.5038167938931295,-0.40458015267175573,-3.1755725190839694
5311418098805,2.330842759,3,-0.30047230834960936,-0.5039794494628906,-8.930372192382812,-4.534351145038168,-0.2900763358778626,-3.145038167938931
5311424121305,2.336865259,3,-0.2059013427734375,-0.5494692810058593,-8.929175091552734,-4.4961832061068705,-0.37404580152671757,-3.2213740458015265
5311430036097,2.342780051,3,-0.20949264526367187,-0.5099649536132812,-8.967482318115234,-4.419847328244275,-0.40458015267175573,-3.1755725190839694
5311435945055,2.348689009,3,-0.21308394775390624,-0.5243301635742187,-8.936357696533202,-4.442748091603053,-0.3053435114503817,-3.099236641221374
5311441906670,2.354650624,3,-0.1580173095703125,-0.5063736511230469,-8.870517150878905,-4.366412213740458,-0.29770992366412213,-3.1374045801526718
5311447844743,2.360588697,3,-0.19512743530273435,-0.5386953735351562,-8.883685260009765,-4.3816793893129775,-0.4351145038167939,-3.1374045801526718
5311454600472,2.367344426,3,-0.24301146850585936,-0.5327098693847656,-8.911218579101561,-4.3893129770992365,-0.22900763358778625,-3.1755725190839694
5311460657920,2.373401874,3,-0.21068974609375,-0.5770026000976562,-8.992621435546875,-4.480916030534351,-0.20610687022900764,-3.1297709923664123
5311466965732,2.379709686,3,-0.21068974609375,-0.5195417602539062,-8.9255837890625,-4.458015267175573,-0.3511450381679389,-3.198473282442748
5311472897555,2.385641509,3,-0.20231004028320312,-0.5219359619140624,-8.920795385742187,-4.404580152671755,-0.2366412213740458,-3.16793893129771
5311478781253,2.391525207,3,-0.181959326171875,-0.5626373901367188,-8.919598284912109,-4.480916030534351,-0.19083969465648856,-3.2290076335877864
5311484745472,2.397489426,3,-0.19991583862304688,-0.5099649536132812,-8.966285217285156,-4.33587786259542,-0.40458015267175573,-3.213740458015267
5311490675211,2.403419165,3,-0.2166752502441406,-0.5386953735351562,-8.987833032226561,-4.465648854961832,-0.42748091603053434,-3.114503816793893
5311496583701,2.409327655,3,-0.20949264526367187,-0.5267243652343749,-8.954314208984375,-4.427480916030534,-0.3053435114503817,-3.1755725190839694
5311502491826,2.41523578,3,-0.18435352783203124,-0.5315127685546874,-8.966285217285156,-4.526717557251908,-0.2824427480916031,-3.114503816793893
5311508394430,2.421138384,3,-0.26815058593749996,-0.5602431884765625,-8.884882360839843,-4.396946564885496,-0.35877862595419846,-3.053435114503817
5311514302034,2.427045988,3,-0.19991583862304688,-0.5159504577636719,-8.93156929321289,-4.458015267175573,-0.24427480916030533,-3.1603053435114505
5311520234118,2.432978072,3,-0.19153613281249998,-0.5051765502929687,-9.009380847167968,-4.465648854961832,-0.2595419847328244,-3.16793893129771
5311526166878,2.438910832,3,-0.18315642700195311,-0.5518634826660156,-8.902838873291016,-4.465648854961832,-0.3816793893129771,-3.2213740458015265
5311532079691,2.444823645,3,-0.18914193115234373,-0.5530605834960938,-8.973467822265624,-4.427480916030534,-0.366412213740458,-3.114503816793893
5311537998128,2.450742082,3,-0.21787235107421873,-0.5267243652343749,-8.951920007324219,-4.419847328244275,-0.26717557251908397,-3.0916030534351147
5311543931201,2.456675155,3,-0.13168109130859373,-0.5255272644042969,-8.98304462890625,-4.3893129770992365,-0.2366412213740458,-3.1374045801526718
5311549985940,2.462729894,3,-0.18076222534179687,-0.5542576843261718,-8.898050469970702,-4.412213740458015,-0.42748091603053434,-3.099236641221374
5311555929847,2.468673801,3,-0.17357962036132812,-0.6141127258300781,-8.980650427246093,-4.396946564885496,-0.3053435114503817,-3.1068702290076335
5311561897763,2.474641717,3,-0.201112939453125,-0.55545478515625,-8.93755479736328,-4.412213740458015,-0.3053435114503817,-3.1603053435114505
5311567758180,2.480502134,3,-0.18315642700195311,-0.5626373901367188,-8.97705912475586,-4.442748091603053,-0.3053435114503817,-3.1297709923664123
5311573666513,2.486410467,3,-0.23702596435546874,-0.5051765502929687,-8.941146099853515,-4.3893129770992365,-0.25190839694656486,-3.114503816793893
5311579576774,2.492320728,3,-0.19632453613281248,-0.5470750793457031,-8.94473740234375,-4.419847328244275,-0.12213740458015267,-3.1068702290076335
5311585451253,2.498195207,3,-0.11611878051757812,-0.5734112976074218,-8.959102612304687,-4.435114503816794,-0.35877862595419846,-3.198473282442748
5311591452711,2.504196665,3,-0.19632453613281248,-0.5291185668945312,-9.028534460449219,-4.450381679389313,-0.4198473282442748,-3.183206106870229
5311597383024,2.510126978,3,-0.23582886352539062,-0.488417138671875,-8.950722906494141,-4.458015267175573,-0.22137404580152673,-3.2290076335877864
5311603262190,2.516006144,3,-0.2154781494140625,-0.5015852478027344,-8.984241729736327,-4.442748091603053,-0.33587786259541985,-3.1374045801526718
5311609169690,2.521913644,3,-0.23822306518554687,-0.5566518859863281,-8.950722906494141,-4.435114503816794,-0.5267175572519084,-3.1755725190839694
5311615065732,2.527809686,3,-0.24779987182617186,-0.5590460876464843,-8.955511309814453,-4.488549618320611,-0.3511450381679389,-3.1374045801526718
5311620920993,2.533664947,3,-0.2059013427734375,-0.49679684448242184,-8.93156929321289,-4.427480916030534,-0.1450381679389313,-3.198473282442748
5311626810003,2.539553957,3,-0.21068974609375,-0.5327098693847656,-8.954314208984375,-4.435114503816794,-0.33587786259541985,-3.099236641221374
5311632709534,2.545453488,3,-0.15682020874023436,-0.5746083984375,-8.898050469970702,-4.442748091603053,-0.3053435114503817,-3.0916030534351147
5311638641670,2.551385624,3,-0.2154781494140625,-0.5339069702148437,-8.8872765625,-4.3816793893129775,-0.3053435114503817,-3.183206106870229
5311644548180,2.557292134,3,-0.22744915771484372,-0.5530605834960938,-8.971073620605468,-4.366412213740458,-0.2824427480916031,-3.1297709923664123
5311650612451,2.563356405,3,-0.2657563842773437,-0.5327098693847656,-9.016563452148437,-4.450381679389313,-0.3969465648854962,-3.0839694656488548
5311656474743,2.569218697,3,-0.1975216369628906,-0.5566518859863281,-8.972270721435546,-4.427480916030534,-0.21374045801526717,-3.1374045801526718
5311662385368,2.575129322,3,-0.22505495605468748,-0.6021417175292968,-8.883685260009765,-4.450381679389313,-0.26717557251908397,-3.1755725190839694
5311668325055,2.581069009,3,-0.2262520568847656,-0.5458779785156249,-8.947131604003905,-4.366412213740458,-0.366412213740458,-3.1526717557251906
5311674234326,2.58697828,3,-0.22266075439453123,-0.5458779785156249,-8.975862023925782,-4.3893129770992365,-0.33587786259541985,-3.1526717557251906
5311680166565,2.592910519,3,-0.201112939453125,-0.5542576843261718,-8.889670764160156,-4.465648854961832,-0.2900763358778626,-3.16793893129771
5311686065159,2.598809113,3,-0.2442085693359375,-0.603338818359375,-9.009380847167968,-4.442748091603053,-0.2366412213740458,-3.1908396946564888
5311691974430,2.604718384,3,-0.18315642700195311,-0.5518634826660156,-8.935160595703124,-4.480916030534351,-0.3511450381679389,-3.1374045801526718
5311697932555,2.610676509,3,-0.18435352783203124,-0.5734112976074218,-8.942343200683593,-4.404580152671755,-0.21374045801526717,-3.183206106870229
5311703892034,2.616635988,3,-0.20231004028320312,-0.5434837768554687,-8.98304462890625,-4.419847328244275,-0.24427480916030533,-3.1603053435114505
5311709835993,2.622579947,3,-0.1867477294921875,-0.5518634826660156,-8.948328704833983,-4.442748091603053,-0.3511450381679389,-3.053435114503817
5311715770107,2.628514061,3,-0.23104046020507812,-0.5135562561035156,-8.979453326416015,-4.412213740458015,-0.3282442748091603,-3.2213740458015265
5311721678649,2.634422603,3,-0.1867477294921875,-0.5279214660644531,-8.960299713134765,-4.419847328244275,-0.2748091603053435,-3.099236641221374
5311727582763,2.640326717,3,-0.22385785522460935,-0.5542576843261718,-9.038111267089842,-4.450381679389313,-0.3282442748091603,-3.1603053435114505
5311733451982,2.646195936,3,-0.18555062866210936,-0.5530605834960938,-9.003395343017578,-4.442748091603053,-0.32061068702290074,-3.114503816793893
5311739352451,2.652096405,3,-0.1879448303222656,-0.5518634826660156,-8.96269391479492,-4.374045801526718,-0.25190839694656486,-3.213740458015267
5311745248649,2.657992603,3,-0.2154781494140625,-0.5770026000976562,-8.92438668823242,-4.404580152671755,-0.2748091603053435,-3.2061068702290076
5311751140628,2.663884582,3,-0.18914193115234373,-0.5159504577636719,-8.865728747558594,-4.511450381679389,-0.42748091603053434,-3.2213740458015265
5311757048597,2.669792551,3,-0.20829554443359374,-0.4991910461425781,-8.949525805664061,-4.450381679389313,-0.17557251908396945,-3.122137404580153
5311762914065,2.675658019,3,-0.20231004028320312,-0.5686228942871093,-8.985438830566405,-4.480916030534351,-0.31297709923664124,-3.1755725190839694
5311768786253,2.681530207,3,-0.21068974609375,-0.5434837768554687,-8.905233074951171,-4.465648854961832,-0.3816793893129771,-3.236641221374046
5311774689430,2.687433384,3,-0.1879448303222656,-0.5231330627441406,-8.941146099853515,-4.465648854961832,-0.37404580152671757,-3.183206106870229
5311780611670,2.693355624,3,-0.21906945190429686,-0.5877765075683593,-8.9255837890625,-4.427480916030534,-0.25190839694656486,-3.1374045801526718
5311786512920,2.699256874,3,-0.18555062866210936,-0.5063736511230469,-8.933963494873046,-4.404580152671755,-0.3282442748091603,-3.0610687022900764
5311792413128,2.705157082,3,-0.201112939453125,-0.5422866760253906,-9.004592443847656,-4.351145038167939,-0.29770992366412213,-3.1068702290076335
5311798330888,2.711074842,3,-0.23223756103515625,-0.5398924743652344,-8.89924757080078,-4.442748091603053,-0.32061068702290074,-3.045801526717557
5311804224847,2.716968801,3,-0.19991583862304688,-0.5494692810058593,-8.97705912475586,-4.351145038167939,-0.366412213740458,-3.1908396946564888
5311810089586,2.72283354,3,-0.1975216369628906,-0.5482721801757812,-8.908824377441405,-4.358778625954199,-0.35877862595419846,-3.1068702290076335
5311815979690,2.728723644,3,-0.18435352783203124,-0.565031591796875,-8.992621435546875,-4.450381679389313,-0.4580152671755725,-3.183206106870229
5311822012972,2.734756926,3,-0.20709844360351562,-0.5219359619140624,-8.96987651977539,-4.32824427480916,-0.2824427480916031,-3.030534351145038
5311827943388,2.740687342,3,-0.18076222534179687,-0.5291185668945312,-8.999804040527343,-4.3893129770992365,-0.42748091603053434,-3.145038167938931
5311833899222,2.746643176,3,-0.22266075439453123,-0.5422866760253906,-8.929175091552734,-4.366412213740458,-0.4122137404580153,-3.2442748091603053
5311839814378,2.752558332,3,-0.23343466186523437,-0.5398924743652344,-8.94473740234375,-4.419847328244275,-0.16793893129770993,-3.1755725190839694
5311845745263,2.758489217,3,-0.19393033447265623,-0.5506663818359374,-8.987833032226561,-4.427480916030534,-0.2748091603053435,-3.1374045801526718
5311851658440,2.764402394,3,-0.21188684692382811,-0.49200844116210934,-8.914809881591797,-4.458015267175573,-0.22137404580152673,-3.236641221374046
5311857606409,2.770350363,3,-0.22744915771484372,-0.5614402893066406,-9.011775048828124,-4.419847328244275,-0.15267175572519084,-3.1603053435114505
5311863510992,2.776254946,3,-0.22744915771484372,-0.5626373901367188,-8.94473740234375,-4.396946564885496,-0.21374045801526717,-3.0763358778625953
5311869444274,2.782188228,3,-0.15562310791015624,-0.5231330627441406,-8.987833032226561,-4.419847328244275,-0.32061068702290074,-3.1526717557251906
5311875341461,2.788085415,3,-0.201112939453125,-0.5446808776855468,-9.076418493652342,-4.366412213740458,-0.33587786259541985,-3.1603053435114505
5311881293805,2.794037759,3,-0.24660277099609373,-0.5410895751953124,-8.93755479736328,-4.511450381679389,-0.25190839694656486,-3.1297709923664123
5311887260211,2.800004165,3,-0.2262520568847656,-0.5267243652343749,-8.929175091552734,-4.465648854961832,-0.40458015267175573,-3.1526717557251906
5311893159482,2.805903436,3,-0.19871873779296872,-0.5363011718749999,-8.960299713134765,-4.358778625954199,-0.366412213740458,-3.1908396946564888
5311899060524,2.811804478,3,-0.18914193115234373,-0.5566518859863281,-9.00100114135742,-4.435114503816794,-0.32061068702290074,-3.122137404580153
5311904996201,2.817740155,3,-0.1388636962890625,-0.5518634826660156,-8.923189587402343,-4.5038167938931295,-0.31297709923664124,-3.183206106870229
5311910879795,2.823623749,3,-0.2154781494140625,-0.5398924743652344,-8.961496813964843,-4.435114503816794,-0.31297709923664124,-3.045801526717557
5311916870992,2.829614946,3,-0.20709844360351562,-0.5374982727050781,-8.911218579101561,-4.465648854961832,-0.31297709923664124,-3.0229007633587788
5311922810680,2.835554634,3,-0.16160861206054686,-0.5662286926269531,-8.836998327636719,-4.396946564885496,-0.3511450381679389,-3.099236641221374
5311928706149,2.841450103,3,-0.19632453613281248,-0.5638344909667968,-9.003395343017578,-4.374045801526718,-0.3282442748091603,-3.1603053435114505
5311934632347,2.847376301,3,-0.1927332336425781,-0.5063736511230469,-8.987833032226561,-4.358778625954199,-0.3511450381679389,-3.0381679389312977
5311940532086,2.85327604,3,-0.17118541870117188,-0.5135562561035156,-8.999804040527343,-4.458015267175573,-0.22137404580152673,-3.198473282442748
5311946410524,2.859154478,3,-0.18435352783203124,-0.5734112976074218,-8.916006982421875,-4.374045801526718,-0.20610687022900764,-3.0916030534351147
5311952364117,2.865108071,3,-0.19632453613281248,-0.5303156677246094,-8.999804040527343,-4.450381679389313,-0.4198473282442748,-3.1755725190839694
5311958271670,2.871015624,3,-0.22864625854492185,-0.5422866760253906,-8.90044467163086,-4.3816793893129775,-0.2824427480916031,-3.1908396946564888
5311964168753,2.876912707,3,-0.20709844360351562,-0.5231330627441406,-8.834604125976561,-4.343511450381679,-0.22900763358778625,-3.114503816793893
5311970080992,2.882824946,3,-0.2825157958984375,-0.5446808776855468,-8.96269391479492,-4.526717557251908,-0.35877862595419846,-3.1755725190839694
5311976033753,2.888777707,3,-0.20709844360351562,-0.5315127685546874,-8.975862023925782,-4.442748091603053,-0.3435114503816794,-3.1526717557251906
5311981965940,2.894709894,3,-0.17836802368164062,-0.5279214660644531,-8.917204083251953,-4.465648854961832,-0.26717557251908397,-3.0916030534351147
5311987890888,2.900634842,3,-0.24301146850585936,-0.5518634826660156,-9.006986645507812,-4.419847328244275,-0.3893129770992366,-3.145038167938931
5311993912815,2.906656769,3,-0.22864625854492185,-0.5063736511230469,-8.884882360839843,-4.404580152671755,-0.32061068702290074,-3.1297709923664123
5311999862347,2.912606301,3,-0.19393033447265623,-0.594959112548828,-8.896853369140624,-4.3893129770992365,-0.32061068702290074,-3.1068702290076335
5312005815107,2.918559061,3,-0.1867477294921875,-0.5518634826660156,-8.945934503173827,-4.358778625954199,-0.26717557251908397,-3.1603053435114505
5312011731669,2.924475623,3,-0.1975216369628906,-0.5674257934570313,-8.9255837890625,-4.374045801526718,-0.3053435114503817,-3.0839694656488548
5312017600524,2.930344478,3,-0.2442085693359375,-0.5865794067382812,-8.947131604003905,-4.351145038167939,-0.2366412213740458,-3.1603053435114505
5312023496617,2.936240571,3,-0.20470424194335937,-0.5506663818359374,-8.923189587402343,-4.442748091603053,-0.2595419847328244,-3.122137404580153
5312029369430,2.942113384,3,-0.22505495605468748,-0.565031591796875,-8.919598284912109,-4.4961832061068705,-0.2595419847328244,-3.16793893129771
5312035286982,2.948030936,3,-0.2442085693359375,-0.5135562561035156,-8.933963494873046,-4.358778625954199,-0.2748091603053435,-3.053435114503817
5312041177034,2.953920988,3,-0.12210428466796874,-0.5710170959472656,-8.91840118408203,-4.458015267175573,-0.2748091603053435,-3.145038167938931
5312047087086,2.95983104,3,-0.19393033447265623,-0.5662286926269531,-8.907627276611327,-4.450381679389313,-0.48854961832061067,-3.0763358778625953
5312052988024,2.965731978,3,-0.19632453613281248,-0.4860229370117187,-9.005789544677734,-4.519083969465649,-0.42748091603053434,-3.1297709923664123
5312058835055,2.971579009,3,-0.20470424194335937,-0.5686228942871093,-8.989030133056641,-4.458015267175573,-0.29770992366412213,-3.1755725190839694
5312064690524,2.977434478,3,-0.229843359375,-0.5578489868164063,-8.939948999023438,-4.427480916030534,-0.2824427480916031,-3.1755725190839694
5312070626826,2.98337078,3,-0.16639701538085935,-0.5374982727050781,-8.968679418945312,-4.3893129770992365,-0.3969465648854962,-3.213740458015267
5312076520576,2.98926453,3,-0.17956512451171874,-0.5446808776855468,-8.968679418945312,-4.32824427480916,-0.3282442748091603,-3.099236641221374
5312082403805,2.995147759,3,-0.18435352783203124,-0.5315127685546874,-9.016563452148437,-4.473282442748092,-0.2748091603053435,-3.145038167938931
5312088357347,3.001101301,3,-0.22744915771484372,-0.4848258361816406,-8.889670764160156,-4.3893129770992365,-0.44274809160305345,-3.122137404580153
5312094264847,3.007008801,3,-0.2154781494140625,-0.5506663818359374,-8.981847528076171,-4.419847328244275,-0.44274809160305345,-3.1068702290076335
5312100146357,3.012890311,3,-0.20829554443359374,-0.5123591552734374,-8.91840118408203,-4.33587786259542,-0.2824427480916031,-3.0839694656488548
5312106040055,3.018784009,3,-0.18555062866210936,-0.565031591796875,-8.987833032226561,-4.3816793893129775,-0.2366412213740458,-3.099236641221374
5312111981149,3.024725103,3,-0.2166752502441406,-0.5566518859863281,-8.93875189819336,-4.3816793893129775,-0.33587786259541985,-3.1297709923664123
5312117937399,3.030681353,3,-0.16519991455078123,-0.5351040710449219,-8.933963494873046,-4.427480916030534,-0.2366412213740458,-3.1068702290076335
5312123852659,3.036596613,3,-0.18076222534179687,-0.5566518859863281,-9.02733735961914,-4.458015267175573,-0.24427480916030533,-3.122137404580153
5312129798388,3.042542342,3,-0.22026655273437498,-0.5781997009277343,-8.919598284912109,-4.4961832061068705,-0.37404580152671757,-3.114503816793893
5312135717815,3.048461769,3,-0.21308394775390624,-0.5674257934570313,-8.890867864990234,-4.488549618320611,-0.4351145038167939,-3.2290076335877864
5312141620263,3.054364217,3,-0.2166752502441406,-0.5458779785156249,-9.012972149658202,-4.419847328244275,-0.29770992366412213,-3.1908396946564888
5312147488492,3.060232446,3,-0.1640028137207031,-0.48722003784179685,-8.989030133056641,-4.343511450381679,-0.3893129770992366,-3.114503816793893
5312153461982,3.066205936,3,-0.18914193115234373,-0.5638344909667968,-8.948328704833983,-4.374045801526718,-0.2824427480916031,-3.183206106870229
5312159410680,3.072154634,3,-0.1927332336425781,-0.5422866760253906,-9.006986645507812,-4.427480916030534,-0.2748091603053435,-3.114503816793893
5312165305211,3.078049165,3,-0.24181436767578124,-0.5410895751953124,-8.979453326416015,-4.3893129770992365,-0.22900763358778625,-3.1526717557251906
5312171208961,3.083952915,3,-0.15442600708007811,-0.5770026000976562,-8.896853369140624,-4.3893129770992365,-0.4122137404580153,-3.16793893129771
5312177067503,3.089811457,3,-0.20829554443359374,-0.5410895751953124,-8.92438668823242,-4.480916030534351,-0.20610687022900764,-3.2061068702290076
5312182950940,3.095694894,3,-0.17477672119140625,-0.5267243652343749,-8.967482318115234,-4.419847328244275,-0.26717557251908397,-3.099236641221374
5312188843128,3.101587082,3,-0.2442085693359375,-0.5231330627441406,-8.949525805664061,-4.419847328244275,-0.31297709923664124,-3.099236641221374
5312194786096,3.10753005,3,-0.20350714111328125,-0.5339069702148437,-8.96987651977539,-4.473282442748092,-0.4198473282442748,-3.0916030534351147
5312200686461,3.113430415,3,-0.22266075439453123,-0.5614402893066406,-8.941146099853515,-4.435114503816794,-0.3435114503816794,-3.16793893129771
5312206586565,3.119330519,3,-0.17118541870117188,-0.5470750793457031,-8.984241729736327,-4.419847328244275,-0.2900763358778626,-3.145038167938931
5312212476721,3.125220675,3,-0.2346317626953125,-0.5231330627441406,-8.957905511474609,-4.404580152671755,-0.2900763358778626,-3.183206106870229
5312218370107,3.131114061,3,-0.19512743530273435,-0.5482721801757812,-8.967482318115234,-4.4961832061068705,-0.22137404580152673,-3.099236641221374
5312224378596,3.13712255,3,-0.181959326171875,-0.5051765502929687,-8.921992486572265,-4.312977099236641,-0.24427480916030533,-3.0839694656488548
5312230283336,3.14302729,3,-0.2059013427734375,-0.5374982727050781,-8.996212738037109,-4.32824427480916,-0.3969465648854962,-3.099236641221374
5312236215003,3.148958957,3,-0.21906945190429686,-0.5087678527832031,-8.923189587402343,-4.419847328244275,-0.31297709923664124,-3.2061068702290076
5312242208909,3.154952863,3,-0.22026655273437498,-0.5518634826660156,-8.990227233886719,-4.480916030534351,-0.42748091603053434,-3.198473282442748
5312248128284,3.160872238,3,-0.1771709228515625,-0.5039794494628906,-8.88009395751953,-4.549618320610687,-0.366412213740458,-3.099236641221374
5312254047190,3.166791144,3,-0.16280571289062498,-0.5279214660644531,-8.959102612304687,-4.427480916030534,-0.2748091603053435,-3.1297709923664123
5312259973857,3.172717811,3,-0.19512743530273435,-0.5315127685546874,-8.968679418945312,-4.3816793893129775,-0.32061068702290074,-3.1755725190839694
5312265898388,3.178642342,3,-0.21308394775390624,-0.5793968017578125,-8.953117108154297,-4.396946564885496,-0.32061068702290074,-3.1297709923664123
5312271833701,3.184577655,3,-0.1975216369628906,-0.5865794067382812,-8.998606939697265,-4.488549618320611,-0.2824427480916031,-3.1755725190839694
5312277758232,3.190502186,3,-0.20829554443359374,-0.5147533569335937,-9.0021982421875,-4.534351145038168,-0.2824427480916031,-3.2061068702290076
5312283647711,3.196391665,3,-0.1580173095703125,-0.5446808776855468,-8.959102612304687,-4.526717557251908,-0.26717557251908397,-3.145038167938931
5312289606096,3.20235005,3,-0.21906945190429686,-0.5219359619140624,-8.936357696533202,-4.458015267175573,-0.2366412213740458,-3.183206106870229
5312295509899,3.208253853,3,-0.20470424194335937,-0.5997475158691405,-8.971073620605468,-4.442748091603053,-0.3893129770992366,-3.198473282442748
5312301383180,3.214127134,3,-0.19632453613281248,-0.5147533569335937,-8.911218579101561,-4.435114503816794,-0.3511450381679389,-3.122137404580153
5312307291305,3.220035259,3,-0.21787235107421873,-0.5446808776855468,-8.913612780761719,-4.435114503816794,-0.32061068702290074,-3.1908396946564888
5312313072190,3.225816144,3,-0.17118541870117188,-0.5159504577636719,-8.961496813964843,-4.358778625954199,-0.25190839694656486,-3.114503816793893
5312318952815,3.231696769,3,-0.22385785522460935,-0.55545478515625,-8.968679418945312,-4.3816793893129775,-0.3969465648854962,-3.0839694656488548
5312324849326,3.23759328,3,-0.1640028137207031,-0.5446808776855468,-8.941146099853515,-4.366412213740458,-0.24427480916030533,-3.1526717557251906
5312330775055,3.243519009,3,-0.22385785522460935,-0.5482721801757812,-8.942343200683593,-4.427480916030534,-0.2900763358778626,-3.183206106870229
5312336694638,3.249438592,3,-0.23223756103515625,-0.5099649536132812,-8.948328704833983,-4.3816793893129775,-0.33587786259541985,-3.1374045801526718
5312342615628,3.255359582,3,-0.2346317626953125,-0.5901707092285156,-8.932766394042968,-4.396946564885496,-0.3969465648854962,-3.236641221374046
5312348531721,3.261275675,3,-0.19033903198242186,-0.5374982727050781,-8.965088116455078,-4.3816793893129775,-0.29770992366412213,-3.16793893129771
5312354442138,3.267186092,3,-0.17477672119140625,-0.5303156677246094,-8.967482318115234,-4.450381679389313,-0.3511450381679389,-3.1374045801526718
5312360387242,3.273131196,3,-0.17118541870117188,-0.5315127685546874,-8.939948999023438,-4.396946564885496,-0.35877862595419846,-3.1374045801526718
5312366322399,3.279066353,3,-0.20350714111328125,-0.5398924743652344,-8.954314208984375,-4.442748091603053,-0.37404580152671757,-3.114503816793893
5312372222034,3.284965988,3,-0.20350714111328125,-0.5626373901367188,-8.90643017578125,-4.442748091603053,-0.32061068702290074,-3.0916030534351147
5312378114794,3.290858748,3,-0.23343466186523437,-0.5470750793457031,-8.985438830566405,-4.366412213740458,-0.3282442748091603,-3.16793893129771
5312384048492,3.296792446,3,-0.1879448303222656,-0.5458779785156249,-8.978256225585938,-4.450381679389313,-0.2748091603053435,-3.0763358778625953
5312389974794,3.302718748,3,-0.21188684692382811,-0.5518634826660156,-9.022548956298827,-4.435114503816794,-0.4580152671755725,-3.1374045801526718
5312395889899,3.308633853,3,-0.21428104858398436,-0.5315127685546874,-8.95670841064453,-4.572519083969466,-0.2900763358778626,-3.2442748091603053
5312401831149,3.314575103,3,-0.18555062866210936,-0.5518634826660156,-8.959102612304687,-4.480916030534351,-0.25190839694656486,-3.068702290076336
5312407775263,3.320519217,3,-0.19033903198242186,-0.5590460876464843,-8.981847528076171,-4.480916030534351,-0.3816793893129771,-3.1526717557251906
5312413674273,3.326418227,3,-0.2166752502441406,-0.5135562561035156,-8.910021478271483,-4.557251908396947,-0.29770992366412213,-3.2213740458015265
5312419584638,3.332328592,3,-0.18555062866210936,-0.5614402893066406,-8.974664923095702,-4.465648854961832,-0.19083969465648856,-3.1755725190839694
5312425454638,3.338198592,3,-0.19871873779296872,-0.5279214660644531,-8.914809881591797,-4.396946564885496,-0.3511450381679389,-3.1603053435114505
5312431320784,3.344064738,3,-0.20231004028320312,-0.5363011718749999,-8.965088116455078,-4.320610687022901,-0.2900763358778626,-3.213740458015267
5312437280732,3.350024686,3,-0.17597382202148437,-0.5027823486328125,-8.96987651977539,-4.488549618320611,-0.29770992366412213,-3.1068702290076335
5312443156044,3.355899998,3,-0.18315642700195311,-0.5183446594238281,-8.884882360839843,-4.419847328244275,-0.3053435114503817,-3.282442748091603
5312449076253,3.361820207,3,-0.23104046020507812,-0.5746083984375,-8.986635931396483,-4.3893129770992365,-0.3969465648854962,-3.2213740458015265
5312454981773,3.367725727,3,-0.21787235107421873,-0.5039794494628906,-8.9255837890625,-4.534351145038168,-0.21374045801526717,-3.1068702290076335
5312460893596,3.37363755,3,-0.1927332336425781,-0.5422866760253906,-8.911218579101561,-4.366412213740458,-0.32061068702290074,-3.145038167938931
5312466817294,3.379561248,3,-0.1640028137207031,-0.5339069702148437,-8.907627276611327,-4.374045801526718,-0.366412213740458,-3.2061068702290076
5312472685888,3.385429842,3,-0.19871873779296872,-0.5243301635742187,-8.95670841064453,-4.480916030534351,-0.25190839694656486,-3.099236641221374
5312478631305,3.391375259,3,-0.19393033447265623,-0.5482721801757812,-8.939948999023438,-4.366412213740458,-0.26717557251908397,-3.1603053435114505
5312484547294,3.397291248,3,-0.15682020874023436,-0.5722141967773438,-8.92438668823242,-4.458015267175573,-0.35877862595419846,-3.183206106870229
5312490377503,3.403121457,3,-0.18315642700195311,-0.5339069702148437,-8.953117108154297,-4.374045801526718,-0.3893129770992366,-3.1374045801526718
5312496308076,3.40905203,3,-0.22505495605468748,-0.5374982727050781,-8.981847528076171,-4.404580152671755,-0.31297709923664124,-3.16793893129771
5312502211096,3.41495505,3,-0.22744915771484372,-0.51714755859375,-8.93755479736328,-4.458015267175573,-0.2595419847328244,-3.213740458015267
5312508114586,3.42085854,3,-0.2214636535644531,-0.5327098693847656,-8.926780889892578,-4.541984732824427,-0.3816793893129771,-3.1908396946564888
5312514042763,3.426786717,3,-0.17118541870117188,-0.5410895751953124,-8.993818536376953,-4.473282442748092,-0.31297709923664124,-3.099236641221374
5312519971148,3.432715102,3,-0.21068974609375,-0.5159504577636719,-8.933963494873046,-4.3816793893129775,-0.2595419847328244,-3.0839694656488548
5312525914898,3.438658852,3,-0.16639701538085935,-0.5363011718749999,-8.901641772460938,-4.404580152671755,-0.2748091603053435,-3.145038167938931
5312531840367,3.444584321,3,-0.16759411621093748,-0.565031591796875,-8.94473740234375,-4.450381679389313,-0.31297709923664124,-3.1603053435114505
5312537785003,3.450528957,3,-0.16879121704101563,-0.5674257934570313,-8.951920007324219,-4.5038167938931295,-0.26717557251908397,-3.1526717557251906
5312543708232,3.456452186,3,-0.2166752502441406,-0.5111620544433594,-8.90643017578125,-4.480916030534351,-0.3435114503816794,-3.0916030534351147
5312549613701,3.462357655,3,-0.2609679809570312,-0.5351040710449219,-8.833407025146483,-4.435114503816794,-0.4580152671755725,-3.1755725190839694
5312555519846,3.4682638,3,-0.20231004028320312,-0.5770026000976562,-9.023746057128905,-4.396946564885496,-0.16793893129770993,-3.1068702290076335
5312561391096,3.47413505,3,-0.18914193115234373,-0.5051765502929687,-9.011775048828124,-4.435114503816794,-0.31297709923664124,-3.0610687022900764
5312567360784,3.480104738,3,-0.17118541870117188,-0.5279214660644531,-9.05367357788086,-4.473282442748092,-0.3282442748091603,-3.0381679389312977
5312573217346,3.4859613,3,-0.17836802368164062,-0.5422866760253906,-8.985438830566405,-4.396946564885496,-0.29770992366412213,-3.0916030534351147
5312579132346,3.4918763,3,-0.20949264526367187,-0.5458779785156249,-8.926780889892578,-4.442748091603053,-0.2366412213740458,-3.1068702290076335
5312585032086,3.49777604,3,-0.1771709228515625,-0.5027823486328125,-8.95670841064453,-4.396946564885496,-0.25190839694656486,-3.145038167938931
5312591546773,3.504290727,3,-0.2059013427734375,-0.5398924743652344,-8.914809881591797,-4.511450381679389,-0.3435114503816794,-3.1908396946564888
5312598918805,3.511662759,3,-0.11731588134765625,-0.5099649536132812,-8.950722906494141,-4.473282442748092,-0.22137404580152673,-3.16793893129771
5312606263544,3.519007498,3,-0.18315642700195311,-0.5291185668945312,-8.966285217285156,-4.396946564885496,-0.37404580152671757,-3.145038167938931
5312613622867,3.526366821,3,-0.17477672119140625,-0.5434837768554687,-8.97705912475586,-4.465648854961832,-0.22900763358778625,-3.145038167938931
5312620950263,3.533694217,3,-0.16519991455078123,-0.5674257934570313,-8.941146099853515,-4.450381679389313,-0.2748091603053435,-3.1526717557251906
5312628289846,3.5410338,3,-0.22385785522460935,-0.5590460876464843,-8.943540301513671,-4.480916030534351,-0.3816793893129771,-3.16793893129771
5312635644794,3.548388748,3,-0.18315642700195311,-0.5530605834960938,-8.997409838867187,-4.549618320610687,-0.25190839694656486,-3.0763358778625953
5312642965159,3.555709113,3,-0.20709844360351562,-0.565031591796875,-8.923189587402343,-4.480916030534351,-0.35877862595419846,-3.1297709923664123
5312650343336,3.56308729,3,-0.15203180541992187,-0.5255272644042969,-8.965088116455078,-4.396946564885496,-0.3282442748091603,-3.16793893129771
5312657658075,3.570402029,3,-0.1927332336425781,-0.5590460876464843,-9.00100114135742,-4.450381679389313,-0.183206106870229,-3.122137404580153
5312664969273,3.577713227,3,-0.20350714111328125,-0.5315127685546874,-8.890867864990234,-4.442748091603053,-0.35877862595419846,-3.0916030534351147
5312672294065,3.585038019,3,-0.18315642700195311,-0.5662286926269531,-9.029731561279297,-4.3816793893129775,-0.21374045801526717,-3.1068702290076335
5312679629794,3.592373748,3,-0.22505495605468748,-0.55545478515625,-8.973467822265624,-4.412213740458015,-0.22137404580152673,-3.198473282442748
5312686931253,3.599675207,3,-0.19033903198242186,-0.5638344909667968,-8.90044467163086,-4.4961832061068705,-0.3969465648854962,-3.0916030534351147
5312694331982,3.607075936,3,-0.1580173095703125,-0.5422866760253906,-8.88607946166992,-4.419847328244275,-0.3435114503816794,-3.1297709923664123
5312701653023,3.614396977,3,-0.2059013427734375,-0.5422866760253906,-8.954314208984375,-4.305343511450381,-0.2748091603053435,-3.1374045801526718
5312709020315,3.621764269,3,-0.2262520568847656,-0.5686228942871093,-8.951920007324219,-4.32824427480916,-0.4198473282442748,-3.0763358778625953
5312716332034,3.629075988,3,-0.16160861206054686,-0.5135562561035156,-8.904035974121093,-4.465648854961832,-0.22900763358778625,-3.1374045801526718
5312723675419,3.636419373,3,-0.201112939453125,-0.51714755859375,-8.945934503173827,-4.3816793893129775,-0.3435114503816794,-3.1908396946564888
5312730923284,3.643667238,3,-0.19512743530273435,-0.5805939025878906,-9.006986645507812,-4.465648854961832,-0.32061068702290074,-3.0610687022900764
5312738305784,3.651049738,3,-0.2166752502441406,-0.5698199951171875,-8.948328704833983,-4.374045801526718,-0.3053435114503817,-3.1603053435114505
5312745602607,3.658346561,3,-0.2214636535644531,-0.5111620544433594,-8.89924757080078,-4.3893129770992365,-0.31297709923664124,-3.099236641221374
5312752949013,3.665692967,3,-0.17238251953125,-0.5051765502929687,-8.941146099853515,-4.488549618320611,-0.3435114503816794,-3.1297709923664123
5312760288232,3.673032186,3,-0.201112939453125,-0.5195417602539062,-8.86094034423828,-4.419847328244275,-0.20610687022900764,-3.0763358778625953
5312767625940,3.680369894,3,-0.18914193115234373,-0.5542576843261718,-8.974664923095702,-4.435114503816794,-0.3282442748091603,-3.2442748091603053
5312774925315,3.687669269,3,-0.20709844360351562,-0.5506663818359374,-8.901641772460938,-4.396946564885496,-0.3816793893129771,-3.068702290076336
5312782280940,3.695024894,3,-0.24301146850585936,-0.5518634826660156,-8.914809881591797,-4.419847328244275,-0.40458015267175573,-3.1297709923664123
5312789598180,3.702342134,3,-0.22385785522460935,-0.5123591552734374,-9.029731561279297,-4.458015267175573,-0.3435114503816794,-3.198473282442748
5312796934430,3.709678384,3,-0.201112939453125,-0.565031591796875,-8.908824377441405,-4.435114503816794,-0.1984732824427481,-3.114503816793893
5312804301148,3.717045102,3,-0.2154781494140625,-0.5494692810058593,-9.029731561279297,-4.442748091603053,-0.2900763358778626,-3.1297709923664123
5312811540523,3.724284477,3,-0.18914193115234373,-0.5255272644042969,-8.920795385742187,-4.450381679389313,-0.3816793893129771,-3.030534351145038
5312818911409,3.731655363,3,-0.1867477294921875,-0.5147533569335937,-8.902838873291016,-4.5038167938931295,-0.1984732824427481,-3.0839694656488548
5312826259482,3.739003436,3,-0.20829554443359374,-0.5123591552734374,-8.972270721435546,-4.419847328244275,-0.4122137404580153,-3.1068702290076335
5312833618961,3.746362915,3,-0.16041151123046873,-0.5470750793457031,-8.96987651977539,-4.458015267175573,-0.35877862595419846,-3.1908396946564888
5312840970107,3.753714061,3,-0.18914193115234373,-0.507570751953125,-8.927977990722656,-4.450381679389313,-0.26717557251908397,-3.0839694656488548
5312848293648,3.761037602,3,-0.239420166015625,-0.5135562561035156,-8.876502655029297,-4.351145038167939,-0.4122137404580153,-3.1297709923664123
5312855645523,3.768389477,3,-0.23582886352539062,-0.5865794067382812,-8.921992486572265,-4.3816793893129775,-0.17557251908396945,-3.0916030534351147
5312863009898,3.775753852,3,-0.19153613281249998,-0.5410895751953124,-8.967482318115234,-4.419847328244275,-0.31297709923664124,-3.1068702290076335
5312870402659,3.783146613,3,-0.22026655273437498,-0.5590460876464843,-8.950722906494141,-4.3893129770992365,-0.3282442748091603,-3.0763358778625953
5312877780940,3.790524894,3,-0.201112939453125,-0.5734112976074218,-8.981847528076171,-4.442748091603053,-0.183206106870229,-3.1603053435114505
5312885070159,3.797814113,3,-0.17836802368164062,-0.488417138671875,-8.930372192382812,-4.320610687022901,-0.2595419847328244,-3.16793893129771
5312892487711,3.805231665,3,-0.19632453613281248,-0.5518634826660156,-8.933963494873046,-4.435114503816794,-0.37404580152671757,-3.114503816793893
5312899849534,3.812593488,3,-0.17597382202148437,-0.5997475158691405,-8.936357696533202,-4.412213740458015,-0.17557251908396945,-3.145038167938931
5312907262190,3.820006144,3,-0.24779987182617186,-0.5626373901367188,-8.950722906494141,-4.435114503816794,-0.26717557251908397,-3.1297709923664123
5312914572086,3.82731604,3,-0.2214636535644531,-0.5494692810058593,-8.965088116455078,-4.351145038167939,-0.22137404580152673,-3.0763358778625953
5312921920888,3.834664842,3,-0.19512743530273435,-0.5542576843261718,-9.02135185546875,-4.343511450381679,-0.31297709923664124,-3.1603053435114505
5312929249950,3.841993904,3,-0.19991583862304688,-0.5195417602539062,-8.927977990722656,-4.404580152671755,-0.366412213740458,-3.1526717557251906
5312936627867,3.849371821,3,-0.2154781494140625,-0.5518634826660156,-8.93755479736328,-4.358778625954199,-0.42748091603053434,-3.122137404580153
5312943939586,3.85668354,3,-0.21428104858398436,-0.5303156677246094,-8.966285217285156,-4.435114503816794,-0.31297709923664124,-3.183206106870229
5312951271513,3.864015467,3,-0.22026655273437498,-0.5446808776855468,-8.923189587402343,-4.435114503816794,-0.2595419847328244,-3.198473282442748
5312958598388,3.871342342,3,-0.19033903198242186,-0.5410895751953124,-8.905233074951171,-4.526717557251908,-0.17557251908396945,-3.1908396946564888
5312966028805,3.878772759,3,-0.201112939453125,-0.5829881042480468,-8.985438830566405,-4.4961832061068705,-0.2900763358778626,-3.2519083969465647
5312973423336,3.88616729,3,-0.2166752502441406,-0.5518634826660156,-9.023746057128905,-4.442748091603053,-0.3053435114503817,-3.1755725190839694
5312980785002,3.893528956,3,-0.20470424194335937,-0.5781997009277343,-9.02135185546875,-4.5038167938931295,-0.16030534351145037,-3.198473282442748
5312988095002,3.900838956,3,-0.2501940734863281,-0.5063736511230469,-8.930372192382812,-4.458015267175573,-0.3282442748091603,-3.1297709923664123
5312995452398,3.908196352,3,-0.23104046020507812,-0.5458779785156249,-8.955511309814453,-4.404580152671755,-0.35877862595419846,-3.0916030534351147
5313002738909,3.915482863,3,-0.2765302917480469,-0.5183446594238281,-8.997409838867187,-4.450381679389313,-0.183206106870229,-3.099236641221374
5313010038752,3.922782706,3,-0.19871873779296872,-0.6141127258300781,-8.939948999023438,-4.435114503816794,-0.366412213740458,-3.122137404580153
5313017350211,3.930094165,3,-0.1484405029296875,-0.5398924743652344,-9.006986645507812,-4.458015267175573,-0.17557251908396945,-3.1297709923664123
5313024719325,3.937463279,3,-0.2454056701660156,-0.5303156677246094,-8.945934503173827,-4.450381679389313,-0.2748091603053435,-3.0839694656488548
5313032096617,3.944840571,3,-0.239420166015625,-0.5398924743652344,-8.898050469970702,-4.396946564885496,-0.3511450381679389,-3.1297709923664123
5313039435940,3.952179894,3,-0.17836802368164062,-0.5386953735351562,-8.978256225585938,-4.465648854961832,-0.26717557251908397,-3.0076335877862594
5313046740471,3.959484425,3,-0.21787235107421873,-0.5542576843261718,-8.951920007324219,-4.366412213740458,-0.2824427480916031,-3.198473282442748
5313054023909,3.966767863,3,-0.229843359375,-0.5099649536132812,-9.072827191162109,-4.3893129770992365,-0.31297709923664124,-3.1603053435114505
5313061286148,3.974030102,3,-0.22505495605468748,-0.5363011718749999,-8.8872765625,-4.396946564885496,-0.3893129770992366,-3.2290076335877864
5313068640471,3.981384425,3,-0.20829554443359374,-0.5446808776855468,-8.872911352539061,-4.511450381679389,-0.4198473282442748,-3.145038167938931
5313075943284,3.988687238,3,-0.17956512451171874,-0.5494692810058593,-8.985438830566405,-4.4961832061068705,-0.29770992366412213,-3.1297709923664123
5313083209482,3.995953436,3,-0.21906945190429686,-0.5195417602539062,-8.959102612304687,-4.358778625954199,-0.25190839694656486,-3.068702290076336
5313090538700,4.003282654,3,-0.24181436767578124,-0.5291185668945312,-8.985438830566405,-4.465648854961832,-0.29770992366412213,-3.122137404580153
5313097869846,4.0106138,3,-0.19033903198242186,-0.5506663818359374,-8.975862023925782,-4.511450381679389,-0.22137404580152673,-3.1526717557251906
5313105215992,4.017959946,3,-0.17357962036132812,-0.5219359619140624,-8.954314208984375,-4.374045801526718,-0.15267175572519084,-3.198473282442748
5313112550419,4.025294373,3,-0.19871873779296872,-0.5746083984375,-8.978256225585938,-4.4961832061068705,-0.2595419847328244,-3.145038167938931
5313119893284,4.032637238,3,-0.21068974609375,-0.5458779785156249,-8.905233074951171,-4.358778625954199,-0.22137404580152673,-3.1526717557251906
5313127270471,4.040014425,3,-0.16519991455078123,-0.5722141967773438,-8.894459167480468,-4.465648854961832,-0.32061068702290074,-3.1374045801526718
5313134587815,4.047331769,3,-0.16519991455078123,-0.5327098693847656,-8.972270721435546,-4.404580152671755,-0.5038167938931297,-3.122137404580153
5313141956565,4.054700519,3,-0.15322890625,-0.5279214660644531,-8.960299713134765,-4.343511450381679,-0.21374045801526717,-3.145038167938931
5313149319273,4.062063227,3,-0.16759411621093748,-0.5566518859863281,-8.92438668823242,-4.374045801526718,-0.3969465648854962,-3.1297709923664123
5313156719898,4.069463852,3,-0.20829554443359374,-0.5003881469726562,-8.997409838867187,-4.343511450381679,-0.4580152671755725,-3.122137404580153
5313164078440,4.076822394,3,-0.1975216369628906,-0.5530605834960938,-8.912415679931641,-4.511450381679389,-0.1984732824427481,-3.122137404580153
5313171398700,4.084142654,3,-0.20829554443359374,-0.5327098693847656,-8.930372192382812,-4.3893129770992365,-0.3816793893129771,-3.1297709923664123
5313178735940,4.091479894,3,-0.1975216369628906,-0.5470750793457031,-9.036914166259765,-4.541984732824427,-0.1984732824427481,-3.0916030534351147
5313186050211,4.098794165,3,-0.1975216369628906,-0.507570751953125,-8.966285217285156,-4.458015267175573,-0.24427480916030533,-3.1526717557251906
5313193392763,4.106136717,3,-0.2442085693359375,-0.5686228942871093,-8.914809881591797,-4.4961832061068705,-0.31297709923664124,-3.1908396946564888
5313200733023,4.113476977,3,-0.19393033447265623,-0.5051765502929687,-8.968679418945312,-4.465648854961832,-0.22137404580152673,-3.236641221374046
5313208091773,4.120835727,3,-0.14245499877929688,-0.5099649536132812,-8.953117108154297,-4.541984732824427,-0.3969465648854962,-3.183206106870229
5313215457607,4.128201561,3,-0.2166752502441406,-0.5315127685546874,-8.95670841064453,-4.5038167938931295,-0.2748091603053435,-3.1526717557251906
5313222760732,4.135504686,3,-0.21308394775390624,-0.5494692810058593,-8.942343200683593,-4.488549618320611,-0.2748091603053435,-3.183206106870229
5313230161409,4.142905363,3,-0.23582886352539062,-0.5698199951171875,-8.991424334716797,-4.488549618320611,-0.33587786259541985,-3.1068702290076335
5313237499221,4.150243175,3,-0.2166752502441406,-0.5159504577636719,-9.029731561279297,-4.3816793893129775,-0.2748091603053435,-3.1755725190839694
5313244860471,4.157604425,3,-0.19512743530273435,-0.5494692810058593,-8.89326206665039,-4.419847328244275,-0.2900763358778626,-3.068702290076336
5313252208596,4.16495255,3,-0.19033903198242186,-0.5303156677246094,-8.844180932617187,-4.526717557251908,-0.366412213740458,-3.030534351145038
5313259599013,4.172342967,3,-0.20350714111328125,-0.5315127685546874,-8.996212738037109,-4.488549618320611,-0.3282442748091603,-3.16793893129771
5313266900679,4.179644633,3,-0.19512743530273435,-0.5422866760253906,-8.941146099853515,-4.465648854961832,-0.4122137404580153,-3.16793893129771
5313274251409,4.186995363,3,-0.19153613281249998,-0.5518634826660156,-8.974664923095702,-4.435114503816794,-0.45038167938931295,-3.1603053435114505
5313281600419,4.194344373,3,-0.1640028137207031,-0.5291185668945312,-8.910021478271483,-4.480916030534351,-0.33587786259541985,-3.1374045801526718
5313288952502,4.201696456,3,-0.181959326171875,-0.5446808776855468,-8.911218579101561,-4.526717557251908,-0.35877862595419846,-3.183206106870229
5313296456981,4.209200935,3,-0.181959326171875,-0.5686228942871093,-8.91840118408203,-4.480916030534351,-0.3435114503816794,-3.1374045801526718
5313303687606,4.21643156,3,-0.22744915771484372,-0.5351040710449219,-8.999804040527343,-4.427480916030534,-0.26717557251908397,-3.045801526717557
5313311010836,4.22375479,3,-0.19033903198242186,-0.5434837768554687,-8.92438668823242,-4.526717557251908,-0.37404580152671757,-3.122137404580153
5313318346929,4.231090883,3,-0.22744915771484372,-0.5063736511230469,-9.023746057128905,-4.442748091603053,-0.3816793893129771,-3.1755725190839694
5313325649534,4.238393488,3,-0.17477672119140625,-0.5494692810058593,-8.827421520996094,-4.396946564885496,-0.35877862595419846,-3.2061068702290076
5313333033596,4.24577755,3,-0.21787235107421873,-0.5099649536132812,-8.9255837890625,-4.541984732824427,-0.32061068702290074,-3.0916030534351147
5313340305992,4.253049946,3,-0.20709844360351562,-0.5339069702148437,-8.927977990722656,-4.435114503816794,-0.19083969465648856,-3.068702290076336
5313347661513,4.260405467,3,-0.22026655273437498,-0.5327098693847656,-9.017760552978515,-4.473282442748092,-0.2900763358778626,-3.0839694656488548
5313354978075,4.267722029,3,-0.17836802368164062,-0.5123591552734374,-8.911218579101561,-4.541984732824427,-0.2748091603053435,-3.145038167938931
5313362344898,4.275088852,3,-0.19991583862304688,-0.5386953735351562,-8.950722906494141,-4.427480916030534,-0.366412213740458,-3.198473282442748
5313369628075,4.282372029,3,-0.2537853759765625,-0.5746083984375,-8.981847528076171,-4.404580152671755,-0.32061068702290074,-3.183206106870229
5313376950679,4.289694633,3,-0.2346317626953125,-0.584185205078125,-9.009380847167968,-4.358778625954199,-0.32061068702290074,-3.213740458015267
5313384300263,4.297044217,3,-0.17956512451171874,-0.5267243652343749,-8.99501563720703,-4.435114503816794,-0.33587786259541985,-3.145038167938931
5313391673336,4.30441729,3,-0.24660277099609373,-0.5243301635742187,-8.9255837890625,-4.465648854961832,-0.2824427480916031,-3.1603053435114505
5313398991044,4.311734998,3,-0.17477672119140625,-0.5494692810058593,-8.998606939697265,-4.5038167938931295,-0.32061068702290074,-3.145038167938931
5313406362502,4.319106456,3,-0.22026655273437498,-0.5291185668945312,-8.935160595703124,-4.5038167938931295,-0.4198473282442748,-3.1526717557251906
5313413665367,4.326409321,3,-0.17357962036132812,-0.5267243652343749,-8.947131604003905,-4.442748091603053,-0.3435114503816794,-3.1526717557251906
5313420973284,4.333717238,3,-0.22744915771484372,-0.5231330627441406,-8.950722906494141,-4.3893129770992365,-0.3969465648854962,-3.145038167938931
5313428298544,4.341042498,3,-0.1640028137207031,-0.5422866760253906,-8.981847528076171,-4.480916030534351,-0.32061068702290074,-3.213740458015267
5313435579481,4.348323435,3,-0.18076222534179687,-0.5303156677246094,-8.8872765625,-4.473282442748092,-0.25190839694656486,-3.145038167938931
5313442935054,4.355679008,3,-0.19871873779296872,-0.5099649536132812,-8.894459167480468,-4.435114503816794,-0.2900763358778626,-3.2595419847328246
5313450295575,4.363039529,3,-0.22266075439453123,-0.5363011718749999,-8.972270721435546,-4.3893129770992365,-0.3282442748091603,-3.1526717557251906
5313457619013,4.370362967,3,-0.2501940734863281,-0.48722003784179685,-8.954314208984375,-4.33587786259542,-0.2900763358778626,-3.145038167938931
5313464976513,4.377720467,3,-0.1879448303222656,-0.5398924743652344,-8.889670764160156,-4.396946564885496,-0.3435114503816794,-3.198473282442748
5313472323075,4.385067029,3,-0.2501940734863281,-0.5363011718749999,-8.936357696533202,-4.3893129770992365,-0.2748091603053435,-3.16793893129771
5313479648961,4.392392915,3,-0.16759411621093748,-0.5662286926269531,-9.00100114135742,-4.473282442748092,-0.31297709923664124,-3.2213740458015265
5313486998596,4.39974255,3,-0.19871873779296872,-0.5482721801757812,-8.865728747558594,-4.480916030534351,-0.3053435114503817,-3.0839694656488548
5313494363752,4.407107706,3,-0.20231004028320312,-0.5506663818359374,-8.89326206665039,-4.5038167938931295,-0.3282442748091603,-3.198473282442748
5313501733284,4.414477238,3,-0.21906945190429686,-0.5734112976074218,-8.930372192382812,-4.442748091603053,-0.3053435114503817,-3.198473282442748
5313509068804,4.421812758,3,-0.16998831787109375,-0.5470750793457031,-8.987833032226561,-4.427480916030534,-0.33587786259541985,-3.16793893129771
5313516455419,4.429199373,3,-0.19632453613281248,-0.5351040710449219,-8.929175091552734,-4.473282442748092,-0.21374045801526717,-3.1755725190839694
5313523744429,4.436488383,3,-0.22744915771484372,-0.5231330627441406,-8.852560638427734,-4.419847328244275,-0.2824427480916031,-3.2213740458015265
5313531056773,4.443800727,3,-0.18914193115234373,-0.5458779785156249,-8.93875189819336,-4.366412213740458,-0.4198473282442748,-3.1755725190839694
5313538367815,4.451111769,3,-0.16160861206054686,-0.5159504577636719,-8.870517150878905,-4.541984732824427,-0.29770992366412213,-3.1297709923664123
5313545736669,4.458480623,3,-0.16998831787109375,-0.5315127685546874,-8.96269391479492,-4.435114503816794,-0.26717557251908397,-3.183206106870229
5313553026773,4.465770727,3,-0.2262520568847656,-0.5374982727050781,-8.896853369140624,-4.374045801526718,-0.29770992366412213,-3.099236641221374
5313560367554,4.473111508,3,-0.26216508178710934,-0.5434837768554687,-8.961496813964843,-4.396946564885496,-0.35877862595419846,-3.2748091603053435
5313567708648,4.480452602,3,-0.16998831787109375,-0.5135562561035156,-8.929175091552734,-4.412213740458015,-0.31297709923664124,-3.030534351145038
5313575089429,4.487833383,3,-0.2214636535644531,-0.565031591796875,-8.916006982421875,-4.427480916030534,-0.2900763358778626,-3.0916030534351147
5313582417502,4.495161456,3,-0.17357962036132812,-0.5734112976074218,-8.941146099853515,-4.450381679389313,-0.32061068702290074,-3.1374045801526718
5313589771096,4.50251505,3,-0.21906945190429686,-0.5446808776855468,-8.980650427246093,-4.473282442748092,-0.4122137404580153,-2.9923664122137406
5313597135627,4.509879581,3,-0.22505495605468748,-0.5482721801757812,-8.960299713134765,-4.3816793893129775,-0.29770992366412213,-3.183206106870229
5313604472346,4.5172163,3,-0.21068974609375,-0.5111620544433594,-8.953117108154297,-4.480916030534351,-0.3435114503816794,-3.122137404580153
5313611765627,4.524509581,3,-0.24779987182617186,-0.47884033203125,-8.927977990722656,-4.564885496183206,-0.31297709923664124,-3.1603053435114505
5313619115315,4.531859269,3,-0.2154781494140625,-0.5686228942871093,-8.932766394042968,-4.427480916030534,-0.2824427480916031,-3.236641221374046
5313626430523,4.539174477,3,-0.21308394775390624,-0.5602431884765625,-8.981847528076171,-4.435114503816794,-0.32061068702290074,-3.0839694656488548
5313633840575,4.546584529,3,-0.1975216369628906,-0.5710170959472656,-8.930372192382812,-4.33587786259542,-0.33587786259541985,-3.1068702290076335
5313641241304,4.553985258,3,-0.17118541870117188,-0.5207388610839844,-8.902838873291016,-4.458015267175573,-0.19083969465648856,-3.1755725190839694
5313648638648,4.561382602,3,-0.16879121704101563,-0.5099649536132812,-9.00100114135742,-4.419847328244275,-0.4351145038167939,-3.16793893129771
5313655933856,4.56867781,3,-0.21787235107421873,-0.5506663818359374,-8.927977990722656,-4.412213740458015,-0.2748091603053435,-3.236641221374046
5313663284273,4.576028227,3,-0.19871873779296872,-0.5482721801757812,-8.95670841064453,-4.442748091603053,-0.32061068702290074,-3.0763358778625953
5313670730783,4.583474737,3,-0.21308394775390624,-0.5255272644042969,-8.908824377441405,-4.435114503816794,-0.42748091603053434,-3.099236641221374
5313678090106,4.59083406,3,-0.22026655273437498,-0.5147533569335937,-8.913612780761719,-4.358778625954199,-0.21374045801526717,-3.2213740458015265
5313685422919,4.598166873,3,-0.19871873779296872,-0.5482721801757812,-8.967482318115234,-4.3893129770992365,-0.366412213740458,-3.122137404580153
5313692860888,4.605604842,3,-0.20949264526367187,-0.5267243652343749,-8.965088116455078,-4.427480916030534,-0.3282442748091603,-3.16793893129771
5313700255419,4.612999373,3,-0.20829554443359374,-0.5386953735351562,-8.920795385742187,-4.473282442748092,-0.3893129770992366,-3.045801526717557
5313707543961,4.620287915,3,-0.21428104858398436,-0.5542576843261718,-8.93755479736328,-4.351145038167939,-0.3893129770992366,-3.1526717557251906
5313714836461,4.627580415,3,-0.20231004028320312,-0.5255272644042969,-8.9255837890625,-4.480916030534351,-0.3435114503816794,-3.1908396946564888
5313722170783,4.634914737,3,-0.17956512451171874,-0.5231330627441406,-8.973467822265624,-4.549618320610687,-0.31297709923664124,-3.068702290076336
5313729468960,4.642212914,3,-0.21188684692382811,-0.5135562561035156,-8.93755479736328,-4.419847328244275,-0.4580152671755725,-3.1374045801526718
5313736844794,4.649588748,3,-0.19512743530273435,-0.5303156677246094,-8.895656268310546,-4.4961832061068705,-0.3969465648854962,-3.0916030534351147
5313744199690,4.656943644,3,-0.2537853759765625,-0.594959112548828,-8.929175091552734,-4.580152671755725,-0.31297709923664124,-3.183206106870229
5313751531877,4.664275831,3,-0.2537853759765625,-0.5482721801757812,-8.975862023925782,-4.4961832061068705,-0.4122137404580153,-3.0916030534351147
5313758838908,4.671582862,3,-0.1580173095703125,-0.5183446594238281,-8.871714251708983,-4.458015267175573,-0.29770992366412213,-3.145038167938931
5313766200419,4.678944373,3,-0.2609679809570312,-0.5530605834960938,-8.8872765625,-4.541984732824427,-0.3282442748091603,-3.1374045801526718
5313773589585,4.686333539,3,-0.29927520751953124,-0.5255272644042969,-8.993818536376953,-4.458015267175573,-0.29770992366412213,-3.0916030534351147
5313780949377,4.693693331,3,-0.1879448303222656,-0.5614402893066406,-8.954314208984375,-4.564885496183206,-0.22900763358778625,-3.1908396946564888
5313788278492,4.701022446,3,-0.21188684692382811,-0.5147533569335937,-8.87410845336914,-4.3893129770992365,-0.3816793893129771,-3.2213740458015265
5313795627190,4.708371144,3,-0.2059013427734375,-0.5099649536132812,-8.979453326416015,-4.366412213740458,-0.25190839694656486,-3.145038167938931
5313802838856,4.71558281,3,-0.17836802368164062,-0.5710170959472656,-8.919598284912109,-4.458015267175573,-0.31297709923664124,-3.0916030534351147
5313810195679,4.722939633,3,-0.21787235107421873,-0.5410895751953124,-8.986635931396483,-4.419847328244275,-0.3053435114503817,-3.1068702290076335
5313817585054,4.730329008,3,-0.19632453613281248,-0.5482721801757812,-8.9255837890625,-4.442748091603053,-0.183206106870229,-3.145038167938931
5313825051356,4.73779531,3,-0.23582886352539062,-0.5614402893066406,-8.98304462890625,-4.3816793893129775,-0.2824427480916031,-3.2595419847328246
5313832451096,4.74519505,3,-0.17597382202148437,-0.5482721801757812,-9.011775048828124,-4.419847328244275,-0.2595419847328244,-3.145038167938931
5313839785940,4.752529894,3,-0.2501940734863281,-0.5267243652343749,-9.016563452148437,-4.3893129770992365,-0.2824427480916031,-3.1908396946564888
5313847114325,4.759858279,3,-0.2454056701660156,-0.5542576843261718,-8.91840118408203,-4.4961832061068705,-0.3969465648854962,-3.1068702290076335
5313854399325,4.767143279,3,-0.23104046020507812,-0.5255272644042969,-8.967482318115234,-4.511450381679389,-0.25190839694656486,-3.145038167938931
5313861815315,4.774559269,3,-0.24301146850585936,-0.5578489868164063,-8.949525805664061,-4.511450381679389,-0.2366412213740458,-3.16793893129771
5313869226929,4.781970883,3,-0.17956512451171874,-0.5410895751953124,-8.960299713134765,-4.412213740458015,-0.3511450381679389,-3.0839694656488548
5313876579950,4.789323904,3,-0.21787235107421873,-0.5626373901367188,-8.902838873291016,-4.465648854961832,-0.32061068702290074,-3.0763358778625953
5313883906721,4.796650675,3,-0.16998831787109375,-0.5386953735351562,-8.96269391479492,-4.3893129770992365,-0.3816793893129771,-3.1526717557251906
5313891295471,4.804039425,3,-0.2059013427734375,-0.5566518859863281,-8.872911352539061,-4.435114503816794,-0.2748091603053435,-3.1603053435114505
5313898603700,4.811347654,3,-0.17477672119140625,-0.5925649108886718,-8.889670764160156,-4.450381679389313,-0.2748091603053435,-3.0763358778625953
5313905997658,4.818741612,3,-0.1867477294921875,-0.5398924743652344,-8.889670764160156,-4.442748091603053,-0.35877862595419846,-3.1603053435114505
5313913393596,4.82613755,3,-0.22744915771484372,-0.5566518859863281,-8.943540301513671,-4.396946564885496,-0.2595419847328244,-3.145038167938931
5313920856148,4.833600102,3,-0.19512743530273435,-0.5434837768554687,-8.968679418945312,-4.412213740458015,-0.17557251908396945,-3.183206106870229
5313928269117,4.841013071,3,-0.17477672119140625,-0.5339069702148437,-8.927977990722656,-4.435114503816794,-0.3511450381679389,-3.145038167938931
5313935564533,4.848308487,3,-0.23223756103515625,-0.5578489868164063,-8.968679418945312,-4.358778625954199,-0.2824427480916031,-3.1908396946564888
5313942918075,4.855662029,3,-0.2166752502441406,-0.49200844116210934,-8.741230261230468,-4.427480916030534,-0.3435114503816794,-3.213740458015267
5313950235731,4.862979685,3,-0.1927332336425781,-0.5111620544433594,-8.93755479736328,-4.564885496183206,-0.37404580152671757,-3.1297709923664123
5313957600940,4.870344894,3,-0.15442600708007811,-0.5063736511230469,-8.987833032226561,-4.511450381679389,-0.25190839694656486,-3.2213740458015265
5313964965158,4.877709112,3,-0.21428104858398436,-0.5123591552734374,-8.992621435546875,-4.564885496183206,-0.26717557251908397,-3.2442748091603053
5313972288804,4.885032758,3,-0.1927332336425781,-0.5506663818359374,-8.828618621826172,-4.5038167938931295,-0.366412213740458,-3.0763358778625953
5313979640575,4.892384529,3,-0.181959326171875,-0.5662286926269531,-8.92438668823242,-4.404580152671755,-0.25190839694656486,-3.0916030534351147
5313987009481,4.899753435,3,-0.22385785522460935,-0.5422866760253906,-8.917204083251953,-4.473282442748092,-0.44274809160305345,-3.145038167938931
5313994395419,4.907139373,3,-0.24779987182617186,-0.5111620544433594,-8.960299713134765,-4.465648854961832,-0.35877862595419846,-3.0916030534351147
5314001804794,4.914548748,3,-0.1592144104003906,-0.5231330627441406,-8.95670841064453,-4.435114503816794,-0.3893129770992366,-3.1297709923664123
5314009578908,4.922322862,3,-0.22266075439453123,-0.5195417602539062,-9.048885174560546,-4.4961832061068705,-0.3511450381679389,-3.2061068702290076
5314017047658,4.929791612,3,-0.23582886352539062,-0.5853823059082031,-8.960299713134765,-4.450381679389313,-0.20610687022900764,-3.1526717557251906
5314024289273,4.937033227,3,-0.20350714111328125,-0.4944026428222656,-8.947131604003905,-4.404580152671755,-0.33587786259541985,-3.068702290076336
5314031659637,4.944403591,3,-0.21068974609375,-0.5398924743652344,-8.974664923095702,-4.458015267175573,-0.44274809160305345,-3.236641221374046
5314038926512,4.951670466,3,-0.21068974609375,-0.5566518859863281,-8.963891015625,-4.404580152671755,-0.183206106870229,-3.1374045801526718
5314046275679,4.959019633,3,-0.17836802368164062,-0.5410895751953124,-8.98304462890625,-4.595419847328245,-0.32061068702290074,-3.1755725190839694
5314053664325,4.966408279,3,-0.20949264526367187,-0.5698199951171875,-8.896853369140624,-4.412213740458015,-0.2824427480916031,-3.0916030534351147
5314061036565,4.973780519,3,-0.19871873779296872,-0.5662286926269531,-8.935160595703124,-4.358778625954199,-0.1984732824427481,-3.114503816793893
5314068448283,4.981192237,3,-0.20231004028320312,-0.5219359619140624,-8.957905511474609,-4.442748091603053,-0.3282442748091603,-3.099236641221374
5314075839742,4.988583696,3,-0.24181436767578124,-0.5686228942871093,-8.987833032226561,-4.564885496183206,-0.2595419847328244,-3.183206106870229
5314083268700,4.996012654,3,-0.17956512451171874,-0.51714755859375,-8.881291058349609,-4.366412213740458,-0.2748091603053435,-3.0916030534351147
5314090601408,5.003345362,3,-0.20829554443359374,-0.5458779785156249,-8.993818536376953,-4.480916030534351,-0.40458015267175573,-3.0916030534351147
5314097998283,5.010742237,3,-0.2059013427734375,-0.5698199951171875,-8.986635931396483,-4.3816793893129775,-0.16030534351145037,-3.068702290076336
5314105385940,5.018129894,3,-0.23223756103515625,-0.507570751953125,-8.96987651977539,-4.427480916030534,-0.29770992366412213,-3.2290076335877864
5314112771148,5.025515102,3,-0.20829554443359374,-0.5291185668945312,-9.034519964599609,-4.572519083969466,-0.33587786259541985,-3.0916030534351147
5314120133544,5.032877498,3,-0.19871873779296872,-0.5422866760253906,-9.00100114135742,-4.488549618320611,-0.2748091603053435,-3.183206106870229
5314127472762,5.040216716,3,-0.23343466186523437,-0.5386953735351562,-8.902838873291016,-4.297709923664122,-0.4580152671755725,-3.236641221374046
5314134777137,5.047521091,3,-0.22266075439453123,-0.5422866760253906,-8.9255837890625,-4.458015267175573,-0.24427480916030533,-3.145038167938931
5314142088856,5.05483281,3,-0.17597382202148437,-0.5195417602539062,-8.905233074951171,-4.358778625954199,-0.31297709923664124,-3.16793893129771
5314149449637,5.062193591,3,-0.2214636535644531,-0.5530605834960938,-9.020154754638671,-4.526717557251908,-0.37404580152671757,-3.0610687022900764
5314156856148,5.069600102,3,-0.1975216369628906,-0.5374982727050781,-8.932766394042968,-4.343511450381679,-0.2748091603053435,-3.2061068702290076
5314164266356,5.07701031,3,-0.21787235107421873,-0.5734112976074218,-8.93156929321289,-4.427480916030534,-0.3053435114503817,-3.1603053435114505
5314171658075,5.084402029,3,-0.19033903198242186,-0.5351040710449219,-8.942343200683593,-4.435114503816794,-0.3893129770992366,-3.1374045801526718
5314178988075,5.091732029,3,-0.2059013427734375,-0.5781997009277343,-8.984241729736327,-4.3893129770992365,-0.21374045801526717,-3.1068702290076335
5314186393387,5.099137341,3,-0.21906945190429686,-0.5087678527832031,-8.947131604003905,-4.442748091603053,-0.32061068702290074,-3.1374045801526718
5314193802814,5.106546768,3,-0.22266075439453123,-0.5147533569335937,-8.923189587402343,-4.351145038167939,-0.35877862595419846,-3.1297709923664123
5314201233075,5.113977029,3,-0.21308394775390624,-0.5135562561035156,-8.898050469970702,-4.435114503816794,-0.19083969465648856,-3.1297709923664123
5314208578700,5.121322654,3,-0.2609679809570312,-0.5351040710449219,-8.904035974121093,-4.366412213740458,-0.35877862595419846,-3.145038167938931
5314215922033,5.128665987,3,-0.16639701538085935,-0.5183446594238281,-8.851363537597656,-4.549618320610687,-0.29770992366412213,-3.1603053435114505
5314223288387,5.136032341,3,-0.2561795776367187,-0.5195417602539062,-8.96269391479492,-4.488549618320611,-0.3053435114503817,-3.16793893129771
5314230634742,5.143378696,3,-0.20829554443359374,-0.5434837768554687,-8.878896856689453,-4.603053435114504,-0.366412213740458,-3.145038167938931
5314238001877,5.150745831,3,-0.19033903198242186,-0.5506663818359374,-8.955511309814453,-4.435114503816794,-0.22900763358778625,-3.1297709923664123
5314245417242,5.158161196,3,-0.181959326171875,-0.51714755859375,-8.985438830566405,-4.5038167938931295,-0.2900763358778626,-3.122137404580153
5314252834325,5.165578279,3,-0.20231004028320312,-0.48722003784179685,-9.006986645507812,-4.396946564885496,-0.32061068702290074,-3.1068702290076335
5314260188283,5.172932237,3,-0.18315642700195311,-0.5339069702148437,-8.905233074951171,-4.366412213740458,-0.3282442748091603,-3.2900763358778624
5314267546617,5.180290571,3,-0.22864625854492185,-0.5590460876464843,-8.923189587402343,-4.458015267175573,-0.3511450381679389,-3.145038167938931
5314274911981,5.187655935,3,-0.19871873779296872,-0.5339069702148437,-8.927977990722656,-4.4961832061068705,-0.3816793893129771,-3.1526717557251906
5314282299689,5.195043643,3,-0.20470424194335937,-0.5255272644042969,-8.948328704833983,-4.419847328244275,-0.32061068702290074,-3.0839694656488548
5314289641564,5.202385518,3,-0.1771709228515625,-0.5410895751953124,-8.974664923095702,-4.473282442748092,-0.4198473282442748,-3.1755725190839694
5314296983596,5.20972755,3,-0.19632453613281248,-0.5374982727050781,-8.86213744506836,-4.511450381679389,-0.4580152671755725,-3.122137404580153
5314304349898,5.217093852,3,-0.17238251953125,-0.5279214660644531,-8.933963494873046,-4.419847328244275,-0.24427480916030533,-3.1908396946564888
5314311692971,5.224436925,3,-0.2765302917480469,-0.5494692810058593,-8.963891015625,-4.458015267175573,-0.37404580152671757,-3.2519083969465647
5314318998856,5.23174281,3,-0.2059013427734375,-0.5410895751953124,-8.941146099853515,-4.33587786259542,-0.26717557251908397,-2.9618320610687023
5314326371044,5.239114998,3,-0.22385785522460935,-0.5458779785156249,-8.89924757080078,-4.419847328244275,-0.2824427480916031,-3.099236641221374
5314333784064,5.246528018,3,-0.17357962036132812,-0.5542576843261718,-8.967482318115234,-4.358778625954199,-0.40458015267175573,-3.2213740458015265
5314341160054,5.253904008,3,-0.2059013427734375,-0.5758054992675781,-8.93755479736328,-4.450381679389313,-0.3816793893129771,-3.2061068702290076
5314348460314,5.261204268,3,-0.1927332336425781,-0.5303156677246094,-8.89924757080078,-4.488549618320611,-0.3969465648854962,-3.0839694656488548
5314355804794,5.268548748,3,-0.19033903198242186,-0.5147533569335937,-8.9255837890625,-4.404580152671755,-0.3511450381679389,-3.114503816793893
5314363176408,5.275920362,3,-0.18914193115234373,-0.5279214660644531,-8.881291058349609,-4.450381679389313,-0.3053435114503817,-3.1755725190839694
5314370565262,5.283309216,3,-0.2214636535644531,-0.5123591552734374,-8.894459167480468,-4.412213740458015,-0.4580152671755725,-3.1297709923664123
5314377984273,5.290728227,3,-0.20829554443359374,-0.5195417602539062,-9.023746057128905,-4.419847328244275,-0.20610687022900764,-3.1068702290076335
5314385403335,5.298147289,3,-0.18555062866210936,-0.5602431884765625,-8.968679418945312,-4.427480916030534,-0.21374045801526717,-3.0916030534351147
5314392869481,5.305613435,3,-0.19512743530273435,-0.5446808776855468,-8.979453326416015,-4.297709923664122,-0.40458015267175573,-3.0916030534351147
5314400473439,5.313217393,3,-0.2154781494140625,-0.5339069702148437,-8.888473663330078,-4.305343511450381,-0.366412213740458,-3.122137404580153
5314407886460,5.320630414,3,-0.181959326171875,-0.4944026428222656,-8.79749400024414,-4.5038167938931295,-0.4580152671755725,-3.1526717557251906
5314415297502,5.328041456,3,-0.1867477294921875,-0.5386953735351562,-8.930372192382812,-4.427480916030534,-0.3435114503816794,-3.122137404580153
5314422659481,5.335403435,3,-0.1484405029296875,-0.5734112976074218,-8.979453326416015,-4.358778625954199,-0.3511450381679389,-3.198473282442748
5314430024169,5.342768123,3,-0.18435352783203124,-0.5470750793457031,-8.935160595703124,-4.404580152671755,-0.3969465648854962,-3.1603053435114505
5314437441669,5.350185623,3,-0.20470424194335937,-0.5195417602539062,-8.929175091552734,-4.488549618320611,-0.4122137404580153,-3.145038167938931
5314444836564,5.357580518,3,-0.18315642700195311,-0.5434837768554687,-8.933963494873046,-4.580152671755725,-0.24427480916030533,-3.1068702290076335
5314452195210,5.364939164,3,-0.18555062866210936,-0.49799394531249996,-8.926780889892578,-4.3893129770992365,-0.22137404580152673,-3.145038167938931
5314459551096,5.37229505,3,-0.14484920043945312,-0.5434837768554687,-8.945934503173827,-4.465648854961832,-0.29770992366412213,-3.0916030534351147
5314466934533,5.379678487,3,-0.19512743530273435,-0.5530605834960938,-8.908824377441405,-4.519083969465649,-0.3053435114503817,-3.16793893129771
5314474425002,5.387168956,3,-0.21428104858398436,-0.5781997009277343,-8.99501563720703,-4.519083969465649,-0.33587786259541985,-3.0610687022900764
5314481844325,5.394588279,3,-0.17836802368164062,-0.5722141967773438,-8.960299713134765,-4.442748091603053,-0.3816793893129771,-3.1068702290076335
5314489264221,5.402008175,3,-0.20470424194335937,-0.5039794494628906,-8.97705912475586,-4.419847328244275,-0.3969465648854962,-3.2061068702290076
