timestamp_ns,t_s,sensor_id,ax,ay,az,gx,gy,gz
5309256289587,0.169033541,1,0.19871873779296872,1.7118541870117185,-11.245565197753905,-0.7862595419847328,0.549618320610687,-1.3587786259541985
5309262603233,0.175347187,1,0.24660277099609373,1.7214309936523438,-11.179724652099608,-0.8244274809160306,0.6641221374045801,-1.3435114503816794
5309268602608,0.181346562,1,0.22385785522460935,1.7262193969726563,-11.202469567871093,-0.8320610687022901,0.6870229007633588,-1.3587786259541985
5309274550108,0.187294062,1,0.25258827514648435,1.707065783691406,-11.226411584472656,-0.7709923664122137,0.5725190839694656,-1.3740458015267176
5309280547556,0.19329151,1,0.2442085693359375,1.7274164978027342,-11.170147845458983,-0.8015267175572519,0.48854961832061067,-1.282442748091603
5309286492087,0.199236041,1,0.24899697265624998,1.7310078002929687,-11.201272467041015,-0.8931297709923665,0.5343511450381679,-1.3206106870229009
5309292401879,0.205145833,1,0.23702596435546874,1.744175909423828,-11.240776794433593,-0.8091603053435115,0.549618320610687,-1.2748091603053435
5309298358077,0.211102031,1,0.26815058593749996,1.7693150268554687,-11.307814440917968,-0.9312977099236641,0.5648854961832062,-1.3282442748091603
5309304264639,0.217008593,1,0.24301146850585936,1.734599102783203,-11.23718549194336,-0.8778625954198473,0.5801526717557252,-1.3435114503816794
5309310195525,0.222939479,1,0.23223756103515625,1.7405846069335937,-11.19169566040039,-0.7099236641221374,0.48091603053435117,-1.3129770992366412
5309316132608,0.228876562,1,0.2501940734863281,1.6891092712402342,-11.186907257080078,-0.8320610687022901,0.6259541984732825,-1.3206106870229009
5309322083389,0.234827343,1,0.24061726684570311,1.697488977050781,-11.200075366210937,-0.8015267175572519,0.4732824427480916,-1.2748091603053435
5309328049483,0.240793437,1,0.2262520568847656,1.7453730102539062,-11.16057103881836,-0.8396946564885496,0.549618320610687,-1.3282442748091603
5309333944327,0.246688281,1,0.2765302917480469,1.7477672119140624,-11.15338843383789,-0.7251908396946565,0.6641221374045801,-1.381679389312977
5309339850785,0.252594739,1,0.22026655273437498,1.763329522705078,-11.152191333007812,-0.6946564885496184,0.5038167938931297,-1.3511450381679388
5309345798650,0.258542604,1,0.24181436767578124,1.7501614135742187,-11.228805786132812,-0.8549618320610687,0.5725190839694656,-1.3129770992366412
5309351759275,0.264503229,1,0.2765302917480469,1.715445489501953,-11.164162341308593,-0.7480916030534351,0.5877862595419847,-1.3587786259541985
5309357693389,0.270437343,1,0.19393033447265623,1.7310078002929687,-11.149797131347656,-0.7175572519083969,0.5419847328244275,-1.3358778625954197
5309363608650,0.276352604,1,0.24181436767578124,1.7298106994628906,-11.176133349609374,-0.9389312977099237,0.5648854961832062,-1.3282442748091603
5309369556931,0.282300885,1,0.1975216369628906,1.7369933044433592,-11.136629022216797,-0.8549618320610687,0.5267175572519084,-1.3511450381679388
5309375472191,0.288216145,1,0.23702596435546874,1.734599102783203,-11.12226381225586,-0.8091603053435115,0.5114503816793893,-1.4045801526717556
5309381402764,0.294146718,1,0.22505495605468748,1.7405846069335937,-11.11508120727539,-0.8625954198473282,0.5801526717557252,-1.251908396946565
5309387274743,0.300018697,1,0.2346317626953125,1.7549498168945312,-11.225214483642578,-0.8396946564885496,0.6641221374045801,-1.3511450381679388
5309393170941,0.305914895,1,0.2561795776367187,1.7298106994628906,-11.042058056640624,-0.7709923664122137,0.5419847328244275,-1.3206106870229009
5309399107920,0.311851874,1,0.20949264526367187,1.6915034729003906,-11.196484063720703,-0.8091603053435115,0.6183206106870229,-1.3282442748091603
5309404970681,0.317714635,1,0.23223756103515625,1.7166425903320313,-11.203666668701171,-0.8931297709923665,0.6412213740458015,-1.2900763358778626
5309410885993,0.323629947,1,0.18555062866210936,1.7465701110839842,-11.143811627197264,-0.9007633587786259,0.648854961832061,-1.3282442748091603
5309416783702,0.329527656,1,0.24899697265624998,1.7357962036132812,-11.19887826538086,-0.7633587786259542,0.6259541984732825,-1.3893129770992367
5309422688702,0.335432656,1,0.17956512451171874,1.725022296142578,-11.165359442138671,-0.7862595419847328,0.5801526717557252,-1.3435114503816794
5309428579223,0.341323177,1,0.23104046020507812,1.7369933044433592,-11.196484063720703,-0.9083969465648855,0.5648854961832062,-1.3358778625954197
5309434397243,0.347141197,1,0.23104046020507812,1.753752716064453,-11.201272467041015,-0.7938931297709924,0.4961832061068702,-1.3435114503816794
5309440275368,0.353019322,1,0.258573779296875,1.707065783691406,-11.16057103881836,-0.7862595419847328,0.5267175572519084,-1.2595419847328244
5309446193910,0.358937864,1,0.19393033447265623,1.7094599853515624,-11.21084927368164,-0.7786259541984732,0.5648854961832062,-1.2671755725190839
5309452091931,0.364835885,1,0.19991583862304688,1.7106570861816406,-11.213243475341796,-0.9618320610687023,0.5801526717557252,-1.2213740458015268
5309458012087,0.370756041,1,0.18555062866210936,1.7274164978027342,-11.117475408935546,-0.7557251908396947,0.48854961832061067,-1.282442748091603
5309463928754,0.376672708,1,0.25258827514648435,1.7286135986328124,-11.190498559570312,-0.8854961832061069,0.5877862595419847,-1.3282442748091603
5309469910316,0.38265427,1,0.22266075439453123,1.7405846069335937,-11.197681164550781,-0.8244274809160306,0.732824427480916,-1.3129770992366412
5309475839066,0.38858302,1,0.23822306518554687,1.7657237243652342,-11.118672509765624,-0.8702290076335878,0.5648854961832062,-1.3129770992366412
5309481793702,0.394537656,1,0.22026655273437498,1.715445489501953,-11.180921752929686,-0.8396946564885496,0.5572519083969466,-1.4198473282442747
5309487705368,0.400449322,1,0.23343466186523437,1.7334020019531249,-11.167753643798827,-0.8015267175572519,0.549618320610687,-1.2748091603053435
5309493610837,0.406354791,1,0.21068974609375,1.7369933044433592,-11.2240173828125,-0.7709923664122137,0.5419847328244275,-1.3053435114503817
5309499455629,0.412199583,1,0.23104046020507812,1.7334020019531249,-11.105504400634764,-0.7709923664122137,0.6412213740458015,-1.297709923664122
5309505385525,0.418129479,1,0.22026655273437498,1.7585411193847655,-11.135431921386719,-0.816793893129771,0.44274809160305345,-1.2595419847328244
5309511276514,0.424020468,1,0.23223756103515625,1.7525556152343749,-11.15338843383789,-0.816793893129771,0.5877862595419847,-1.3053435114503817
5309517200525,0.429944479,1,0.28730419921875,1.7202338928222656,-11.21683477783203,-0.8244274809160306,0.5877862595419847,-1.2900763358778626
5309523118285,0.435862239,1,0.239420166015625,1.7214309936523438,-11.2240173828125,-0.8396946564885496,0.5572519083969466,-1.3511450381679388
5309529033806,0.44177776,1,0.2442085693359375,1.6747440612792968,-11.17254204711914,-0.9770992366412213,0.6030534351145038,-1.381679389312977
5309534943181,0.447687135,1,0.24061726684570311,1.697488977050781,-11.150994232177734,-0.8091603053435115,0.5877862595419847,-1.2748091603053435
5309540804014,0.453547968,1,0.26815058593749996,1.6555904479980468,-11.212046374511718,-0.8549618320610687,0.45038167938931295,-1.251908396946565
5309546673233,0.459417187,1,0.22026655273437498,1.7609353210449217,-11.13423482055664,-0.9618320610687023,0.5267175572519084,-1.251908396946565
5309552597139,0.465341093,1,0.2346317626953125,1.7872715393066405,-11.16057103881836,-0.732824427480916,0.5419847328244275,-1.3587786259541985
5309558484535,0.471228489,1,0.27174188842773433,1.7118541870117185,-11.15338843383789,-0.7862595419847328,0.5190839694656488,-1.251908396946565
5309564411566,0.47715552,1,0.19991583862304688,1.7645266235351562,-11.150994232177734,-0.816793893129771,0.5190839694656488,-1.297709923664122
5309570350420,0.483094374,1,0.21787235107421873,1.734599102783203,-11.155782635498046,-0.9007633587786259,0.5877862595419847,-1.3282442748091603
5309576267556,0.48901151,1,0.24779987182617186,1.7549498168945312,-11.149797131347656,-0.8320610687022901,0.5877862595419847,-1.297709923664122
5309582141358,0.494885312,1,0.24061726684570311,1.7717092285156248,-11.16057103881836,-0.7862595419847328,0.5114503816793893,-1.2671755725190839
5309588115264,0.500859218,1,0.24301146850585936,1.7681179260253905,-11.161768139648437,-0.8778625954198473,0.549618320610687,-1.3206106870229009
5309594114952,0.506858906,1,0.20350714111328125,1.715445489501953,-11.263521710205078,-0.8320610687022901,0.5267175572519084,-1.2748091603053435
5309600111775,0.512855729,1,0.277727392578125,1.686715069580078,-11.166556542968749,-0.7938931297709924,0.4961832061068702,-1.282442748091603
5309606055837,0.518799791,1,0.18315642700195311,1.7202338928222656,-11.162965240478515,-0.8320610687022901,0.3969465648854962,-1.2748091603053435
5309611940525,0.524684479,1,0.2454056701660156,1.7286135986328124,-11.189301458740234,-0.8320610687022901,0.5343511450381679,-1.3053435114503817
5309617845525,0.530589479,1,0.26216508178710934,1.725022296142578,-11.222820281982422,-0.7938931297709924,0.42748091603053434,-1.2748091603053435
5309624643597,0.537387551,1,0.2561795776367187,1.7693150268554687,-11.19887826538086,-0.9083969465648855,0.48091603053435117,-1.251908396946565
5309631340056,0.54408401,1,0.23223756103515625,1.7573440185546874,-11.124658013916015,-0.916030534351145,0.5343511450381679,-1.2900763358778626
5309637263129,0.550007083,1,0.23104046020507812,1.7477672119140624,-11.21084927368164,-0.8396946564885496,0.44274809160305345,-1.2442748091603053
5309643173181,0.555917135,1,0.2645592834472656,1.7274164978027342,-11.1474029296875,-0.7557251908396947,0.6183206106870229,-1.297709923664122
5309649072347,0.561816301,1,0.2214636535644531,1.7669208251953124,-11.214440576171874,-0.9083969465648855,0.6946564885496184,-1.3053435114503817
5309654970004,0.567713958,1,0.19871873779296872,1.7453730102539062,-11.170147845458983,-0.7786259541984732,0.5038167938931297,-1.3740458015267176
5309660919014,0.573662968,1,0.2813186950683594,1.7417817077636717,-11.221623181152344,-0.7938931297709924,0.5267175572519084,-1.3435114503816794
5309667020420,0.579764374,1,0.22744915771484372,1.7405846069335937,-11.220426080322264,-0.7786259541984732,0.5038167938931297,-1.3282442748091603
5309672915577,0.585659531,1,0.2597708801269531,1.725022296142578,-11.197681164550781,-0.8396946564885496,0.5267175572519084,-1.3282442748091603
5309678823650,0.591567604,1,0.19512743530273435,1.7238251953125,-11.184513055419922,-0.7938931297709924,0.5343511450381679,-1.297709923664122
5309684707347,0.597451301,1,0.26216508178710934,1.7130512878417967,-11.155782635498046,-0.7633587786259542,0.6870229007633588,-1.2366412213740459
5309690541202,0.603285156,1,0.2214636535644531,1.6807295654296874,-11.17852755126953,-0.8244274809160306,0.6030534351145038,-1.366412213740458
5309696494483,0.609238437,1,0.21428104858398436,1.7334020019531249,-11.148600030517578,-0.8702290076335878,0.7099236641221374,-1.3282442748091603
5309702414952,0.615158906,1,0.2597708801269531,1.6986860778808592,-11.148600030517578,-0.8015267175572519,0.5114503816793893,-1.251908396946565
5309708330577,0.621074531,1,0.19033903198242186,1.695094775390625,-11.21683477783203,-0.8625954198473282,0.5572519083969466,-1.3129770992366412
5309714230681,0.626974635,1,0.2645592834472656,1.7405846069335937,-11.252747802734374,-0.8320610687022901,0.6030534351145038,-1.3053435114503817
5309720166045,0.632909999,1,0.23104046020507812,1.734599102783203,-11.154585534667968,-0.7862595419847328,0.648854961832061,-1.3129770992366412
5309726068441,0.638812395,1,0.20231004028320312,1.725022296142578,-11.204863769531249,-0.8854961832061069,0.48854961832061067,-1.3053435114503817
5309732038702,0.644782656,1,0.27174188842773433,1.6927005737304686,-11.233594189453123,-0.816793893129771,0.44274809160305345,-1.3435114503816794
5309737982816,0.65072677,1,0.23223756103515625,1.7669208251953124,-11.155782635498046,-0.7709923664122137,0.5801526717557252,-1.282442748091603
5309743873650,0.656617604,1,0.21906945190429686,1.715445489501953,-11.19169566040039,-0.8396946564885496,0.5725190839694656,-1.2595419847328244
5309749830108,0.662574062,1,0.19153613281249998,1.7298106994628906,-11.180921752929686,-0.7786259541984732,0.5419847328244275,-1.3129770992366412
5309755759847,0.668503801,1,0.22744915771484372,1.7453730102539062,-11.186907257080078,-0.9389312977099237,0.6030534351145038,-1.3358778625954197
5309761721202,0.674465156,1,0.2442085693359375,1.7202338928222656,-11.186907257080078,-0.8473282442748091,0.5877862595419847,-1.366412213740458
5309767584900,0.680328854,1,0.19393033447265623,1.7429788085937499,-11.194089862060546,-0.8473282442748091,0.6564885496183206,-1.3435114503816794
5309773504743,0.686248697,1,0.23582886352539062,1.7298106994628906,-11.174936248779296,-0.8778625954198473,0.5267175572519084,-1.3435114503816794
5309779443077,0.692187031,1,0.23104046020507812,1.744175909423828,-11.215637677001952,-0.7938931297709924,0.6030534351145038,-1.3435114503816794
5309785381306,0.69812526,1,0.2154781494140625,1.7381904052734374,-11.183315954589844,-0.7251908396946565,0.5190839694656488,-1.3587786259541985
5309791284014,0.704027968,1,0.26216508178710934,1.7274164978027342,-11.093533392333983,-0.8015267175572519,0.6564885496183206,-1.2595419847328244
5309797238910,0.709982864,1,0.2501940734863281,1.7106570861816406,-11.161768139648437,-0.8320610687022901,0.5267175572519084,-1.2671755725190839
5309803150420,0.715894374,1,0.22744915771484372,1.744175909423828,-11.136629022216797,-0.732824427480916,0.5801526717557252,-1.366412213740458
5309809025056,0.72176901,1,0.22505495605468748,1.7190367919921874,-11.21084927368164,-0.8473282442748091,0.48854961832061067,-1.297709923664122
5309814909639,0.727653593,1,0.2501940734863281,1.7310078002929687,-11.200075366210937,-0.9236641221374046,0.6335877862595419,-1.3206106870229009
5309820813493,0.733557447,1,0.28012159423828126,1.7357962036132812,-11.148600030517578,-0.8625954198473282,0.5801526717557252,-1.2748091603053435
5309826730472,0.739474426,1,0.19393033447265623,1.7405846069335937,-11.149797131347656,-0.8931297709923665,0.5648854961832062,-1.2748091603053435
5309832575264,0.745319218,1,0.21308394775390624,1.7669208251953124,-11.189301458740234,-0.916030534351145,0.549618320610687,-1.3206106870229009
5309838515420,0.751259374,1,0.1927332336425781,1.7226280944824217,-11.149797131347656,-0.7404580152671756,0.5038167938931297,-1.4045801526717556
5309844420785,0.757164739,1,0.24061726684570311,1.725022296142578,-11.241973895263671,-0.7480916030534351,0.6183206106870229,-1.381679389312977
5309850375316,0.76311927,1,0.1975216369628906,1.7238251953125,-11.202469567871093,-0.816793893129771,0.5954198473282443,-1.282442748091603
5309856332295,0.769076249,1,0.21068974609375,1.7585411193847655,-11.196484063720703,-0.7786259541984732,0.549618320610687,-1.366412213740458
5309862233337,0.774977291,1,0.22864625854492185,1.734599102783203,-11.19169566040039,-0.7938931297709924,0.46564885496183206,-1.3206106870229009
5309868180004,0.780923958,1,0.23343466186523437,1.7561469177246092,-11.142614526367186,-0.7862595419847328,0.6183206106870229,-1.3053435114503817
5309874088337,0.786832291,1,0.21787235107421873,1.7094599853515624,-11.127052215576171,-0.8396946564885496,0.6412213740458015,-1.2748091603053435
5309880056514,0.792800468,1,0.21068974609375,1.6915034729003906,-11.190498559570312,-0.9236641221374046,0.5190839694656488,-1.3587786259541985
5309885990524,0.798734478,1,0.22385785522460935,1.7453730102539062,-11.240776794433593,-0.7251908396946565,0.46564885496183206,-1.3206106870229009
5309891968910,0.804712864,1,0.239420166015625,1.744175909423828,-11.235988391113281,-0.8549618320610687,0.5419847328244275,-1.3435114503816794
5309897952972,0.810696926,1,0.21906945190429686,1.7681179260253905,-11.251550701904296,-0.7480916030534351,0.6030534351145038,-1.2900763358778626
5309903897608,0.816641562,1,0.2885013000488281,1.7214309936523438,-11.146205828857422,-0.7404580152671756,0.5572519083969466,-1.297709923664122
5309909910212,0.822654166,1,0.2346317626953125,1.715445489501953,-11.173739147949219,-0.8702290076335878,0.46564885496183206,-1.297709923664122
5309915858962,0.828602916,1,0.2214636535644531,1.7274164978027342,-11.203666668701171,-0.8931297709923665,0.648854961832061,-1.3053435114503817
5309921982972,0.834726926,1,0.258573779296875,1.7621324218749999,-11.192892761230468,-0.8473282442748091,0.5038167938931297,-1.3511450381679388
5309927959847,0.840703801,1,0.28371289672851563,1.7082628845214842,-11.13423482055664,-0.8473282442748091,0.6564885496183206,-1.2900763358778626
5309933940108,0.846684062,1,0.2059013427734375,1.7130512878417967,-11.17254204711914,-0.8625954198473282,0.549618320610687,-1.3129770992366412
5309939906462,0.852650416,1,0.25139117431640623,1.7489643127441405,-11.188104357910156,-0.7480916030534351,0.6335877862595419,-1.251908396946565
5309945908597,0.858652551,1,0.21428104858398436,1.7573440185546874,-11.165359442138671,-0.7557251908396947,0.5419847328244275,-1.3358778625954197
5309951862399,0.864606353,1,0.22266075439453123,1.6903063720703124,-11.1474029296875,-0.732824427480916,0.6412213740458015,-1.381679389312977
5309957843806,0.87058776,1,0.239420166015625,1.763329522705078,-11.179724652099608,-0.8320610687022901,0.5877862595419847,-1.3053435114503817
5309963771358,0.876515312,1,0.239420166015625,1.7226280944824217,-11.168950744628905,-0.8091603053435115,0.6641221374045801,-1.3358778625954197
5309969713858,0.882457812,1,0.22505495605468748,1.7310078002929687,-11.195286962890624,-0.7938931297709924,0.5954198473282443,-1.2748091603053435
5309975626149,0.888370103,1,0.1975216369628906,1.7465701110839842,-11.188104357910156,-0.8854961832061069,0.732824427480916,-1.251908396946565
5309981581670,0.894325624,1,0.2214636535644531,1.763329522705078,-11.168950744628905,-0.9389312977099237,0.5572519083969466,-1.3893129770992367
5309987494327,0.900238281,1,0.22864625854492185,1.7501614135742187,-11.337741961669922,-0.7862595419847328,0.5877862595419847,-1.2900763358778626
5309993408285,0.906152239,1,0.18914193115234373,1.7322049011230467,-11.145008728027342,-0.8091603053435115,0.6641221374045801,-1.3358778625954197
5309999293181,0.912037135,1,0.2454056701660156,1.753752716064453,-11.219228979492186,-0.7709923664122137,0.5954198473282443,-1.381679389312977
5310005240004,0.917983958,1,0.22505495605468748,1.744175909423828,-11.146205828857422,-0.7862595419847328,0.5572519083969466,-1.4122137404580153
5310011188962,0.923932916,1,0.21188684692382811,1.7369933044433592,-11.16057103881836,-0.7557251908396947,0.5190839694656488,-1.4045801526717556
5310017119743,0.929863697,1,0.2501940734863281,1.6723498596191406,-11.231199987792968,-0.8320610687022901,0.5801526717557252,-1.3435114503816794
5310023044222,0.935788176,1,0.26216508178710934,1.7334020019531249,-11.177330450439452,-0.8015267175572519,0.5343511450381679,-1.3435114503816794
5310029004066,0.94174802,1,0.2442085693359375,1.7525556152343749,-11.145008728027342,-0.8091603053435115,0.5801526717557252,-1.2671755725190839
5310034952347,0.947696301,1,0.15322890625,1.696291876220703,-11.166556542968749,-0.8396946564885496,0.5648854961832062,-1.366412213740458
5310040876774,0.953620728,1,0.23223756103515625,1.7836802368164062,-11.182118853759764,-0.8702290076335878,0.4122137404580153,-1.213740458015267
5310046833233,0.959577187,1,0.2454056701660156,1.7310078002929687,-11.201272467041015,-0.8320610687022901,0.5419847328244275,-1.282442748091603
5310052778076,0.96552203,1,0.24779987182617186,1.6448165405273436,-11.184513055419922,-0.8091603053435115,0.6106870229007634,-1.3893129770992367
5310058679431,0.971423385,1,0.1975216369628906,1.6986860778808592,-11.232397088623046,-0.8091603053435115,0.5877862595419847,-1.3282442748091603
5310064638858,0.977382812,1,0.20470424194335937,1.687912170410156,-11.244368096923827,-0.7480916030534351,0.5801526717557252,-1.3511450381679388
5310070547399,0.983291353,1,0.2059013427734375,1.7106570861816406,-11.159373937988281,-0.7709923664122137,0.5572519083969466,-1.251908396946565
5310076490056,0.98923401,1,0.19871873779296872,1.7166425903320313,-11.226411584472656,-0.9007633587786259,0.6030534351145038,-1.2748091603053435
5310082360993,0.995104947,1,0.2561795776367187,1.753752716064453,-11.194089862060546,-0.8625954198473282,0.5419847328244275,-1.2595419847328244
5310088310733,1.001054687,1,0.2549824768066406,1.7465701110839842,-11.289857928466796,-0.648854961832061,0.5419847328244275,-1.3282442748091603
5310094209483,1.006953437,1,0.23343466186523437,1.7010802795410156,-11.252747802734374,-0.816793893129771,0.6030534351145038,-1.2366412213740459
5310100166618,1.012910572,1,0.2442085693359375,1.7489643127441405,-11.18571015625,-0.8091603053435115,0.6030534351145038,-1.3358778625954197
5310106096097,1.018840051,1,0.23104046020507812,1.7202338928222656,-11.127052215576171,-0.7404580152671756,0.5267175572519084,-1.3206106870229009
5310112040941,1.024784895,1,0.2059013427734375,1.7381904052734374,-11.164162341308593,-0.8625954198473282,0.7022900763358778,-1.251908396946565
5310117984222,1.030728176,1,0.19393033447265623,1.7501614135742187,-11.182118853759764,-0.9007633587786259,0.549618320610687,-1.3740458015267176
5310123935004,1.036678958,1,0.23223756103515625,1.7322049011230467,-11.196484063720703,-0.8396946564885496,0.6183206106870229,-1.3206106870229009
5310129886774,1.042630728,1,0.24181436767578124,1.7118541870117185,-11.273098516845703,-0.8702290076335878,0.5343511450381679,-1.3587786259541985
5310135832347,1.048576301,1,0.21308394775390624,1.7298106994628906,-11.17852755126953,-0.8396946564885496,0.5725190839694656,-1.3969465648854962
5310141802868,1.054546822,1,0.1771709228515625,1.7549498168945312,-11.182118853759764,-0.8778625954198473,0.5267175572519084,-1.297709923664122
5310147736514,1.060480468,1,0.22266075439453123,1.7681179260253905,-11.19169566040039,-0.7557251908396947,0.5419847328244275,-1.251908396946565
5310153671097,1.066415051,1,0.20231004028320312,1.7022773803710936,-11.186907257080078,-0.8473282442748091,0.48091603053435117,-1.381679389312977
5310159591097,1.072335051,1,0.229843359375,1.7262193969726563,-11.148600030517578,-0.8244274809160306,0.5877862595419847,-1.2671755725190839
5310165566410,1.078310364,1,0.22266075439453123,1.734599102783203,-11.235988391113281,-0.9465648854961832,0.6564885496183206,-1.381679389312977
5310171502972,1.084246926,1,0.24061726684570311,1.7369933044433592,-11.23000288696289,-0.8244274809160306,0.5114503816793893,-1.297709923664122
5310177429431,1.090173385,1,0.21308394775390624,1.7178396911621092,-11.220426080322264,-0.8091603053435115,0.6183206106870229,-1.3969465648854962
5310183363597,1.096107551,1,0.22385785522460935,1.7561469177246092,-11.128249316406249,-0.7786259541984732,0.6412213740458015,-1.3358778625954197
5310189316306,1.10206026,1,0.25737667846679685,1.705868682861328,-11.182118853759764,-0.7786259541984732,0.5038167938931297,-1.3358778625954197
5310195228233,1.107972187,1,0.23104046020507812,1.7082628845214842,-11.107898602294922,-0.8473282442748091,0.48854961832061067,-1.3206106870229009
5310201192816,1.11393677,1,0.24779987182617186,1.7417817077636717,-11.241973895263671,-0.8473282442748091,0.5648854961832062,-1.2595419847328244
5310207127920,1.119871874,1,0.23223756103515625,1.7322049011230467,-11.125855114746093,-0.8244274809160306,0.5267175572519084,-1.381679389312977
5310213055004,1.125798958,1,0.2657563842773437,1.6903063720703124,-11.166556542968749,-0.7862595419847328,0.5954198473282443,-1.3358778625954197
5310218971670,1.131715624,1,0.21428104858398436,1.7334020019531249,-11.189301458740234,-0.8778625954198473,0.4732824427480916,-1.3282442748091603
5310224929899,1.137673853,1,0.23702596435546874,1.7298106994628906,-11.189301458740234,-0.9465648854961832,0.5648854961832062,-1.3511450381679388
5310230859847,1.143603801,1,0.2262520568847656,1.7465701110839842,-11.21084927368164,-0.7862595419847328,0.5725190839694656,-1.3740458015267176
5310236786462,1.149530416,1,0.229843359375,1.6891092712402342,-11.15338843383789,-0.8625954198473282,0.4961832061068702,-1.2900763358778626
5310242707087,1.155451041,1,0.23582886352539062,1.7393875061035156,-11.118672509765624,-0.7938931297709924,0.6564885496183206,-1.1984732824427482
5310248704899,1.161448853,1,0.2346317626953125,1.7525556152343749,-11.235988391113281,-0.8473282442748091,0.5801526717557252,-1.2900763358778626
5310254691410,1.167435364,1,0.2442085693359375,1.70467158203125,-11.188104357910156,-0.8091603053435115,0.4961832061068702,-1.297709923664122
5310260685212,1.173429166,1,0.2561795776367187,1.7657237243652342,-11.208455072021483,-0.8015267175572519,0.44274809160305345,-1.2213740458015268
5310266568910,1.179312864,1,0.18914193115234373,1.7106570861816406,-11.161768139648437,-0.8396946564885496,0.3816793893129771,-1.3282442748091603
5310272537399,1.185281353,1,0.22864625854492185,1.7166425903320313,-11.162965240478515,-0.732824427480916,0.44274809160305345,-1.2213740458015268
5310278543024,1.191286978,1,0.20949264526367187,1.7202338928222656,-11.136629022216797,-0.7633587786259542,0.6641221374045801,-1.251908396946565
5310284492660,1.197236614,1,0.2597708801269531,1.7669208251953124,-11.18571015625,-0.8549618320610687,0.6259541984732825,-1.4274809160305344
5310290409483,1.203153437,1,0.21308394775390624,1.7178396911621092,-11.173739147949219,-0.7786259541984732,0.5419847328244275,-1.3206106870229009
5310296329743,1.209073697,1,0.2537853759765625,1.7106570861816406,-11.182118853759764,-0.816793893129771,0.4351145038167939,-1.2213740458015268
5310302267503,1.215011457,1,0.229843359375,1.7034744812011717,-11.207257971191405,-0.8625954198473282,0.6030534351145038,-1.3206106870229009
5310308227295,1.220971249,1,0.19632453613281248,1.7310078002929687,-11.159373937988281,-0.7938931297709924,0.648854961832061,-1.3053435114503817
5310314148024,1.226891978,1,0.2166752502441406,1.7417817077636717,-11.182118853759764,-0.7404580152671756,0.6793893129770993,-1.3435114503816794
5310320101566,1.23284552,1,0.1867477294921875,1.7238251953125,-11.146205828857422,-0.7862595419847328,0.5114503816793893,-1.4274809160305344
5310326005681,1.238749635,1,0.22026655273437498,1.714248388671875,-11.220426080322264,-0.8702290076335878,0.7099236641221374,-1.2900763358778626
5310331887556,1.24463151,1,0.25737667846679685,1.7429788085937499,-11.207257971191405,-0.8244274809160306,0.6106870229007634,-1.3129770992366412
5310337868233,1.250612187,1,0.2166752502441406,1.7082628845214842,-11.182118853759764,-0.8625954198473282,0.5419847328244275,-1.4045801526717556
5310343807920,1.256551874,1,0.22026655273437498,1.7214309936523438,-11.105504400634764,-0.8625954198473282,0.6030534351145038,-1.3129770992366412
5310349786983,1.262530937,1,0.21068974609375,1.7405846069335937,-11.219228979492186,-0.7633587786259542,0.5725190839694656,-1.297709923664122
5310355747608,1.268491562,1,0.1975216369628906,1.7034744812011717,-11.196484063720703,-0.7175572519083969,0.6030534351145038,-1.366412213740458
5310361674378,1.274418332,1,0.21068974609375,1.7369933044433592,-11.110292803955078,-0.7709923664122137,0.549618320610687,-1.3282442748091603
5310367600733,1.280344687,1,0.16998831787109375,1.7357962036132812,-11.11508120727539,-0.7786259541984732,0.5572519083969466,-1.3740458015267176
5310373552608,1.286296562,1,0.15322890625,1.7286135986328124,-11.219228979492186,-0.7557251908396947,0.6030534351145038,-1.3358778625954197
5310379469170,1.292213124,1,0.19991583862304688,1.7357962036132812,-11.164162341308593,-0.8854961832061069,0.5114503816793893,-1.3358778625954197
5310385426826,1.29817078,1,0.16041151123046873,1.7178396911621092,-11.192892761230468,-0.9236641221374046,0.6641221374045801,-1.3129770992366412
5310391335472,1.304079426,1,0.2346317626953125,1.7417817077636717,-11.243170996093749,-0.8396946564885496,0.5877862595419847,-1.2748091603053435
5310397271826,1.31001578,1,0.20231004028320312,1.7597382202148437,-11.194089862060546,-0.8931297709923665,0.48854961832061067,-1.297709923664122
5310403213128,1.315957082,1,0.15562310791015624,1.7513585144042967,-11.219228979492186,-0.8625954198473282,0.6259541984732825,-1.381679389312977
5310409169951,1.321913905,1,0.25139117431640623,1.7118541870117185,-11.164162341308593,-0.8702290076335878,0.6106870229007634,-1.297709923664122
5310415112920,1.327856874,1,0.23822306518554687,1.7776947326660155,-11.165359442138671,-0.7938931297709924,0.5572519083969466,-1.2900763358778626
5310421048181,1.333792135,1,0.22385785522460935,1.7190367919921874,-11.182118853759764,-0.816793893129771,0.6259541984732825,-1.2748091603053435
5310426963649,1.339707603,1,0.20350714111328125,1.7453730102539062,-11.165359442138671,-0.8549618320610687,0.6030534351145038,-1.3511450381679388
5310432904378,1.345648332,1,0.24061726684570311,1.7465701110839842,-11.180921752929686,-0.7557251908396947,0.48854961832061067,-1.366412213740458
5310438835264,1.351579218,1,0.2549824768066406,1.6938976745605467,-11.129446417236327,-0.8854961832061069,0.4732824427480916,-1.381679389312977
5310444785576,1.35752953,1,0.22385785522460935,1.7298106994628906,-11.212046374511718,-0.9007633587786259,0.5801526717557252,-1.251908396946565
5310450696983,1.363440937,1,0.23343466186523437,1.7393875061035156,-11.143811627197264,-0.8473282442748091,0.5801526717557252,-1.3206106870229009
5310456657555,1.369401509,1,0.2657563842773437,1.772906329345703,-11.23000288696289,-0.8091603053435115,0.5877862595419847,-1.3587786259541985
5310462587139,1.375331093,1,0.2166752502441406,1.7106570861816406,-11.212046374511718,-0.916030534351145,0.549618320610687,-1.3053435114503817
5310468503545,1.381247499,1,0.26216508178710934,1.782483135986328,-11.164162341308593,-0.7862595419847328,0.6183206106870229,-1.3358778625954197
5310474426410,1.387170364,1,0.23343466186523437,1.7429788085937499,-11.164162341308593,-0.6793893129770993,0.5190839694656488,-1.2900763358778626
5310480343285,1.393087239,1,0.20231004028320312,1.7561469177246092,-11.21084927368164,-0.816793893129771,0.45038167938931295,-1.3053435114503817
5310486262139,1.399006093,1,0.24301146850585936,1.7214309936523438,-11.166556542968749,-0.7251908396946565,0.5954198473282443,-1.3282442748091603
5310492190628,1.404934582,1,0.2597708801269531,1.715445489501953,-11.194089862060546,-0.7404580152671756,0.4961832061068702,-1.3206106870229009
5310498127608,1.410871562,1,0.2346317626953125,1.6831237670898436,-11.240776794433593,-0.8015267175572519,0.5343511450381679,-1.2366412213740459
5310504081670,1.416825624,1,0.2059013427734375,1.7118541870117185,-11.202469567871093,-0.8702290076335878,0.5648854961832062,-1.3282442748091603
5310510027295,1.422771249,1,0.24899697265624998,1.7322049011230467,-11.125855114746093,-0.8244274809160306,0.5725190839694656,-1.3053435114503817
5310515968337,1.428712291,1,0.2549824768066406,1.7190367919921874,-11.143811627197264,-0.7022900763358778,0.42748091603053434,-1.3587786259541985
5310521958701,1.434702655,1,0.2154781494140625,1.7621324218749999,-11.143811627197264,-0.8778625954198473,0.4732824427480916,-1.3129770992366412
5310527898753,1.440642707,1,0.21068974609375,1.686715069580078,-11.182118853759764,-0.7938931297709924,0.5725190839694656,-1.3511450381679388
5310533874014,1.446617968,1,0.24301146850585936,1.7082628845214842,-11.261127508544922,-0.7557251908396947,0.48854961832061067,-1.3587786259541985
5310539813389,1.452557343,1,0.24061726684570311,1.7190367919921874,-11.139023223876952,-0.8320610687022901,0.48854961832061067,-1.3206106870229009
5310545786045,1.458529999,1,0.2154781494140625,1.782483135986328,-11.17852755126953,-0.8778625954198473,0.5267175572519084,-1.2748091603053435
5310551678701,1.464422655,1,0.239420166015625,1.7322049011230467,-11.195286962890624,-0.7938931297709924,0.5648854961832062,-1.297709923664122
5310557631983,1.470375937,1,0.20949264526367187,1.7298106994628906,-11.152191333007812,-0.732824427480916,0.6335877862595419,-1.297709923664122
5310563582139,1.476326093,1,0.2537853759765625,1.7286135986328124,-11.186907257080078,-0.8625954198473282,0.549618320610687,-1.3893129770992367
5310569508753,1.482252707,1,0.22744915771484372,1.7597382202148437,-11.227608685302734,-0.8091603053435115,0.549618320610687,-1.3740458015267176
5310575436462,1.488180416,1,0.2154781494140625,1.7693150268554687,-11.149797131347656,-0.8015267175572519,0.5954198473282443,-1.3893129770992367
5310581361410,1.494105364,1,0.22744915771484372,1.6843208679199217,-11.117475408935546,-0.8549618320610687,0.5954198473282443,-1.2595419847328244
5310587349430,1.500093384,1,0.2166752502441406,1.7477672119140624,-11.124658013916015,-0.8625954198473282,0.648854961832061,-1.381679389312977
5310593331878,1.506075832,1,0.2214636535644531,1.7800889343261719,-11.215637677001952,-0.8320610687022901,0.5725190839694656,-1.2900763358778626
5310599282972,1.512026926,1,0.25737667846679685,1.7549498168945312,-11.188104357910156,-0.8244274809160306,0.5572519083969466,-1.3206106870229009
5310605256201,1.518000155,1,0.20470424194335937,1.744175909423828,-11.166556542968749,-0.8091603053435115,0.5190839694656488,-1.2671755725190839
5310611185785,1.523929739,1,0.21906945190429686,1.7381904052734374,-11.196484063720703,-0.7862595419847328,0.5267175572519084,-1.3206106870229009
5310617140108,1.529884062,1,0.229843359375,1.7178396911621092,-11.225214483642578,-0.8091603053435115,0.5038167938931297,-1.2671755725190839
5310623125472,1.535869426,1,0.2537853759765625,1.7741034301757812,-11.158176837158203,-0.7633587786259542,0.648854961832061,-1.2748091603053435
5310629081826,1.54182578,1,0.2549824768066406,1.7561469177246092,-11.204863769531249,-0.8320610687022901,0.5877862595419847,-1.3587786259541985
5310635007399,1.547751353,1,0.22744915771484372,1.7417817077636717,-11.207257971191405,-0.7022900763358778,0.5954198473282443,-1.3358778625954197
5310640970472,1.553714426,1,0.21428104858398436,1.7525556152343749,-11.142614526367186,-0.8320610687022901,0.5648854961832062,-1.2290076335877862
5310646892087,1.559636041,1,0.22864625854492185,1.7226280944824217,-11.232397088623046,-0.8320610687022901,0.5725190839694656,-1.3053435114503817
5310652868910,1.565612864,1,0.22744915771484372,1.7465701110839842,-11.197681164550781,-0.7709923664122137,0.48091603053435117,-1.3740458015267176
5310658820680,1.571564634,1,0.23822306518554687,1.7190367919921874,-11.165359442138671,-0.7862595419847328,0.5648854961832062,-1.2900763358778626
5310664748493,1.577492447,1,0.2442085693359375,1.6843208679199217,-11.239579693603515,-0.8473282442748091,0.5343511450381679,-1.3282442748091603
5310670667243,1.583411197,1,0.22864625854492185,1.6891092712402342,-11.18571015625,-0.8015267175572519,0.6183206106870229,-1.2900763358778626
5310676623701,1.589367655,1,0.21068974609375,1.7166425903320313,-11.222820281982422,-0.8473282442748091,0.5114503816793893,-1.4045801526717556
5310682540107,1.595284061,1,0.22505495605468748,1.686715069580078,-11.19169566040039,-0.7862595419847328,0.5801526717557252,-1.3129770992366412
5310688501357,1.601245311,1,0.23104046020507812,1.7094599853515624,-11.146205828857422,-0.8778625954198473,0.5648854961832062,-1.2900763358778626
5310694432035,1.607175989,1,0.2501940734863281,1.7310078002929687,-11.208455072021483,-0.7480916030534351,0.5877862595419847,-1.282442748091603
5310700388753,1.613132707,1,0.24899697265624998,1.734599102783203,-11.21084927368164,-0.7633587786259542,0.5419847328244275,-1.251908396946565
5310706355472,1.619099426,1,0.2561795776367187,1.7298106994628906,-11.121066711425781,-0.8396946564885496,0.5419847328244275,-1.3129770992366412
5310712273857,1.625017811,1,0.2657563842773437,1.707065783691406,-11.189301458740234,-0.8473282442748091,0.5725190839694656,-1.3511450381679388
5310718193597,1.630937551,1,0.201112939453125,1.6819266662597656,-11.190498559570312,-0.9465648854961832,0.5419847328244275,-1.2671755725190839
5310724131253,1.636875207,1,0.24779987182617186,1.7274164978027342,-11.253944903564452,-0.8625954198473282,0.4732824427480916,-1.3435114503816794
5310730048180,1.642792134,1,0.21906945190429686,1.753752716064453,-11.276689819335937,-0.8854961832061069,0.5114503816793893,-1.2671755725190839
5310736031149,1.648775103,1,0.2645592834472656,1.7549498168945312,-11.202469567871093,-0.7633587786259542,0.6030534351145038,-1.297709923664122
5310741977035,1.654720989,1,0.21787235107421873,1.715445489501953,-11.225214483642578,-0.816793893129771,0.5343511450381679,-1.3053435114503817
5310747919691,1.660663645,1,0.239420166015625,1.7178396911621092,-11.2240173828125,-0.8778625954198473,0.5801526717557252,-1.2748091603053435
5310753911201,1.666655155,1,0.23343466186523437,1.7202338928222656,-11.148600030517578,-0.8015267175572519,0.5725190839694656,-1.3129770992366412
5310759857607,1.672601561,1,0.1771709228515625,1.6903063720703124,-11.196484063720703,-0.7786259541984732,0.5267175572519084,-1.3435114503816794
5310765832868,1.678576822,1,0.20949264526367187,1.678335363769531,-11.19887826538086,-0.6335877862595419,0.4580152671755725,-1.3206106870229009
5310771788753,1.684532707,1,0.24779987182617186,1.7405846069335937,-11.246762298583985,-0.7862595419847328,0.6106870229007634,-1.3358778625954197
5310777692503,1.690436457,1,0.21906945190429686,1.7334020019531249,-11.141417425537108,-0.8091603053435115,0.5419847328244275,-1.3358778625954197
5310783603076,1.69634703,1,0.1867477294921875,1.7597382202148437,-11.208455072021483,-0.8015267175572519,0.5419847328244275,-1.4351145038167938
5310789527139,1.702271093,1,0.23822306518554687,1.7106570861816406,-11.133037719726563,-0.816793893129771,0.5725190839694656,-1.3511450381679388
5310795458128,1.708202082,1,0.22026655273437498,1.811213555908203,-11.201272467041015,-0.8396946564885496,0.48091603053435117,-1.2671755725190839
5310801416566,1.71416052,1,0.26815058593749996,1.725022296142578,-11.152191333007812,-0.7786259541984732,0.4580152671755725,-1.3587786259541985
5310807323180,1.720067134,1,0.23822306518554687,1.6891092712402342,-11.197681164550781,-0.9389312977099237,0.6335877862595419,-1.3435114503816794
5310813258753,1.726002707,1,0.20709844360351562,1.7525556152343749,-11.165359442138671,-0.8320610687022901,0.4732824427480916,-1.3282442748091603
5310819186930,1.731930884,1,0.22385785522460935,1.7489643127441405,-11.231199987792968,-0.7786259541984732,0.4961832061068702,-1.3206106870229009
5310825101930,1.737845884,1,0.24061726684570311,1.753752716064453,-11.25514200439453,-0.7938931297709924,0.48091603053435117,-1.251908396946565
5310831006566,1.74375052,1,0.24181436767578124,1.7130512878417967,-11.15338843383789,-0.8778625954198473,0.5038167938931297,-1.4198473282442747
5310836963649,1.749707603,1,0.20350714111328125,1.705868682861328,-11.221623181152344,-0.7786259541984732,0.5038167938931297,-1.3740458015267176
5310842891618,1.755635572,1,0.2609679809570312,1.7118541870117185,-11.174936248779296,-0.8015267175572519,0.5343511450381679,-1.3129770992366412
5310848819118,1.761563072,1,0.258573779296875,1.6831237670898436,-11.162965240478515,-0.8473282442748091,0.44274809160305345,-1.3053435114503817
5310854770368,1.767514322,1,0.24061726684570311,1.725022296142578,-11.220426080322264,-0.8091603053435115,0.5572519083969466,-1.3969465648854962
5310860726410,1.773470364,1,0.19033903198242186,1.714248388671875,-11.21084927368164,-0.7709923664122137,0.5343511450381679,-1.2366412213740459
5310866659378,1.779403332,1,0.22744915771484372,1.7286135986328124,-11.168950744628905,-0.8244274809160306,0.5190839694656488,-1.2748091603053435
5310872590055,1.785334009,1,0.22744915771484372,1.7645266235351562,-11.141417425537108,-0.8091603053435115,0.6183206106870229,-1.381679389312977
5310878504639,1.791248593,1,0.2861070983886719,1.7310078002929687,-11.135431921386719,-0.7938931297709924,0.6183206106870229,-1.282442748091603
5310884429378,1.797173332,1,0.24181436767578124,1.7381904052734374,-11.241973895263671,-0.7633587786259542,0.5572519083969466,-1.3129770992366412
5310890365576,1.80310953,1,0.18555062866210936,1.7357962036132812,-11.19169566040039,-0.8549618320610687,0.48854961832061067,-1.3435114503816794
5310896328441,1.809072395,1,0.25139117431640623,1.7082628845214842,-11.202469567871093,-0.8015267175572519,0.549618320610687,-1.2442748091603053
5310902369014,1.815112968,1,0.2059013427734375,1.7202338928222656,-11.202469567871093,-0.8702290076335878,0.5725190839694656,-1.3740458015267176
5310908341670,1.821085624,1,0.26336218261718747,1.697488977050781,-11.221623181152344,-0.8549618320610687,0.5648854961832062,-1.297709923664122
5310914262451,1.827006405,1,0.23223756103515625,1.7381904052734374,-11.183315954589844,-0.7938931297709924,0.5267175572519084,-1.3129770992366412
5310920251670,1.832995624,1,0.26336218261718747,1.705868682861328,-11.17852755126953,-0.8549618320610687,0.549618320610687,-1.3511450381679388
5310926215264,1.838959218,1,0.16759411621093748,1.7310078002929687,-11.275492718505859,-0.8091603053435115,0.5648854961832062,-1.3206106870229009
5310932166045,1.844909999,1,0.1771709228515625,1.7573440185546874,-11.197681164550781,-0.8549618320610687,0.6412213740458015,-1.2900763358778626
5310938089743,1.850833697,1,0.20949264526367187,1.68551796875,-11.214440576171874,-0.816793893129771,0.5038167938931297,-1.4427480916030535
5310944058024,1.856801978,1,0.23104046020507812,1.6998831787109374,-11.174936248779296,-0.816793893129771,0.5419847328244275,-1.3358778625954197
5310950024534,1.862768488,1,0.27293898925781246,1.70467158203125,-11.107898602294922,-0.8702290076335878,0.5801526717557252,-1.366412213740458
5310956056149,1.868800103,1,0.22385785522460935,1.7106570861816406,-11.165359442138671,-0.8549618320610687,0.5725190839694656,-1.2671755725190839
5310962042139,1.874786093,1,0.24899697265624998,1.7334020019531249,-11.18571015625,-0.7786259541984732,0.5114503816793893,-1.251908396946565
5310968024847,1.880768801,1,0.24660277099609373,1.7166425903320313,-11.165359442138671,-0.8015267175572519,0.5190839694656488,-1.3053435114503817
5310974026357,1.886770311,1,0.19632453613281248,1.7429788085937499,-11.143811627197264,-0.916030534351145,0.549618320610687,-1.3053435114503817
5310979982451,1.892726405,1,0.20350714111328125,1.7393875061035156,-11.146205828857422,-0.7938931297709924,0.5038167938931297,-1.3740458015267176
5310985957868,1.898701822,1,0.21188684692382811,1.7010802795410156,-11.167753643798827,-0.7480916030534351,0.5419847328244275,-1.3511450381679388
5310991967139,1.904711093,1,0.21068974609375,1.7010802795410156,-11.156979736328124,-0.8625954198473282,0.45038167938931295,-1.3129770992366412
5310998033753,1.910777707,1,0.21308394775390624,1.7022773803710936,-11.136629022216797,-0.7251908396946565,0.6641221374045801,-1.2748091603053435
5311003911670,1.916655624,1,0.24899697265624998,1.7393875061035156,-11.131840618896483,-0.7404580152671756,0.5267175572519084,-1.3282442748091603
5311009891097,1.922635051,1,0.21906945190429686,1.7573440185546874,-11.180921752929686,-0.7938931297709924,0.5954198473282443,-1.3282442748091603
5311015833284,1.928577238,1,0.25139117431640623,1.7465701110839842,-11.17254204711914,-0.8625954198473282,0.648854961832061,-1.3053435114503817
5311021792659,1.934536613,1,0.24899697265624998,1.6699556579589843,-11.161768139648437,-0.8625954198473282,0.44274809160305345,-1.3129770992366412
5311027750732,1.940494686,1,0.2454056701660156,1.7800889343261719,-11.253944903564452,-0.8549618320610687,0.46564885496183206,-1.3053435114503817
5311033682764,1.946426718,1,0.24899697265624998,1.7609353210449217,-11.220426080322264,-0.7480916030534351,0.5725190839694656,-1.297709923664122
5311039596930,1.952340884,1,0.2346317626953125,1.7489643127441405,-11.135431921386719,-0.816793893129771,0.5267175572519084,-1.2595419847328244
5311045542243,1.958286197,1,0.24779987182617186,1.714248388671875,-11.23718549194336,-0.816793893129771,0.5114503816793893,-1.3129770992366412
5311051469534,1.964213488,1,0.21068974609375,1.7226280944824217,-11.19887826538086,-0.8244274809160306,0.6412213740458015,-1.3435114503816794
5311057436045,1.970179999,1,0.21188684692382811,1.7190367919921874,-11.251550701904296,-0.7557251908396947,0.6335877862595419,-1.2900763358778626
5311063360055,1.976104009,1,0.2454056701660156,1.7178396911621092,-11.131840618896483,-0.8396946564885496,0.44274809160305345,-1.3053435114503817
5311069291566,1.98203552,1,0.18435352783203124,1.7010802795410156,-11.179724652099608,-0.7862595419847328,0.549618320610687,-1.3053435114503817
5311075173284,1.987917238,1,0.2154781494140625,1.7369933044433592,-11.171344946289063,-0.8244274809160306,0.5801526717557252,-1.3587786259541985
5311081111566,1.99385552,1,0.21068974609375,1.7369933044433592,-11.166556542968749,-0.7862595419847328,0.5954198473282443,-1.3587786259541985
5311087034170,1.999778124,1,0.24181436767578124,1.7238251953125,-11.164162341308593,-0.7862595419847328,0.5954198473282443,-1.4198473282442747
5311092954691,2.005698645,1,0.258573779296875,1.7477672119140624,-11.226411584472656,-0.9770992366412213,0.5190839694656488,-1.2671755725190839
5311098849587,2.011593541,1,0.23822306518554687,1.7310078002929687,-11.214440576171874,-0.8244274809160306,0.549618320610687,-1.3053435114503817
5311104854430,2.017598384,1,0.2442085693359375,1.7453730102539062,-11.103110198974608,-0.7709923664122137,0.5954198473282443,-1.3282442748091603
5311110820576,2.02356453,1,0.2597708801269531,1.7034744812011717,-11.171344946289063,-0.8702290076335878,0.6259541984732825,-1.3053435114503817
5311116747503,2.029491457,1,0.26336218261718747,1.7393875061035156,-11.228805786132812,-0.9007633587786259,0.5801526717557252,-1.3282442748091603
5311122673909,2.035417863,1,0.20350714111328125,1.7513585144042967,-11.269507214355468,-0.7938931297709924,0.6259541984732825,-1.297709923664122
5311128605264,2.041349218,1,0.258573779296875,1.70467158203125,-11.170147845458983,-0.7938931297709924,0.648854961832061,-1.297709923664122
5311134542711,2.047286665,1,0.21188684692382811,1.7525556152343749,-11.19169566040039,-0.9083969465648855,0.6717557251908397,-1.3358778625954197
5311140494482,2.053238436,1,0.20829554443359374,1.7429788085937499,-11.182118853759764,-0.8778625954198473,0.5648854961832062,-1.3282442748091603
5311146485264,2.059229218,1,0.23702596435546874,1.6891092712402342,-11.213243475341796,-0.8320610687022901,0.5419847328244275,-1.3206106870229009
5311152426201,2.065170155,1,0.2059013427734375,1.7178396911621092,-11.184513055419922,-0.7862595419847328,0.5801526717557252,-1.3511450381679388
5311158362711,2.071106665,1,0.19512743530273435,1.7118541870117185,-11.207257971191405,-0.916030534351145,0.5725190839694656,-1.2595419847328244
5311164285107,2.077029061,1,0.19991583862304688,1.7369933044433592,-11.240776794433593,-0.9389312977099237,0.5725190839694656,-1.3206106870229009
5311170214222,2.082958176,1,0.23104046020507812,1.7310078002929687,-11.177330450439452,-0.816793893129771,0.549618320610687,-1.2748091603053435
5311176173441,2.088917395,1,0.2537853759765625,1.7405846069335937,-11.154585534667968,-0.8931297709923665,0.5801526717557252,-1.366412213740458
5311182101722,2.094845676,1,0.23822306518554687,1.705868682861328,-11.192892761230468,-0.7786259541984732,0.549618320610687,-1.3129770992366412
5311188067868,2.100811822,1,0.2597708801269531,1.7094599853515624,-11.19169566040039,-0.816793893129771,0.5267175572519084,-1.297709923664122
5311194029795,2.106773749,1,0.2454056701660156,1.7310078002929687,-11.19169566040039,-0.8320610687022901,0.5648854961832062,-1.297709923664122
5311200065628,2.112809582,1,0.2262520568847656,1.7393875061035156,-11.194089862060546,-0.8854961832061069,0.6030534351145038,-1.4427480916030535
5311206053232,2.118797186,1,0.22385785522460935,1.7262193969726563,-11.2240173828125,-0.7862595419847328,0.5801526717557252,-1.3587786259541985
5311212033024,2.124776978,1,0.229843359375,1.7477672119140624,-11.239579693603515,-0.7786259541984732,0.6030534351145038,-1.251908396946565
5311217999118,2.130743072,1,0.20470424194335937,1.7310078002929687,-11.195286962890624,-0.7633587786259542,0.549618320610687,-1.3053435114503817
5311223956305,2.136700259,1,0.2501940734863281,1.7764976318359373,-11.183315954589844,-0.8244274809160306,0.5725190839694656,-1.381679389312977
5311230011149,2.142755103,1,0.27892449340820313,1.6843208679199217,-11.2240173828125,-0.7175572519083969,0.5038167938931297,-1.2671755725190839
5311235972555,2.148716509,1,0.20470424194335937,1.7166425903320313,-11.119869610595703,-0.8473282442748091,0.5648854961832062,-1.3282442748091603
5311241943857,2.154687811,1,0.19991583862304688,1.734599102783203,-11.188104357910156,-0.8396946564885496,0.6106870229007634,-1.3511450381679388
5311247883076,2.16062703,1,0.23822306518554687,1.7429788085937499,-11.133037719726563,-0.7557251908396947,0.5648854961832062,-1.282442748091603
5311253880368,2.166624322,1,0.26695348510742184,1.7118541870117185,-11.19887826538086,-0.7938931297709924,0.5954198473282443,-1.3740458015267176
5311259876409,2.172620363,1,0.21188684692382811,1.705868682861328,-11.15338843383789,-0.7404580152671756,0.5801526717557252,-1.3358778625954197
5311265870836,2.17861479,1,0.17118541870117188,1.7381904052734374,-11.166556542968749,-0.8396946564885496,0.5954198473282443,-1.3129770992366412
5311271814222,2.184558176,1,0.23822306518554687,1.7130512878417967,-11.1474029296875,-0.7175572519083969,0.5954198473282443,-1.3511450381679388
5311277795836,2.19053979,1,0.26216508178710934,1.7429788085937499,-11.190498559570312,-0.8931297709923665,0.648854961832061,-1.366412213740458
5311283747868,2.196491822,1,0.19033903198242186,1.7405846069335937,-11.201272467041015,-0.8473282442748091,0.6259541984732825,-1.4351145038167938
5311289672295,2.202416249,1,0.23343466186523437,1.7513585144042967,-11.258733306884764,-0.7938931297709924,0.6335877862595419,-1.3587786259541985
5311295596982,2.208340936,1,0.21428104858398436,1.7525556152343749,-11.19169566040039,-0.8015267175572519,0.6946564885496184,-1.2671755725190839
5311301547816,2.21429177,1,0.23343466186523437,1.7094599853515624,-11.188104357910156,-0.8702290076335878,0.5419847328244275,-1.3053435114503817
5311307448128,2.220192082,1,0.19512743530273435,1.7202338928222656,-11.204863769531249,-0.7938931297709924,0.5343511450381679,-1.2595419847328244
5311313407972,2.226151926,1,0.22744915771484372,1.6998831787109374,-11.253944903564452,-0.8320610687022901,0.7022900763358778,-1.3587786259541985
5311319244013,2.231987967,1,0.19393033447265623,1.714248388671875,-11.131840618896483,-0.8549618320610687,0.6335877862595419,-1.3206106870229009
5311325097191,2.237841145,1,0.24181436767578124,1.7477672119140624,-11.183315954589844,-0.8015267175572519,0.5648854961832062,-1.3893129770992367
5311331023180,2.243767134,1,0.21308394775390624,1.6998831787109374,-11.299434735107422,-0.8473282442748091,0.48091603053435117,-1.366412213740458
5311336936774,2.249680728,1,0.20470424194335937,1.7597382202148437,-11.219228979492186,-0.8625954198473282,0.549618320610687,-1.3435114503816794
5311342864795,2.255608749,1,0.28969840087890625,1.7118541870117185,-11.162965240478515,-0.8931297709923665,0.5114503816793893,-1.3587786259541985
5311348862138,2.261606092,1,0.28012159423828126,1.725022296142578,-11.220426080322264,-0.7938931297709924,0.5419847328244275,-1.3129770992366412
5311354820368,2.267564322,1,0.181959326171875,1.7405846069335937,-11.129446417236327,-0.7938931297709924,0.5572519083969466,-1.3435114503816794
5311360785888,2.273529842,1,0.26336218261718747,1.7298106994628906,-11.19887826538086,-0.816793893129771,0.5343511450381679,-1.4274809160305344
5311366708024,2.279451978,1,0.27293898925781246,1.7369933044433592,-11.148600030517578,-0.8015267175572519,0.5725190839694656,-1.3053435114503817
5311372632191,2.285376145,1,0.20231004028320312,1.7118541870117185,-11.135431921386719,-0.7251908396946565,0.5648854961832062,-1.3511450381679388
5311378566149,2.291310103,1,0.2693476867675781,1.7106570861816406,-11.245565197753905,-0.8778625954198473,0.6183206106870229,-1.2442748091603053
5311384492607,2.297236561,1,0.19871873779296872,1.7381904052734374,-11.18571015625,-0.8854961832061069,0.648854961832061,-1.3129770992366412
5311390420941,2.303164895,1,0.181959326171875,1.7609353210449217,-11.220426080322264,-0.7709923664122137,0.5038167938931297,-1.2366412213740459
5311396343909,2.309087863,1,0.21787235107421873,1.7561469177246092,-11.149797131347656,-0.8473282442748091,0.5954198473282443,-1.2290076335877862
5311402285211,2.315029165,1,0.22864625854492185,1.697488977050781,-11.146205828857422,-0.8549618320610687,0.5801526717557252,-1.297709923664122
5311408239013,2.320982967,1,0.2442085693359375,1.7429788085937499,-11.15338843383789,-0.8091603053435115,0.6106870229007634,-1.3511450381679388
5311414185316,2.32692927,1,0.22505495605468748,1.7669208251953124,-11.179724652099608,-0.816793893129771,0.5267175572519084,-1.3511450381679388
5311420071149,2.332815103,1,0.18315642700195311,1.7369933044433592,-11.197681164550781,-0.8702290076335878,0.5419847328244275,-1.465648854961832
5311426069534,2.338813488,1,0.2561795776367187,1.7226280944824217,-11.173739147949219,-0.7404580152671756,0.6106870229007634,-1.2748091603053435
5311431978805,2.344722759,1,0.21787235107421873,1.7034744812011717,-11.219228979492186,-0.8015267175572519,0.5572519083969466,-1.366412213740458
5311437940836,2.35068479,1,0.20350714111328125,1.6927005737304686,-11.201272467041015,-0.8015267175572519,0.5267175572519084,-1.297709923664122
5311443877816,2.35662177,1,0.2154781494140625,1.763329522705078,-11.250353601074218,-0.7404580152671756,0.5877862595419847,-1.3282442748091603
5311449801149,2.362545103,1,0.17477672119140625,1.734599102783203,-11.23000288696289,-0.7938931297709924,0.4961832061068702,-1.3358778625954197
5311456665159,2.369409113,1,0.20231004028320312,1.7322049011230467,-11.180921752929686,-0.7709923664122137,0.5267175572519084,-1.2671755725190839
5311462681826,2.37542578,1,0.22266075439453123,1.7465701110839842,-11.189301458740234,-0.8778625954198473,0.6564885496183206,-1.2671755725190839
5311468945472,2.381689426,1,0.2166752502441406,1.7310078002929687,-11.209652172851563,-0.9007633587786259,0.5343511450381679,-1.366412213740458
5311474876774,2.387620728,1,0.181959326171875,1.6938976745605467,-11.239579693603515,-0.7251908396946565,0.4961832061068702,-1.3053435114503817
5311480759534,2.393503488,1,0.27892449340820313,1.7405846069335937,-11.131840618896483,-0.8931297709923665,0.5267175572519084,-1.2748091603053435
5311486741722,2.399485676,1,0.23702596435546874,1.7190367919921874,-11.258733306884764,-0.8091603053435115,0.6335877862595419,-1.3893129770992367
5311492646826,2.40539078,1,0.2166752502441406,1.6998831787109374,-11.190498559570312,-0.8091603053435115,0.5267175572519084,-1.366412213740458
5311498550576,2.41129453,1,0.19153613281249998,1.686715069580078,-11.184513055419922,-0.8015267175572519,0.48091603053435117,-1.3358778625954197
5311504460993,2.417204947,1,0.21068974609375,1.7357962036132812,-11.189301458740234,-0.8091603053435115,0.5648854961832062,-1.4122137404580153
5311510358753,2.423102707,1,0.23343466186523437,1.734599102783203,-11.190498559570312,-0.7099236641221374,0.6183206106870229,-1.2900763358778626
5311516271305,2.429015259,1,0.2561795776367187,1.707065783691406,-11.180921752929686,-0.7786259541984732,0.6030534351145038,-1.2595419847328244
5311522210003,2.434953957,1,0.2154781494140625,1.7657237243652342,-11.174936248779296,-0.8396946564885496,0.5190839694656488,-1.3511450381679388
5311528142711,2.440886665,1,0.21906945190429686,1.7645266235351562,-11.200075366210937,-0.7786259541984732,0.5419847328244275,-1.2671755725190839
5311534045576,2.44678953,1,0.229843359375,1.695094775390625,-11.19887826538086,-0.7404580152671756,0.5877862595419847,-1.3435114503816794
5311539972399,2.452716353,1,0.24301146850585936,1.7118541870117185,-11.117475408935546,-0.9083969465648855,0.5572519083969466,-1.3129770992366412
5311545987763,2.458731717,1,0.22385785522460935,1.7597382202148437,-11.203666668701171,-0.8702290076335878,0.5801526717557252,-1.3053435114503817
5311551968232,2.464712186,1,0.23822306518554687,1.715445489501953,-11.176133349609374,-0.7633587786259542,0.549618320610687,-1.366412213740458
5311557929586,2.47067354,1,0.23104046020507812,1.7082628845214842,-11.184513055419922,-0.7709923664122137,0.5648854961832062,-1.3969465648854962
5311563873336,2.47661729,1,0.21906945190429686,1.7860744384765623,-11.21084927368164,-0.8625954198473282,0.6183206106870229,-1.366412213740458
5311569729013,2.482472967,1,0.22026655273437498,1.7010802795410156,-11.241973895263671,-0.8244274809160306,0.6946564885496184,-1.251908396946565
5311575637972,2.488381926,1,0.20829554443359374,1.7609353210449217,-11.19887826538086,-0.6641221374045801,0.5419847328244275,-1.3282442748091603
5311581543961,2.494287915,1,0.19033903198242186,1.7597382202148437,-11.213243475341796,-0.9389312977099237,0.648854961832061,-1.2595419847328244
5311587416045,2.500159999,1,0.20829554443359374,1.7178396911621092,-11.154585534667968,-0.8625954198473282,0.6564885496183206,-1.3129770992366412
5311593438961,2.506182915,1,0.18435352783203124,1.744175909423828,-11.146205828857422,-0.7938931297709924,0.5648854961832062,-1.3129770992366412
5311599346149,2.512090103,1,0.22266075439453123,1.695094775390625,-11.170147845458983,-0.8473282442748091,0.5725190839694656,-1.4045801526717556
5311605240420,2.517984374,1,0.22026655273437498,1.7597382202148437,-11.145008728027342,-0.8015267175572519,0.5114503816793893,-1.381679389312977
5311611134690,2.523878644,1,0.2561795776367187,1.705868682861328,-11.145008728027342,-0.6793893129770993,0.5190839694656488,-1.366412213740458
5311617043076,2.52978703,1,0.23343466186523437,1.6938976745605467,-11.188104357910156,-0.7938931297709924,0.42748091603053434,-1.381679389312977
5311622895993,2.535639947,1,0.17597382202148437,1.7310078002929687,-11.167753643798827,-0.9083969465648855,0.6564885496183206,-1.3206106870229009
5311628787138,2.541531092,1,0.1879448303222656,1.7298106994628906,-11.197681164550781,-0.9083969465648855,0.5572519083969466,-1.2595419847328244
5311634671826,2.54741578,1,0.23702596435546874,1.7932570434570312,-11.200075366210937,-0.9083969465648855,0.5648854961832062,-1.3129770992366412
5311640617815,2.553361769,1,0.25139117431640623,1.7166425903320313,-11.043255157470702,-0.8473282442748091,0.549618320610687,-1.3511450381679388
5311646524013,2.559267967,1,0.258573779296875,1.7369933044433592,-11.180921752929686,-0.8778625954198473,0.549618320610687,-1.3511450381679388
5311652605628,2.565349582,1,0.24660277099609373,1.7405846069335937,-11.234791290283203,-0.7480916030534351,0.6259541984732825,-1.282442748091603
5311658455368,2.571199322,1,0.19871873779296872,1.705868682861328,-11.17852755126953,-0.7633587786259542,0.5267175572519084,-1.3587786259541985
5311664389118,2.577133072,1,0.1927332336425781,1.7106570861816406,-11.220426080322264,-0.8015267175572519,0.6793893129770993,-1.3053435114503817
5311670301305,2.583045259,1,0.26216508178710934,1.6986860778808592,-11.225214483642578,-0.7938931297709924,0.5801526717557252,-1.3435114503816794
5311676237607,2.588981561,1,0.19991583862304688,1.7202338928222656,-11.299434735107422,-0.8015267175572519,0.4198473282442748,-1.3206106870229009
5311682130368,2.594874322,1,0.26216508178710934,1.7334020019531249,-11.184513055419922,-0.8625954198473282,0.4732824427480916,-1.3511450381679388
5311688071565,2.600815519,1,0.2657563842773437,1.7657237243652342,-11.209652172851563,-0.8091603053435115,0.5419847328244275,-1.3587786259541985
5311693976618,2.606720572,1,0.18914193115234373,1.7705121276855467,-11.194089862060546,-0.7557251908396947,0.48091603053435117,-1.297709923664122
5311699906565,2.612650519,1,0.19991583862304688,1.7310078002929687,-11.149797131347656,-0.7786259541984732,0.549618320610687,-1.3206106870229009
5311705896722,2.618640676,1,0.239420166015625,1.7717092285156248,-11.192892761230468,-0.8091603053435115,0.6183206106870229,-1.3282442748091603
5311711811149,2.624555103,1,0.258573779296875,1.7214309936523438,-11.106701501464842,-0.7557251908396947,0.6412213740458015,-1.3129770992366412
5311717737503,2.630481457,1,0.20829554443359374,1.734599102783203,-11.161768139648437,-0.7251908396946565,0.4198473282442748,-1.3358778625954197
5311723649170,2.636393124,1,0.24899697265624998,1.6699556579589843,-11.131840618896483,-0.7404580152671756,0.648854961832061,-1.2671755725190839
5311729554013,2.642297967,1,0.23702596435546874,1.7417817077636717,-11.082759484863281,-0.8778625954198473,0.6717557251908397,-1.2366412213740459
5311735425472,2.648169426,1,0.23343466186523437,1.7597382202148437,-11.177330450439452,-0.6793893129770993,0.5267175572519084,-1.3358778625954197
5311741325576,2.65406953,1,0.24660277099609373,1.7357962036132812,-11.251550701904296,-0.7938931297709924,0.48854961832061067,-1.3282442748091603
5311747212451,2.659956405,1,0.22864625854492185,1.7334020019531249,-11.165359442138671,-0.8854961832061069,0.5877862595419847,-1.282442748091603
5311753121253,2.665865207,1,0.25737667846679685,1.7298106994628906,-11.167753643798827,-0.7480916030534351,0.6030534351145038,-1.3129770992366412
5311759019638,2.671763592,1,0.2154781494140625,1.7681179260253905,-11.19169566040039,-0.7557251908396947,0.5419847328244275,-1.3129770992366412
5311764880680,2.677624634,1,0.26695348510742184,1.7525556152343749,-11.2240173828125,-0.7786259541984732,0.6183206106870229,-1.3587786259541985
5311770759586,2.68350354,1,0.23343466186523437,1.695094775390625,-11.179724652099608,-0.7938931297709924,0.5572519083969466,-1.3282442748091603
5311776690992,2.689434946,1,0.201112939453125,1.7262193969726563,-11.222820281982422,-0.8015267175572519,0.4580152671755725,-1.3282442748091603
5311782585107,2.695329061,1,0.22266075439453123,1.715445489501953,-11.194089862060546,-0.7786259541984732,0.6183206106870229,-1.3206106870229009
5311788480784,2.701224738,1,0.2765302917480469,1.7573440185546874,-11.1474029296875,-0.8015267175572519,0.5267175572519084,-1.3053435114503817
5311794384482,2.707128436,1,0.20470424194335937,1.7429788085937499,-11.184513055419922,-0.8702290076335878,0.549618320610687,-1.2748091603053435
5311800300888,2.713044842,1,0.24660277099609373,1.7178396911621092,-11.113884106445312,-0.8244274809160306,0.5801526717557252,-1.3053435114503817
5311806175003,2.718918957,1,0.21308394775390624,1.6986860778808592,-11.167753643798827,-0.7938931297709924,0.5801526717557252,-1.366412213740458
5311812088128,2.724832082,1,0.19991583862304688,1.744175909423828,-11.156979736328124,-0.7938931297709924,0.6717557251908397,-1.3587786259541985
5311818035680,2.730779634,1,0.23343466186523437,1.714248388671875,-11.180921752929686,-0.7862595419847328,0.5648854961832062,-1.282442748091603
5311823986513,2.736730467,1,0.2454056701660156,1.7082628845214842,-11.17852755126953,-0.7709923664122137,0.5190839694656488,-1.2671755725190839
5311829942138,2.742686092,1,0.23822306518554687,1.7429788085937499,-11.189301458740234,-0.8931297709923665,0.48091603053435117,-1.4427480916030535
5311835872763,2.748616717,1,0.23104046020507812,1.687912170410156,-11.148600030517578,-0.7633587786259542,0.5419847328244275,-1.297709923664122
5311841788336,2.75453229,1,0.1975216369628906,1.7477672119140624,-11.252747802734374,-0.8244274809160306,0.5801526717557252,-1.3435114503816794
5311847720784,2.760464738,1,0.21188684692382811,1.70467158203125,-11.174936248779296,-0.9618320610687023,0.48091603053435117,-1.366412213740458
5311853639899,2.766383853,1,0.19871873779296872,1.7501614135742187,-11.179724652099608,-0.8091603053435115,0.6412213740458015,-1.3358778625954197
5311859583701,2.772327655,1,0.2346317626953125,1.7836802368164062,-11.121066711425781,-0.6946564885496184,0.5419847328244275,-1.3053435114503817
5311865483128,2.778227082,1,0.258573779296875,1.7226280944824217,-11.196484063720703,-0.816793893129771,0.5419847328244275,-1.3740458015267176
5311871421670,2.784165624,1,0.23582886352539062,1.753752716064453,-11.212046374511718,-0.7251908396946565,0.5877862595419847,-1.3435114503816794
5311877330992,2.790074946,1,0.22026655273437498,1.7381904052734374,-11.206060870361327,-0.7786259541984732,0.5648854961832062,-1.3511450381679388
5311883310055,2.796054009,1,0.19153613281249998,1.7202338928222656,-11.207257971191405,-0.7099236641221374,0.48091603053435117,-1.3511450381679388
5311889239899,2.801983853,1,0.21787235107421873,1.7274164978027342,-11.173739147949219,-0.8473282442748091,0.549618320610687,-1.282442748091603
5311895129482,2.807873436,1,0.2442085693359375,1.7322049011230467,-11.104307299804686,-0.7862595419847328,0.5725190839694656,-1.3358778625954197
5311901024117,2.813768071,1,0.20231004028320312,1.7262193969726563,-11.123460913085937,-0.7709923664122137,0.48091603053435117,-1.297709923664122
5311906959117,2.819703071,1,0.2262520568847656,1.7405846069335937,-11.159373937988281,-0.816793893129771,0.6106870229007634,-1.381679389312977
5311912872972,2.825616926,1,0.26336218261718747,1.7405846069335937,-11.212046374511718,-0.8625954198473282,0.5648854961832062,-1.3282442748091603
5311918848857,2.831592811,1,0.18435352783203124,1.7190367919921874,-11.17254204711914,-0.8396946564885496,0.549618320610687,-1.366412213740458
5311924785107,2.837529061,1,0.26815058593749996,1.7022773803710936,-11.208455072021483,-0.8015267175572519,0.5877862595419847,-1.3053435114503817
5311930668492,2.843412446,1,0.2262520568847656,1.707065783691406,-11.246762298583985,-0.7633587786259542,0.6641221374045801,-1.3206106870229009
5311936604795,2.849348749,1,0.3028665100097656,1.7106570861816406,-11.17852755126953,-0.7633587786259542,0.48091603053435117,-1.3587786259541985
5311942493284,2.855237238,1,0.2214636535644531,1.7334020019531249,-11.218031878662108,-0.816793893129771,0.5114503816793893,-1.2442748091603053
5311948409742,2.861153696,1,0.23223756103515625,1.715445489501953,-11.195286962890624,-0.8320610687022901,0.5572519083969466,-1.3053435114503817
5311954340576,2.86708453,1,0.24899697265624998,1.7513585144042967,-11.212046374511718,-0.7938931297709924,0.6259541984732825,-1.366412213740458
5311960245836,2.87298979,1,0.21906945190429686,1.763329522705078,-11.091139190673827,-0.8320610687022901,0.46564885496183206,-1.2748091603053435
5311966145888,2.878889842,1,0.21428104858398436,1.7190367919921874,-11.203666668701171,-0.8702290076335878,0.5572519083969466,-1.297709923664122
5311972081097,2.884825051,1,0.2154781494140625,1.7334020019531249,-11.162965240478515,-0.8778625954198473,0.6183206106870229,-1.366412213740458
5311978008232,2.890752186,1,0.19393033447265623,1.7118541870117185,-11.129446417236327,-0.8473282442748091,0.5419847328244275,-1.3129770992366412
5311983938961,2.896682915,1,0.24061726684570311,1.7334020019531249,-11.171344946289063,-0.8396946564885496,0.6030534351145038,-1.2900763358778626
5311989890159,2.902634113,1,0.201112939453125,1.705868682861328,-11.219228979492186,-0.8244274809160306,0.6183206106870229,-1.3129770992366412
5311995891357,2.908635311,1,0.21428104858398436,1.7561469177246092,-11.2240173828125,-0.8015267175572519,0.6030534351145038,-1.3358778625954197
5312001867399,2.914611353,1,0.24779987182617186,1.7549498168945312,-11.173739147949219,-0.8244274809160306,0.4732824427480916,-1.3129770992366412
5312007783701,2.920527655,1,0.23822306518554687,1.7525556152343749,-11.176133349609374,-0.8015267175572519,0.6030534351145038,-1.3053435114503817
5312013700472,2.926444426,1,0.23582886352539062,1.7417817077636717,-11.186907257080078,-0.7786259541984732,0.5572519083969466,-1.3129770992366412
5312019572242,2.932316196,1,0.24660277099609373,1.7525556152343749,-11.179724652099608,-0.7251908396946565,0.5114503816793893,-1.282442748091603
5312025478492,2.938222446,1,0.19512743530273435,1.7681179260253905,-11.15338843383789,-0.816793893129771,0.5190839694656488,-1.2671755725190839
5312031351044,2.944094998,1,0.2154781494140625,1.7322049011230467,-11.165359442138671,-0.8396946564885496,0.5419847328244275,-1.2900763358778626
5312037252763,2.949996717,1,0.23223756103515625,1.7106570861816406,-11.136629022216797,-0.6793893129770993,0.6030534351145038,-1.3206106870229009
5312043145524,2.955889478,1,0.2597708801269531,1.7609353210449217,-11.195286962890624,-0.7404580152671756,0.5648854961832062,-1.3587786259541985
5312049061513,2.961805467,1,0.19632453613281248,1.734599102783203,-11.177330450439452,-0.7480916030534351,0.5190839694656488,-1.3206106870229009
5312054957972,2.967701926,1,0.28012159423828126,1.7226280944824217,-11.13423482055664,-0.7786259541984732,0.5190839694656488,-1.3053435114503817
5312060802294,2.973546248,1,0.2861070983886719,1.7082628845214842,-11.171344946289063,-0.7938931297709924,0.44274809160305345,-1.3206106870229009
5312066664534,2.979408488,1,0.2214636535644531,1.7477672119140624,-11.142614526367186,-0.7862595419847328,0.5114503816793893,-1.1755725190839694
5312072602034,2.985345988,1,0.19991583862304688,1.7477672119140624,-11.218031878662108,-0.8778625954198473,0.6183206106870229,-1.3893129770992367
5312078479794,2.991223748,1,0.201112939453125,1.7513585144042967,-11.177330450439452,-0.7862595419847328,0.5572519083969466,-1.3206106870229009
5312084405367,2.997149321,1,0.20709844360351562,1.7094599853515624,-11.188104357910156,-0.8244274809160306,0.5725190839694656,-1.3053435114503817
5312090330888,3.003074842,1,0.24301146850585936,1.7405846069335937,-11.252747802734374,-0.9465648854961832,0.5267175572519084,-1.251908396946565
5312096243336,3.00898729,1,0.23104046020507812,1.7322049011230467,-11.204863769531249,-0.816793893129771,0.5877862595419847,-1.3129770992366412
5312102109326,3.01485328,1,0.17118541870117188,1.7166425903320313,-11.125855114746093,-0.732824427480916,0.5801526717557252,-1.282442748091603
5312108039586,3.02078354,1,0.23822306518554687,1.744175909423828,-11.131840618896483,-0.732824427480916,0.5877862595419847,-1.1984732824427482
5312113980107,3.026724061,1,0.23104046020507812,1.7405846069335937,-11.165359442138671,-0.8702290076335878,0.6412213740458015,-1.2748091603053435
5312119911461,3.032655415,1,0.24301146850585936,1.7369933044433592,-11.148600030517578,-0.8091603053435115,0.5572519083969466,-1.282442748091603
5312125856617,3.038600571,1,0.201112939453125,1.7561469177246092,-11.197681164550781,-0.7633587786259542,0.5648854961832062,-1.282442748091603
5312131775159,3.044519113,1,0.23223756103515625,1.7226280944824217,-11.221623181152344,-0.9083969465648855,0.5572519083969466,-1.3282442748091603
5312137695159,3.050439113,1,0.22864625854492185,1.7226280944824217,-11.253944903564452,-0.7709923664122137,0.5114503816793893,-1.381679389312977
5312143582972,3.056326926,1,0.24899697265624998,1.7489643127441405,-11.220426080322264,-0.7557251908396947,0.5114503816793893,-1.3053435114503817
5312149505263,3.062249217,1,0.2154781494140625,1.7106570861816406,-11.215637677001952,-0.8091603053435115,0.648854961832061,-1.2671755725190839
5312155438284,3.068182238,1,0.19153613281249998,1.7178396911621092,-11.162965240478515,-0.8625954198473282,0.5954198473282443,-1.2213740458015268
5312161385732,3.074129686,1,0.21787235107421873,1.734599102783203,-11.213243475341796,-0.7480916030534351,0.6335877862595419,-1.3129770992366412
5312167278180,3.080022134,1,0.26336218261718747,1.7310078002929687,-11.189301458740234,-0.6793893129770993,0.46564885496183206,-1.297709923664122
5312173172659,3.085916613,1,0.277727392578125,1.734599102783203,-11.221623181152344,-0.8625954198473282,0.5343511450381679,-1.381679389312977
5312179029326,3.09177328,1,0.24181436767578124,1.753752716064453,-11.21683477783203,-0.916030534351145,0.648854961832061,-1.3282442748091603
5312184917815,3.097661769,1,0.20350714111328125,1.7166425903320313,-11.162965240478515,-0.8091603053435115,0.6259541984732825,-1.3129770992366412
5312190820263,3.103564217,1,0.25139117431640623,1.7094599853515624,-11.184513055419922,-0.9236641221374046,0.6106870229007634,-1.3435114503816794
5312196763649,3.109507603,1,0.2059013427734375,1.7525556152343749,-11.190498559570312,-0.8244274809160306,0.5343511450381679,-1.3740458015267176
5312202656774,3.115400728,1,0.24181436767578124,1.744175909423828,-11.238382592773437,-0.7557251908396947,0.4961832061068702,-1.3358778625954197
5312208556096,3.12130005,1,0.22744915771484372,1.7178396911621092,-11.241973895263671,-0.8244274809160306,0.46564885496183206,-1.3129770992366412
5312214447555,3.127191509,1,0.20231004028320312,1.7585411193847655,-11.232397088623046,-0.9465648854961832,0.5801526717557252,-1.2748091603053435
5312220417607,3.133161561,1,0.26815058593749996,1.744175909423828,-11.16057103881836,-0.7938931297709924,0.48854961832061067,-1.297709923664122
5312226352190,3.139096144,1,0.20829554443359374,1.7238251953125,-11.142614526367186,-0.7480916030534351,0.5038167938931297,-1.3282442748091603
5312232259899,3.145003853,1,0.2454056701660156,1.7082628845214842,-11.182118853759764,-0.7633587786259542,0.5267175572519084,-1.2671755725190839
5312238189378,3.150933332,1,0.24301146850585936,1.7334020019531249,-11.201272467041015,-0.7786259541984732,0.5267175572519084,-1.282442748091603
5312244190107,3.156934061,1,0.22505495605468748,1.7788918334960937,-11.137826123046874,-0.8320610687022901,0.5038167938931297,-1.3587786259541985
5312250105471,3.162849425,1,0.22744915771484372,1.7357962036132812,-11.19887826538086,-0.8473282442748091,0.549618320610687,-1.3511450381679388
5312256050315,3.168794269,1,0.26216508178710934,1.725022296142578,-11.16057103881836,-0.8396946564885496,0.6030534351145038,-1.251908396946565
5312261970680,3.174714634,1,0.24899697265624998,1.7669208251953124,-11.240776794433593,-0.8854961832061069,0.5419847328244275,-1.3282442748091603
5312267871409,3.180615363,1,0.23343466186523437,1.7597382202148437,-11.194089862060546,-0.816793893129771,0.5648854961832062,-1.3206106870229009
5312273830576,3.18657453,1,0.18315642700195311,1.7334020019531249,-11.156979736328124,-0.7709923664122137,0.6793893129770993,-1.3129770992366412
5312279731044,3.192474998,1,0.23822306518554687,1.7178396911621092,-11.162965240478515,-0.7938931297709924,0.5114503816793893,-1.3282442748091603
5312285647607,3.198391561,1,0.2549824768066406,1.68551796875,-11.174936248779296,-0.6793893129770993,0.5648854961832062,-1.2900763358778626
5312291579638,3.204323592,1,0.23104046020507812,1.7118541870117185,-11.177330450439452,-0.7557251908396947,0.5725190839694656,-1.2290076335877862
5312297483596,3.21022755,1,0.25139117431640623,1.734599102783203,-11.17852755126953,-0.8549618320610687,0.549618320610687,-1.3129770992366412
5312303356669,3.216100623,1,0.2262520568847656,1.7525556152343749,-11.218031878662108,-0.8778625954198473,0.5648854961832062,-1.3969465648854962
5312309235263,3.221979217,1,0.23104046020507812,1.7681179260253905,-11.192892761230468,-0.8396946564885496,0.5343511450381679,-1.2900763358778626
5312315007555,3.227751509,1,0.2059013427734375,1.705868682861328,-11.188104357910156,-0.8091603053435115,0.5114503816793893,-1.2900763358778626
5312320926565,3.233670519,1,0.23343466186523437,1.714248388671875,-11.228805786132812,-0.8091603053435115,0.6030534351145038,-1.3282442748091603
5312326824169,3.239568123,1,0.20470424194335937,1.7298106994628906,-11.196484063720703,-0.8778625954198473,0.5877862595419847,-1.2900763358778626
5312332741826,3.24548578,1,0.18555062866210936,1.714248388671875,-11.131840618896483,-0.9541984732824428,0.5954198473282443,-1.3435114503816794
5312338666201,3.251410155,1,0.2442085693359375,1.7477672119140624,-11.247959399414063,-0.916030534351145,0.5725190839694656,-1.3511450381679388
5312344570732,3.257314686,1,0.20829554443359374,1.7286135986328124,-11.168950744628905,-0.816793893129771,0.5877862595419847,-1.3053435114503817
5312350508440,3.263252394,1,0.23343466186523437,1.7621324218749999,-11.19169566040039,-0.7786259541984732,0.45038167938931295,-1.3587786259541985
5312356419899,3.269163853,1,0.2693476867675781,1.7968483459472655,-11.156979736328124,-0.9465648854961832,0.5419847328244275,-1.3206106870229009
5312362361826,3.27510578,1,0.24181436767578124,1.7681179260253905,-11.141417425537108,-0.8015267175572519,0.5877862595419847,-1.3740458015267176
5312368298232,3.281042186,1,0.28371289672851563,1.7429788085937499,-11.231199987792968,-0.7709923664122137,0.4351145038167939,-1.2595419847328244
5312374191253,3.286935207,1,0.1975216369628906,1.7549498168945312,-11.168950744628905,-0.8854961832061069,0.6183206106870229,-1.2671755725190839
5312380089326,3.29283328,1,0.22505495605468748,1.714248388671875,-11.228805786132812,-0.8015267175572519,0.6717557251908397,-1.3893129770992367
5312386025003,3.298768957,1,0.2262520568847656,1.782483135986328,-11.158176837158203,-0.8091603053435115,0.7404580152671756,-1.3511450381679388
5312391941149,3.304685103,1,0.20231004028320312,1.7489643127441405,-11.17852755126953,-0.8244274809160306,0.5267175572519084,-1.3511450381679388
5312397888701,3.310632655,1,0.2501940734863281,1.7262193969726563,-11.190498559570312,-0.8015267175572519,0.5419847328244275,-1.3282442748091603
5312403812346,3.3165563,1,0.2645592834472656,1.7310078002929687,-11.219228979492186,-0.816793893129771,0.6335877862595419,-1.2671755725190839
5312409748388,3.322492342,1,0.1927332336425781,1.6986860778808592,-11.263521710205078,-0.7786259541984732,0.6183206106870229,-1.297709923664122
5312415650576,3.32839453,1,0.24660277099609373,1.7417817077636717,-11.182118853759764,-0.8320610687022901,0.6641221374045801,-1.282442748091603
5312421557294,3.334301248,1,0.2932897033691406,1.734599102783203,-11.1474029296875,-0.8091603053435115,0.5877862595419847,-1.4122137404580153
5312427418180,3.340162134,1,0.22026655273437498,1.725022296142578,-11.204863769531249,-0.7251908396946565,0.549618320610687,-1.3358778625954197
5312433326253,3.346070207,1,0.26336218261718747,1.7178396911621092,-11.257536206054686,-0.8625954198473282,0.549618320610687,-1.3511450381679388
5312439252034,3.351995988,1,0.21428104858398436,1.7429788085937499,-11.164162341308593,-0.816793893129771,0.6030534351145038,-1.3587786259541985
5312445154273,3.357898227,1,0.2741360900878906,1.7369933044433592,-11.200075366210937,-0.6870229007633588,0.5801526717557252,-1.3587786259541985
5312451045419,3.363789373,1,0.2537853759765625,1.7501614135742187,-11.15338843383789,-0.7633587786259542,0.5343511450381679,-1.1908396946564885
5312456964221,3.369708175,1,0.23822306518554687,1.7393875061035156,-11.212046374511718,-0.916030534351145,0.5725190839694656,-1.3511450381679388
5312462857711,3.375601665,1,0.18315642700195311,1.7010802795410156,-11.180921752929686,-0.8396946564885496,0.6030534351145038,-1.4122137404580153
5312468782607,3.381526561,1,0.22744915771484372,1.7513585144042967,-11.213243475341796,-0.8091603053435115,0.4961832061068702,-1.2595419847328244
5312474657294,3.387401248,1,0.22385785522460935,1.7226280944824217,-11.234791290283203,-0.8778625954198473,0.6412213740458015,-1.3053435114503817
5312480631565,3.393375519,1,0.1879448303222656,1.7262193969726563,-11.179724652099608,-0.8931297709923665,0.6335877862595419,-1.3206106870229009
5312486472555,3.399216509,1,0.18315642700195311,1.725022296142578,-11.195286962890624,-0.8244274809160306,0.5038167938931297,-1.251908396946565
5312492377086,3.40512104,1,0.24181436767578124,1.6903063720703124,-11.127052215576171,-0.7099236641221374,0.5572519083969466,-1.2290076335877862
5312498282294,3.411026248,1,0.23223756103515625,1.7118541870117185,-11.150994232177734,-0.8854961832061069,0.5877862595419847,-1.3282442748091603
5312504188857,3.416932811,1,0.19991583862304688,1.7525556152343749,-11.155782635498046,-0.8396946564885496,0.5648854961832062,-1.3435114503816794
5312510087086,3.42283104,1,0.22864625854492185,1.70467158203125,-11.130643518066405,-0.7099236641221374,0.6030534351145038,-1.3969465648854962
5312516039951,3.428783905,1,0.23582886352539062,1.697488977050781,-11.161768139648437,-0.7557251908396947,0.6030534351145038,-1.3969465648854962
5312521971253,3.434715207,1,0.22026655273437498,1.7489643127441405,-11.218031878662108,-0.816793893129771,0.5877862595419847,-1.3893129770992367
5312527885055,3.440629009,1,0.24660277099609373,1.772906329345703,-11.130643518066405,-0.7862595419847328,0.5801526717557252,-1.3129770992366412
5312533845784,3.446589738,1,0.21787235107421873,1.6938976745605467,-11.174936248779296,-0.8015267175572519,0.5114503816793893,-1.297709923664122
5312539759794,3.452503748,1,0.24181436767578124,1.7190367919921874,-11.174936248779296,-0.8549618320610687,0.5954198473282443,-1.3129770992366412
5312545682815,3.458426769,1,0.22505495605468748,1.7298106994628906,-11.232397088623046,-0.7557251908396947,0.6335877862595419,-1.3206106870229009
5312551584169,3.464328123,1,0.229843359375,1.7322049011230467,-11.21683477783203,-0.7862595419847328,0.5343511450381679,-1.3206106870229009
5312557498128,3.470242082,1,0.25258827514648435,1.7381904052734374,-11.197681164550781,-0.7786259541984732,0.5114503816793893,-1.3053435114503817
5312563370107,3.476114061,1,0.21188684692382811,1.7381904052734374,-11.190498559570312,-0.9312977099236641,0.6717557251908397,-1.3358778625954197
5312569317190,3.482061144,1,0.20949264526367187,1.7106570861816406,-11.149797131347656,-0.8320610687022901,0.4580152671755725,-1.3129770992366412
5312575199638,3.487943592,1,0.23343466186523437,1.7429788085937499,-11.270704315185545,-0.8778625954198473,0.5648854961832062,-1.251908396946565
5312581101044,3.493844998,1,0.23702596435546874,1.7417817077636717,-11.179724652099608,-0.8549618320610687,0.5267175572519084,-1.3282442748091603
5312587006721,3.499750675,1,0.22505495605468748,1.7549498168945312,-11.180921752929686,-0.8473282442748091,0.5725190839694656,-1.3435114503816794
5312594037971,3.506781925,1,0.24061726684570311,1.7717092285156248,-11.150994232177734,-0.8778625954198473,0.5801526717557252,-1.366412213740458
5312601360680,3.514104634,1,0.20231004028320312,1.7357962036132812,-11.098321795654297,-0.8702290076335878,0.6412213740458015,-1.3435114503816794
5312608711773,3.521455727,1,0.23582886352539062,1.7166425903320313,-11.19169566040039,-0.8854961832061069,0.549618320610687,-1.3206106870229009
5312616090211,3.528834165,1,0.24181436767578124,1.7585411193847655,-11.174936248779296,-0.7633587786259542,0.5038167938931297,-1.4045801526717556
5312623380784,3.536124738,1,0.201112939453125,1.7262193969726563,-11.183315954589844,-0.8625954198473282,0.5877862595419847,-1.2671755725190839
5312630734273,3.543478227,1,0.17118541870117188,1.7872715393066405,-11.164162341308593,-0.816793893129771,0.4961832061068702,-1.2595419847328244
5312638090992,3.550834946,1,0.2549824768066406,1.7214309936523438,-11.135431921386719,-0.7938931297709924,0.5572519083969466,-1.3053435114503817
5312645440471,3.558184425,1,0.2214636535644531,1.7393875061035156,-11.197681164550781,-0.7786259541984732,0.549618320610687,-1.381679389312977
5312652788909,3.565532863,1,0.20470424194335937,1.696291876220703,-11.15338843383789,-0.7709923664122137,0.5801526717557252,-1.3206106870229009
5312660099794,3.572843748,1,0.23104046020507812,1.7501614135742187,-11.197681164550781,-0.8396946564885496,0.5801526717557252,-1.3511450381679388
5312667398857,3.580142811,1,0.2346317626953125,1.7357962036132812,-11.200075366210937,-0.8778625954198473,0.5877862595419847,-1.297709923664122
5312674730992,3.587474946,1,0.23702596435546874,1.7513585144042967,-11.233594189453123,-0.8244274809160306,0.5419847328244275,-1.2671755725190839
5312682068232,3.594812186,1,0.22266075439453123,1.7513585144042967,-11.208455072021483,-0.8320610687022901,0.6641221374045801,-1.3358778625954197
5312689421148,3.602165102,1,0.2501940734863281,1.7369933044433592,-11.16057103881836,-0.8244274809160306,0.5038167938931297,-1.3282442748091603
5312696772763,3.609516717,1,0.17118541870117188,1.7082628845214842,-11.227608685302734,-0.7557251908396947,0.5114503816793893,-1.3129770992366412
5312704123440,3.616867394,1,0.23104046020507812,1.7214309936523438,-11.168950744628905,-0.8091603053435115,0.6259541984732825,-1.2748091603053435
5312711461930,3.624205884,1,0.22385785522460935,1.7202338928222656,-11.232397088623046,-0.7175572519083969,0.5877862595419847,-1.3358778625954197
5312718770003,3.631513957,1,0.24660277099609373,1.7298106994628906,-11.098321795654297,-0.7404580152671756,0.549618320610687,-1.2366412213740459
5312726120211,3.638864165,1,0.1975216369628906,1.7094599853515624,-11.23000288696289,-0.8549618320610687,0.5648854961832062,-1.3587786259541985
5312733373075,3.646117029,1,0.258573779296875,1.7334020019531249,-11.200075366210937,-0.7633587786259542,0.6030534351145038,-1.366412213740458
5312740736721,3.653480675,1,0.23104046020507812,1.753752716064453,-11.150994232177734,-0.9312977099236641,0.6717557251908397,-1.3893129770992367
5312748074325,3.660818279,1,0.17357962036132812,1.7597382202148437,-11.129446417236327,-0.916030534351145,0.6717557251908397,-1.4274809160305344
5312755388648,3.668132602,1,0.22026655273437498,1.695094775390625,-11.182118853759764,-0.7786259541984732,0.5954198473282443,-1.2900763358778626
5312762726200,3.675470154,1,0.21068974609375,1.7525556152343749,-11.171344946289063,-0.816793893129771,0.6030534351145038,-1.3358778625954197
5312770069846,3.6828138,1,0.21428104858398436,1.7298106994628906,-11.202469567871093,-0.8702290076335878,0.6106870229007634,-1.3053435114503817
5312777373440,3.690117394,1,0.26815058593749996,1.7465701110839842,-11.18571015625,-0.7938931297709924,0.5648854961832062,-1.3206106870229009
5312784726878,3.697470832,1,0.24779987182617186,1.7334020019531249,-11.184513055419922,-0.8473282442748091,0.6335877862595419,-1.3053435114503817
5312791998544,3.704742498,1,0.23343466186523437,1.7489643127441405,-11.274295617675781,-0.8549618320610687,0.5725190839694656,-1.3511450381679388
5312799378805,3.712122759,1,0.22744915771484372,1.7226280944824217,-11.139023223876952,-0.8854961832061069,0.5648854961832062,-1.3282442748091603
5312806687138,3.719431092,1,0.2549824768066406,1.7381904052734374,-11.1474029296875,-0.8320610687022901,0.5877862595419847,-1.282442748091603
5312814007242,3.726751196,1,0.20231004028320312,1.6938976745605467,-11.18571015625,-0.7938931297709924,0.5572519083969466,-1.366412213740458
5312821355159,3.734099113,1,0.25258827514648435,1.6938976745605467,-11.142614526367186,-0.8091603053435115,0.5572519083969466,-1.282442748091603
5312828710315,3.741454269,1,0.2537853759765625,1.7525556152343749,-11.23000288696289,-0.7938931297709924,0.5801526717557252,-1.297709923664122
5312836090055,3.748834009,1,0.23822306518554687,1.7369933044433592,-11.218031878662108,-0.8015267175572519,0.6106870229007634,-1.3206106870229009
5312843413909,3.756157863,1,0.2549824768066406,1.7657237243652342,-11.247959399414063,-0.7862595419847328,0.6183206106870229,-1.3511450381679388
5312850731930,3.763475884,1,0.24301146850585936,1.7489643127441405,-11.226411584472656,-0.816793893129771,0.6335877862595419,-1.3587786259541985
5312858062242,3.770806196,1,0.23343466186523437,1.7465701110839842,-11.23718549194336,-0.8015267175572519,0.6030534351145038,-1.2748091603053435
5312865474377,3.778218331,1,0.19871873779296872,1.696291876220703,-11.13423482055664,-0.8931297709923665,0.648854961832061,-1.3206106870229009
5312872879898,3.785623852,1,0.2501940734863281,1.7657237243652342,-11.143811627197264,-0.8015267175572519,0.6183206106870229,-1.2442748091603053
5312880226565,3.792970519,1,0.25258827514648435,1.7130512878417967,-11.149797131347656,-0.816793893129771,0.549618320610687,-1.282442748091603
5312887522450,3.800266404,1,0.181959326171875,1.7429788085937499,-11.23000288696289,-0.8931297709923665,0.6259541984732825,-1.3358778625954197
5312894926877,3.807670831,1,0.25258827514648435,1.7130512878417967,-11.173739147949219,-0.7862595419847328,0.4732824427480916,-1.4045801526717556
5312902350211,3.815094165,1,0.2597708801269531,1.7369933044433592,-11.16057103881836,-0.732824427480916,0.48854961832061067,-1.297709923664122
5312909700055,3.822444009,1,0.27892449340820313,1.7369933044433592,-11.19887826538086,-0.7862595419847328,0.5954198473282443,-1.3358778625954197
5312917051096,3.82979505,1,0.17836802368164062,1.714248388671875,-11.139023223876952,-0.7709923664122137,0.6259541984732825,-1.2900763358778626
5312924371565,3.837115519,1,0.2154781494140625,1.7405846069335937,-11.111489904785156,-0.8473282442748091,0.5648854961832062,-1.3053435114503817
5312931691513,3.844435467,1,0.20470424194335937,1.687912170410156,-11.176133349609374,-0.7786259541984732,0.6870229007633588,-1.2748091603053435
5312939073075,3.851817029,1,0.2645592834472656,1.7190367919921874,-11.336544860839844,-0.8473282442748091,0.549618320610687,-1.2595419847328244
5312946401930,3.859145884,1,0.2166752502441406,1.782483135986328,-11.192892761230468,-0.8854961832061069,0.5725190839694656,-1.2900763358778626
5312953714638,3.866458592,1,0.2166752502441406,1.725022296142578,-11.18571015625,-0.7175572519083969,0.48854961832061067,-1.3511450381679388
5312961074430,3.873818384,1,0.22744915771484372,1.707065783691406,-11.130643518066405,-0.8625954198473282,0.4580152671755725,-1.3129770992366412
5312968513752,3.881257706,1,0.21787235107421873,1.707065783691406,-11.183315954589844,-0.8320610687022901,0.5343511450381679,-1.3435114503816794
5312975867867,3.888611821,1,0.19033903198242186,1.7525556152343749,-11.207257971191405,-0.7862595419847328,0.5572519083969466,-1.282442748091603
5312983231200,3.895975154,1,0.20949264526367187,1.8004396484374998,-11.204863769531249,-0.7251908396946565,0.7022900763358778,-1.3129770992366412
5312990586409,3.903330363,1,0.2920926025390625,1.7465701110839842,-11.149797131347656,-0.8320610687022901,0.6641221374045801,-1.3129770992366412
5312997890419,3.910634373,1,0.22266075439453123,1.7357962036132812,-11.192892761230468,-0.7175572519083969,0.48854961832061067,-1.3358778625954197
5313005176565,3.917920519,1,0.201112939453125,1.7202338928222656,-11.18571015625,-0.8702290076335878,0.5572519083969466,-1.2442748091603053
5313012482086,3.92522604,1,0.22385785522460935,1.7549498168945312,-11.195286962890624,-0.8778625954198473,0.6870229007633588,-1.4045801526717556
5313019780367,3.932524321,1,0.229843359375,1.707065783691406,-11.226411584472656,-0.732824427480916,0.5190839694656488,-1.2900763358778626
5313027156565,3.939900519,1,0.2454056701660156,1.7489643127441405,-11.13423482055664,-0.9007633587786259,0.648854961832061,-1.297709923664122
5313034535419,3.947279373,1,0.30047230834960936,1.7178396911621092,-11.219228979492186,-0.7862595419847328,0.5801526717557252,-1.3206106870229009
5313041878492,3.954622446,1,0.25258827514648435,1.7357962036132812,-11.082759484863281,-0.7709923664122137,0.5877862595419847,-1.3053435114503817
5313049159950,3.961903904,1,0.2741360900878906,1.7202338928222656,-11.203666668701171,-0.8396946564885496,0.5954198473282443,-1.3511450381679388
5313056425888,3.969169842,1,0.277727392578125,1.725022296142578,-11.21683477783203,-0.7633587786259542,0.5801526717557252,-1.2748091603053435
5313063725732,3.976469686,1,0.17238251953125,1.68551796875,-11.156979736328124,-0.7786259541984732,0.5877862595419847,-1.366412213740458
5313071080159,3.983824113,1,0.21308394775390624,1.7513585144042967,-11.148600030517578,-0.9541984732824428,0.6946564885496184,-1.4351145038167938
5313078409221,3.991153175,1,0.19393033447265623,1.6938976745605467,-11.12226381225586,-0.8244274809160306,0.5954198473282443,-1.3358778625954197
5313085649117,3.998393071,1,0.25258827514648435,1.734599102783203,-11.13423482055664,-0.8625954198473282,0.5725190839694656,-1.2595419847328244
5313092984325,4.005728279,1,0.2657563842773437,1.7405846069335937,-11.221623181152344,-0.8244274809160306,0.46564885496183206,-1.3511450381679388
5313100312346,4.0130563,1,0.20709844360351562,1.734599102783203,-11.207257971191405,-0.7862595419847328,0.5267175572519084,-1.3511450381679388
5313107663023,4.020406977,1,0.22026655273437498,1.7262193969726563,-11.158176837158203,-0.8320610687022901,0.5114503816793893,-1.3893129770992367
5313115001044,4.027744998,1,0.28969840087890625,1.7609353210449217,-11.197681164550781,-0.8244274809160306,0.6946564885496184,-1.3129770992366412
5313122365263,4.035109217,1,0.2549824768066406,1.744175909423828,-11.174936248779296,-0.816793893129771,0.42748091603053434,-1.3282442748091603
5313129714794,4.042458748,1,0.24779987182617186,1.744175909423828,-11.141417425537108,-0.8854961832061069,0.6183206106870229,-1.2748091603053435
5313137061304,4.049805258,1,0.23104046020507812,1.7597382202148437,-11.179724652099608,-0.8320610687022901,0.5419847328244275,-1.3053435114503817
5313144402294,4.057146248,1,0.239420166015625,1.68551796875,-11.142614526367186,-0.7633587786259542,0.6106870229007634,-1.3435114503816794
5313151774377,4.064518331,1,0.24181436767578124,1.715445489501953,-11.214440576171874,-0.8778625954198473,0.5648854961832062,-1.4045801526717556
5313159161252,4.071905206,1,0.24301146850585936,1.714248388671875,-11.082759484863281,-0.732824427480916,0.5801526717557252,-1.297709923664122
5313166520211,4.079264165,1,0.23343466186523437,1.7369933044433592,-11.162965240478515,-0.7480916030534351,0.4351145038167939,-1.2748091603053435
5313173849794,4.086593748,1,0.23582886352539062,1.7178396911621092,-11.161768139648437,-0.8473282442748091,0.5648854961832062,-1.366412213740458
5313181183804,4.093927758,1,0.24301146850585936,1.7381904052734374,-11.186907257080078,-0.7404580152671756,0.6412213740458015,-1.297709923664122
5313188492919,4.101236873,1,0.20949264526367187,1.7465701110839842,-11.165359442138671,-0.7938931297709924,0.549618320610687,-1.3587786259541985
5313195837398,4.108581352,1,0.23223756103515625,1.7357962036132812,-11.2240173828125,-0.7938931297709924,0.549618320610687,-1.251908396946565
5313203202450,4.115946404,1,0.2262520568847656,1.734599102783203,-11.208455072021483,-0.8091603053435115,0.549618320610687,-1.2671755725190839
5313210534221,4.123278175,1,0.20709844360351562,1.7764976318359373,-11.197681164550781,-0.816793893129771,0.5877862595419847,-1.3358778625954197
5313217893232,4.130637186,1,0.20709844360351562,1.7190367919921874,-11.177330450439452,-0.7938931297709924,0.5648854961832062,-1.3511450381679388
5313225243023,4.137986977,1,0.24779987182617186,1.7010802795410156,-11.247959399414063,-0.8091603053435115,0.5190839694656488,-1.2213740458015268
5313232610627,4.145354581,1,0.27293898925781246,1.7322049011230467,-11.200075366210937,-0.8854961832061069,0.6335877862595419,-1.3435114503816794
5313239936044,4.152679998,1,0.23223756103515625,1.7298106994628906,-11.195286962890624,-0.7633587786259542,0.6183206106870229,-1.3206106870229009
5313247299482,4.160043436,1,0.24301146850585936,1.68551796875,-11.14022032470703,-0.8091603053435115,0.48091603053435117,-1.3282442748091603
5313254656148,4.167400102,1,0.27892449340820313,1.6938976745605467,-11.129446417236327,-0.8549618320610687,0.6030534351145038,-1.282442748091603
5313262044013,4.174787967,1,0.21906945190429686,1.7393875061035156,-11.173739147949219,-0.7175572519083969,0.6259541984732825,-1.3129770992366412
5313269342450,4.182086404,1,0.22266075439453123,1.7417817077636717,-11.188104357910156,-0.7557251908396947,0.5572519083969466,-1.2595419847328244
5313276693909,4.189437863,1,0.22266075439453123,1.7585411193847655,-11.139023223876952,-0.8396946564885496,0.5038167938931297,-1.3587786259541985
5313284070732,4.196814686,1,0.2166752502441406,1.7310078002929687,-11.19169566040039,-0.7938931297709924,0.48091603053435117,-1.3129770992366412
5313291393961,4.204137915,1,0.2154781494140625,1.697488977050781,-11.176133349609374,-0.7862595419847328,0.6030534351145038,-1.3206106870229009
5313298897659,4.211641613,1,0.2346317626953125,1.7322049011230467,-11.131840618896483,-0.7862595419847328,0.5190839694656488,-1.3282442748091603
5313306121617,4.218865571,1,0.2154781494140625,1.7429788085937499,-11.179724652099608,-0.8091603053435115,0.5114503816793893,-1.282442748091603
5313313454377,4.226198331,1,0.2597708801269531,1.7573440185546874,-11.206060870361327,-0.8396946564885496,0.6183206106870229,-1.3129770992366412
5313320788961,4.233532915,1,0.18555062866210936,1.7286135986328124,-11.158176837158203,-0.732824427480916,0.5572519083969466,-1.3358778625954197
5313328127138,4.240871092,1,0.2154781494140625,1.7453730102539062,-11.17852755126953,-0.8702290076335878,0.549618320610687,-1.3129770992366412
5313335473023,4.248216977,1,0.21068974609375,1.7836802368164062,-11.303026037597656,-0.8931297709923665,0.6183206106870229,-1.297709923664122
5313342752138,4.255496092,1,0.2166752502441406,1.7094599853515624,-11.189301458740234,-0.8091603053435115,0.5038167938931297,-1.297709923664122
5313350108961,4.262852915,1,0.20709844360351562,1.7178396911621092,-11.209652172851563,-0.9312977099236641,0.5801526717557252,-1.297709923664122
5313357458075,4.270202029,1,0.19991583862304688,1.7453730102539062,-11.206060870361327,-0.916030534351145,0.6946564885496184,-1.3358778625954197
5313364789950,4.277533904,1,0.23822306518554687,1.7262193969726563,-11.118672509765624,-0.7633587786259542,0.48854961832061067,-1.3053435114503817
5313372055992,4.284799946,1,0.23582886352539062,1.7788918334960937,-11.145008728027342,-0.7862595419847328,0.5190839694656488,-1.3206106870229009
5313379390575,4.292134529,1,0.2537853759765625,1.7214309936523438,-11.121066711425781,-0.8015267175572519,0.549618320610687,-1.282442748091603
5313386729690,4.299473644,1,0.19632453613281248,1.7238251953125,-11.184513055419922,-0.7862595419847328,0.6106870229007634,-1.3587786259541985
5313394117034,4.306860988,1,0.2442085693359375,1.7202338928222656,-11.200075366210937,-0.8244274809160306,0.6259541984732825,-1.3358778625954197
5313401466148,4.314210102,1,0.2657563842773437,1.7465701110839842,-11.226411584472656,-0.7862595419847328,0.6106870229007634,-1.3206106870229009
5313408805211,4.321549165,1,0.20949264526367187,1.590947003173828,-11.136629022216797,-0.8931297709923665,0.5954198473282443,-1.282442748091603
5313416107190,4.328851144,1,0.2537853759765625,1.7298106994628906,-11.220426080322264,-0.7862595419847328,0.5114503816793893,-1.3435114503816794
5313423415419,4.336159373,1,0.2059013427734375,1.7226280944824217,-11.052831964111327,-0.7099236641221374,0.5038167938931297,-1.3740458015267176
5313430744013,4.343487967,1,0.2346317626953125,1.7334020019531249,-11.173739147949219,-0.8931297709923665,0.549618320610687,-1.3206106870229009
5313438032294,4.350776248,1,0.21428104858398436,1.7489643127441405,-11.174936248779296,-0.816793893129771,0.5801526717557252,-1.3893129770992367
5313445387659,4.358131613,1,0.229843359375,1.6771382629394531,-11.190498559570312,-0.8244274809160306,0.5267175572519084,-1.381679389312977
5313452711356,4.36545531,1,0.2154781494140625,1.7573440185546874,-11.154585534667968,-0.8396946564885496,0.5954198473282443,-1.3282442748091603
5313460092450,4.372836404,1,0.19153613281249998,1.7118541870117185,-11.204863769531249,-0.8396946564885496,0.5801526717557252,-1.3053435114503817
5313467429325,4.380173279,1,0.21188684692382811,1.7501614135742187,-11.201272467041015,-0.7862595419847328,0.48091603053435117,-1.297709923664122
5313474736617,4.387480571,1,0.2154781494140625,1.7238251953125,-11.123460913085937,-0.8320610687022901,0.5419847328244275,-1.3511450381679388
5313482105627,4.394849581,1,0.23582886352539062,1.7274164978027342,-11.150994232177734,-0.8702290076335878,0.5725190839694656,-1.3893129770992367
5313489448023,4.402191977,1,0.22266075439453123,1.7501614135742187,-11.142614526367186,-0.7557251908396947,0.5954198473282443,-1.3053435114503817
5313496847398,4.409591352,1,0.3112462158203125,1.7034744812011717,-11.15338843383789,-0.9083969465648855,0.5343511450381679,-1.2595419847328244
5313504186773,4.416930727,1,0.26216508178710934,1.7226280944824217,-11.117475408935546,-0.7709923664122137,0.5038167938931297,-1.366412213740458
5313511516148,4.424260102,1,0.2609679809570312,1.7393875061035156,-11.21084927368164,-0.7251908396946565,0.6183206106870229,-1.3053435114503817
5313518867190,4.431611144,1,0.19871873779296872,1.7202338928222656,-11.250353601074218,-0.8625954198473282,0.6641221374045801,-1.2748091603053435
5313526159013,4.438902967,1,0.239420166015625,1.7082628845214842,-11.247959399414063,-0.8091603053435115,0.48854961832061067,-1.3206106870229009
5313533469950,4.446213904,1,0.22266075439453123,1.7381904052734374,-11.156979736328124,-0.8625954198473282,0.6870229007633588,-1.3587786259541985
5313540846929,4.453590883,1,0.1867477294921875,1.7166425903320313,-11.171344946289063,-0.8244274809160306,0.5877862595419847,-1.3206106870229009
5313548188804,4.460932758,1,0.28969840087890625,1.7585411193847655,-11.204863769531249,-0.8396946564885496,0.5572519083969466,-1.2442748091603053
5313555473179,4.468217133,1,0.2346317626953125,1.7381904052734374,-11.171344946289063,-0.8702290076335878,0.5954198473282443,-1.2595419847328244
5313562780158,4.475524112,1,0.19871873779296872,1.7082628845214842,-11.213243475341796,-0.8549618320610687,0.5419847328244275,-1.3206106870229009
5313570171252,4.482915206,1,0.23223756103515625,1.7010802795410156,-11.155782635498046,-0.7175572519083969,0.6030534351145038,-1.2900763358778626
5313577505679,4.490249633,1,0.26815058593749996,1.7381904052734374,-11.204863769531249,-0.8320610687022901,0.549618320610687,-1.3587786259541985
5313584863023,4.497606977,1,0.24301146850585936,1.7130512878417967,-11.137826123046874,-0.8549618320610687,0.5801526717557252,-1.366412213740458
5313592298231,4.505042185,1,0.22864625854492185,1.7214309936523438,-11.174936248779296,-0.8244274809160306,0.48091603053435117,-1.213740458015267
5313599588023,4.512331977,1,0.22026655273437498,1.7118541870117185,-11.225214483642578,-0.7862595419847328,0.6030534351145038,-1.2748091603053435
5313606887138,4.519631092,1,0.23223756103515625,1.7561469177246092,-11.15338843383789,-0.8396946564885496,0.5572519083969466,-1.3206106870229009
5313614219117,4.526963071,1,0.26336218261718747,1.734599102783203,-11.201272467041015,-0.8320610687022901,0.6335877862595419,-1.297709923664122
5313621528127,4.534272081,1,0.16879121704101563,1.734599102783203,-11.164162341308593,-0.8396946564885496,0.48854961832061067,-1.282442748091603
5313628921461,4.541665415,1,0.22266075439453123,1.7094599853515624,-11.158176837158203,-0.8549618320610687,0.45038167938931295,-1.3893129770992367
5313636330836,4.54907479,1,0.21787235107421873,1.7118541870117185,-11.202469567871093,-0.8854961832061069,0.4732824427480916,-1.2900763358778626
5313643694846,4.5564388,1,0.20829554443359374,1.7369933044433592,-11.241973895263671,-0.8396946564885496,0.5725190839694656,-1.3358778625954197
5313651053804,4.563797758,1,0.2705447875976562,1.7190367919921874,-11.192892761230468,-0.8473282442748091,0.5725190839694656,-1.3435114503816794
5313658402815,4.571146769,1,0.2861070983886719,1.7166425903320313,-11.168950744628905,-0.8931297709923665,0.5725190839694656,-1.251908396946565
5313665734794,4.578478748,1,0.24660277099609373,1.7166425903320313,-11.197681164550781,-0.816793893129771,0.5419847328244275,-1.2671755725190839
5313673193283,4.585937237,1,0.20470424194335937,1.7645266235351562,-11.162965240478515,-0.8549618320610687,0.5725190839694656,-1.2595419847328244
5313680507658,4.593251612,1,0.2166752502441406,1.7106570861816406,-11.203666668701171,-0.7786259541984732,0.5877862595419847,-1.2366412213740459
5313687868127,4.600612081,1,0.19393033447265623,1.7202338928222656,-11.156979736328124,-0.8396946564885496,0.46564885496183206,-1.3358778625954197
5313695314117,4.608058071,1,0.25258827514648435,1.7836802368164062,-11.21084927368164,-0.816793893129771,0.5725190839694656,-1.251908396946565
5313702666981,4.615410935,1,0.24301146850585936,1.7477672119140624,-11.204863769531249,-0.8396946564885496,0.6412213740458015,-1.3358778625954197
5313709959117,4.622703071,1,0.2154781494140625,1.7190367919921874,-11.23000288696289,-0.8320610687022901,0.5801526717557252,-1.282442748091603
5313717270367,4.630014321,1,0.21428104858398436,1.7381904052734374,-11.220426080322264,-0.8473282442748091,0.5877862595419847,-1.2900763358778626
5313724581669,4.637325623,1,0.2561795776367187,1.7477672119140624,-11.201272467041015,-0.8320610687022901,0.5343511450381679,-1.3435114503816794
5313731914117,4.644658071,1,0.21188684692382811,1.68551796875,-11.192892761230468,-0.8931297709923665,0.5419847328244275,-1.213740458015267
5313739296513,4.652040467,1,0.26336218261718747,1.7106570861816406,-11.167753643798827,-0.8625954198473282,0.5572519083969466,-1.2748091603053435
5313746649638,4.659393592,1,0.2753331909179687,1.7106570861816406,-11.212046374511718,-0.8320610687022901,0.6412213740458015,-1.2900763358778626
5313753946304,4.666690258,1,0.23104046020507812,1.7166425903320313,-11.168950744628905,-0.8091603053435115,0.4961832061068702,-1.3435114503816794
5313761287919,4.674031873,1,0.19033903198242186,1.7226280944824217,-11.173739147949219,-0.8396946564885496,0.6335877862595419,-1.282442748091603
5313768676721,4.681420675,1,0.23702596435546874,1.7274164978027342,-11.143811627197264,-0.8015267175572519,0.5419847328244275,-1.2900763358778626
5313776067294,4.688811248,1,0.23702596435546874,1.7322049011230467,-11.200075366210937,-0.816793893129771,0.5190839694656488,-1.3358778625954197
5313783360263,4.696104217,1,0.21188684692382811,1.7669208251953124,-11.17254204711914,-0.8244274809160306,0.549618320610687,-1.3206106870229009
5313790695054,4.703439008,1,0.20231004028320312,1.7609353210449217,-11.24915650024414,-0.7786259541984732,0.48091603053435117,-1.3282442748091603
5313798003908,4.710747862,1,0.19033903198242186,1.7561469177246092,-11.073182678222656,-0.7633587786259542,0.46564885496183206,-1.3053435114503817
5313805281252,4.718025206,1,0.24779987182617186,1.7202338928222656,-11.165359442138671,-0.816793893129771,0.5572519083969466,-1.3206106870229009
5313812672867,4.725416821,1,0.25258827514648435,1.725022296142578,-11.232397088623046,-0.7786259541984732,0.4351145038167939,-1.3206106870229009
5313820120054,4.732864008,1,0.30406361083984373,1.7369933044433592,-11.179724652099608,-0.8091603053435115,0.5419847328244275,-1.3435114503816794
5313827502658,4.740246612,1,0.22864625854492185,1.7334020019531249,-11.17852755126953,-0.8091603053435115,0.5725190839694656,-1.282442748091603
5313834905263,4.747649217,1,0.16160861206054686,1.7238251953125,-11.154585534667968,-0.732824427480916,0.5572519083969466,-1.251908396946565
5313842235575,4.754979529,1,0.23582886352539062,1.7214309936523438,-11.161768139648437,-0.9694656488549618,0.5954198473282443,-1.2900763358778626
5313849503283,4.762247237,1,0.16160861206054686,1.7357962036132812,-11.214440576171874,-0.7175572519083969,0.5801526717557252,-1.3740458015267176
5313856889273,4.769633227,1,0.26216508178710934,1.7202338928222656,-11.190498559570312,-0.7862595419847328,0.4732824427480916,-1.251908396946565
5313864303544,4.777047498,1,0.19033903198242186,1.7262193969726563,-11.189301458740234,-0.7938931297709924,0.6412213740458015,-1.3511450381679388
5313871679169,4.784423123,1,0.20709844360351562,1.7621324218749999,-11.213243475341796,-0.7938931297709924,0.5419847328244275,-1.2213740458015268
5313879026148,4.791770102,1,0.19632453613281248,1.7202338928222656,-11.238382592773437,-0.8625954198473282,0.5572519083969466,-1.282442748091603
5313886376252,4.799120206,1,0.19632453613281248,1.7489643127441405,-11.21084927368164,-0.8778625954198473,0.5343511450381679,-1.2671755725190839
5313893721773,4.806465727,1,0.25258827514648435,1.6927005737304686,-11.180921752929686,-0.7709923664122137,0.5572519083969466,-1.297709923664122
5313901085367,4.813829321,1,0.24301146850585936,1.7465701110839842,-11.133037719726563,-0.8320610687022901,0.5877862595419847,-1.3282442748091603
5313908477867,4.821221821,1,0.23702596435546874,1.7585411193847655,-11.219228979492186,-0.816793893129771,0.5038167938931297,-1.3893129770992367
5313915845940,4.828589894,1,0.22026655273437498,1.7764976318359373,-11.173739147949219,-0.7938931297709924,0.4961832061068702,-1.3053435114503817
5313923310210,4.836054164,1,0.21428104858398436,1.7262193969726563,-11.171344946289063,-0.7938931297709924,0.6030534351145038,-1.3587786259541985
5313930684585,4.843428539,1,0.2657563842773437,1.70467158203125,-11.203666668701171,-0.7862595419847328,0.6030534351145038,-1.2595419847328244
5313938007710,4.850751664,1,0.16879121704101563,1.697488977050781,-11.174936248779296,-0.8015267175572519,0.4732824427480916,-1.3587786259541985
5313945332346,4.8580763,1,0.23822306518554687,1.7106570861816406,-11.19887826538086,-0.9465648854961832,0.6412213740458015,-1.366412213740458
5313952691096,4.86543505,1,0.16280571289062498,1.7166425903320313,-11.209652172851563,-0.7557251908396947,0.46564885496183206,-1.3129770992366412
5313960078023,4.872821977,1,0.19512743530273435,1.7214309936523438,-11.203666668701171,-0.7786259541984732,0.5877862595419847,-1.3129770992366412
5313967375158,4.880119112,1,0.22505495605468748,1.7286135986328124,-11.168950744628905,-0.8473282442748091,0.549618320610687,-1.297709923664122
5313974702137,4.887446091,1,0.26336218261718747,1.782483135986328,-11.164162341308593,-0.7022900763358778,0.3816793893129771,-1.366412213740458
5313982108335,4.894852289,1,0.25139117431640623,1.7393875061035156,-11.209652172851563,-0.9465648854961832,0.6183206106870229,-1.381679389312977
5313989459481,4.902203435,1,0.239420166015625,1.7214309936523438,-11.17254204711914,-0.8244274809160306,0.5801526717557252,-1.3740458015267176
5313996880210,4.909624164,1,0.23104046020507812,1.7501614135742187,-11.186907257080078,-0.7404580152671756,0.5877862595419847,-1.3282442748091603
5314004282710,4.917026664,1,0.2609679809570312,1.7022773803710936,-11.18571015625,-0.9007633587786259,0.5801526717557252,-1.251908396946565
5314012142710,4.924886664,1,0.181959326171875,1.753752716064453,-11.190498559570312,-0.816793893129771,0.549618320610687,-1.3129770992366412
5314019446408,4.932190362,1,0.25737667846679685,1.7693150268554687,-11.154585534667968,-0.8473282442748091,0.5419847328244275,-1.282442748091603
5314026738648,4.939482602,1,0.24301146850585936,1.7369933044433592,-11.212046374511718,-0.7404580152671756,0.5114503816793893,-1.3358778625954197
5314034106877,4.946850831,1,0.24779987182617186,1.7357962036132812,-11.188104357910156,-0.7938931297709924,0.6870229007633588,-1.2900763358778626
5314041374950,4.954118904,1,0.24899697265624998,1.7525556152343749,-11.165359442138671,-0.7633587786259542,0.5648854961832062,-1.297709923664122
5314048751408,4.961495362,1,0.1927332336425781,1.7453730102539062,-11.21084927368164,-0.8549618320610687,0.6106870229007634,-1.282442748091603
5314056110731,4.968854685,1,0.25737667846679685,1.7585411193847655,-11.2240173828125,-0.8091603053435115,0.5190839694656488,-1.3206106870229009
5314063492867,4.976236821,1,0.258573779296875,1.7214309936523438,-11.161768139648437,-0.8015267175572519,0.5725190839694656,-1.3053435114503817
5314070901252,4.983645206,1,0.2059013427734375,1.763329522705078,-11.166556542968749,-0.8244274809160306,0.6183206106870229,-1.282442748091603
5314078344794,4.991088748,1,0.22505495605468748,1.7429788085937499,-11.168950744628905,-0.7099236641221374,0.6106870229007634,-1.3358778625954197
5314085725262,4.998469216,1,0.2154781494140625,1.7286135986328124,-11.139023223876952,-0.8320610687022901,0.5801526717557252,-1.3435114503816794
5314093054117,5.005798071,1,0.24061726684570311,1.7274164978027342,-11.190498559570312,-0.7633587786259542,0.5877862595419847,-1.3129770992366412
5314100484012,5.013227966,1,0.239420166015625,1.687912170410156,-11.184513055419922,-0.8091603053435115,0.5343511450381679,-1.282442748091603
5314107837502,5.020581456,1,0.2166752502441406,1.725022296142578,-11.150994232177734,-0.8091603053435115,0.6717557251908397,-1.3358778625954197
5314115229846,5.0279738,1,0.239420166015625,1.7501614135742187,-11.14022032470703,-0.816793893129771,0.5038167938931297,-1.3053435114503817
5314122586773,5.035330727,1,0.23223756103515625,1.705868682861328,-11.046846459960937,-0.8473282442748091,0.5648854961832062,-1.297709923664122
5314129889898,5.042633852,1,0.22744915771484372,1.7357962036132812,-11.16057103881836,-0.8931297709923665,0.5954198473282443,-1.3358778625954197
5314137257971,5.050001925,1,0.17118541870117188,1.7357962036132812,-11.282675323486327,-0.8320610687022901,0.5114503816793893,-1.251908396946565
5314144550315,5.057294269,1,0.22744915771484372,1.7645266235351562,-11.204863769531249,-0.8702290076335878,0.4961832061068702,-1.3206106870229009
5314151901148,5.064645102,1,0.1879448303222656,1.7393875061035156,-11.150994232177734,-0.8320610687022901,0.5801526717557252,-1.4427480916030535
5314159316356,5.07206031,1,0.181959326171875,1.7429788085937499,-11.208455072021483,-0.7557251908396947,0.5801526717557252,-1.3435114503816794
5314166722762,5.079466716,1,0.24779987182617186,1.695094775390625,-11.21084927368164,-0.7633587786259542,0.549618320610687,-1.282442748091603
5314174083596,5.08682755,1,0.29089550170898437,1.7310078002929687,-11.162965240478515,-0.7175572519083969,0.5038167938931297,-1.3358778625954197
5314181477346,5.0942213,1,0.23702596435546874,1.7166425903320313,-11.113884106445312,-0.6870229007633588,0.5801526717557252,-1.2671755725190839
5314188875054,5.101619008,1,0.2214636535644531,1.7310078002929687,-11.162965240478515,-0.8091603053435115,0.5648854961832062,-1.297709923664122
5314196309689,5.109053643,1,0.21787235107421873,1.7417817077636717,-11.159373937988281,-0.7404580152671756,0.5648854961832062,-1.251908396946565
5314203675575,5.116419529,1,0.23822306518554687,1.7465701110839842,-11.203666668701171,-0.816793893129771,0.5801526717557252,-1.3129770992366412
5314211032033,5.123775987,1,0.22505495605468748,1.6915034729003906,-11.219228979492186,-0.9083969465648855,0.6717557251908397,-1.2442748091603053
5314218399012,5.131142966,1,0.21068974609375,1.7214309936523438,-11.247959399414063,-0.8244274809160306,0.5190839694656488,-1.2366412213740459
5314225743387,5.138487341,1,0.1879448303222656,1.7717092285156248,-11.221623181152344,-0.9083969465648855,0.648854961832061,-1.3511450381679388
5314233088439,5.145832393,1,0.20470424194335937,1.7094599853515624,-11.209652172851563,-0.8473282442748091,0.5725190839694656,-1.3511450381679388
5314240493700,5.153237654,1,0.25258827514648435,1.7202338928222656,-11.168950744628905,-0.8549618320610687,0.5343511450381679,-1.381679389312977
5314247868231,5.160612185,1,0.181959326171875,1.7477672119140624,-11.15338843383789,-0.8320610687022901,0.5877862595419847,-1.3740458015267176
5314255285314,5.168029268,1,0.23223756103515625,1.7094599853515624,-11.16057103881836,-0.7709923664122137,0.48854961832061067,-1.3511450381679388
5314262641304,5.175385258,1,0.23343466186523437,1.7477672119140624,-11.166556542968749,-0.7404580152671756,0.5954198473282443,-1.3206106870229009
5314270033648,5.182777602,1,0.258573779296875,1.7501614135742187,-11.21683477783203,-0.8549618320610687,0.6335877862595419,-1.3282442748091603
5314277366929,5.190110883,1,0.239420166015625,1.753752716064453,-11.207257971191405,-0.7022900763358778,0.48854961832061067,-1.3053435114503817
5314284746408,5.197490362,1,0.22505495605468748,1.7178396911621092,-11.148600030517578,-0.8320610687022901,0.4580152671755725,-1.2366412213740459
5314292124221,5.204868175,1,0.2549824768066406,1.7334020019531249,-11.218031878662108,-0.8778625954198473,0.5114503816793893,-1.3435114503816794
5314299447814,5.212191768,1,0.24181436767578124,1.744175909423828,-11.196484063720703,-0.7175572519083969,0.5114503816793893,-1.3969465648854962
5314306801929,5.219545883,1,0.16519991455078123,1.7202338928222656,-11.146205828857422,-0.8091603053435115,0.6259541984732825,-1.2671755725190839
5314314109117,5.226853071,1,0.2442085693359375,1.7872715393066405,-11.133037719726563,-0.8015267175572519,0.6183206106870229,-1.3740458015267176
5314321455887,5.234199841,1,0.24181436767578124,1.7417817077636717,-11.192892761230468,-0.7251908396946565,0.5114503816793893,-1.3435114503816794
5314328858023,5.241601977,1,0.19512743530273435,1.7202338928222656,-11.164162341308593,-0.8396946564885496,0.648854961832061,-1.3435114503816794
5314336268752,5.249012706,1,0.21308394775390624,1.7034744812011717,-11.23000288696289,-0.8396946564885496,0.5572519083969466,-1.297709923664122
5314343610106,5.25635406,1,0.2166752502441406,1.7298106994628906,-11.124658013916015,-0.8244274809160306,0.5572519083969466,-1.297709923664122
5314350913908,5.263657862,1,0.2442085693359375,1.7645266235351562,-11.165359442138671,-0.816793893129771,0.5801526717557252,-1.3053435114503817
5314358282867,5.271026821,1,0.27293898925781246,1.7369933044433592,-11.201272467041015,-0.8244274809160306,0.5954198473282443,-1.3511450381679388
5314365662762,5.278406716,1,0.26216508178710934,1.7190367919921874,-11.177330450439452,-0.6641221374045801,0.4961832061068702,-1.297709923664122
5314373057398,5.285801352,1,0.23343466186523437,1.7585411193847655,-11.176133349609374,-0.7709923664122137,0.6335877862595419,-1.3969465648854962
5314380469637,5.293213591,1,0.21068974609375,1.8052280517578123,-11.156979736328124,-0.7709923664122137,0.5190839694656488,-1.4122137404580153
5314387858127,5.300602081,1,0.2501940734863281,1.7393875061035156,-11.180921752929686,-0.8396946564885496,0.48854961832061067,-1.2366412213740459
5314395426512,5.308170466,1,0.23702596435546874,1.7226280944824217,-11.174936248779296,-0.8091603053435115,0.5038167938931297,-1.3358778625954197
5314402938075,5.315682029,1,0.2154781494140625,1.725022296142578,-11.170147845458983,-0.8549618320610687,0.5038167938931297,-1.3129770992366412
5314410377502,5.323121456,1,0.2561795776367187,1.7465701110839842,-11.241973895263671,-0.7786259541984732,0.5343511450381679,-1.3358778625954197
5314417757398,5.330501352,1,0.22026655273437498,1.7286135986328124,-11.168950744628905,-0.7480916030534351,0.6259541984732825,-1.3358778625954197
5314425124741,5.337868695,1,0.24181436767578124,1.7357962036132812,-11.186907257080078,-0.7404580152671756,0.6106870229007634,-1.3053435114503817
5314432512971,5.345256925,1,0.2454056701660156,1.7513585144042967,-11.188104357910156,-0.9389312977099237,0.5725190839694656,-1.3129770992366412
5314439892137,5.352636091,1,0.22864625854492185,1.7166425903320313,-11.176133349609374,-0.7633587786259542,0.549618320610687,-1.2290076335877862
5314447291408,5.360035362,1,0.2166752502441406,1.707065783691406,-11.17852755126953,-0.7633587786259542,0.5038167938931297,-1.3358778625954197
5314454650887,5.367394841,1,0.21068974609375,1.697488977050781,-11.197681164550781,-0.7938931297709924,0.6030534351145038,-1.3129770992366412
5314462042554,5.374786508,1,0.19632453613281248,1.7429788085937499,-11.19169566040039,-0.7404580152671756,0.5419847328244275,-1.297709923664122
5314469472085,5.382216039,1,0.21428104858398436,1.7286135986328124,-11.182118853759764,-0.7862595419847328,0.6564885496183206,-1.3206106870229009
5314476883231,5.389627185,1,0.2346317626953125,1.7130512878417967,-11.158176837158203,-0.7862595419847328,0.5419847328244275,-1.2442748091603053
5314484310991,5.397054945,1,0.15562310791015624,1.7010802795410156,-11.200075366210937,-0.7480916030534351,0.5267175572519084,-1.3740458015267176
5314491684116,5.40442807,1,0.2549824768066406,1.7561469177246092,-11.218031878662108,-0.7938931297709924,0.648854961832061,-1.282442748091603
5314499096356,5.41184031,1,0.25737667846679685,1.7477672119140624,-11.17852755126953,-0.8396946564885496,0.6412213740458015,-1.282442748091603
5314506484533,5.419228487,1,0.18435352783203124,1.696291876220703,-11.109095703125,-0.816793893129771,0.5648854961832062,-1.297709923664122
5314513838804,5.426582758,1,0.21906945190429686,1.7369933044433592,-11.206060870361327,-0.9236641221374046,0.5648854961832062,-1.3129770992366412
5314521122710,5.433866664,1,0.239420166015625,1.7178396911621092,-11.265915911865234,-0.6870229007633588,0.5648854961832062,-1.3129770992366412
5314528493283,5.441237237,1,0.25737667846679685,1.7118541870117185,-11.12226381225586,-0.8320610687022901,0.6259541984732825,-1.297709923664122
5314535867971,5.448611925,1,0.2501940734863281,1.7214309936523438,-11.209652172851563,-0.9465648854961832,0.7022900763358778,-1.3358778625954197
5314543146200,5.455890154,1,0.20470424194335937,1.7178396911621092,-11.174936248779296,-0.8473282442748091,0.5267175572519084,-1.3511450381679388
5314550534221,5.463278175,1,0.2657563842773437,1.7298106994628906,-11.165359442138671,-0.8549618320610687,0.6259541984732825,-1.2213740458015268
