timestamp_ns,t_s,sensor_id,ax,ay,az,gx,gy,gz
3909811078090,0.173116094,3,-0.22864625854492185,-0.5542576843261718,-8.954314208984375,-4.419847328244275,-0.3435114503816794,-3.0610687022900764
3909817161111,0.179199115,3,-0.18315642700195311,-0.5339069702148437,-8.975862023925782,-4.419847328244275,-0.22900763358778625,-3.16793893129771
3909823085121,0.185123125,3,-0.19153613281249998,-0.5518634826660156,-8.933963494873046,-4.351145038167939,-0.3053435114503817,-3.16793893129771
3909828901371,0.190939375,3,-0.18435352783203124,-0.5267243652343749,-8.92438668823242,-4.396946564885496,-0.37404580152671757,-3.16793893129771
3909834804809,0.196842813,3,-0.18914193115234373,-0.5327098693847656,-8.945934503173827,-4.396946564885496,-0.3511450381679389,-3.1603053435114505
3909840689809,0.202727813,3,-0.19512743530273435,-0.5374982727050781,-8.912415679931641,-4.419847328244275,-0.2824427480916031,-3.213740458015267
3909846572725,0.208610729,3,-0.1867477294921875,-0.5458779785156249,-8.912415679931641,-4.3816793893129775,-0.2824427480916031,-3.1908396946564888
3909852519965,0.214557969,3,-0.20829554443359374,-0.5566518859863281,-8.966285217285156,-4.351145038167939,-0.22137404580152673,-3.1908396946564888
3909858446684,0.220484688,3,-0.1927332336425781,-0.5626373901367188,-8.930372192382812,-4.374045801526718,-0.10687022900763359,-3.1526717557251906
3909864364704,0.226402708,3,-0.21906945190429686,-0.5470750793457031,-8.927977990722656,-4.473282442748092,-0.25190839694656486,-3.114503816793893
3909870217829,0.232255833,3,-0.20829554443359374,-0.5458779785156249,-8.959102612304687,-4.480916030534351,-0.3893129770992366,-3.0763358778625953
3909876105746,0.23814375,3,-0.19871873779296872,-0.5662286926269531,-8.933963494873046,-4.458015267175573,-0.4198473282442748,-3.1297709923664123
3909882014652,0.244052656,3,-0.18315642700195311,-0.55545478515625,-8.950722906494141,-4.465648854961832,-0.2900763358778626,-3.1068702290076335
3909887922309,0.249960313,3,-0.21188684692382811,-0.5518634826660156,-8.953117108154297,-4.435114503816794,-0.3435114503816794,-3.183206106870229
3909893875642,0.255913646,3,-0.19871873779296872,-0.5267243652343749,-8.929175091552734,-4.5038167938931295,-0.35877862595419846,-3.1297709923664123
3909899794027,0.261832031,3,-0.19393033447265623,-0.5686228942871093,-8.923189587402343,-4.5038167938931295,-0.26717557251908397,-3.1755725190839694
3909905772569,0.267810573,3,-0.201112939453125,-0.5327098693847656,-8.907627276611327,-4.3893129770992365,-0.3511450381679389,-3.1603053435114505
3909911666319,0.273704323,3,-0.21787235107421873,-0.5279214660644531,-8.905233074951171,-4.488549618320611,-0.3893129770992366,-3.1374045801526718
3909917584027,0.279622031,3,-0.22026655273437498,-0.5195417602539062,-8.94473740234375,-4.374045801526718,-0.25190839694656486,-3.1526717557251906
3909923476736,0.28551474,3,-0.20709844360351562,-0.5374982727050781,-8.935160595703124,-4.404580152671755,-0.25190839694656486,-3.145038167938931
3909929426319,0.291464323,3,-0.19512743530273435,-0.5327098693847656,-8.930372192382812,-4.427480916030534,-0.35877862595419846,-3.1068702290076335
3909935313298,0.297351302,3,-0.18914193115234373,-0.5291185668945312,-8.93156929321289,-4.427480916030534,-0.40458015267175573,-3.0610687022900764
3909941228402,0.303266406,3,-0.19871873779296872,-0.5267243652343749,-8.933963494873046,-4.4961832061068705,-0.31297709923664124,-3.053435114503817
3909947079965,0.309117969,3,-0.19512743530273435,-0.5386953735351562,-8.935160595703124,-4.458015267175573,-0.366412213740458,-3.053435114503817
3909952930746,0.31496875,3,-0.22744915771484372,-0.5482721801757812,-8.927977990722656,-4.4961832061068705,-0.3893129770992366,-3.068702290076336
3909958809652,0.320847656,3,-0.21428104858398436,-0.5386953735351562,-8.972270721435546,-4.442748091603053,-0.2900763358778626,-3.1297709923664123
3909964710173,0.326748177,3,-0.21787235107421873,-0.5458779785156249,-8.91840118408203,-4.412213740458015,-0.2824427480916031,-3.122137404580153
3909970602881,0.332640885,3,-0.21787235107421873,-0.5530605834960938,-8.896853369140624,-4.427480916030534,-0.44274809160305345,-3.1374045801526718
3909976446892,0.338484896,3,-0.19991583862304688,-0.5351040710449219,-8.957905511474609,-4.435114503816794,-0.3816793893129771,-3.1908396946564888
3909982286944,0.344324948,3,-0.21787235107421873,-0.5159504577636719,-8.943540301513671,-4.480916030534351,-0.2595419847328244,-3.198473282442748
3909988146840,0.350184844,3,-0.19512743530273435,-0.5446808776855468,-8.948328704833983,-4.5038167938931295,-0.4580152671755725,-3.122137404580153
3909993999392,0.356037396,3,-0.17118541870117188,-0.5410895751953124,-8.917204083251953,-4.488549618320611,-0.3282442748091603,-3.1297709923664123
3909999844236,0.36188224,3,-0.20231004028320312,-0.5494692810058593,-8.877699755859375,-4.3893129770992365,-0.2366412213740458,-3.114503816793893
3910006709496,0.3687475,3,-0.17956512451171874,-0.5446808776855468,-8.93755479736328,-4.404580152671755,-0.2900763358778626,-3.0610687022900764
3910012792673,0.374830677,3,-0.20709844360351562,-0.5410895751953124,-8.94473740234375,-4.404580152671755,-0.2900763358778626,-3.114503816793893
3910018742048,0.380780052,3,-0.20470424194335937,-0.5542576843261718,-8.933963494873046,-4.450381679389313,-0.20610687022900764,-3.145038167938931
3910024703558,0.386741562,3,-0.19871873779296872,-0.5207388610839844,-8.94473740234375,-4.404580152671755,-0.20610687022900764,-3.145038167938931
3910030651683,0.392689687,3,-0.20231004028320312,-0.5542576843261718,-8.926780889892578,-4.374045801526718,-0.33587786259541985,-3.122137404580153
3910036531892,0.398569896,3,-0.20829554443359374,-0.5638344909667968,-8.932766394042968,-4.3816793893129775,-0.3511450381679389,-3.1068702290076335
3910042429965,0.404467969,3,-0.20470424194335937,-0.5482721801757812,-8.963891015625,-4.366412213740458,-0.3053435114503817,-3.16793893129771
3910048374965,0.410412969,3,-0.19512743530273435,-0.5494692810058593,-8.96269391479492,-4.366412213740458,-0.33587786259541985,-3.2061068702290076
3910054280642,0.416318646,3,-0.19153613281249998,-0.5386953735351562,-8.947131604003905,-4.358778625954199,-0.33587786259541985,-3.1526717557251906
3910060168715,0.422206719,3,-0.20949264526367187,-0.5231330627441406,-8.950722906494141,-4.412213740458015,-0.2824427480916031,-3.1603053435114505
3910066059913,0.428097917,3,-0.17597382202148437,-0.5267243652343749,-8.9255837890625,-4.450381679389313,-0.2824427480916031,-3.1526717557251906
3910071974236,0.43401224,3,-0.20350714111328125,-0.5614402893066406,-8.929175091552734,-4.480916030534351,-0.3511450381679389,-3.114503816793893
3910077945433,0.439983437,3,-0.19632453613281248,-0.5351040710449219,-8.920795385742187,-4.427480916030534,-0.33587786259541985,-3.122137404580153
3910083860694,0.445898698,3,-0.201112939453125,-0.5578489868164063,-8.9255837890625,-4.511450381679389,-0.29770992366412213,-3.183206106870229
3910089795902,0.451833906,3,-0.1975216369628906,-0.565031591796875,-8.9255837890625,-4.435114503816794,-0.3511450381679389,-3.198473282442748
3910095698090,0.457736094,3,-0.1879448303222656,-0.565031591796875,-8.947131604003905,-4.396946564885496,-0.3816793893129771,-3.1526717557251906
3910101610017,0.463648021,3,-0.18555062866210936,-0.5386953735351562,-8.953117108154297,-4.396946564885496,-0.2366412213740458,-3.1755725190839694
3910107458923,0.469496927,3,-0.20231004028320312,-0.5422866760253906,-8.890867864990234,-4.450381679389313,-0.33587786259541985,-3.1068702290076335
3910113367569,0.475405573,3,-0.2166752502441406,-0.55545478515625,-8.945934503173827,-4.404580152671755,-0.31297709923664124,-3.0916030534351147
3910119229965,0.481267969,3,-0.19632453613281248,-0.5686228942871093,-8.972270721435546,-4.374045801526718,-0.29770992366412213,-3.114503816793893
3910125087933,0.487125937,3,-0.21906945190429686,-0.5722141967773438,-8.912415679931641,-4.419847328244275,-0.3053435114503817,-3.1297709923664123
3910131006215,0.493044219,3,-0.1879448303222656,-0.5710170959472656,-8.935160595703124,-4.458015267175573,-0.44274809160305345,-3.183206106870229
3910137008558,0.499046562,3,-0.20949264526367187,-0.5662286926269531,-8.96987651977539,-4.5038167938931295,-0.4351145038167939,-3.122137404580153
3910143021163,0.505059167,3,-0.201112939453125,-0.5410895751953124,-8.91840118408203,-4.435114503816794,-0.31297709923664124,-3.16793893129771
3910148999652,0.511037656,3,-0.19632453613281248,-0.5674257934570313,-8.939948999023438,-4.450381679389313,-0.3816793893129771,-3.183206106870229
3910155011892,0.517049896,3,-0.20949264526367187,-0.55545478515625,-8.951920007324219,-4.419847328244275,-0.3816793893129771,-3.145038167938931
3910160940329,0.522978333,3,-0.2262520568847656,-0.5458779785156249,-8.929175091552734,-4.412213740458015,-0.3053435114503817,-3.0610687022900764
3910166835017,0.528873021,3,-0.21308394775390624,-0.5315127685546874,-8.93156929321289,-4.404580152671755,-0.29770992366412213,-3.0229007633587788
3910172616735,0.534654739,3,-0.21188684692382811,-0.5207388610839844,-8.954314208984375,-4.404580152671755,-0.3435114503816794,-3.1374045801526718
3910178512985,0.540550989,3,-0.2262520568847656,-0.5470750793457031,-8.941146099853515,-4.396946564885496,-0.29770992366412213,-3.1374045801526718
3910184411215,0.546449219,3,-0.22864625854492185,-0.5351040710449219,-8.960299713134765,-4.427480916030534,-0.26717557251908397,-3.1297709923664123
3910190325902,0.552363906,3,-0.2059013427734375,-0.5470750793457031,-8.985438830566405,-4.480916030534351,-0.32061068702290074,-3.0839694656488548
3910196235746,0.55827375,3,-0.2154781494140625,-0.5602431884765625,-8.95670841064453,-4.465648854961832,-0.3969465648854962,-3.099236641221374
3910202087985,0.564125989,3,-0.22505495605468748,-0.5578489868164063,-8.939948999023438,-4.450381679389313,-0.3511450381679389,-3.122137404580153
3910207903715,0.569941719,3,-0.21188684692382811,-0.5398924743652344,-8.955511309814453,-4.465648854961832,-0.32061068702290074,-3.114503816793893
3910213851735,0.575889739,3,-0.2214636535644531,-0.5614402893066406,-8.936357696533202,-4.465648854961832,-0.3435114503816794,-3.1603053435114505
3910219765225,0.581803229,3,-0.2154781494140625,-0.5662286926269531,-8.935160595703124,-4.412213740458015,-0.25190839694656486,-3.2061068702290076
3910225615069,0.587653073,3,-0.19871873779296872,-0.5410895751953124,-8.935160595703124,-4.435114503816794,-0.20610687022900764,-3.198473282442748
3910231507517,0.593545521,3,-0.1771709228515625,-0.5506663818359374,-8.942343200683593,-4.442748091603053,-0.26717557251908397,-3.213740458015267
3910237401683,0.599439687,3,-0.19991583862304688,-0.5506663818359374,-8.949525805664061,-4.435114503816794,-0.3053435114503817,-3.145038167938931
3910243287829,0.605325833,3,-0.201112939453125,-0.5303156677246094,-8.971073620605468,-4.396946564885496,-0.32061068702290074,-3.1603053435114505
3910249182881,0.611220885,3,-0.20231004028320312,-0.5351040710449219,-8.93875189819336,-4.419847328244275,-0.2748091603053435,-3.1526717557251906
3910255093350,0.617131354,3,-0.19871873779296872,-0.5386953735351562,-8.935160595703124,-4.419847328244275,-0.366412213740458,-3.1374045801526718
3910260979235,0.623017239,3,-0.20709844360351562,-0.5482721801757812,-8.93875189819336,-4.419847328244275,-0.2824427480916031,-3.1068702290076335
3910266846475,0.628884479,3,-0.20231004028320312,-0.5339069702148437,-8.949525805664061,-4.458015267175573,-0.24427480916030533,-3.122137404580153
3910272698194,0.634736198,3,-0.19991583862304688,-0.5087678527832031,-8.96987651977539,-4.3893129770992365,-0.3511450381679389,-3.1374045801526718
3910278598923,0.640636927,3,-0.1771709228515625,-0.5315127685546874,-8.942343200683593,-4.396946564885496,-0.26717557251908397,-3.122137404580153
3910284479392,0.646517396,3,-0.18435352783203124,-0.5458779785156249,-8.953117108154297,-4.396946564885496,-0.25190839694656486,-3.145038167938931
3910290370642,0.652408646,3,-0.19033903198242186,-0.5506663818359374,-8.966285217285156,-4.412213740458015,-0.2900763358778626,-3.122137404580153
3910296256527,0.658294531,3,-0.19991583862304688,-0.5614402893066406,-8.930372192382812,-4.458015267175573,-0.2824427480916031,-3.1526717557251906
3910302134027,0.664172031,3,-0.19153613281249998,-0.5494692810058593,-8.959102612304687,-4.488549618320611,-0.2595419847328244,-3.1603053435114505
3910308082621,0.670120625,3,-0.18076222534179687,-0.5327098693847656,-8.948328704833983,-4.473282442748092,-0.3969465648854962,-3.114503816793893
3910314009652,0.676047656,3,-0.1975216369628906,-0.5386953735351562,-8.968679418945312,-4.458015267175573,-0.3511450381679389,-3.114503816793893
3910319923767,0.681961771,3,-0.20709844360351562,-0.5159504577636719,-8.941146099853515,-4.366412213740458,-0.2824427480916031,-3.183206106870229
3910325888194,0.687926198,3,-0.19632453613281248,-0.5279214660644531,-8.960299713134765,-4.412213740458015,-0.31297709923664124,-3.2061068702290076
3910331819079,0.693857083,3,-0.201112939453125,-0.5530605834960938,-8.929175091552734,-4.488549618320611,-0.3816793893129771,-3.114503816793893
3910337746163,0.699784167,3,-0.23104046020507812,-0.5578489868164063,-8.93755479736328,-4.480916030534351,-0.2366412213740458,-3.122137404580153
3910343660850,0.705698854,3,-0.21068974609375,-0.5482721801757812,-8.953117108154297,-4.458015267175573,-0.19083969465648856,-3.114503816793893
3910349599027,0.711637031,3,-0.19512743530273435,-0.5638344909667968,-8.967482318115234,-4.5038167938931295,-0.29770992366412213,-3.122137404580153
3910355513610,0.717551614,3,-0.20231004028320312,-0.5698199951171875,-8.950722906494141,-4.473282442748092,-0.3816793893129771,-3.1526717557251906
3910361445485,0.723483489,3,-0.2166752502441406,-0.5566518859863281,-8.95670841064453,-4.419847328244275,-0.35877862595419846,-3.1908396946564888
3910367294235,0.729332239,3,-0.19991583862304688,-0.5518634826660156,-8.981847528076171,-4.435114503816794,-0.32061068702290074,-3.0839694656488548
3910373179756,0.73521776,3,-0.21188684692382811,-0.5482721801757812,-8.913612780761719,-4.465648854961832,-0.3053435114503817,-3.1297709923664123
3910379115746,0.74115375,3,-0.20949264526367187,-0.5135562561035156,-8.933963494873046,-4.3893129770992365,-0.29770992366412213,-3.1908396946564888
3910385001527,0.747039531,3,-0.2166752502441406,-0.5458779785156249,-8.914809881591797,-4.419847328244275,-0.3282442748091603,-3.099236641221374
3910390925277,0.752963281,3,-0.20470424194335937,-0.5267243652343749,-8.932766394042968,-4.427480916030534,-0.37404580152671757,-3.122137404580153
3910396837256,0.75887526,3,-0.19871873779296872,-0.5339069702148437,-8.929175091552734,-4.5038167938931295,-0.3282442748091603,-3.1374045801526718
3910402753975,0.764791979,3,-0.20470424194335937,-0.51714755859375,-8.986635931396483,-4.465648854961832,-0.2824427480916031,-3.1755725190839694
3910408704392,0.770742396,3,-0.21068974609375,-0.5410895751953124,-8.943540301513671,-4.419847328244275,-0.3282442748091603,-3.2061068702290076
3910414592985,0.776630989,3,-0.20231004028320312,-0.5243301635742187,-8.96987651977539,-4.412213740458015,-0.3969465648854962,-3.1374045801526718
3910420510590,0.782548594,3,-0.20829554443359374,-0.5458779785156249,-8.991424334716797,-4.3893129770992365,-0.26717557251908397,-3.1603053435114505
3910426391735,0.788429739,3,-0.21308394775390624,-0.5339069702148437,-8.933963494873046,-4.396946564885496,-0.2900763358778626,-3.1755725190839694
3910432270590,0.794308594,3,-0.21308394775390624,-0.5422866760253906,-8.93755479736328,-4.427480916030534,-0.3282442748091603,-3.1526717557251906
3910438187725,0.800225729,3,-0.19512743530273435,-0.5542576843261718,-8.933963494873046,-4.458015267175573,-0.2824427480916031,-3.1908396946564888
3910444064027,0.806102031,3,-0.20231004028320312,-0.5195417602539062,-8.973467822265624,-4.473282442748092,-0.2900763358778626,-3.1603053435114505
3910450005746,0.81204375,3,-0.201112939453125,-0.5386953735351562,-8.93875189819336,-4.458015267175573,-0.35877862595419846,-3.099236641221374
3910455949652,0.817987656,3,-0.2059013427734375,-0.5530605834960938,-8.930372192382812,-4.442748091603053,-0.3511450381679389,-3.0916030534351147
3910461841110,0.823879114,3,-0.1867477294921875,-0.5674257934570313,-8.951920007324219,-4.396946564885496,-0.26717557251908397,-3.1297709923664123
3910467907517,0.829945521,3,-0.1867477294921875,-0.5542576843261718,-8.972270721435546,-4.442748091603053,-0.33587786259541985,-3.0839694656488548
3910473944131,0.835982135,3,-0.20470424194335937,-0.5255272644042969,-8.957905511474609,-4.404580152671755,-0.3435114503816794,-3.099236641221374
3910479880277,0.841918281,3,-0.22385785522460935,-0.5458779785156249,-8.95670841064453,-4.396946564885496,-0.31297709923664124,-3.1755725190839694
3910485832204,0.847870208,3,-0.20350714111328125,-0.5219359619140624,-8.933963494873046,-4.450381679389313,-0.33587786259541985,-3.2061068702290076
3910491762412,0.853800416,3,-0.21787235107421873,-0.5099649536132812,-8.933963494873046,-4.374045801526718,-0.33587786259541985,-3.183206106870229
3910497666840,0.859704844,3,-0.19153613281249998,-0.5231330627441406,-8.972270721435546,-4.412213740458015,-0.31297709923664124,-3.122137404580153
3910503591840,0.865629844,3,-0.19153613281249998,-0.5781997009277343,-8.955511309814453,-4.412213740458015,-0.2900763358778626,-3.183206106870229
3910509512673,0.871550677,3,-0.21068974609375,-0.5398924743652344,-8.93755479736328,-4.427480916030534,-0.33587786259541985,-3.1755725190839694
3910515411683,0.877449687,3,-0.1927332336425781,-0.5243301635742187,-8.930372192382812,-4.450381679389313,-0.29770992366412213,-3.1603053435114505
3910521297256,0.88333526,3,-0.20231004028320312,-0.5327098693847656,-8.951920007324219,-4.4961832061068705,-0.35877862595419846,-3.114503816793893
3910527177829,0.889215833,3,-0.21428104858398436,-0.5614402893066406,-8.968679418945312,-4.480916030534351,-0.33587786259541985,-3.1297709923664123
3910533061006,0.89509901,3,-0.20709844360351562,-0.5530605834960938,-8.959102612304687,-4.458015267175573,-0.3053435114503817,-3.145038167938931
3910538969235,0.901007239,3,-0.19991583862304688,-0.5374982727050781,-8.96987651977539,-4.488549618320611,-0.2900763358778626,-3.1603053435114505
3910544849027,0.906887031,3,-0.1975216369628906,-0.5410895751953124,-8.933963494873046,-4.404580152671755,-0.31297709923664124,-3.1374045801526718
3910550728037,0.912766041,3,-0.20709844360351562,-0.5458779785156249,-8.9255837890625,-4.458015267175573,-0.33587786259541985,-3.16793893129771
3910556682152,0.918720156,3,-0.18914193115234373,-0.5734112976074218,-8.96987651977539,-4.450381679389313,-0.26717557251908397,-3.145038167938931
3910562616215,0.924654219,3,-0.1879448303222656,-0.5494692810058593,-8.93875189819336,-4.3893129770992365,-0.33587786259541985,-3.122137404580153
3910568520798,0.930558802,3,-0.21787235107421873,-0.5482721801757812,-8.936357696533202,-4.427480916030534,-0.3511450381679389,-3.122137404580153
3910574430642,0.936468646,3,-0.20470424194335937,-0.5219359619140624,-8.90643017578125,-4.412213740458015,-0.2900763358778626,-3.122137404580153
3910580357465,0.942395469,3,-0.22505495605468748,-0.5506663818359374,-8.93875189819336,-4.3893129770992365,-0.26717557251908397,-3.122137404580153
3910586265433,0.948303437,3,-0.21068974609375,-0.565031591796875,-8.947131604003905,-4.412213740458015,-0.3893129770992366,-3.1755725190839694
3910592175902,0.954213906,3,-0.22026655273437498,-0.55545478515625,-8.947131604003905,-4.412213740458015,-0.4198473282442748,-3.1526717557251906
3910598087881,0.960125885,3,-0.20949264526367187,-0.5398924743652344,-8.9255837890625,-4.412213740458015,-0.29770992366412213,-3.0839694656488548
3910603997517,0.966035521,3,-0.21428104858398436,-0.5339069702148437,-8.943540301513671,-4.427480916030534,-0.32061068702290074,-3.0229007633587788
3910609975017,0.972013021,3,-0.18435352783203124,-0.5255272644042969,-8.951920007324219,-4.351145038167939,-0.3816793893129771,-3.068702290076336
3910615852985,0.977890989,3,-0.20231004028320312,-0.5231330627441406,-8.93875189819336,-4.366412213740458,-0.3893129770992366,-3.1297709923664123
3910621795121,0.983833125,3,-0.19871873779296872,-0.5614402893066406,-8.942343200683593,-4.32824427480916,-0.31297709923664124,-3.183206106870229
3910627728975,0.989766979,3,-0.19153613281249998,-0.5351040710449219,-8.932766394042968,-4.32824427480916,-0.33587786259541985,-3.213740458015267
3910633630017,0.995668021,3,-0.2214636535644531,-0.5339069702148437,-8.94473740234375,-4.419847328244275,-0.3511450381679389,-3.16793893129771
3910639558975,1.001596979,3,-0.20350714111328125,-0.5351040710449219,-8.90643017578125,-4.396946564885496,-0.3511450381679389,-3.145038167938931
3910645442985,1.007480989,3,-0.18555062866210936,-0.5482721801757812,-8.933963494873046,-4.473282442748092,-0.31297709923664124,-3.0763358778625953
3910651331319,1.013369323,3,-0.22266075439453123,-0.5458779785156249,-8.936357696533202,-4.526717557251908,-0.2900763358778626,-3.068702290076336
3910657290017,1.019328021,3,-0.2154781494140625,-0.5446808776855468,-8.935160595703124,-4.488549618320611,-0.32061068702290074,-3.1374045801526718
3910663203142,1.025241146,3,-0.21068974609375,-0.5542576843261718,-8.919598284912109,-4.473282442748092,-0.3435114503816794,-3.114503816793893
3910669046631,1.031084635,3,-0.17357962036132812,-0.5195417602539062,-8.941146099853515,-4.473282442748092,-0.35877862595419846,-3.2061068702290076
3910674964600,1.037002604,3,-0.201112939453125,-0.51714755859375,-8.951920007324219,-4.480916030534351,-0.2900763358778626,-3.1526717557251906
3910680860069,1.042898073,3,-0.19153613281249998,-0.51714755859375,-8.939948999023438,-4.526717557251908,-0.17557251908396945,-3.1068702290076335
3910686741944,1.048779948,3,-0.20470424194335937,-0.5410895751953124,-8.955511309814453,-4.458015267175573,-0.22900763358778625,-3.1068702290076335
3910692675746,1.05471375,3,-0.20949264526367187,-0.5530605834960938,-8.957905511474609,-4.465648854961832,-0.3511450381679389,-3.0839694656488548
3910698589496,1.0606275,3,-0.1975216369628906,-0.5434837768554687,-8.965088116455078,-4.488549618320611,-0.24427480916030533,-3.1297709923664123
3910704541787,1.066579791,3,-0.19512743530273435,-0.5267243652343749,-8.950722906494141,-4.435114503816794,-0.26717557251908397,-3.122137404580153
3910710481631,1.072519635,3,-0.20829554443359374,-0.5351040710449219,-8.955511309814453,-4.404580152671755,-0.3435114503816794,-3.1755725190839694
3910716377100,1.078415104,3,-0.20829554443359374,-0.5422866760253906,-8.93875189819336,-4.404580152671755,-0.3435114503816794,-3.1908396946564888
3910722284235,1.084322239,3,-0.21787235107421873,-0.5351040710449219,-8.939948999023438,-4.3893129770992365,-0.35877862595419846,-3.16793893129771
3910728206892,1.090244896,3,-0.23822306518554687,-0.5446808776855468,-8.949525805664061,-4.435114503816794,-0.40458015267175573,-3.2061068702290076
3910734112777,1.096150781,3,-0.22505495605468748,-0.5446808776855468,-8.953117108154297,-4.511450381679389,-0.366412213740458,-3.1526717557251906
3910740028454,1.102066458,3,-0.21428104858398436,-0.55545478515625,-8.913612780761719,-4.427480916030534,-0.31297709923664124,-3.114503816793893
3910745946839,1.107984843,3,-0.1975216369628906,-0.5626373901367188,-8.926780889892578,-4.435114503816794,-0.3969465648854962,-3.0763358778625953
3910751831839,1.113869843,3,-0.1975216369628906,-0.5398924743652344,-8.97705912475586,-4.465648854961832,-0.4732824427480916,-3.16793893129771
3910757767673,1.119805677,3,-0.1867477294921875,-0.5339069702148437,-8.989030133056641,-4.435114503816794,-0.33587786259541985,-3.068702290076336
3910763665694,1.125703698,3,-0.22026655273437498,-0.5135562561035156,-8.968679418945312,-4.427480916030534,-0.32061068702290074,-3.1297709923664123
3910769595173,1.131633177,3,-0.19512743530273435,-0.5374982727050781,-8.92438668823242,-4.450381679389313,-0.366412213740458,-3.0839694656488548
3910775476423,1.137514427,3,-0.21787235107421873,-0.5446808776855468,-8.949525805664061,-4.458015267175573,-0.3511450381679389,-3.1297709923664123
3910781337100,1.143375104,3,-0.1867477294921875,-0.5506663818359374,-8.957905511474609,-4.511450381679389,-0.33587786259541985,-3.1603053435114505
3910787192621,1.149230625,3,-0.21428104858398436,-0.5291185668945312,-8.950722906494141,-4.473282442748092,-0.3282442748091603,-3.183206106870229
3910793142464,1.155180468,3,-0.2154781494140625,-0.5482721801757812,-8.973467822265624,-4.435114503816794,-0.33587786259541985,-3.16793893129771
3910799090954,1.161128958,3,-0.21308394775390624,-0.55545478515625,-8.939948999023438,-4.465648854961832,-0.2900763358778626,-3.183206106870229
3910805025485,1.167063489,3,-0.19871873779296872,-0.5590460876464843,-8.914809881591797,-4.473282442748092,-0.31297709923664124,-3.198473282442748
3910810896683,1.172934687,3,-0.20709844360351562,-0.5410895751953124,-8.980650427246093,-4.427480916030534,-0.31297709923664124,-3.145038167938931
3910816787100,1.178825104,3,-0.20709844360351562,-0.5183446594238281,-8.961496813964843,-4.427480916030534,-0.32061068702290074,-3.1603053435114505
3910822663975,1.184701979,3,-0.19991583862304688,-0.5183446594238281,-8.912415679931641,-4.458015267175573,-0.26717557251908397,-3.1755725190839694
3910828682829,1.190720833,3,-0.21068974609375,-0.5279214660644531,-8.93156929321289,-4.396946564885496,-0.24427480916030533,-3.145038167938931
3910834585902,1.196623906,3,-0.18076222534179687,-0.51714755859375,-8.914809881591797,-4.435114503816794,-0.31297709923664124,-3.1297709923664123
3910840509652,1.202547656,3,-0.1975216369628906,-0.5243301635742187,-8.984241729736327,-4.442748091603053,-0.2748091603053435,-3.1603053435114505
3910846414027,1.208452031,3,-0.19393033447265623,-0.5470750793457031,-8.985438830566405,-4.526717557251908,-0.3053435114503817,-3.099236641221374
3910852375329,1.214413333,3,-0.181959326171875,-0.5374982727050781,-8.979453326416015,-4.458015267175573,-0.3893129770992366,-3.1374045801526718
3910858306214,1.220344218,3,-0.1879448303222656,-0.5255272644042969,-8.941146099853515,-4.442748091603053,-0.31297709923664124,-3.1374045801526718
3910864125016,1.22616302,3,-0.21787235107421873,-0.5015852478027344,-8.930372192382812,-4.465648854961832,-0.31297709923664124,-3.2061068702290076
3910870033819,1.232071823,3,-0.22026655273437498,-0.51714755859375,-8.927977990722656,-4.450381679389313,-0.3435114503816794,-3.1755725190839694
3910875943610,1.237981614,3,-0.20231004028320312,-0.5422866760253906,-8.968679418945312,-4.442748091603053,-0.31297709923664124,-3.122137404580153
3910881957412,1.243995416,3,-0.1927332336425781,-0.5434837768554687,-8.936357696533202,-4.419847328244275,-0.29770992366412213,-3.1603053435114505
3910887887048,1.249925052,3,-0.18914193115234373,-0.5482721801757812,-8.941146099853515,-4.419847328244275,-0.4198473282442748,-3.099236641221374
3910893838454,1.255876458,3,-0.21188684692382811,-0.5482721801757812,-8.961496813964843,-4.435114503816794,-0.33587786259541985,-3.145038167938931
3910899814391,1.261852395,3,-0.1879448303222656,-0.5662286926269531,-8.936357696533202,-4.374045801526718,-0.2748091603053435,-3.1526717557251906
3910905776058,1.267814062,3,-0.17597382202148437,-0.5566518859863281,-8.974664923095702,-4.396946564885496,-0.366412213740458,-3.145038167938931
3910911722881,1.273760885,3,-0.18076222534179687,-0.5351040710449219,-8.951920007324219,-4.435114503816794,-0.37404580152671757,-3.122137404580153
3910917611110,1.279649114,3,-0.17238251953125,-0.5374982727050781,-8.920795385742187,-4.419847328244275,-0.2595419847328244,-3.1068702290076335
3910923515537,1.285553541,3,-0.20470424194335937,-0.51714755859375,-8.910021478271483,-4.374045801526718,-0.26717557251908397,-3.099236641221374
3910929434912,1.291472916,3,-0.17597382202148437,-0.5339069702148437,-8.902838873291016,-4.3816793893129775,-0.3435114503816794,-3.1374045801526718
3910935355225,1.297393229,3,-0.18555062866210936,-0.5446808776855468,-8.904035974121093,-4.374045801526718,-0.29770992366412213,-3.068702290076336
3910941278350,1.303316354,3,-0.181959326171875,-0.5578489868164063,-8.950722906494141,-4.419847328244275,-0.21374045801526717,-3.114503816793893
3910947182152,1.309220156,3,-0.17238251953125,-0.5446808776855468,-8.93156929321289,-4.358778625954199,-0.2595419847328244,-3.1603053435114505
3910953146579,1.315184583,3,-0.1975216369628906,-0.5482721801757812,-8.963891015625,-4.442748091603053,-0.3511450381679389,-3.145038167938931
3910959062204,1.321100208,3,-0.201112939453125,-0.5590460876464843,-8.948328704833983,-4.435114503816794,-0.2748091603053435,-3.16793893129771
3910964981891,1.327019895,3,-0.2059013427734375,-0.5446808776855468,-8.948328704833983,-4.419847328244275,-0.29770992366412213,-3.1755725190839694
3910970872829,1.332910833,3,-0.19991583862304688,-0.5339069702148437,-8.93755479736328,-4.480916030534351,-0.3816793893129771,-3.099236641221374
3910976770694,1.338808698,3,-0.19632453613281248,-0.5422866760253906,-8.93875189819336,-4.374045801526718,-0.33587786259541985,-3.1068702290076335
3910982642204,1.344680208,3,-0.19033903198242186,-0.5602431884765625,-8.935160595703124,-4.435114503816794,-0.2824427480916031,-3.1603053435114505
3910988546735,1.350584739,3,-0.201112939453125,-0.5638344909667968,-8.947131604003905,-4.435114503816794,-0.32061068702290074,-3.1068702290076335
3910994466683,1.356504687,3,-0.20231004028320312,-0.5746083984375,-8.93875189819336,-4.450381679389313,-0.40458015267175573,-3.1297709923664123
3911000389912,1.362427916,3,-0.1975216369628906,-0.5195417602539062,-8.923189587402343,-4.442748091603053,-0.25190839694656486,-3.099236641221374
3911006237777,1.368275781,3,-0.21428104858398436,-0.5422866760253906,-8.939948999023438,-4.458015267175573,-0.2900763358778626,-3.1755725190839694
3911012108766,1.37414677,3,-0.20470424194335937,-0.5638344909667968,-8.93755479736328,-4.442748091603053,-0.3435114503816794,-3.099236641221374
3911018023402,1.380061406,3,-0.19512743530273435,-0.5518634826660156,-8.943540301513671,-4.358778625954199,-0.2900763358778626,-3.0916030534351147
3911023905589,1.385943593,3,-0.19632453613281248,-0.5566518859863281,-8.999804040527343,-4.374045801526718,-0.25190839694656486,-3.0610687022900764
3911029839808,1.391877812,3,-0.19991583862304688,-0.5458779785156249,-8.986635931396483,-4.427480916030534,-0.29770992366412213,-3.1374045801526718
3911035774756,1.39781276,3,-0.20470424194335937,-0.5446808776855468,-8.975862023925782,-4.412213740458015,-0.3282442748091603,-3.099236641221374
3911041686527,1.403724531,3,-0.2166752502441406,-0.5542576843261718,-8.914809881591797,-4.465648854961832,-0.21374045801526717,-3.16793893129771
3911047570068,1.409608072,3,-0.20949264526367187,-0.5590460876464843,-8.920795385742187,-4.458015267175573,-0.3511450381679389,-3.053435114503817
3911053463246,1.41550125,3,-0.201112939453125,-0.5422866760253906,-9.003395343017578,-4.473282442748092,-0.37404580152671757,-3.1297709923664123
3911059358350,1.421396354,3,-0.18315642700195311,-0.5434837768554687,-8.968679418945312,-4.480916030534351,-0.25190839694656486,-3.114503816793893
3911065297152,1.427335156,3,-0.17597382202148437,-0.5482721801757812,-8.917204083251953,-4.5038167938931295,-0.22900763358778625,-3.145038167938931
3911071191162,1.433229166,3,-0.181959326171875,-0.5363011718749999,-8.943540301513671,-4.4961832061068705,-0.2824427480916031,-3.122137404580153
3911079183558,1.441221562,3,-0.20350714111328125,-0.5638344909667968,-8.942343200683593,-4.473282442748092,-0.183206106870229,-3.114503816793893
3911086502621,1.448540625,3,-0.19871873779296872,-0.5506663818359374,-8.963891015625,-4.404580152671755,-0.3053435114503817,-3.1374045801526718
3911092322360,1.454360364,3,-0.201112939453125,-0.5267243652343749,-8.94473740234375,-4.450381679389313,-0.4122137404580153,-3.1297709923664123
3911098225225,1.460263229,3,-0.229843359375,-0.5327098693847656,-8.91840118408203,-4.374045801526718,-0.3053435114503817,-3.0916030534351147
3911104169339,1.466207343,3,-0.19632453613281248,-0.5470750793457031,-8.945934503173827,-4.404580152671755,-0.29770992366412213,-3.145038167938931
3911110043350,1.472081354,3,-0.20231004028320312,-0.5386953735351562,-8.930372192382812,-4.351145038167939,-0.3969465648854962,-3.1297709923664123
3911115951110,1.477989114,3,-0.2059013427734375,-0.5494692810058593,-8.942343200683593,-4.358778625954199,-0.32061068702290074,-3.1526717557251906
3911122063766,1.48410177,3,-0.17238251953125,-0.5219359619140624,-8.949525805664061,-4.366412213740458,-0.25190839694656486,-3.0916030534351147
3911128035016,1.49007302,3,-0.2214636535644531,-0.5458779785156249,-8.951920007324219,-4.427480916030534,-0.44274809160305345,-3.114503816793893
3911134094287,1.496132291,3,-0.20709844360351562,-0.5566518859863281,-8.911218579101561,-4.3816793893129775,-0.44274809160305345,-3.114503816793893
3911140058141,1.502096145,3,-0.20829554443359374,-0.5458779785156249,-8.971073620605468,-4.412213740458015,-0.33587786259541985,-3.1297709923664123
3911145988350,1.508026354,3,-0.21308394775390624,-0.5446808776855468,-8.93755479736328,-4.412213740458015,-0.35877862595419846,-3.1374045801526718
3911151915746,1.51395375,3,-0.20470424194335937,-0.5422866760253906,-8.981847528076171,-4.358778625954199,-0.42748091603053434,-3.16793893129771
3911157866943,1.519904947,3,-0.20350714111328125,-0.5458779785156249,-8.93875189819336,-4.427480916030534,-0.2900763358778626,-3.1603053435114505
3911163801371,1.525839375,3,-0.21068974609375,-0.5506663818359374,-8.957905511474609,-4.473282442748092,-0.2900763358778626,-3.1297709923664123
3911169833818,1.531871822,3,-0.21906945190429686,-0.55545478515625,-8.948328704833983,-4.458015267175573,-0.4580152671755725,-3.1374045801526718
3911175763610,1.537801614,3,-0.21428104858398436,-0.55545478515625,-8.916006982421875,-4.473282442748092,-0.366412213740458,-3.0839694656488548
3911181658193,1.543696197,3,-0.20470424194335937,-0.5123591552734374,-8.910021478271483,-4.442748091603053,-0.31297709923664124,-3.099236641221374
3911187581006,1.54961901,3,-0.2166752502441406,-0.5434837768554687,-8.932766394042968,-4.351145038167939,-0.31297709923664124,-3.145038167938931
3911193459443,1.555497447,3,-0.2166752502441406,-0.5315127685546874,-8.917204083251953,-4.412213740458015,-0.2900763358778626,-3.099236641221374
3911199365277,1.561403281,3,-0.21428104858398436,-0.5674257934570313,-8.943540301513671,-4.427480916030534,-0.26717557251908397,-3.122137404580153
3911205224756,1.56726276,3,-0.17477672119140625,-0.5458779785156249,-8.945934503173827,-4.374045801526718,-0.31297709923664124,-3.1374045801526718
3911211107881,1.573145885,3,-0.17357962036132812,-0.5398924743652344,-8.948328704833983,-4.412213740458015,-0.3435114503816794,-3.145038167938931
3911217003714,1.579041718,3,-0.19153613281249998,-0.5207388610839844,-8.954314208984375,-4.419847328244275,-0.366412213740458,-3.0763358778625953
3911222893454,1.584931458,3,-0.2166752502441406,-0.5267243652343749,-8.921992486572265,-4.465648854961832,-0.32061068702290074,-3.0610687022900764
3911228778871,1.590816875,3,-0.1879448303222656,-0.5422866760253906,-8.965088116455078,-4.442748091603053,-0.40458015267175573,-3.0839694656488548
3911234677100,1.596715104,3,-0.1867477294921875,-0.5303156677246094,-8.974664923095702,-4.427480916030534,-0.3816793893129771,-3.0839694656488548
3911240538766,1.60257677,3,-0.21188684692382811,-0.5327098693847656,-8.960299713134765,-4.404580152671755,-0.2595419847328244,-3.1374045801526718
3911246482152,1.608520156,3,-0.201112939453125,-0.5374982727050781,-8.933963494873046,-4.412213740458015,-0.32061068702290074,-3.1526717557251906
3911252375589,1.614413593,3,-0.18555062866210936,-0.5327098693847656,-8.94473740234375,-4.458015267175573,-0.4351145038167939,-3.114503816793893
3911258269495,1.620307499,3,-0.20829554443359374,-0.5470750793457031,-8.950722906494141,-4.465648854961832,-0.19083969465648856,-3.1297709923664123
3911264159391,1.626197395,3,-0.2214636535644531,-0.5339069702148437,-8.9255837890625,-4.473282442748092,-0.2824427480916031,-3.1374045801526718
3911270052048,1.632090052,3,-0.19871873779296872,-0.5303156677246094,-8.930372192382812,-4.442748091603053,-0.33587786259541985,-3.099236641221374
3911275987464,1.638025468,3,-0.18914193115234373,-0.5327098693847656,-8.942343200683593,-4.526717557251908,-0.29770992366412213,-3.145038167938931
3911281947152,1.643985156,3,-0.2059013427734375,-0.5446808776855468,-8.945934503173827,-4.480916030534351,-0.21374045801526717,-3.2213740458015265
3911287871318,1.649909322,3,-0.2346317626953125,-0.55545478515625,-8.954314208984375,-4.427480916030534,-0.31297709923664124,-3.1297709923664123
3911293812308,1.655850312,3,-0.2059013427734375,-0.5279214660644531,-8.953117108154297,-4.450381679389313,-0.32061068702290074,-3.114503816793893
3911299740745,1.661778749,3,-0.1975216369628906,-0.5123591552734374,-8.961496813964843,-4.419847328244275,-0.2748091603053435,-3.1526717557251906
3911305645850,1.667683854,3,-0.19393033447265623,-0.5339069702148437,-8.910021478271483,-4.404580152671755,-0.2824427480916031,-3.1526717557251906
3911311577308,1.673615312,3,-0.20829554443359374,-0.5482721801757812,-8.966285217285156,-4.358778625954199,-0.3969465648854962,-3.1297709923664123
3911317459860,1.679497864,3,-0.2059013427734375,-0.5602431884765625,-8.94473740234375,-4.473282442748092,-0.2748091603053435,-3.2213740458015265
3911323360120,1.685398124,3,-0.20949264526367187,-0.5351040710449219,-8.936357696533202,-4.412213740458015,-0.32061068702290074,-3.213740458015267
3911329275693,1.691313697,3,-0.2059013427734375,-0.5446808776855468,-8.923189587402343,-4.458015267175573,-0.4198473282442748,-3.1908396946564888
3911335177204,1.697215208,3,-0.20350714111328125,-0.5255272644042969,-8.948328704833983,-4.366412213740458,-0.3816793893129771,-3.145038167938931
3911341096266,1.70313427,3,-0.19632453613281248,-0.5398924743652344,-8.932766394042968,-4.435114503816794,-0.2824427480916031,-3.1297709923664123
3911346997516,1.70903552,3,-0.201112939453125,-0.5482721801757812,-8.941146099853515,-4.458015267175573,-0.2748091603053435,-3.1603053435114505
3911352927048,1.714965052,3,-0.17597382202148437,-0.5614402893066406,-8.980650427246093,-4.488549618320611,-0.40458015267175573,-3.114503816793893
3911358764079,1.720802083,3,-0.20829554443359374,-0.51714755859375,-8.948328704833983,-4.526717557251908,-0.29770992366412213,-3.1297709923664123
3911364669860,1.726707864,3,-0.19153613281249998,-0.5303156677246094,-8.953117108154297,-4.488549618320611,-0.24427480916030533,-3.1374045801526718
3911370580225,1.732618229,3,-0.18914193115234373,-0.5231330627441406,-8.935160595703124,-4.427480916030534,-0.366412213740458,-3.099236641221374
3911376478766,1.73851677,3,-0.1867477294921875,-0.5590460876464843,-8.93755479736328,-4.442748091603053,-0.33587786259541985,-3.1297709923664123
3911382344235,1.744382239,3,-0.18914193115234373,-0.5351040710449219,-8.91840118408203,-4.404580152671755,-0.22137404580152673,-3.1603053435114505
3911388242933,1.750280937,3,-0.17836802368164062,-0.507570751953125,-8.961496813964843,-4.442748091603053,-0.40458015267175573,-3.1374045801526718
3911394177464,1.756215468,3,-0.2059013427734375,-0.5518634826660156,-8.933963494873046,-4.419847328244275,-0.3893129770992366,-3.198473282442748
3911400069912,1.762107916,3,-0.18076222534179687,-0.5303156677246094,-8.936357696533202,-4.465648854961832,-0.3893129770992366,-3.1603053435114505
3911406020173,1.768058177,3,-0.22385785522460935,-0.5506663818359374,-8.960299713134765,-4.419847328244275,-0.29770992366412213,-3.1603053435114505
3911411945641,1.773983645,3,-0.21787235107421873,-0.5219359619140624,-8.947131604003905,-4.419847328244275,-0.29770992366412213,-3.1755725190839694
3911417877100,1.779915104,3,-0.19512743530273435,-0.5303156677246094,-8.965088116455078,-4.374045801526718,-0.26717557251908397,-3.114503816793893
3911423798506,1.78583651,3,-0.19871873779296872,-0.5339069702148437,-8.97705912475586,-4.404580152671755,-0.29770992366412213,-3.1297709923664123
3911429754443,1.791792447,3,-0.201112939453125,-0.5446808776855468,-8.949525805664061,-4.404580152671755,-0.366412213740458,-3.2213740458015265
3911435648766,1.79768677,3,-0.2214636535644531,-0.5195417602539062,-8.923189587402343,-4.396946564885496,-0.35877862595419846,-3.236641221374046
3911441604600,1.803642604,3,-0.22026655273437498,-0.5063736511230469,-8.93755479736328,-4.450381679389313,-0.26717557251908397,-3.1908396946564888
3911447595120,1.809633124,3,-0.21428104858398436,-0.5267243652343749,-8.90643017578125,-4.435114503816794,-0.2748091603053435,-3.1603053435114505
3911453474704,1.815512708,3,-0.19512743530273435,-0.5315127685546874,-8.912415679931641,-4.320610687022901,-0.33587786259541985,-3.0763358778625953
3911459368923,1.821406927,3,-0.2166752502441406,-0.5446808776855468,-8.942343200683593,-4.358778625954199,-0.26717557251908397,-3.0839694656488548
3911465309912,1.827347916,3,-0.1867477294921875,-0.5458779785156249,-8.926780889892578,-4.3893129770992365,-0.22137404580152673,-3.1526717557251906
3911471270120,1.833308124,3,-0.20231004028320312,-0.5410895751953124,-8.959102612304687,-4.419847328244275,-0.37404580152671757,-3.1755725190839694
3911477166631,1.839204635,3,-0.19153613281249998,-0.5518634826660156,-8.932766394042968,-4.427480916030534,-0.35877862595419846,-3.0839694656488548
3911483042516,1.84508052,3,-0.17836802368164062,-0.5458779785156249,-8.913612780761719,-4.320610687022901,-0.29770992366412213,-3.1374045801526718
3911488982725,1.851020729,3,-0.22026655273437498,-0.5494692810058593,-8.957905511474609,-4.343511450381679,-0.4198473282442748,-3.1603053435114505
3911494881787,1.856919791,3,-0.23343466186523437,-0.5518634826660156,-8.9255837890625,-4.450381679389313,-0.4122137404580153,-3.0610687022900764
3911500840589,1.862878593,3,-0.181959326171875,-0.5363011718749999,-8.920795385742187,-4.442748091603053,-0.26717557251908397,-3.1068702290076335
3911506812985,1.868850989,3,-0.1927332336425781,-0.5434837768554687,-8.939948999023438,-4.465648854961832,-0.2824427480916031,-3.1068702290076335
3911512707777,1.874745781,3,-0.23343466186523437,-0.5374982727050781,-8.960299713134765,-4.404580152671755,-0.3435114503816794,-3.16793893129771
3911518565433,1.880603437,3,-0.1975216369628906,-0.5518634826660156,-8.957905511474609,-4.435114503816794,-0.3053435114503817,-3.1603053435114505
3911524521475,1.886559479,3,-0.2059013427734375,-0.5374982727050781,-8.971073620605468,-4.442748091603053,-0.31297709923664124,-3.122137404580153
3911530423870,1.892461874,3,-0.2262520568847656,-0.5315127685546874,-8.957905511474609,-4.473282442748092,-0.37404580152671757,-3.1068702290076335
3911536322725,1.898360729,3,-0.22744915771484372,-0.5470750793457031,-8.963891015625,-4.404580152671755,-0.366412213740458,-3.1603053435114505
3911542225120,1.904263124,3,-0.2154781494140625,-0.5674257934570313,-8.959102612304687,-4.3893129770992365,-0.3435114503816794,-3.1526717557251906
3911548119391,1.910157395,3,-0.20231004028320312,-0.5494692810058593,-8.954314208984375,-4.458015267175573,-0.37404580152671757,-3.183206106870229
3911554048766,1.91608677,3,-0.20470424194335937,-0.5386953735351562,-8.92438668823242,-4.3893129770992365,-0.37404580152671757,-3.1297709923664123
3911559976058,1.922014062,3,-0.22385785522460935,-0.5422866760253906,-8.947131604003905,-4.465648854961832,-0.32061068702290074,-3.0916030534351147
3911565948037,1.927986041,3,-0.2154781494140625,-0.5410895751953124,-8.90044467163086,-4.427480916030534,-0.31297709923664124,-3.1374045801526718
3911571869756,1.93390776,3,-0.201112939453125,-0.5422866760253906,-8.913612780761719,-4.450381679389313,-0.3511450381679389,-3.122137404580153
3911577811162,1.939849166,3,-0.2166752502441406,-0.5363011718749999,-8.913612780761719,-4.419847328244275,-0.3053435114503817,-3.1068702290076335
3911583734912,1.945772916,3,-0.201112939453125,-0.5566518859863281,-8.913612780761719,-4.419847328244275,-0.2748091603053435,-3.1068702290076335
3911589637516,1.95167552,3,-0.19512743530273435,-0.5518634826660156,-8.911218579101561,-4.450381679389313,-0.3893129770992366,-3.099236641221374
3911595563506,1.95760151,3,-0.20350714111328125,-0.5482721801757812,-8.935160595703124,-4.511450381679389,-0.3893129770992366,-3.1374045801526718
3911601465954,1.963503958,3,-0.19991583862304688,-0.5422866760253906,-8.974664923095702,-4.488549618320611,-0.2824427480916031,-3.1374045801526718
3911607297047,1.969335051,3,-0.18555062866210936,-0.5351040710449219,-8.979453326416015,-4.5038167938931295,-0.29770992366412213,-3.0839694656488548
3911613164287,1.975202291,3,-0.19512743530273435,-0.5566518859863281,-8.94473740234375,-4.473282442748092,-0.40458015267175573,-3.0839694656488548
3911619097933,1.981135937,3,-0.18315642700195311,-0.5315127685546874,-8.967482318115234,-4.419847328244275,-0.2595419847328244,-3.1374045801526718
3911624990693,1.987028697,3,-0.18076222534179687,-0.5315127685546874,-8.927977990722656,-4.412213740458015,-0.1984732824427481,-3.2061068702290076
3911630852047,1.992890051,3,-0.21787235107421873,-0.5255272644042969,-8.96269391479492,-4.358778625954199,-0.2824427480916031,-3.099236641221374
3911636779600,1.998817604,3,-0.20470424194335937,-0.51714755859375,-8.996212738037109,-4.419847328244275,-0.3435114503816794,-3.1297709923664123
3911642635068,2.004673072,3,-0.19991583862304688,-0.51714755859375,-8.963891015625,-4.465648854961832,-0.1984732824427481,-3.122137404580153
3911648600797,2.010638801,3,-0.1867477294921875,-0.5374982727050781,-8.972270721435546,-4.450381679389313,-0.31297709923664124,-3.1374045801526718
3911654527204,2.016565208,3,-0.20949264526367187,-0.5327098693847656,-8.98304462890625,-4.442748091603053,-0.2900763358778626,-3.1374045801526718
3911660425277,2.022463281,3,-0.21787235107421873,-0.5303156677246094,-8.967482318115234,-4.473282442748092,-0.2824427480916031,-3.145038167938931
3911666343297,2.028381301,3,-0.22026655273437498,-0.5494692810058593,-8.950722906494141,-4.419847328244275,-0.2748091603053435,-3.099236641221374
3911672237308,2.034275312,3,-0.201112939453125,-0.5207388610839844,-8.949525805664061,-4.465648854961832,-0.33587786259541985,-3.0839694656488548
3911678194495,2.040232499,3,-0.21787235107421873,-0.5351040710449219,-8.943540301513671,-4.473282442748092,-0.32061068702290074,-3.0839694656488548
3911684142047,2.046180051,3,-0.20231004028320312,-0.5243301635742187,-8.943540301513671,-4.488549618320611,-0.32061068702290074,-3.114503816793893
3911690070745,2.052108749,3,-0.20350714111328125,-0.5255272644042969,-8.911218579101561,-4.465648854961832,-0.31297709923664124,-3.1603053435114505
3911696102881,2.058140885,3,-0.19871873779296872,-0.5398924743652344,-8.948328704833983,-4.480916030534351,-0.33587786259541985,-3.145038167938931
3911702050485,2.064088489,3,-0.21787235107421873,-0.5470750793457031,-8.94473740234375,-4.450381679389313,-0.24427480916030533,-3.16793893129771
3911707970329,2.070008333,3,-0.19033903198242186,-0.5638344909667968,-8.971073620605468,-4.419847328244275,-0.3816793893129771,-3.1603053435114505
3911713912620,2.075950624,3,-0.22385785522460935,-0.5398924743652344,-8.923189587402343,-4.419847328244275,-0.37404580152671757,-3.1374045801526718
3911719824912,2.081862916,3,-0.21906945190429686,-0.5470750793457031,-8.913612780761719,-4.366412213740458,-0.2824427480916031,-3.1526717557251906
3911725762412,2.087800416,3,-0.2166752502441406,-0.5422866760253906,-8.95670841064453,-4.3816793893129775,-0.22900763358778625,-3.114503816793893
3911731675120,2.093713124,3,-0.22505495605468748,-0.5303156677246094,-8.919598284912109,-4.427480916030534,-0.2900763358778626,-3.068702290076336
3911737574131,2.099612135,3,-0.22505495605468748,-0.5267243652343749,-8.933963494873046,-4.435114503816794,-0.2900763358778626,-3.114503816793893
3911743455120,2.105493124,3,-0.2059013427734375,-0.5422866760253906,-8.943540301513671,-4.396946564885496,-0.2824427480916031,-3.1908396946564888
3911749387881,2.111425885,3,-0.21188684692382811,-0.5506663818359374,-8.953117108154297,-4.412213740458015,-0.3282442748091603,-3.1526717557251906
3911755397204,2.117435208,3,-0.19393033447265623,-0.5374982727050781,-8.97705912475586,-4.3893129770992365,-0.31297709923664124,-3.213740458015267
3911761329704,2.123367708,3,-0.18435352783203124,-0.5374982727050781,-8.971073620605468,-4.419847328244275,-0.2595419847328244,-3.2213740458015265
3911767277308,2.129315312,3,-0.20709844360351562,-0.5111620544433594,-8.936357696533202,-4.396946564885496,-0.24427480916030533,-3.1374045801526718
3911773300277,2.135338281,3,-0.20231004028320312,-0.5434837768554687,-8.939948999023438,-4.366412213740458,-0.3435114503816794,-3.1755725190839694
3911779257099,2.141295103,3,-0.22266075439453123,-0.5470750793457031,-8.94473740234375,-4.3816793893129775,-0.32061068702290074,-3.1297709923664123
3911785174391,2.147212395,3,-0.18914193115234373,-0.5578489868164063,-8.911218579101561,-4.412213740458015,-0.366412213740458,-3.122137404580153
3911791115745,2.153153749,3,-0.23223756103515625,-0.5470750793457031,-8.943540301513671,-4.427480916030534,-0.33587786259541985,-3.0839694656488548
3911797012099,2.159050103,3,-0.19512743530273435,-0.5339069702148437,-8.955511309814453,-4.442748091603053,-0.3893129770992366,-3.068702290076336
3911802892620,2.164930624,3,-0.16639701538085935,-0.5315127685546874,-8.980650427246093,-4.519083969465649,-0.31297709923664124,-3.099236641221374
3911808852256,2.17089026,3,-0.18914193115234373,-0.55545478515625,-8.959102612304687,-4.450381679389313,-0.3053435114503817,-3.1068702290076335
3911814752724,2.176790728,3,-0.20350714111328125,-0.5578489868164063,-8.920795385742187,-4.480916030534351,-0.3435114503816794,-3.1603053435114505
3911820704704,2.182742708,3,-0.20949264526367187,-0.5398924743652344,-8.948328704833983,-4.526717557251908,-0.31297709923664124,-3.1755725190839694
3911826659235,2.188697239,3,-0.19153613281249998,-0.5506663818359374,-8.921992486572265,-4.488549618320611,-0.3053435114503817,-3.1603053435114505
3911832549287,2.194587291,3,-0.20350714111328125,-0.5518634826660156,-8.967482318115234,-4.442748091603053,-0.3435114503816794,-3.122137404580153
3911838483558,2.200521562,3,-0.19632453613281248,-0.5506663818359374,-8.972270721435546,-4.374045801526718,-0.2824427480916031,-3.122137404580153
3911844375954,2.206413958,3,-0.21188684692382811,-0.5614402893066406,-8.942343200683593,-4.404580152671755,-0.2748091603053435,-3.2061068702290076
3911850249808,2.212287812,3,-0.24061726684570311,-0.5590460876464843,-8.932766394042968,-4.458015267175573,-0.2900763358778626,-3.1755725190839694
3911856107099,2.218145103,3,-0.21906945190429686,-0.5482721801757812,-8.93755479736328,-4.473282442748092,-0.32061068702290074,-3.183206106870229
3911862031943,2.224069947,3,-0.20350714111328125,-0.5303156677246094,-8.919598284912109,-4.435114503816794,-0.2900763358778626,-3.2061068702290076
3911867949495,2.229987499,3,-0.18315642700195311,-0.5470750793457031,-8.936357696533202,-4.3893129770992365,-0.366412213740458,-3.099236641221374
3911873924808,2.235962812,3,-0.21308394775390624,-0.565031591796875,-8.923189587402343,-4.3816793893129775,-0.3969465648854962,-3.1297709923664123
3911879918870,2.241956874,3,-0.22744915771484372,-0.5279214660644531,-8.95670841064453,-4.419847328244275,-0.29770992366412213,-3.114503816793893
3911885891162,2.247929166,3,-0.21906945190429686,-0.5470750793457031,-8.907627276611327,-4.473282442748092,-0.29770992366412213,-3.1526717557251906
3911891818245,2.253856249,3,-0.22505495605468748,-0.5434837768554687,-8.966285217285156,-4.465648854961832,-0.35877862595419846,-3.1603053435114505
3911897776474,2.259814478,3,-0.19033903198242186,-0.5398924743652344,-8.961496813964843,-4.465648854961832,-0.2824427480916031,-3.099236641221374
3911903729495,2.265767499,3,-0.22864625854492185,-0.5482721801757812,-8.948328704833983,-4.458015267175573,-0.21374045801526717,-3.1297709923664123
3911909625381,2.271663385,3,-0.18435352783203124,-0.5458779785156249,-8.957905511474609,-4.419847328244275,-0.37404580152671757,-3.16793893129771
3911915504026,2.27754203,3,-0.2166752502441406,-0.5626373901367188,-8.913612780761719,-4.32824427480916,-0.366412213740458,-3.16793893129771
3911921459651,2.283497655,3,-0.21188684692382811,-0.5482721801757812,-8.949525805664061,-4.419847328244275,-0.3435114503816794,-3.1908396946564888
3911927392672,2.289430676,3,-0.20709844360351562,-0.5398924743652344,-8.966285217285156,-4.435114503816794,-0.3816793893129771,-3.1374045801526718
3911933302099,2.295340103,3,-0.19393033447265623,-0.5398924743652344,-8.948328704833983,-4.450381679389313,-0.26717557251908397,-3.1297709923664123
3911939184756,2.30122276,3,-0.21068974609375,-0.5674257934570313,-8.912415679931641,-4.458015267175573,-0.31297709923664124,-3.0763358778625953
3911945096943,2.307134947,3,-0.21787235107421873,-0.5470750793457031,-8.948328704833983,-4.427480916030534,-0.29770992366412213,-3.0381679389312977
3911951020485,2.313058489,3,-0.23104046020507812,-0.5398924743652344,-8.949525805664061,-4.412213740458015,-0.3053435114503817,-3.1297709923664123
3911956969026,2.31900703,3,-0.22026655273437498,-0.5351040710449219,-8.943540301513671,-4.427480916030534,-0.32061068702290074,-3.114503816793893
3911962890849,2.324928853,3,-0.20709844360351562,-0.5410895751953124,-8.929175091552734,-4.412213740458015,-0.37404580152671757,-3.1374045801526718
3911968829756,2.33086776,3,-0.19512743530273435,-0.5518634826660156,-8.984241729736327,-4.427480916030534,-0.3435114503816794,-3.1374045801526718
3911974752412,2.336790416,3,-0.21308394775390624,-0.5291185668945312,-8.954314208984375,-4.427480916030534,-0.2900763358778626,-3.1526717557251906
3911980692047,2.342730051,3,-0.2166752502441406,-0.5410895751953124,-8.94473740234375,-4.458015267175573,-0.29770992366412213,-3.145038167938931
3911986574860,2.348612864,3,-0.1879448303222656,-0.5267243652343749,-9.011775048828124,-4.412213740458015,-0.3511450381679389,-3.1068702290076335
3911992511995,2.354549999,3,-0.19512743530273435,-0.5231330627441406,-8.97705912475586,-4.3816793893129775,-0.35877862595419846,-3.122137404580153
3911998386110,2.360424114,3,-0.19153613281249998,-0.5422866760253906,-8.929175091552734,-4.442748091603053,-0.25190839694656486,-3.1374045801526718
3912004282829,2.366320833,3,-0.16639701538085935,-0.5386953735351562,-8.932766394042968,-4.419847328244275,-0.2748091603053435,-3.145038167938931
3912010213610,2.372251614,3,-0.19991583862304688,-0.5578489868164063,-8.910021478271483,-4.3893129770992365,-0.366412213740458,-3.0839694656488548
3912016133714,2.378171718,3,-0.181959326171875,-0.5590460876464843,-8.945934503173827,-4.435114503816794,-0.35877862595419846,-3.114503816793893
3912022048037,2.384086041,3,-0.1879448303222656,-0.5734112976074218,-8.984241729736327,-4.435114503816794,-0.25190839694656486,-3.1297709923664123
3912027957672,2.389995676,3,-0.1975216369628906,-0.5470750793457031,-8.949525805664061,-4.374045801526718,-0.3511450381679389,-3.16793893129771
3912033964339,2.396002343,3,-0.19871873779296872,-0.5410895751953124,-8.951920007324219,-4.404580152671755,-0.37404580152671757,-3.099236641221374
3912039931995,2.401969999,3,-0.1975216369628906,-0.5470750793457031,-8.939948999023438,-4.419847328244275,-0.37404580152671757,-3.1755725190839694
3912045903349,2.407941353,3,-0.201112939453125,-0.5470750793457031,-8.949525805664061,-4.419847328244275,-0.31297709923664124,-3.1526717557251906
3912051839443,2.413877447,3,-0.20829554443359374,-0.5590460876464843,-8.953117108154297,-4.427480916030534,-0.3282442748091603,-3.1526717557251906
3912057815172,2.419853176,3,-0.19512743530273435,-0.5530605834960938,-8.961496813964843,-4.458015267175573,-0.31297709923664124,-3.1526717557251906
3912063743818,2.425781822,3,-0.21906945190429686,-0.5422866760253906,-8.894459167480468,-4.404580152671755,-0.3053435114503817,-3.145038167938931
3912069663870,2.431701874,3,-0.21906945190429686,-0.5674257934570313,-8.950722906494141,-4.419847328244275,-0.35877862595419846,-3.1526717557251906
3912075580172,2.437618176,3,-0.2154781494140625,-0.5482721801757812,-8.941146099853515,-4.343511450381679,-0.26717557251908397,-3.1374045801526718
3912081473089,2.443511093,3,-0.21188684692382811,-0.5518634826660156,-8.912415679931641,-4.3893129770992365,-0.22137404580152673,-3.16793893129771
3912087355172,2.449393176,3,-0.20829554443359374,-0.5482721801757812,-8.936357696533202,-4.412213740458015,-0.2595419847328244,-3.099236641221374
3912093298610,2.455336614,3,-0.19393033447265623,-0.5398924743652344,-8.96269391479492,-4.450381679389313,-0.3511450381679389,-3.114503816793893
3912099280849,2.461318853,3,-0.20231004028320312,-0.5470750793457031,-8.932766394042968,-4.412213740458015,-0.2748091603053435,-3.122137404580153
3912105171214,2.467209218,3,-0.1927332336425781,-0.5135562561035156,-8.912415679931641,-4.396946564885496,-0.37404580152671757,-3.236641221374046
3912111109235,2.473147239,3,-0.18914193115234373,-0.5243301635742187,-8.930372192382812,-4.366412213740458,-0.3969465648854962,-3.1755725190839694
3912117003558,2.479041562,3,-0.20231004028320312,-0.5363011718749999,-8.942343200683593,-4.450381679389313,-0.35877862595419846,-3.183206106870229
3912122886318,2.484924322,3,-0.19991583862304688,-0.5446808776855468,-8.936357696533202,-4.427480916030534,-0.3435114503816794,-3.122137404580153
3912128827776,2.49086578,3,-0.15322890625,-0.5351040710449219,-8.929175091552734,-4.312977099236641,-0.3282442748091603,-3.1068702290076335
3912134742568,2.496780572,3,-0.1927332336425781,-0.5386953735351562,-8.932766394042968,-4.435114503816794,-0.3053435114503817,-3.1297709923664123
3912140717203,2.502755207,3,-0.19632453613281248,-0.5434837768554687,-8.950722906494141,-4.519083969465649,-0.26717557251908397,-3.198473282442748
3912146650745,2.508688749,3,-0.1975216369628906,-0.5626373901367188,-8.96269391479492,-4.450381679389313,-0.3816793893129771,-3.183206106870229
3912152550641,2.514588645,3,-0.21787235107421873,-0.5398924743652344,-8.93755479736328,-4.412213740458015,-0.31297709923664124,-3.198473282442748
3912158447099,2.520485103,3,-0.21068974609375,-0.5231330627441406,-8.902838873291016,-4.396946564885496,-0.22137404580152673,-3.122137404580153
3912164327881,2.526365885,3,-0.21428104858398436,-0.5566518859863281,-8.929175091552734,-4.396946564885496,-0.21374045801526717,-3.1374045801526718
3912170254756,2.53229276,3,-0.2059013427734375,-0.5470750793457031,-8.93755479736328,-4.412213740458015,-0.3511450381679389,-3.183206106870229
3912176170381,2.538208385,3,-0.1975216369628906,-0.5422866760253906,-8.980650427246093,-4.442748091603053,-0.366412213740458,-3.145038167938931
3912182054651,2.544092655,3,-0.22864625854492185,-0.5410895751953124,-8.951920007324219,-4.450381679389313,-0.3435114503816794,-3.122137404580153
3912187972620,2.550010624,3,-0.20949264526367187,-0.5291185668945312,-8.93156929321289,-4.458015267175573,-0.35877862595419846,-3.0916030534351147
3912193945381,2.555983385,3,-0.19632453613281248,-0.5506663818359374,-8.917204083251953,-4.412213740458015,-0.35877862595419846,-3.1526717557251906
3912199895797,2.561933801,3,-0.20231004028320312,-0.5578489868164063,-8.89924757080078,-4.412213740458015,-0.3053435114503817,-3.0610687022900764
3912205861422,2.567899426,3,-0.17836802368164062,-0.5219359619140624,-8.920795385742187,-4.4961832061068705,-0.29770992366412213,-3.068702290076336
3912211807516,2.57384552,3,-0.19033903198242186,-0.5698199951171875,-8.923189587402343,-4.458015267175573,-0.4351145038167939,-3.114503816793893
3912217741631,2.579779635,3,-0.20949264526367187,-0.5542576843261718,-8.905233074951171,-4.412213740458015,-0.2824427480916031,-3.0839694656488548
3912223677412,2.585715416,3,-0.21906945190429686,-0.5410895751953124,-8.957905511474609,-4.442748091603053,-0.31297709923664124,-3.1526717557251906
3912229627464,2.591665468,3,-0.20350714111328125,-0.5494692810058593,-8.986635931396483,-4.435114503816794,-0.3816793893129771,-3.1297709923664123
3912235580068,2.597618072,3,-0.22266075439453123,-0.5303156677246094,-9.00100114135742,-4.3893129770992365,-0.31297709923664124,-3.1374045801526718
3912241499235,2.603537239,3,-0.19991583862304688,-0.5386953735351562,-8.910021478271483,-4.374045801526718,-0.22900763358778625,-3.2061068702290076
3912247400745,2.609438749,3,-0.1927332336425781,-0.5219359619140624,-8.953117108154297,-4.374045801526718,-0.29770992366412213,-3.1603053435114505
3912253304964,2.615342968,3,-0.19871873779296872,-0.5434837768554687,-8.93875189819336,-4.412213740458015,-0.2900763358778626,-3.099236641221374
3912259265485,2.621303489,3,-0.21428104858398436,-0.5446808776855468,-8.950722906494141,-4.404580152671755,-0.2748091603053435,-3.122137404580153
3912265161839,2.627199843,3,-0.20350714111328125,-0.5303156677246094,-8.920795385742187,-4.419847328244275,-0.3282442748091603,-3.1374045801526718
3912271047256,2.63308526,3,-0.21428104858398436,-0.5398924743652344,-8.917204083251953,-4.435114503816794,-0.366412213740458,-3.1374045801526718
3912276988193,2.639026197,3,-0.21906945190429686,-0.565031591796875,-8.953117108154297,-4.419847328244275,-0.3816793893129771,-3.198473282442748
3912282903766,2.64494177,3,-0.239420166015625,-0.5482721801757812,-8.90643017578125,-4.435114503816794,-0.26717557251908397,-3.1374045801526718
3912288832672,2.650870676,3,-0.21068974609375,-0.5410895751953124,-8.917204083251953,-4.358778625954199,-0.3511450381679389,-3.2061068702290076
3912294711162,2.656749166,3,-0.19153613281249998,-0.5542576843261718,-8.949525805664061,-4.412213740458015,-0.35877862595419846,-3.145038167938931
3912300663193,2.662701197,3,-0.19512743530273435,-0.5530605834960938,-8.966285217285156,-4.442748091603053,-0.24427480916030533,-3.145038167938931
3912306576110,2.668614114,3,-0.1975216369628906,-0.5291185668945312,-8.927977990722656,-4.473282442748092,-0.31297709923664124,-3.145038167938931
3912312506162,2.674544166,3,-0.20231004028320312,-0.5566518859863281,-8.945934503173827,-4.458015267175573,-0.37404580152671757,-3.183206106870229
3912318401839,2.680439843,3,-0.21787235107421873,-0.5470750793457031,-8.92438668823242,-4.458015267175573,-0.29770992366412213,-3.1603053435114505
3912324306683,2.686344687,3,-0.17597382202148437,-0.5482721801757812,-8.942343200683593,-4.458015267175573,-0.2900763358778626,-3.1603053435114505
3912330193193,2.692231197,3,-0.1927332336425781,-0.5422866760253906,-8.926780889892578,-4.358778625954199,-0.37404580152671757,-3.1603053435114505
3912336099808,2.698137812,3,-0.19632453613281248,-0.5398924743652344,-8.973467822265624,-4.435114503816794,-0.3893129770992366,-3.198473282442748
3912342027099,2.704065103,3,-0.20709844360351562,-0.5542576843261718,-8.954314208984375,-4.473282442748092,-0.22137404580152673,-3.1374045801526718
3912347967516,2.71000552,3,-0.21308394775390624,-0.5267243652343749,-8.968679418945312,-4.473282442748092,-0.3435114503816794,-3.1068702290076335
3912353890589,2.715928593,3,-0.22864625854492185,-0.5458779785156249,-8.9255837890625,-4.465648854961832,-0.32061068702290074,-3.1603053435114505
3912359744130,2.721782134,3,-0.2214636535644531,-0.5446808776855468,-8.945934503173827,-4.427480916030534,-0.26717557251908397,-3.183206106870229
3912365740797,2.727778801,3,-0.21188684692382811,-0.5458779785156249,-8.913612780761719,-4.419847328244275,-0.25190839694656486,-3.1526717557251906
3912371673818,2.733711822,3,-0.20949264526367187,-0.5374982727050781,-8.94473740234375,-4.412213740458015,-0.37404580152671757,-3.1297709923664123
3912377537047,2.739575051,3,-0.19393033447265623,-0.5446808776855468,-8.910021478271483,-4.427480916030534,-0.3816793893129771,-3.16793893129771
3912383393193,2.745431197,3,-0.1975216369628906,-0.5530605834960938,-8.926780889892578,-4.404580152671755,-0.3053435114503817,-3.198473282442748
3912389295693,2.751333697,3,-0.201112939453125,-0.5542576843261718,-8.936357696533202,-4.465648854961832,-0.35877862595419846,-3.213740458015267
3912395188349,2.757226353,3,-0.2059013427734375,-0.5446808776855468,-8.954314208984375,-4.427480916030534,-0.32061068702290074,-3.1908396946564888
3912401137724,2.763175728,3,-0.21068974609375,-0.5255272644042969,-8.948328704833983,-4.404580152671755,-0.29770992366412213,-3.1603053435114505
3912407019026,2.76905703,3,-0.22864625854492185,-0.5315127685546874,-8.975862023925782,-4.4961832061068705,-0.32061068702290074,-3.183206106870229
3912412921787,2.774959791,3,-0.1975216369628906,-0.5494692810058593,-8.945934503173827,-4.435114503816794,-0.4198473282442748,-3.114503816793893
3912418814495,2.780852499,3,-0.2059013427734375,-0.5327098693847656,-8.917204083251953,-4.473282442748092,-0.2824427480916031,-3.122137404580153
3912424677151,2.786715155,3,-0.201112939453125,-0.5351040710449219,-8.896853369140624,-4.458015267175573,-0.24427480916030533,-3.145038167938931
3912430551318,2.792589322,3,-0.20949264526367187,-0.5458779785156249,-8.935160595703124,-4.526717557251908,-0.35877862595419846,-3.0839694656488548
3912436549391,2.798587395,3,-0.2166752502441406,-0.5566518859863281,-8.95670841064453,-4.465648854961832,-0.32061068702290074,-3.1526717557251906
3912442480120,2.804518124,3,-0.23104046020507812,-0.5506663818359374,-8.965088116455078,-4.458015267175573,-0.2748091603053435,-3.1526717557251906
3912448379391,2.810417395,3,-0.21188684692382811,-0.5291185668945312,-8.929175091552734,-4.435114503816794,-0.3969465648854962,-3.2061068702290076
3912454245485,2.816283489,3,-0.19033903198242186,-0.5458779785156249,-8.93156929321289,-4.419847328244275,-0.3816793893129771,-3.183206106870229
3912460174183,2.822212187,3,-0.17836802368164062,-0.5422866760253906,-8.93755479736328,-4.374045801526718,-0.2748091603053435,-3.213740458015267
3912466135276,2.82817328,3,-0.19991583862304688,-0.5530605834960938,-8.965088116455078,-4.366412213740458,-0.32061068702290074,-3.198473282442748
3912472062047,2.834100051,3,-0.2059013427734375,-0.5470750793457031,-8.967482318115234,-4.427480916030534,-0.3282442748091603,-3.1908396946564888
3912477980745,2.840018749,3,-0.2154781494140625,-0.5518634826660156,-8.949525805664061,-4.442748091603053,-0.22900763358778625,-3.1755725190839694
3912483868714,2.845906718,3,-0.18076222534179687,-0.5602431884765625,-8.898050469970702,-4.427480916030534,-0.2366412213740458,-3.16793893129771
3912489806370,2.851844374,3,-0.20231004028320312,-0.5602431884765625,-8.901641772460938,-4.442748091603053,-0.3511450381679389,-3.1526717557251906
3912495731318,2.857769322,3,-0.2059013427734375,-0.5410895751953124,-8.923189587402343,-4.480916030534351,-0.35877862595419846,-3.0916030534351147
3912501622308,2.863660312,3,-0.21428104858398436,-0.5315127685546874,-8.919598284912109,-4.435114503816794,-0.26717557251908397,-3.1603053435114505
3912507527412,2.869565416,3,-0.22026655273437498,-0.5351040710449219,-8.921992486572265,-4.419847328244275,-0.1984732824427481,-3.1755725190839694
3912513452308,2.875490312,3,-0.20470424194335937,-0.5255272644042969,-8.908824377441405,-4.435114503816794,-0.33587786259541985,-3.1297709923664123
3912519355224,2.881393228,3,-0.21188684692382811,-0.5530605834960938,-8.913612780761719,-4.396946564885496,-0.31297709923664124,-3.1297709923664123
3912525281110,2.887319114,3,-0.18435352783203124,-0.5255272644042969,-8.929175091552734,-4.435114503816794,-0.32061068702290074,-3.16793893129771
3912531184495,2.893222499,3,-0.19512743530273435,-0.5099649536132812,-8.910021478271483,-4.519083969465649,-0.366412213740458,-3.198473282442748
3912537049547,2.899087551,3,-0.2166752502441406,-0.5183446594238281,-8.910021478271483,-4.488549618320611,-0.3511450381679389,-3.1526717557251906
3912542883714,2.904921718,3,-0.18076222534179687,-0.51714755859375,-8.961496813964843,-4.404580152671755,-0.22900763358778625,-3.2061068702290076
3912548750797,2.910788801,3,-0.20709844360351562,-0.5374982727050781,-8.927977990722656,-4.427480916030534,-0.37404580152671757,-3.16793893129771
3912554642516,2.91668052,3,-0.19871873779296872,-0.5458779785156249,-8.966285217285156,-4.374045801526718,-0.4580152671755725,-3.1755725190839694
3912560537620,2.922575624,3,-0.18555062866210936,-0.5315127685546874,-8.93875189819336,-4.358778625954199,-0.2900763358778626,-3.1297709923664123
3912566426266,2.92846427,3,-0.201112939453125,-0.5482721801757812,-8.920795385742187,-4.351145038167939,-0.3435114503816794,-3.1755725190839694
3912572318766,2.93435677,3,-0.20829554443359374,-0.5339069702148437,-8.948328704833983,-4.442748091603053,-0.3893129770992366,-3.145038167938931
3912578220901,2.940258905,3,-0.20709844360351562,-0.5410895751953124,-8.916006982421875,-4.3893129770992365,-0.3893129770992366,-3.145038167938931
3912584145953,2.946183957,3,-0.21787235107421873,-0.5446808776855468,-8.978256225585938,-4.404580152671755,-0.3435114503816794,-3.2290076335877864
3912590014703,2.952052707,3,-0.22385785522460935,-0.5398924743652344,-8.948328704833983,-4.404580152671755,-0.3282442748091603,-3.145038167938931
3912595912620,2.957950624,3,-0.23582886352539062,-0.5446808776855468,-8.965088116455078,-4.450381679389313,-0.35877862595419846,-3.198473282442748
3912601851474,2.963889478,3,-0.21787235107421873,-0.5410895751953124,-8.936357696533202,-4.412213740458015,-0.19083969465648856,-3.183206106870229
3912607800797,2.969838801,3,-0.22385785522460935,-0.5566518859863281,-8.932766394042968,-4.419847328244275,-0.37404580152671757,-3.1068702290076335
3912613703662,2.975741666,3,-0.20709844360351562,-0.5506663818359374,-8.943540301513671,-4.412213740458015,-0.3893129770992366,-3.1603053435114505
3912619602828,2.981640832,3,-0.20949264526367187,-0.5434837768554687,-8.973467822265624,-4.404580152671755,-0.26717557251908397,-3.1297709923664123
3912625475068,2.987513072,3,-0.1975216369628906,-0.5482721801757812,-8.943540301513671,-4.412213740458015,-0.2824427480916031,-3.122137404580153
3912631397620,2.993435624,3,-0.18315642700195311,-0.55545478515625,-8.890867864990234,-4.3893129770992365,-0.2900763358778626,-3.1374045801526718
3912637299703,2.999337707,3,-0.20709844360351562,-0.5542576843261718,-8.916006982421875,-4.404580152671755,-0.3282442748091603,-3.1297709923664123
3912643164860,3.005202864,3,-0.19991583862304688,-0.5159504577636719,-8.935160595703124,-4.3816793893129775,-0.3053435114503817,-3.1755725190839694
3912649058089,3.011096093,3,-0.19991583862304688,-0.5159504577636719,-8.955511309814453,-4.458015267175573,-0.4351145038167939,-3.114503816793893
3912654958870,3.016996874,3,-0.20829554443359374,-0.5111620544433594,-8.929175091552734,-4.450381679389313,-0.3435114503816794,-3.122137404580153
3912660857307,3.022895311,3,-0.19153613281249998,-0.5446808776855468,-8.957905511474609,-4.412213740458015,-0.29770992366412213,-3.1374045801526718
3912666781891,3.028819895,3,-0.19871873779296872,-0.5494692810058593,-8.991424334716797,-4.480916030534351,-0.26717557251908397,-3.213740458015267
3912672676578,3.034714582,3,-0.20470424194335937,-0.5410895751953124,-8.971073620605468,-4.480916030534351,-0.31297709923664124,-3.1603053435114505
3912678568089,3.040606093,3,-0.19393033447265623,-0.5374982727050781,-8.936357696533202,-4.465648854961832,-0.3053435114503817,-3.114503816793893
3912684510432,3.046548436,3,-0.1927332336425781,-0.55545478515625,-8.941146099853515,-4.412213740458015,-0.32061068702290074,-3.122137404580153
3912690410849,3.052448853,3,-0.17477672119140625,-0.5518634826660156,-8.921992486572265,-4.3893129770992365,-0.3282442748091603,-3.1297709923664123
3912696419443,3.058457447,3,-0.20350714111328125,-0.5351040710449219,-8.948328704833983,-4.442748091603053,-0.4351145038167939,-3.0763358778625953
3912702368245,3.064406249,3,-0.19393033447265623,-0.5506663818359374,-8.973467822265624,-4.458015267175573,-0.3511450381679389,-3.183206106870229
3912708279339,3.070317343,3,-0.2214636535644531,-0.5374982727050781,-8.959102612304687,-4.419847328244275,-0.35877862595419846,-3.16793893129771
3912714194391,3.076232395,3,-0.22385785522460935,-0.5410895751953124,-8.99501563720703,-4.450381679389313,-0.3511450381679389,-3.1526717557251906
3912720082516,3.08212052,3,-0.22266075439453123,-0.5291185668945312,-8.990227233886719,-4.442748091603053,-0.3969465648854962,-3.183206106870229
3912725998662,3.088036666,3,-0.19991583862304688,-0.5398924743652344,-8.908824377441405,-4.450381679389313,-0.3053435114503817,-3.145038167938931
3912731973193,3.094011197,3,-0.1771709228515625,-0.5410895751953124,-8.92438668823242,-4.4961832061068705,-0.33587786259541985,-3.068702290076336
3912737912516,3.09995052,3,-0.20709844360351562,-0.5422866760253906,-8.967482318115234,-4.488549618320611,-0.3816793893129771,-3.1068702290076335
3912743840641,3.105878645,3,-0.20350714111328125,-0.5470750793457031,-8.916006982421875,-4.427480916030534,-0.33587786259541985,-3.1603053435114505
3912749771735,3.111809739,3,-0.21068974609375,-0.5434837768554687,-8.95670841064453,-4.442748091603053,-0.366412213740458,-3.183206106870229
3912755704651,3.117742655,3,-0.21188684692382811,-0.5674257934570313,-8.908824377441405,-4.488549618320611,-0.3893129770992366,-3.16793893129771
3912761566943,3.123604947,3,-0.20470424194335937,-0.5518634826660156,-8.939948999023438,-4.465648854961832,-0.2900763358778626,-3.1603053435114505
3912767428818,3.129466822,3,-0.20470424194335937,-0.5243301635742187,-8.933963494873046,-4.450381679389313,-0.2824427480916031,-3.114503816793893
3912773433245,3.135471249,3,-0.18435352783203124,-0.5530605834960938,-8.961496813964843,-4.442748091603053,-0.2748091603053435,-3.1297709923664123
3912779339235,3.141377239,3,-0.19393033447265623,-0.5255272644042969,-8.95670841064453,-4.458015267175573,-0.24427480916030533,-3.1908396946564888
3912785271422,3.147309426,3,-0.1975216369628906,-0.5626373901367188,-8.947131604003905,-4.480916030534351,-0.31297709923664124,-3.145038167938931
3912791222464,3.153260468,3,-0.201112939453125,-0.5434837768554687,-8.93755479736328,-4.419847328244275,-0.3053435114503817,-3.1297709923664123
3912797174859,3.159212863,3,-0.20949264526367187,-0.5255272644042969,-8.94473740234375,-4.458015267175573,-0.3511450381679389,-3.145038167938931
3912803102464,3.165140468,3,-0.21188684692382811,-0.5351040710449219,-8.96987651977539,-4.534351145038168,-0.24427480916030533,-3.1374045801526718
3912809004703,3.171042707,3,-0.21068974609375,-0.5303156677246094,-8.914809881591797,-4.450381679389313,-0.31297709923664124,-3.145038167938931
3912814926839,3.176964843,3,-0.229843359375,-0.5422866760253906,-8.91840118408203,-4.3893129770992365,-0.366412213740458,-3.1374045801526718
3912820776057,3.182814061,3,-0.20829554443359374,-0.5315127685546874,-8.935160595703124,-4.435114503816794,-0.3435114503816794,-3.1297709923664123
3912826638609,3.188676613,3,-0.20470424194335937,-0.5674257934570313,-8.953117108154297,-4.419847328244275,-0.2824427480916031,-3.122137404580153
3912832520797,3.194558801,3,-0.19991583862304688,-0.5626373901367188,-8.933963494873046,-4.458015267175573,-0.32061068702290074,-3.1603053435114505
3912838422464,3.200460468,3,-0.20350714111328125,-0.5494692810058593,-8.98304462890625,-4.427480916030534,-0.3282442748091603,-3.0839694656488548
3912844318141,3.206356145,3,-0.20470424194335937,-0.5363011718749999,-8.968679418945312,-4.3893129770992365,-0.37404580152671757,-3.1068702290076335
3912850228089,3.212266093,3,-0.2059013427734375,-0.5662286926269531,-8.914809881591797,-4.412213740458015,-0.37404580152671757,-3.1068702290076335
3912856162412,3.218200416,3,-0.23104046020507812,-0.5662286926269531,-8.941146099853515,-4.404580152671755,-0.37404580152671757,-3.1526717557251906
3912862048245,3.224086249,3,-0.21188684692382811,-0.5770026000976562,-8.94473740234375,-4.450381679389313,-0.3511450381679389,-3.122137404580153
3912867942984,3.229980988,3,-0.20470424194335937,-0.5470750793457031,-8.979453326416015,-4.404580152671755,-0.2748091603053435,-3.183206106870229
3912873957984,3.235995988,3,-0.20350714111328125,-0.5339069702148437,-8.93875189819336,-4.404580152671755,-0.3282442748091603,-3.1755725190839694
3912879862099,3.241900103,3,-0.1927332336425781,-0.5135562561035156,-8.896853369140624,-4.412213740458015,-0.31297709923664124,-3.16793893129771
3912885799287,3.247837291,3,-0.201112939453125,-0.5422866760253906,-8.889670764160156,-4.3816793893129775,-0.3053435114503817,-3.1526717557251906
3912891718297,3.253756301,3,-0.19871873779296872,-0.55545478515625,-8.907627276611327,-4.396946564885496,-0.31297709923664124,-3.183206106870229
3912897607047,3.259645051,3,-0.22026655273437498,-0.5734112976074218,-8.94473740234375,-4.450381679389313,-0.35877862595419846,-3.0839694656488548
3912903498766,3.26553677,3,-0.21787235107421873,-0.5446808776855468,-8.965088116455078,-4.480916030534351,-0.2595419847328244,-3.068702290076336
3912909436005,3.271474009,3,-0.21308394775390624,-0.5470750793457031,-8.926780889892578,-4.5038167938931295,-0.32061068702290074,-3.045801526717557
3912915295589,3.277333593,3,-0.23822306518554687,-0.5159504577636719,-8.93156929321289,-4.450381679389313,-0.366412213740458,-3.030534351145038
3912921210953,3.283248957,3,-0.20709844360351562,-0.5219359619140624,-8.942343200683593,-4.3893129770992365,-0.33587786259541985,-3.0763358778625953
3912927105745,3.289143749,3,-0.201112939453125,-0.5363011718749999,-8.947131604003905,-4.3816793893129775,-0.22900763358778625,-3.1068702290076335
3912932997568,3.295035572,3,-0.21906945190429686,-0.5351040710449219,-8.942343200683593,-4.435114503816794,-0.33587786259541985,-3.122137404580153
3912938893974,3.300931978,3,-0.21188684692382811,-0.5363011718749999,-8.912415679931641,-4.419847328244275,-0.35877862595419846,-3.16793893129771
3912944759495,3.306797499,3,-0.21188684692382811,-0.5434837768554687,-8.959102612304687,-4.480916030534351,-0.3053435114503817,-3.183206106870229
3912950647359,3.312685363,3,-0.1927332336425781,-0.5315127685546874,-8.975862023925782,-4.412213740458015,-0.3511450381679389,-3.122137404580153
3912956521526,3.31855953,3,-0.20949264526367187,-0.5303156677246094,-8.957905511474609,-4.442748091603053,-0.3053435114503817,-3.1603053435114505
3912962378766,3.32441677,3,-0.1879448303222656,-0.5327098693847656,-8.94473740234375,-4.450381679389313,-0.22137404580152673,-3.1908396946564888
3912968312307,3.330350311,3,-0.22266075439453123,-0.5339069702148437,-8.951920007324219,-4.465648854961832,-0.33587786259541985,-3.198473282442748
3912974177516,3.33621552,3,-0.19393033447265623,-0.5339069702148437,-8.927977990722656,-4.480916030534351,-0.3435114503816794,-3.183206106870229
3912980088766,3.34212677,3,-0.1927332336425781,-0.5363011718749999,-8.960299713134765,-4.4961832061068705,-0.366412213740458,-3.1297709923664123
3912986005328,3.348043332,3,-0.19632453613281248,-0.5339069702148437,-8.972270721435546,-4.404580152671755,-0.3053435114503817,-3.1603053435114505
3912991928818,3.353966822,3,-0.19991583862304688,-0.5374982727050781,-8.948328704833983,-4.412213740458015,-0.29770992366412213,-3.122137404580153
3912997881422,3.359919426,3,-0.2262520568847656,-0.5339069702148437,-8.904035974121093,-4.435114503816794,-0.366412213740458,-3.145038167938931
3913003986995,3.366024999,3,-0.21188684692382811,-0.5530605834960938,-8.961496813964843,-4.442748091603053,-0.44274809160305345,-3.1603053435114505
3913010044286,3.37208229,3,-0.20231004028320312,-0.5506663818359374,-8.975862023925782,-4.3893129770992365,-0.3969465648854962,-3.183206106870229
3913015957620,3.377995624,3,-0.1879448303222656,-0.5470750793457031,-8.990227233886719,-4.351145038167939,-0.35877862595419846,-3.145038167938931
3913021835693,3.383873697,3,-0.15682020874023436,-0.5279214660644531,-8.93875189819336,-4.343511450381679,-0.2900763358778626,-3.1374045801526718
3913027807776,3.38984578,3,-0.19991583862304688,-0.5410895751953124,-8.95670841064453,-4.343511450381679,-0.2748091603053435,-3.1374045801526718
3913033737828,3.395775832,3,-0.19871873779296872,-0.5734112976074218,-8.917204083251953,-4.442748091603053,-0.3282442748091603,-3.1068702290076335
3913039613036,3.40165104,3,-0.2059013427734375,-0.5327098693847656,-8.941146099853515,-4.366412213740458,-0.29770992366412213,-3.1526717557251906
3913045511266,3.40754927,3,-0.1927332336425781,-0.5231330627441406,-8.930372192382812,-4.435114503816794,-0.3511450381679389,-3.145038167938931
3913051403453,3.413441457,3,-0.18315642700195311,-0.5506663818359374,-8.974664923095702,-4.374045801526718,-0.35877862595419846,-3.145038167938931
3913057306474,3.419344478,3,-0.21428104858398436,-0.5590460876464843,-8.95670841064453,-4.450381679389313,-0.3282442748091603,-3.114503816793893
3913063192099,3.425230103,3,-0.22266075439453123,-0.5339069702148437,-8.916006982421875,-4.374045801526718,-0.35877862595419846,-3.122137404580153
3913069092151,3.431130155,3,-0.21188684692382811,-0.5363011718749999,-8.955511309814453,-4.404580152671755,-0.2900763358778626,-3.183206106870229
3913074989911,3.437027915,3,-0.23104046020507812,-0.5339069702148437,-8.987833032226561,-4.366412213740458,-0.3053435114503817,-3.1755725190839694
3913080877464,3.442915468,3,-0.21188684692382811,-0.5243301635742187,-8.929175091552734,-4.450381679389313,-0.3282442748091603,-3.16793893129771
3913086796682,3.448834686,3,-0.22026655273437498,-0.5279214660644531,-8.898050469970702,-4.458015267175573,-0.3053435114503817,-3.1526717557251906
3913092668141,3.454706145,3,-0.21428104858398436,-0.5303156677246094,-8.908824377441405,-4.435114503816794,-0.33587786259541985,-3.1068702290076335
3913098559495,3.460597499,3,-0.19033903198242186,-0.5398924743652344,-8.90643017578125,-4.427480916030534,-0.2748091603053435,-3.0916030534351147
3913104507932,3.466545936,3,-0.22864625854492185,-0.5458779785156249,-8.916006982421875,-4.419847328244275,-0.29770992366412213,-3.099236641221374
3913110518193,3.472556197,3,-0.20949264526367187,-0.5626373901367188,-8.959102612304687,-4.465648854961832,-0.3893129770992366,-3.1603053435114505
3913116517516,3.47855552,3,-0.22864625854492185,-0.5566518859863281,-8.916006982421875,-4.458015267175573,-0.3282442748091603,-3.16793893129771
3913122426161,3.484464165,3,-0.19632453613281248,-0.5602431884765625,-8.93156929321289,-4.419847328244275,-0.2595419847328244,-3.16793893129771
3913128288141,3.490326145,3,-0.18555062866210936,-0.5458779785156249,-8.920795385742187,-4.480916030534351,-0.32061068702290074,-3.122137404580153
3913134155641,3.496193645,3,-0.18914193115234373,-0.5327098693847656,-8.94473740234375,-4.404580152671755,-0.3816793893129771,-3.099236641221374
3913140046370,3.502084374,3,-0.20829554443359374,-0.5207388610839844,-8.971073620605468,-4.412213740458015,-0.33587786259541985,-3.0763358778625953
3913145965953,3.508003957,3,-0.21308394775390624,-0.5219359619140624,-8.93755479736328,-4.427480916030534,-0.3435114503816794,-3.145038167938931
3913151842047,3.513880051,3,-0.20709844360351562,-0.5542576843261718,-8.968679418945312,-4.473282442748092,-0.3816793893129771,-3.1908396946564888
3913157785641,3.519823645,3,-0.1867477294921875,-0.5267243652343749,-8.941146099853515,-4.396946564885496,-0.3511450381679389,-3.0839694656488548
3913163704078,3.525742082,3,-0.1927332336425781,-0.5351040710449219,-8.965088116455078,-4.396946564885496,-0.26717557251908397,-3.099236641221374
3913169599755,3.531637759,3,-0.20949264526367187,-0.5243301635742187,-8.950722906494141,-4.412213740458015,-0.2748091603053435,-3.0916030534351147
3913175495901,3.537533905,3,-0.21068974609375,-0.5410895751953124,-8.992621435546875,-4.442748091603053,-0.4122137404580153,-3.114503816793893
3913182338245,3.544376249,3,-0.1879448303222656,-0.5602431884765625,-8.930372192382812,-4.442748091603053,-0.29770992366412213,-3.099236641221374
3913189646839,3.551684843,3,-0.20829554443359374,-0.5470750793457031,-8.905233074951171,-4.450381679389313,-0.2824427480916031,-3.099236641221374
3913197015797,3.559053801,3,-0.19871873779296872,-0.5494692810058593,-8.927977990722656,-4.450381679389313,-0.35877862595419846,-3.1374045801526718
3913204315589,3.566353593,3,-0.17597382202148437,-0.5398924743652344,-8.957905511474609,-4.435114503816794,-0.29770992366412213,-3.145038167938931
3913211636578,3.573674582,3,-0.20829554443359374,-0.5410895751953124,-8.960299713134765,-4.458015267175573,-0.3816793893129771,-3.1374045801526718
3913218905432,3.580943436,3,-0.22385785522460935,-0.5159504577636719,-8.961496813964843,-4.427480916030534,-0.29770992366412213,-3.099236641221374
3913226259130,3.588297134,3,-0.2262520568847656,-0.5422866760253906,-8.978256225585938,-4.404580152671755,-0.3511450381679389,-3.015267175572519
3913233597620,3.595635624,3,-0.19512743530273435,-0.5398924743652344,-8.910021478271483,-4.450381679389313,-0.32061068702290074,-3.0610687022900764
3913240929651,3.602967655,3,-0.21308394775390624,-0.5518634826660156,-8.945934503173827,-4.450381679389313,-0.19083969465648856,-3.122137404580153
3913248161734,3.610199738,3,-0.18435352783203124,-0.5506663818359374,-8.90643017578125,-4.458015267175573,-0.33587786259541985,-3.1374045801526718
3913255451422,3.617489426,3,-0.21068974609375,-0.5494692810058593,-8.959102612304687,-4.442748091603053,-0.366412213740458,-3.114503816793893
3913262703557,3.624741561,3,-0.19632453613281248,-0.5626373901367188,-8.936357696533202,-4.458015267175573,-0.32061068702290074,-3.145038167938931
3913269990380,3.632028384,3,-0.22505495605468748,-0.5482721801757812,-8.955511309814453,-4.458015267175573,-0.32061068702290074,-3.183206106870229
3913277252255,3.639290259,3,-0.2262520568847656,-0.5410895751953124,-8.959102612304687,-4.473282442748092,-0.3282442748091603,-3.145038167938931
3913284588713,3.646626717,3,-0.1975216369628906,-0.5207388610839844,-8.911218579101561,-4.465648854961832,-0.31297709923664124,-3.1297709923664123
3913291891578,3.653929582,3,-0.20709844360351562,-0.5279214660644531,-8.953117108154297,-4.442748091603053,-0.3511450381679389,-3.122137404580153
3913299276474,3.661314478,3,-0.21188684692382811,-0.5614402893066406,-8.927977990722656,-4.442748091603053,-0.3816793893129771,-3.1068702290076335
3913306587203,3.668625207,3,-0.19393033447265623,-0.5351040710449219,-8.94473740234375,-4.488549618320611,-0.3435114503816794,-3.145038167938931
3913313918818,3.675956822,3,-0.19871873779296872,-0.5446808776855468,-8.951920007324219,-4.450381679389313,-0.32061068702290074,-3.1297709923664123
3913321228297,3.683266301,3,-0.2166752502441406,-0.5195417602539062,-8.959102612304687,-4.396946564885496,-0.2748091603053435,-3.183206106870229
3913328522307,3.690560311,3,-0.19991583862304688,-0.5255272644042969,-8.96987651977539,-4.351145038167939,-0.3893129770992366,-3.1526717557251906
3913335829703,3.697867707,3,-0.20829554443359374,-0.5434837768554687,-8.93875189819336,-4.358778625954199,-0.40458015267175573,-3.1603053435114505
3913343081995,3.705119999,3,-0.19033903198242186,-0.5614402893066406,-8.94473740234375,-4.396946564885496,-0.25190839694656486,-3.1374045801526718
3913350385068,3.712423072,3,-0.20470424194335937,-0.5374982727050781,-8.954314208984375,-4.351145038167939,-0.3969465648854962,-3.099236641221374
3913357734599,3.719772603,3,-0.2262520568847656,-0.5566518859863281,-8.967482318115234,-4.343511450381679,-0.31297709923664124,-3.1755725190839694
3913365026734,3.727064738,3,-0.201112939453125,-0.5327098693847656,-8.939948999023438,-4.396946564885496,-0.3816793893129771,-3.145038167938931
3913372321838,3.734359842,3,-0.20949264526367187,-0.5482721801757812,-8.951920007324219,-4.396946564885496,-0.40458015267175573,-3.122137404580153
3913379693036,3.74173104,3,-0.201112939453125,-0.5398924743652344,-8.953117108154297,-4.396946564885496,-0.3053435114503817,-3.099236641221374
3913387001682,3.749039686,3,-0.17956512451171874,-0.5530605834960938,-8.948328704833983,-4.412213740458015,-0.366412213740458,-3.2213740458015265
3913394333505,3.756371509,3,-0.181959326171875,-0.5195417602539062,-8.961496813964843,-4.412213740458015,-0.3511450381679389,-3.1374045801526718
3913401728453,3.763766457,3,-0.18914193115234373,-0.5267243652343749,-8.90643017578125,-4.442748091603053,-0.26717557251908397,-3.1297709923664123
3913409348193,3.771386197,3,-0.18315642700195311,-0.5410895751953124,-8.953117108154297,-4.450381679389313,-0.35877862595419846,-3.1526717557251906
3913416714703,3.778752707,3,-0.17956512451171874,-0.5398924743652344,-8.949525805664061,-4.404580152671755,-0.32061068702290074,-3.114503816793893
3913424060120,3.786098124,3,-0.201112939453125,-0.5291185668945312,-8.954314208984375,-4.480916030534351,-0.3282442748091603,-3.099236641221374
3913431376109,3.793414113,3,-0.23104046020507812,-0.59376201171875,-8.945934503173827,-4.488549618320611,-0.35877862595419846,-3.1297709923664123
3913438873401,3.800911405,3,-0.20470424194335937,-0.5219359619140624,-8.959102612304687,-4.396946564885496,-0.2824427480916031,-3.145038167938931
3913446622984,3.808660988,3,-0.229843359375,-0.5530605834960938,-8.923189587402343,-4.3816793893129775,-0.2824427480916031,-3.0763358778625953
3913454221578,3.816259582,3,-0.22026655273437498,-0.5566518859863281,-8.947131604003905,-4.450381679389313,-0.45038167938931295,-3.1374045801526718
3913461536943,3.823574947,3,-0.22266075439453123,-0.5446808776855468,-8.945934503173827,-4.412213740458015,-0.2824427480916031,-3.183206106870229
3913468878505,3.830916509,3,-0.19512743530273435,-0.5255272644042969,-8.92438668823242,-4.5038167938931295,-0.3511450381679389,-3.145038167938931
3913476203140,3.838241144,3,-0.2059013427734375,-0.5590460876464843,-8.920795385742187,-4.427480916030534,-0.33587786259541985,-3.0916030534351147
3913483658922,3.845696926,3,-0.1975216369628906,-0.5686228942871093,-8.930372192382812,-4.3816793893129775,-0.26717557251908397,-3.1374045801526718
3913490963401,3.853001405,3,-0.2154781494140625,-0.5494692810058593,-8.932766394042968,-4.404580152671755,-0.4351145038167939,-3.114503816793893
3913498325640,3.860363644,3,-0.22864625854492185,-0.5626373901367188,-8.947131604003905,-4.435114503816794,-0.2366412213740458,-3.1374045801526718
3913505696890,3.867734894,3,-0.18555062866210936,-0.5781997009277343,-8.941146099853515,-4.3816793893129775,-0.19083969465648856,-3.1068702290076335
3913513075432,3.875113436,3,-0.2059013427734375,-0.5566518859863281,-8.920795385742187,-4.374045801526718,-0.3511450381679389,-3.015267175572519
3913520435901,3.882473905,3,-0.19871873779296872,-0.5291185668945312,-8.939948999023438,-4.366412213740458,-0.2824427480916031,-3.0839694656488548
3913527731890,3.889769894,3,-0.1975216369628906,-0.5255272644042969,-8.95670841064453,-4.343511450381679,-0.3282442748091603,-3.122137404580153
3913534982047,3.897020051,3,-0.20350714111328125,-0.5327098693847656,-8.913612780761719,-4.435114503816794,-0.37404580152671757,-3.1526717557251906
3913542310693,3.904348697,3,-0.20829554443359374,-0.5410895751953124,-8.913612780761719,-4.427480916030534,-0.26717557251908397,-3.1755725190839694
3913549613297,3.911651301,3,-0.20829554443359374,-0.5434837768554687,-8.913612780761719,-4.427480916030534,-0.3435114503816794,-3.114503816793893
3913556943609,3.918981613,3,-0.17597382202148437,-0.5279214660644531,-8.961496813964843,-4.374045801526718,-0.366412213740458,-3.1603053435114505
3913564166890,3.926204894,3,-0.16998831787109375,-0.5279214660644531,-8.9255837890625,-4.427480916030534,-0.2748091603053435,-3.114503816793893
3913571474234,3.933512238,3,-0.21787235107421873,-0.5039794494628906,-8.951920007324219,-4.435114503816794,-0.366412213740458,-3.1068702290076335
3913578759599,3.940797603,3,-0.21787235107421873,-0.5207388610839844,-8.957905511474609,-4.419847328244275,-0.2595419847328244,-3.099236641221374
3913586084234,3.948122238,3,-0.22385785522460935,-0.4908113403320312,-8.8872765625,-4.374045801526718,-0.2595419847328244,-3.114503816793893
3913593318193,3.955356197,3,-0.21308394775390624,-0.5111620544433594,-8.926780889892578,-4.412213740458015,-0.3969465648854962,-3.1526717557251906
3913600670745,3.962708749,3,-0.17956512451171874,-0.5446808776855468,-8.950722906494141,-4.396946564885496,-0.2824427480916031,-3.1526717557251906
3913607976161,3.970014165,3,-0.19153613281249998,-0.5446808776855468,-8.942343200683593,-4.366412213740458,-0.3053435114503817,-3.198473282442748
3913615300484,3.977338488,3,-0.22026655273437498,-0.5374982727050781,-8.955511309814453,-4.442748091603053,-0.35877862595419846,-3.198473282442748
3913622594807,3.984632811,3,-0.2059013427734375,-0.5410895751953124,-8.89924757080078,-4.435114503816794,-0.22137404580152673,-3.1068702290076335
3913629920536,3.99195854,3,-0.20350714111328125,-0.5159504577636719,-8.948328704833983,-4.442748091603053,-0.33587786259541985,-3.122137404580153
3913637219703,3.999257707,3,-0.20949264526367187,-0.5542576843261718,-8.949525805664061,-4.442748091603053,-0.37404580152671757,-3.068702290076336
3913644514755,4.006552759,3,-0.1879448303222656,-0.5602431884765625,-8.90643017578125,-4.458015267175573,-0.2595419847328244,-3.145038167938931
3913651748140,4.013786144,3,-0.19153613281249998,-0.5374982727050781,-8.91840118408203,-4.480916030534351,-0.3816793893129771,-3.198473282442748
3913659107359,4.021145363,3,-0.21188684692382811,-0.5279214660644531,-8.939948999023438,-4.3816793893129775,-0.2748091603053435,-3.1297709923664123
3913666430224,4.028468228,3,-0.20231004028320312,-0.5279214660644531,-8.927977990722656,-4.3893129770992365,-0.20610687022900764,-3.122137404580153
3913673733036,4.03577104,3,-0.16998831787109375,-0.5135562561035156,-8.991424334716797,-4.450381679389313,-0.2900763358778626,-3.099236641221374
3913681029078,4.043067082,3,-0.19871873779296872,-0.5327098693847656,-8.957905511474609,-4.442748091603053,-0.29770992366412213,-3.122137404580153
3913688324130,4.050362134,3,-0.20470424194335937,-0.5386953735351562,-8.90643017578125,-4.419847328244275,-0.26717557251908397,-3.114503816793893
3913695638609,4.057676613,3,-0.22385785522460935,-0.5303156677246094,-8.941146099853515,-4.458015267175573,-0.29770992366412213,-3.1526717557251906
3913703004651,4.065042655,3,-0.2154781494140625,-0.5398924743652344,-8.968679418945312,-4.442748091603053,-0.2900763358778626,-3.1603053435114505
3913710375484,4.072413488,3,-0.20231004028320312,-0.5602431884765625,-8.951920007324219,-4.396946564885496,-0.3511450381679389,-3.1068702290076335
3913717716370,4.079754374,3,-0.19871873779296872,-0.5674257934570313,-8.943540301513671,-4.465648854961832,-0.26717557251908397,-3.114503816793893
3913725041161,4.087079165,3,-0.21308394775390624,-0.5398924743652344,-8.930372192382812,-4.404580152671755,-0.2748091603053435,-3.0916030534351147
3913732330745,4.094368749,3,-0.20350714111328125,-0.5339069702148437,-8.911218579101561,-4.442748091603053,-0.3053435114503817,-3.145038167938931
3913739659963,4.101697967,3,-0.19871873779296872,-0.5458779785156249,-8.972270721435546,-4.366412213740458,-0.3511450381679389,-3.1297709923664123
3913746952932,4.108990936,3,-0.19991583862304688,-0.5422866760253906,-8.914809881591797,-4.32824427480916,-0.3053435114503817,-3.122137404580153
3913754308297,4.116346301,3,-0.20949264526367187,-0.5482721801757812,-8.971073620605468,-4.442748091603053,-0.3435114503816794,-3.1374045801526718
3913761675588,4.123713592,3,-0.18435352783203124,-0.5386953735351562,-8.981847528076171,-4.412213740458015,-0.24427480916030533,-3.1068702290076335
3913768966734,4.131004738,3,-0.19033903198242186,-0.5530605834960938,-8.972270721435546,-4.3893129770992365,-0.3435114503816794,-3.145038167938931
3913776267672,4.138305676,3,-0.21188684692382811,-0.5410895751953124,-8.959102612304687,-4.419847328244275,-0.3435114503816794,-3.0839694656488548
3913783554651,4.145592655,3,-0.19632453613281248,-0.5374982727050781,-8.935160595703124,-4.3816793893129775,-0.2748091603053435,-3.0916030534351147
3913790882984,4.152920988,3,-0.20829554443359374,-0.5351040710449219,-8.926780889892578,-4.3893129770992365,-0.3282442748091603,-3.0839694656488548
3913798179390,4.160217394,3,-0.20829554443359374,-0.5398924743652344,-8.948328704833983,-4.366412213740458,-0.29770992366412213,-3.122137404580153
3913805485745,4.167523749,3,-0.20709844360351562,-0.5410895751953124,-8.963891015625,-4.465648854961832,-0.24427480916030533,-3.1374045801526718
3913812855380,4.174893384,3,-0.1879448303222656,-0.5374982727050781,-8.942343200683593,-4.458015267175573,-0.37404580152671757,-3.114503816793893
3913820172307,4.182210311,3,-0.19033903198242186,-0.5506663818359374,-8.95670841064453,-4.419847328244275,-0.2748091603053435,-3.099236641221374
3913827462047,4.189500051,3,-0.2059013427734375,-0.5518634826660156,-8.901641772460938,-4.427480916030534,-0.21374045801526717,-3.114503816793893
3913834770901,4.196808905,3,-0.22385785522460935,-0.5195417602539062,-8.987833032226561,-4.488549618320611,-0.32061068702290074,-3.145038167938931
3913842122880,4.204160884,3,-0.19033903198242186,-0.5327098693847656,-8.971073620605468,-4.5038167938931295,-0.33587786259541985,-3.1297709923664123
3913849409703,4.211447707,3,-0.20350714111328125,-0.5482721801757812,-8.907627276611327,-4.404580152671755,-0.3282442748091603,-3.1297709923664123
3913856712463,4.218750467,3,-0.17357962036132812,-0.5351040710449219,-8.941146099853515,-4.450381679389313,-0.3435114503816794,-3.1374045801526718
3913863996422,4.226034426,3,-0.20231004028320312,-0.5255272644042969,-8.936357696533202,-4.404580152671755,-0.26717557251908397,-3.1374045801526718
3913871302307,4.233340311,3,-0.1879448303222656,-0.5530605834960938,-8.93755479736328,-4.412213740458015,-0.3435114503816794,-3.183206106870229
3913878573505,4.240611509,3,-0.21068974609375,-0.5494692810058593,-8.981847528076171,-4.473282442748092,-0.3435114503816794,-3.068702290076336
3913885909911,4.247947915,3,-0.18555062866210936,-0.5386953735351562,-8.889670764160156,-4.511450381679389,-0.2748091603053435,-3.1068702290076335
3913893220015,4.255258019,3,-0.18315642700195311,-0.5470750793457031,-8.882488159179687,-4.450381679389313,-0.37404580152671757,-3.114503816793893
3913900461682,4.262499686,3,-0.20350714111328125,-0.5542576843261718,-8.948328704833983,-4.442748091603053,-0.37404580152671757,-3.1068702290076335
3913907736734,4.269774738,3,-0.1927332336425781,-0.5626373901367188,-8.93875189819336,-4.3893129770992365,-0.29770992366412213,-3.1374045801526718
3913915079026,4.27711703,3,-0.21188684692382811,-0.5590460876464843,-8.979453326416015,-4.465648854961832,-0.3282442748091603,-3.1068702290076335
3913922340380,4.284378384,3,-0.21308394775390624,-0.5458779785156249,-8.95670841064453,-4.480916030534351,-0.35877862595419846,-3.114503816793893
3913929643244,4.291681248,3,-0.21428104858398436,-0.5267243652343749,-8.942343200683593,-4.450381679389313,-0.4351145038167939,-3.122137404580153
3913936967359,4.299005363,3,-0.22864625854492185,-0.5602431884765625,-8.972270721435546,-4.465648854961832,-0.37404580152671757,-3.1526717557251906
3913944264182,4.306302186,3,-0.18914193115234373,-0.5578489868164063,-8.93875189819336,-4.396946564885496,-0.2595419847328244,-3.1603053435114505
3913951552619,4.313590623,3,-0.18914193115234373,-0.5590460876464843,-8.916006982421875,-4.435114503816794,-0.3435114503816794,-3.1755725190839694
3913958902307,4.320940311,3,-0.1927332336425781,-0.5279214660644531,-8.94473740234375,-4.404580152671755,-0.2595419847328244,-3.16793893129771
3913966241265,4.328279269,3,-0.19153613281249998,-0.5231330627441406,-8.935160595703124,-4.419847328244275,-0.26717557251908397,-3.1755725190839694
3913973587047,4.335625051,3,-0.20470424194335937,-0.5734112976074218,-8.943540301513671,-4.427480916030534,-0.3435114503816794,-3.0839694656488548
3913980958036,4.34299604,3,-0.21308394775390624,-0.5434837768554687,-8.951920007324219,-4.435114503816794,-0.32061068702290074,-3.1297709923664123
3913988282515,4.350320519,3,-0.18555062866210936,-0.5470750793457031,-8.96987651977539,-4.442748091603053,-0.366412213740458,-3.1297709923664123
3913995623453,4.357661457,3,-0.20350714111328125,-0.5410895751953124,-8.935160595703124,-4.511450381679389,-0.29770992366412213,-3.1526717557251906
3914002910432,4.364948436,3,-0.20470424194335937,-0.5434837768554687,-8.978256225585938,-4.480916030534351,-0.26717557251908397,-3.198473282442748
3914010270744,4.372308748,3,-0.18914193115234373,-0.5183446594238281,-8.92438668823242,-4.450381679389313,-0.37404580152671757,-3.2213740458015265
3914017611682,4.379649686,3,-0.21308394775390624,-0.5422866760253906,-8.919598284912109,-4.435114503816794,-0.33587786259541985,-3.122137404580153
3914024958869,4.386996873,3,-0.20829554443359374,-0.5363011718749999,-8.923189587402343,-4.435114503816794,-0.29770992366412213,-3.114503816793893
3914032292463,4.394330467,3,-0.2154781494140625,-0.5339069702148437,-8.921992486572265,-4.419847328244275,-0.3435114503816794,-3.0916030534351147
3914039582932,4.401620936,3,-0.19991583862304688,-0.5422866760253906,-8.896853369140624,-4.404580152671755,-0.32061068702290074,-3.1297709923664123
3914046788974,4.408826978,3,-0.20709844360351562,-0.5434837768554687,-8.883685260009765,-4.404580152671755,-0.31297709923664124,-3.1297709923664123
3914054145901,4.416183905,3,-0.2059013427734375,-0.5626373901367188,-8.913612780761719,-4.374045801526718,-0.3435114503816794,-3.16793893129771
3914061456422,4.423494426,3,-0.17477672119140625,-0.5363011718749999,-8.927977990722656,-4.3893129770992365,-0.3282442748091603,-3.122137404580153
3914068773453,4.430811457,3,-0.18914193115234373,-0.5279214660644531,-8.990227233886719,-4.3816793893129775,-0.31297709923664124,-3.145038167938931
3914076061994,4.438099998,3,-0.19153613281249998,-0.5734112976074218,-8.954314208984375,-4.442748091603053,-0.3969465648854962,-3.0916030534351147
3914083347515,4.445385519,3,-0.201112939453125,-0.5339069702148437,-8.968679418945312,-4.450381679389313,-0.32061068702290074,-3.122137404580153
3914090637255,4.452675259,3,-0.21308394775390624,-0.5566518859863281,-8.965088116455078,-4.374045801526718,-0.32061068702290074,-3.1297709923664123
3914097987463,4.460025467,3,-0.21068974609375,-0.5446808776855468,-8.912415679931641,-4.3816793893129775,-0.26717557251908397,-3.183206106870229
3914105325067,4.467363071,3,-0.1867477294921875,-0.5530605834960938,-8.943540301513671,-4.3893129770992365,-0.2900763358778626,-3.1755725190839694
3914112656942,4.474694946,3,-0.1771709228515625,-0.5243301635742187,-8.972270721435546,-4.412213740458015,-0.3435114503816794,-3.1068702290076335
3914119998140,4.482036144,3,-0.18435352783203124,-0.5494692810058593,-8.9255837890625,-4.312977099236641,-0.2824427480916031,-3.1297709923664123
3914127377046,4.48941505,3,-0.21068974609375,-0.5470750793457031,-8.921992486572265,-4.3893129770992365,-0.3282442748091603,-3.0839694656488548
3914134696369,4.496734373,3,-0.19033903198242186,-0.5805939025878906,-8.965088116455078,-4.450381679389313,-0.3435114503816794,-3.1297709923664123
3914141999338,4.504037342,3,-0.229843359375,-0.5805939025878906,-8.919598284912109,-4.488549618320611,-0.2900763358778626,-3.16793893129771
3914149345692,4.511383696,3,-0.20350714111328125,-0.5434837768554687,-8.95670841064453,-4.458015267175573,-0.3435114503816794,-3.0839694656488548
3914156696682,4.518734686,3,-0.19153613281249998,-0.5363011718749999,-8.95670841064453,-4.3816793893129775,-0.3282442748091603,-3.122137404580153
3914164055484,4.526093488,3,-0.20470424194335937,-0.5303156677246094,-8.960299713134765,-4.427480916030534,-0.2595419847328244,-3.1526717557251906
3914171356369,4.533394373,3,-0.2059013427734375,-0.5446808776855468,-8.947131604003905,-4.450381679389313,-0.3511450381679389,-3.122137404580153
3914178705380,4.540743384,3,-0.20470424194335937,-0.565031591796875,-8.921992486572265,-4.427480916030534,-0.22900763358778625,-3.1603053435114505
3914186109130,4.548147134,3,-0.1927332336425781,-0.5542576843261718,-8.927977990722656,-4.458015267175573,-0.32061068702290074,-3.1755725190839694
3914193423661,4.555461665,3,-0.18076222534179687,-0.5243301635742187,-8.942343200683593,-4.435114503816794,-0.2595419847328244,-3.183206106870229
3914200754442,4.562792446,3,-0.17956512451171874,-0.5638344909667968,-8.949525805664061,-4.3893129770992365,-0.2748091603053435,-3.1526717557251906
3914208100640,4.570138644,3,-0.18555062866210936,-0.5506663818359374,-8.98304462890625,-4.3816793893129775,-0.366412213740458,-3.114503816793893
3914215460224,4.577498228,3,-0.22026655273437498,-0.5374982727050781,-8.911218579101561,-4.480916030534351,-0.3053435114503817,-3.1297709923664123
3914222825276,4.58486328,3,-0.19393033447265623,-0.5267243652343749,-8.945934503173827,-4.458015267175573,-0.2824427480916031,-3.145038167938931
3914230179859,4.592217863,3,-0.2166752502441406,-0.5315127685546874,-8.957905511474609,-4.396946564885496,-0.366412213740458,-3.114503816793893
3914237503974,4.599541978,3,-0.19512743530273435,-0.5494692810058593,-8.932766394042968,-4.396946564885496,-0.3053435114503817,-3.1755725190839694
3914244833140,4.606871144,3,-0.20350714111328125,-0.5542576843261718,-8.961496813964843,-4.458015267175573,-0.3511450381679389,-3.114503816793893
3914252138505,4.614176509,3,-0.22864625854492185,-0.5566518859863281,-8.975862023925782,-4.404580152671755,-0.366412213740458,-3.145038167938931
3914259366526,4.62140453,3,-0.1975216369628906,-0.5243301635742187,-8.942343200683593,-4.366412213740458,-0.31297709923664124,-3.1297709923664123
3914266632515,4.628670519,3,-0.19871873779296872,-0.5410895751953124,-8.963891015625,-4.312977099236641,-0.3511450381679389,-3.1297709923664123
3914273984390,4.636022394,3,-0.19991583862304688,-0.55545478515625,-8.914809881591797,-4.358778625954199,-0.366412213740458,-3.114503816793893
3914281327828,4.643365832,3,-0.20350714111328125,-0.5458779785156249,-8.939948999023438,-4.3816793893129775,-0.33587786259541985,-3.1068702290076335
3914288651630,4.650689634,3,-0.19153613281249998,-0.5626373901367188,-8.960299713134765,-4.458015267175573,-0.3969465648854962,-3.1755725190839694
3914295953817,4.657991821,3,-0.19871873779296872,-0.5638344909667968,-8.898050469970702,-4.473282442748092,-0.32061068702290074,-3.183206106870229
3914303231161,4.665269165,3,-0.21308394775390624,-0.5374982727050781,-8.950722906494141,-4.366412213740458,-0.3893129770992366,-3.1755725190839694
3914310539286,4.67257729,3,-0.23343466186523437,-0.5255272644042969,-9.003395343017578,-4.396946564885496,-0.37404580152671757,-3.114503816793893
3914317793348,4.679831352,3,-0.20949264526367187,-0.5458779785156249,-8.951920007324219,-4.3816793893129775,-0.3435114503816794,-3.1297709923664123
3914325111734,4.687149738,3,-0.20949264526367187,-0.5518634826660156,-8.926780889892578,-4.465648854961832,-0.37404580152671757,-3.122137404580153
3914332369338,4.694407342,3,-0.2154781494140625,-0.5530605834960938,-8.941146099853515,-4.435114503816794,-0.3816793893129771,-3.1374045801526718
3914339714078,4.701752082,3,-0.19991583862304688,-0.5386953735351562,-8.955511309814453,-4.435114503816794,-0.2748091603053435,-3.1908396946564888
3914347079078,4.709117082,3,-0.1975216369628906,-0.5386953735351562,-8.945934503173827,-4.519083969465649,-0.32061068702290074,-3.145038167938931
3914354437307,4.716475311,3,-0.20949264526367187,-0.5363011718749999,-8.960299713134765,-4.488549618320611,-0.32061068702290074,-3.122137404580153
3914361723453,4.723761457,3,-0.20470424194335937,-0.5638344909667968,-8.97705912475586,-4.511450381679389,-0.31297709923664124,-3.1908396946564888
3914369050067,4.731088071,3,-0.21068974609375,-0.5494692810058593,-8.949525805664061,-4.404580152671755,-0.32061068702290074,-3.213740458015267
3914376394703,4.738432707,3,-0.21188684692382811,-0.5363011718749999,-8.974664923095702,-4.419847328244275,-0.35877862595419846,-3.1755725190839694
3914383766630,4.745804634,3,-0.20470424194335937,-0.5219359619140624,-8.966285217285156,-4.427480916030534,-0.2824427480916031,-3.16793893129771
3914391117671,4.753155675,3,-0.21428104858398436,-0.5602431884765625,-8.948328704833983,-4.358778625954199,-0.4580152671755725,-3.114503816793893
3914398476161,4.760514165,3,-0.2166752502441406,-0.5434837768554687,-8.93875189819336,-4.412213740458015,-0.366412213740458,-3.1374045801526718
3914405805328,4.767843332,3,-0.1879448303222656,-0.5147533569335937,-8.968679418945312,-4.435114503816794,-0.22900763358778625,-3.1526717557251906
3914413211317,4.775249321,3,-0.19512743530273435,-0.5458779785156249,-8.966285217285156,-4.465648854961832,-0.3282442748091603,-3.122137404580153
3914420532151,4.782570155,3,-0.2214636535644531,-0.5315127685546874,-8.943540301513671,-4.450381679389313,-0.2595419847328244,-3.122137404580153
3914427811786,4.78984979,3,-0.20350714111328125,-0.5470750793457031,-8.948328704833983,-4.458015267175573,-0.31297709923664124,-3.1068702290076335
3914435168973,4.797206977,3,-0.20709844360351562,-0.5781997009277343,-8.951920007324219,-4.3893129770992365,-0.366412213740458,-3.099236641221374
3914442486317,4.804524321,3,-0.19393033447265623,-0.5494692810058593,-8.94473740234375,-4.366412213740458,-0.3053435114503817,-3.1755725190839694
3914449802151,4.811840155,3,-0.2166752502441406,-0.5243301635742187,-8.945934503173827,-4.435114503816794,-0.366412213740458,-3.1374045801526718
3914457145953,4.819183957,3,-0.21906945190429686,-0.5446808776855468,-8.941146099853515,-4.412213740458015,-0.4351145038167939,-3.16793893129771
3914464460484,4.826498488,3,-0.1975216369628906,-0.55545478515625,-8.94473740234375,-4.3893129770992365,-0.2824427480916031,-3.183206106870229
3914471765067,4.833803071,3,-0.19871873779296872,-0.5590460876464843,-8.978256225585938,-4.427480916030534,-0.3435114503816794,-3.1297709923664123
3914479134130,4.841172134,3,-0.19512743530273435,-0.5458779785156249,-8.941146099853515,-4.4961832061068705,-0.2748091603053435,-3.1526717557251906
3914486476369,4.848514373,3,-0.2262520568847656,-0.5470750793457031,-8.932766394042968,-4.419847328244275,-0.31297709923664124,-3.114503816793893
3914493814651,4.855852655,3,-0.20350714111328125,-0.5255272644042969,-8.930372192382812,-4.419847328244275,-0.3435114503816794,-3.145038167938931
3914501162723,4.863200727,3,-0.21188684692382811,-0.5374982727050781,-8.953117108154297,-4.396946564885496,-0.25190839694656486,-3.114503816793893
3914508473453,4.870511457,3,-0.20709844360351562,-0.5243301635742187,-8.953117108154297,-4.435114503816794,-0.3282442748091603,-3.0839694656488548
3914515830119,4.877868123,3,-0.18555062866210936,-0.5674257934570313,-8.94473740234375,-4.442748091603053,-0.2748091603053435,-3.122137404580153
3914523169182,4.885207186,3,-0.181959326171875,-0.5578489868164063,-8.948328704833983,-4.435114503816794,-0.1984732824427481,-3.1526717557251906
3914530566734,4.892604738,3,-0.19871873779296872,-0.5410895751953124,-8.953117108154297,-4.3893129770992365,-0.366412213740458,-3.16793893129771
3914537993765,4.900031769,3,-0.22505495605468748,-0.5566518859863281,-8.990227233886719,-4.435114503816794,-0.3282442748091603,-3.183206106870229
3914545355328,4.907393332,3,-0.14604630126953125,-0.5422866760253906,-8.955511309814453,-4.396946564885496,-0.25190839694656486,-3.1603053435114505
3914552680536,4.91471854,3,-0.17357962036132812,-0.5398924743652344,-8.978256225585938,-4.442748091603053,-0.3435114503816794,-3.1068702290076335
3914559943921,4.921981925,3,-0.19033903198242186,-0.5494692810058593,-8.997409838867187,-4.374045801526718,-0.2748091603053435,-3.145038167938931
3914567281317,4.929319321,3,-0.18076222534179687,-0.5398924743652344,-8.963891015625,-4.3816793893129775,-0.31297709923664124,-3.145038167938931
3914574591005,4.936629009,3,-0.21308394775390624,-0.5662286926269531,-8.984241729736327,-4.351145038167939,-0.3816793893129771,-3.1374045801526718
3914581936786,4.94397479,3,-0.19632453613281248,-0.55545478515625,-8.945934503173827,-4.374045801526718,-0.33587786259541985,-3.122137404580153
3914589248609,4.951286613,3,-0.19512743530273435,-0.5255272644042969,-8.905233074951171,-4.3893129770992365,-0.366412213740458,-3.2213740458015265
3914596647880,4.958685884,3,-0.21906945190429686,-0.5482721801757812,-8.980650427246093,-4.3893129770992365,-0.3893129770992366,-3.145038167938931
3914604103869,4.966141873,3,-0.20709844360351562,-0.5255272644042969,-8.927977990722656,-4.404580152671755,-0.22137404580152673,-3.1068702290076335
3914611470588,4.973508592,3,-0.1927332336425781,-0.5422866760253906,-8.942343200683593,-4.427480916030534,-0.3282442748091603,-3.145038167938931
3914618772619,4.980810623,3,-0.2214636535644531,-0.5578489868164063,-8.967482318115234,-4.404580152671755,-0.2748091603053435,-3.099236641221374
3914626246525,4.988284529,3,-0.20709844360351562,-0.5506663818359374,-8.961496813964843,-4.480916030534351,-0.2595419847328244,-3.0916030534351147
3914633620067,4.995658071,3,-0.1927332336425781,-0.5422866760253906,-8.987833032226561,-4.473282442748092,-0.4122137404580153,-3.0610687022900764
3914640975015,5.003013019,3,-0.2059013427734375,-0.5255272644042969,-8.929175091552734,-4.396946564885496,-0.31297709923664124,-3.053435114503817
3914648305536,5.01034354,3,-0.2214636535644531,-0.5255272644042969,-8.93875189819336,-4.427480916030534,-0.3511450381679389,-3.030534351145038
3914655668088,5.017706092,3,-0.22026655273437498,-0.5374982727050781,-8.912415679931641,-4.412213740458015,-0.3816793893129771,-3.045801526717557
3914662996421,5.025034425,3,-0.21188684692382811,-0.5494692810058593,-8.926780889892578,-4.427480916030534,-0.24427480916030533,-3.0916030534351147
3914670343557,5.032381561,3,-0.21188684692382811,-0.5279214660644531,-8.951920007324219,-4.343511450381679,-0.4122137404580153,-3.1603053435114505
3914677640640,5.039678644,3,-0.19991583862304688,-0.5303156677246094,-8.932766394042968,-4.3893129770992365,-0.3969465648854962,-3.1374045801526718
3914685054130,5.047092134,3,-0.201112939453125,-0.5351040710449219,-8.93156929321289,-4.374045801526718,-0.3053435114503817,-3.122137404580153
3914692406525,5.054444529,3,-0.20350714111328125,-0.5506663818359374,-8.912415679931641,-4.404580152671755,-0.31297709923664124,-3.0763358778625953
3914699733505,5.061771509,3,-0.19153613281249998,-0.5315127685546874,-8.916006982421875,-4.412213740458015,-0.2824427480916031,-3.1908396946564888
3914707098192,5.069136196,3,-0.20949264526367187,-0.5315127685546874,-8.923189587402343,-4.442748091603053,-0.1984732824427481,-3.16793893129771
3914714416578,5.076454582,3,-0.20829554443359374,-0.5159504577636719,-8.965088116455078,-4.419847328244275,-0.29770992366412213,-3.1603053435114505
3914721790432,5.083828436,3,-0.19632453613281248,-0.5303156677246094,-8.941146099853515,-4.450381679389313,-0.2366412213740458,-3.1603053435114505
3914729102775,5.091140779,3,-0.16041151123046873,-0.5446808776855468,-8.901641772460938,-4.465648854961832,-0.29770992366412213,-3.099236641221374
3914736467671,5.098505675,3,-0.20470424194335937,-0.5877765075683593,-8.941146099853515,-4.488549618320611,-0.3282442748091603,-3.16793893129771
3914743781369,5.105819373,3,-0.1927332336425781,-0.5590460876464843,-8.919598284912109,-4.511450381679389,-0.19083969465648856,-3.1603053435114505
3914751102515,5.113140519,3,-0.20709844360351562,-0.5446808776855468,-8.91840118408203,-4.435114503816794,-0.3053435114503817,-3.1526717557251906
3914758443817,5.120481821,3,-0.22026655273437498,-0.5207388610839844,-8.93755479736328,-4.419847328244275,-0.2824427480916031,-3.16793893129771
3914765804338,5.127842342,3,-0.18555062866210936,-0.565031591796875,-8.93875189819336,-4.3893129770992365,-0.24427480916030533,-3.1374045801526718
3914773152880,5.135190884,3,-0.20350714111328125,-0.5374982727050781,-8.93875189819336,-4.396946564885496,-0.4122137404580153,-3.0916030534351147
3914780492463,5.142530467,3,-0.22266075439453123,-0.5303156677246094,-8.942343200683593,-4.412213740458015,-0.31297709923664124,-3.1374045801526718
3914787895380,5.149933384,3,-0.2166752502441406,-0.5315127685546874,-8.926780889892578,-4.427480916030534,-0.2824427480916031,-3.1297709923664123
3914795279338,5.157317342,3,-0.20829554443359374,-0.5410895751953124,-8.957905511474609,-4.404580152671755,-0.3053435114503817,-3.16793893129771
3914802573244,5.164611248,3,-0.21428104858398436,-0.5386953735351562,-8.968679418945312,-4.465648854961832,-0.2748091603053435,-3.099236641221374
3914809933348,5.171971352,3,-0.21188684692382811,-0.5339069702148437,-8.957905511474609,-4.458015267175573,-0.366412213740458,-3.1374045801526718
3914817273817,5.179311821,3,-0.20829554443359374,-0.55545478515625,-8.949525805664061,-4.442748091603053,-0.3816793893129771,-3.1603053435114505
3914824660952,5.186698956,3,-0.20709844360351562,-0.5590460876464843,-8.967482318115234,-4.488549618320611,-0.22900763358778625,-3.122137404580153
3914831887880,5.193925884,3,-0.19393033447265623,-0.5805939025878906,-8.960299713134765,-4.4961832061068705,-0.45038167938931295,-3.0916030534351147
3914839295796,5.2013338,3,-0.2166752502441406,-0.5530605834960938,-8.926780889892578,-4.3893129770992365,-0.33587786259541985,-3.122137404580153
3914846616838,5.208654842,3,-0.21906945190429686,-0.5494692810058593,-8.955511309814453,-4.3816793893129775,-0.26717557251908397,-3.1297709923664123
3914853916994,5.215954998,3,-0.20829554443359374,-0.5339069702148437,-8.943540301513671,-4.419847328244275,-0.3969465648854962,-3.1297709923664123
3914861237359,5.223275363,3,-0.1879448303222656,-0.5710170959472656,-8.961496813964843,-4.396946564885496,-0.3511450381679389,-3.1374045801526718
3914868561317,5.230599321,3,-0.19871873779296872,-0.5698199951171875,-8.968679418945312,-4.404580152671755,-0.3053435114503817,-3.1603053435114505
3914875886525,5.237924529,3,-0.20231004028320312,-0.5339069702148437,-8.914809881591797,-4.412213740458015,-0.3511450381679389,-3.114503816793893
3914883267671,5.245305675,3,-0.1927332336425781,-0.5566518859863281,-8.926780889892578,-4.3816793893129775,-0.31297709923664124,-3.1374045801526718
3914890634807,5.252672811,3,-0.201112939453125,-0.5267243652343749,-8.919598284912109,-4.465648854961832,-0.35877862595419846,-3.122137404580153
3914897981630,5.260019634,3,-0.21188684692382811,-0.55545478515625,-8.935160595703124,-4.396946564885496,-0.35877862595419846,-3.1603053435114505
3914905339755,5.267377759,3,-0.19991583862304688,-0.5374982727050781,-8.933963494873046,-4.435114503816794,-0.3282442748091603,-3.1526717557251906
3914912696005,5.274734009,3,-0.20350714111328125,-0.5386953735351562,-8.936357696533202,-4.396946564885496,-0.3282442748091603,-3.1068702290076335
3914920072255,5.282110259,3,-0.21906945190429686,-0.5434837768554687,-8.935160595703124,-4.396946564885496,-0.2366412213740458,-3.0916030534351147
3914927404598,5.289442602,3,-0.21308394775390624,-0.5327098693847656,-8.905233074951171,-4.374045801526718,-0.1984732824427481,-3.114503816793893
3914934734859,5.296772863,3,-0.20829554443359374,-0.5398924743652344,-8.930372192382812,-4.404580152671755,-0.3511450381679389,-3.099236641221374
3914942203088,5.304241092,3,-0.22026655273437498,-0.55545478515625,-8.957905511474609,-4.404580152671755,-0.29770992366412213,-3.122137404580153
3914949619546,5.31165755,3,-0.16998831787109375,-0.5422866760253906,-8.914809881591797,-4.435114503816794,-0.35877862595419846,-3.145038167938931
3914956964442,5.319002446,3,-0.21428104858398436,-0.5255272644042969,-8.9255837890625,-4.442748091603053,-0.42748091603053434,-3.099236641221374
3914964287932,5.326325936,3,-0.20829554443359374,-0.5291185668945312,-8.88009395751953,-4.404580152671755,-0.3435114503816794,-3.1526717557251906
3914971656525,5.333694529,3,-0.20829554443359374,-0.5267243652343749,-8.93755479736328,-4.458015267175573,-0.35877862595419846,-3.183206106870229
3914978945119,5.340983123,3,-0.20829554443359374,-0.5446808776855468,-8.947131604003905,-4.480916030534351,-0.35877862595419846,-3.213740458015267
3914986373765,5.348411769,3,-0.1879448303222656,-0.5315127685546874,-8.972270721435546,-4.526717557251908,-0.26717557251908397,-3.1755725190839694
3914993773140,5.355811144,3,-0.18555062866210936,-0.5255272644042969,-8.963891015625,-4.526717557251908,-0.3893129770992366,-3.145038167938931
3915001092515,5.363130519,3,-0.1867477294921875,-0.5506663818359374,-8.951920007324219,-4.458015267175573,-0.3282442748091603,-3.1374045801526718
3915008481734,5.370519738,3,-0.19871873779296872,-0.5518634826660156,-8.957905511474609,-4.3893129770992365,-0.3435114503816794,-3.114503816793893
3915015833973,5.377871977,3,-0.19632453613281248,-0.5363011718749999,-8.955511309814453,-4.427480916030534,-0.3511450381679389,-3.1068702290076335
