timestamp_ns,t_s,sensor_id,ax,ay,az,gx,gy,gz
3909806938611,0.168976615,1,0.22744915771484372,1.7453730102539062,-11.206060870361327,-0.9007633587786259,0.5877862595419847,-1.2900763358778626
3909813198038,0.175236042,1,0.20470424194335937,1.7298106994628906,-11.170147845458983,-0.8015267175572519,0.5267175572519084,-1.2442748091603053
3909819142517,0.181180521,1,0.22266075439453123,1.7286135986328124,-11.166556542968749,-0.8473282442748091,0.5725190839694656,-1.3053435114503817
3909825029913,0.187067917,1,0.2214636535644531,1.7357962036132812,-11.152191333007812,-0.9083969465648855,0.5648854961832062,-1.3511450381679388
3909830880017,0.192918021,1,0.26336218261718747,1.7262193969726563,-11.180921752929686,-0.8702290076335878,0.5572519083969466,-1.3282442748091603
3909836774861,0.198812865,1,0.21188684692382811,1.7226280944824217,-11.195286962890624,-0.816793893129771,0.549618320610687,-1.3511450381679388
3909842657621,0.204695625,1,0.2537853759765625,1.7286135986328124,-11.192892761230468,-0.8625954198473282,0.6106870229007634,-1.3282442748091603
3909848571111,0.210609115,1,0.22385785522460935,1.7357962036132812,-11.195286962890624,-0.8702290076335878,0.6259541984732825,-1.2748091603053435
3909854491423,0.216529427,1,0.22026655273437498,1.7130512878417967,-11.19169566040039,-0.7786259541984732,0.5190839694656488,-1.282442748091603
3909860412361,0.222450365,1,0.21188684692382811,1.7190367919921874,-11.188104357910156,-0.9389312977099237,0.5343511450381679,-1.3206106870229009
3909866333090,0.228371094,1,0.20350714111328125,1.7369933044433592,-11.164162341308593,-0.9541984732824428,0.5954198473282443,-1.3282442748091603
3909872185121,0.234223125,1,0.21787235107421873,1.70467158203125,-11.180921752929686,-0.8396946564885496,0.6106870229007634,-1.3282442748091603
3909878072517,0.240110521,1,0.23343466186523437,1.714248388671875,-11.196484063720703,-0.8473282442748091,0.5877862595419847,-1.3358778625954197
3909883976631,0.246014635,1,0.2537853759765625,1.7298106994628906,-11.170147845458983,-0.8778625954198473,0.6564885496183206,-1.381679389312977
3909889910486,0.25194849,1,0.229843359375,1.7190367919921874,-11.155782635498046,-0.816793893129771,0.5725190839694656,-1.3511450381679388
3909895842152,0.257880156,1,0.21428104858398436,1.7166425903320313,-11.182118853759764,-0.7862595419847328,0.5114503816793893,-1.3206106870229009
3909901793142,0.263831146,1,0.23343466186523437,1.7214309936523438,-11.226411584472656,-0.8473282442748091,0.4961832061068702,-1.3053435114503817
3909907743454,0.269781458,1,0.2214636535644531,1.7369933044433592,-11.174936248779296,-0.8320610687022901,0.5648854961832062,-1.3511450381679388
3909913642152,0.275680156,1,0.22266075439453123,1.7298106994628906,-11.220426080322264,-0.8702290076335878,0.5114503816793893,-1.366412213740458
3909919555798,0.281593802,1,0.21068974609375,1.7178396911621092,-11.21084927368164,-0.7938931297709924,0.46564885496183206,-1.3053435114503817
3909925476631,0.287514635,1,0.21308394775390624,1.7214309936523438,-11.206060870361327,-0.8396946564885496,0.48854961832061067,-1.3511450381679388
3909931394392,0.293432396,1,0.22385785522460935,1.7166425903320313,-11.192892761230468,-0.8320610687022901,0.5954198473282443,-1.3587786259541985
3909937309496,0.2993475,1,0.22744915771484372,1.7094599853515624,-11.243170996093749,-0.7862595419847328,0.5725190839694656,-1.4045801526717556
3909943195329,0.305233333,1,0.22744915771484372,1.7322049011230467,-11.252747802734374,-0.8244274809160306,0.6030534351145038,-1.3206106870229009
3909949047829,0.311085833,1,0.229843359375,1.7094599853515624,-11.197681164550781,-0.7938931297709924,0.6106870229007634,-1.3282442748091603
3909954895642,0.316933646,1,0.2154781494140625,1.7465701110839842,-11.18571015625,-0.732824427480916,0.5801526717557252,-1.366412213740458
3909960773194,0.322811198,1,0.23223756103515625,1.7417817077636717,-11.168950744628905,-0.8320610687022901,0.5572519083969466,-1.3587786259541985
3909966676527,0.328714531,1,0.22026655273437498,1.714248388671875,-11.2240173828125,-0.8625954198473282,0.5343511450381679,-1.282442748091603
3909972568402,0.334606406,1,0.2059013427734375,1.715445489501953,-11.244368096923827,-0.8473282442748091,0.6641221374045801,-1.282442748091603
3909978411267,0.340449271,1,0.201112939453125,1.7238251953125,-11.225214483642578,-0.7938931297709924,0.6335877862595419,-1.297709923664122
3909984252048,0.346290052,1,0.23104046020507812,1.7082628845214842,-11.158176837158203,-0.816793893129771,0.5648854961832062,-1.3129770992366412
3909990109808,0.352147812,1,0.23702596435546874,1.7286135986328124,-11.189301458740234,-0.8244274809160306,0.5877862595419847,-1.3358778625954197
3909995930069,0.357968073,1,0.22744915771484372,1.7357962036132812,-11.213243475341796,-0.8244274809160306,0.5801526717557252,-1.3206106870229009
3910002162725,0.364200729,1,0.22385785522460935,1.7298106994628906,-11.200075366210937,-0.8396946564885496,0.6335877862595419,-1.282442748091603
3910008798611,0.370836615,1,0.22026655273437498,1.7357962036132812,-11.174936248779296,-0.8549618320610687,0.6183206106870229,-1.3435114503816794
3910014772048,0.376810052,1,0.22744915771484372,1.7178396911621092,-11.225214483642578,-0.7709923664122137,0.6106870229007634,-1.3282442748091603
3910020729444,0.382767448,1,0.2262520568847656,1.7190367919921874,-11.202469567871093,-0.8015267175572519,0.6106870229007634,-1.3053435114503817
3910026681215,0.388719219,1,0.22505495605468748,1.7286135986328124,-11.2240173828125,-0.8854961832061069,0.5267175572519084,-1.3435114503816794
3910032626058,0.394664062,1,0.22864625854492185,1.7286135986328124,-11.21084927368164,-0.8702290076335878,0.5419847328244275,-1.3511450381679388
3910038505121,0.400543125,1,0.21188684692382811,1.7094599853515624,-11.228805786132812,-0.8320610687022901,0.549618320610687,-1.3282442748091603
3910044398715,0.406436719,1,0.21308394775390624,1.7130512878417967,-11.186907257080078,-0.9083969465648855,0.6412213740458015,-1.366412213740458
3910050350694,0.412388698,1,0.21906945190429686,1.715445489501953,-11.167753643798827,-0.8931297709923665,0.6106870229007634,-1.381679389312977
3910056249131,0.418287135,1,0.20470424194335937,1.7190367919921874,-11.180921752929686,-0.8702290076335878,0.5801526717557252,-1.366412213740458
3910062137725,0.424175729,1,0.1927332336425781,1.7094599853515624,-11.207257971191405,-0.8091603053435115,0.5648854961832062,-1.3587786259541985
3910068054861,0.430092865,1,0.21068974609375,1.7429788085937499,-11.19169566040039,-0.8396946564885496,0.5648854961832062,-1.366412213740458
3910073971423,0.436009427,1,0.2346317626953125,1.7286135986328124,-11.337741961669922,-0.7938931297709924,0.6259541984732825,-1.3206106870229009
3910079917048,0.441955052,1,0.19033903198242186,1.7310078002929687,-11.201272467041015,-0.7786259541984732,0.5725190839694656,-1.2748091603053435
3910085849496,0.4478875,1,0.19991583862304688,1.7274164978027342,-11.177330450439452,-0.8396946564885496,0.5954198473282443,-1.2595419847328244
3910091761944,0.453799948,1,0.24779987182617186,1.7130512878417967,-11.180921752929686,-0.9007633587786259,0.648854961832061,-1.2442748091603053
3910097666527,0.459704531,1,0.22026655273437498,1.7262193969726563,-11.196484063720703,-0.7938931297709924,0.5419847328244275,-1.3129770992366412
3910103553611,0.465591615,1,0.22385785522460935,1.7202338928222656,-11.212046374511718,-0.7938931297709924,0.5419847328244275,-1.3358778625954197
3910109458402,0.471496406,1,0.20470424194335937,1.7238251953125,-11.174936248779296,-0.8931297709923665,0.5801526717557252,-1.2900763358778626
3910115333923,0.477371927,1,0.23343466186523437,1.7298106994628906,-11.203666668701171,-0.816793893129771,0.549618320610687,-1.3435114503816794
3910121174288,0.483212292,1,0.23822306518554687,1.7357962036132812,-11.17254204711914,-0.7709923664122137,0.5419847328244275,-1.2900763358778626
3910127076579,0.489114583,1,0.23223756103515625,1.7417817077636717,-11.192892761230468,-0.8015267175572519,0.5954198473282443,-1.2595419847328244
3910133012361,0.495050365,1,0.23343466186523437,1.7226280944824217,-11.174936248779296,-0.816793893129771,0.5648854961832062,-1.2748091603053435
3910138991267,0.501029271,1,0.2501940734863281,1.7405846069335937,-11.180921752929686,-0.8091603053435115,0.5419847328244275,-1.3129770992366412
3910145040590,0.507078594,1,0.24899697265624998,1.7118541870117185,-11.164162341308593,-0.8091603053435115,0.5877862595419847,-1.3282442748091603
3910151055173,0.513093177,1,0.1975216369628906,1.7286135986328124,-11.165359442138671,-0.8931297709923665,0.648854961832061,-1.2900763358778626
3910157018975,0.519056979,1,0.23582886352539062,1.7369933044433592,-11.168950744628905,-0.7786259541984732,0.6106870229007634,-1.3129770992366412
3910162911788,0.524949792,1,0.2154781494140625,1.6986860778808592,-11.208455072021483,-0.8015267175572519,0.6183206106870229,-1.3358778625954197
3910168763298,0.530801302,1,0.23582886352539062,1.7106570861816406,-11.19169566040039,-0.8396946564885496,0.5648854961832062,-1.3740458015267176
3910174587673,0.536625677,1,0.2154781494140625,1.7238251953125,-11.192892761230468,-0.7938931297709924,0.5877862595419847,-1.4045801526717556
3910180484131,0.542522135,1,0.20470424194335937,1.7310078002929687,-11.21084927368164,-0.7709923664122137,0.5877862595419847,-1.4198473282442747
3910186373819,0.548411823,1,0.2154781494140625,1.725022296142578,-11.21683477783203,-0.7786259541984732,0.5725190839694656,-1.3358778625954197
3910192296423,0.554334427,1,0.19871873779296872,1.7166425903320313,-11.167753643798827,-0.8396946564885496,0.5572519083969466,-1.3206106870229009
3910198202100,0.560240104,1,0.20709844360351562,1.7190367919921874,-11.197681164550781,-0.8091603053435115,0.5343511450381679,-1.3358778625954197
3910203990538,0.566028542,1,0.21308394775390624,1.714248388671875,-11.201272467041015,-0.8091603053435115,0.5190839694656488,-1.3053435114503817
3910209892933,0.571930937,1,0.22385785522460935,1.7022773803710936,-11.221623181152344,-0.8320610687022901,0.5725190839694656,-1.3282442748091603
3910215821163,0.577859167,1,0.23822306518554687,1.744175909423828,-11.201272467041015,-0.7786259541984732,0.5648854961832062,-1.3358778625954197
3910221708558,0.583746562,1,0.21787235107421873,1.7298106994628906,-11.180921752929686,-0.7709923664122137,0.5419847328244275,-1.3129770992366412
3910227579340,0.589617344,1,0.2154781494140625,1.7513585144042967,-11.19887826538086,-0.7862595419847328,0.5267175572519084,-1.2671755725190839
3910233478610,0.595516614,1,0.23582886352539062,1.7262193969726563,-11.201272467041015,-0.8549618320610687,0.5877862595419847,-1.3358778625954197
3910239367725,0.601405729,1,0.2154781494140625,1.7130512878417967,-11.190498559570312,-0.8396946564885496,0.5801526717557252,-1.4198473282442747
3910245255277,0.607293281,1,0.23702596435546874,1.7130512878417967,-11.161768139648437,-0.816793893129771,0.48854961832061067,-1.3358778625954197
3910251151996,0.61319,1,0.2214636535644531,1.715445489501953,-11.203666668701171,-0.8396946564885496,0.5801526717557252,-1.3206106870229009
3910257037413,0.619075417,1,0.2154781494140625,1.7022773803710936,-11.184513055419922,-0.8854961832061069,0.5954198473282443,-1.3129770992366412
3910262946319,0.624984323,1,0.20949264526367187,1.7405846069335937,-11.208455072021483,-0.8396946564885496,0.5648854961832062,-1.3129770992366412
3910268787048,0.630825052,1,0.2442085693359375,1.7381904052734374,-11.201272467041015,-0.8091603053435115,0.48854961832061067,-1.297709923664122
3910274665902,0.636703906,1,0.23343466186523437,1.7262193969726563,-11.208455072021483,-0.8549618320610687,0.5190839694656488,-1.2671755725190839
3910280566996,0.642605,1,0.21428104858398436,1.7429788085937499,-11.17852755126953,-0.7786259541984732,0.5877862595419847,-1.251908396946565
3910286443038,0.648481042,1,0.23822306518554687,1.7429788085937499,-11.186907257080078,-0.7786259541984732,0.5419847328244275,-1.3053435114503817
3910292341006,0.65437901,1,0.23702596435546874,1.7393875061035156,-11.183315954589844,-0.8549618320610687,0.5877862595419847,-1.2900763358778626
3910298181944,0.660219948,1,0.23582886352539062,1.7369933044433592,-11.213243475341796,-0.8549618320610687,0.5572519083969466,-1.3053435114503817
3910304114704,0.666152708,1,0.20470424194335937,1.7130512878417967,-11.192892761230468,-0.7938931297709924,0.5648854961832062,-1.3053435114503817
3910310049183,0.672087187,1,0.229843359375,1.7214309936523438,-11.179724652099608,-0.8091603053435115,0.5877862595419847,-1.381679389312977
3910315952829,0.677990833,1,0.24301146850585936,1.744175909423828,-11.182118853759764,-0.8244274809160306,0.5801526717557252,-1.3511450381679388
3910321918090,0.683956094,1,0.229843359375,1.7417817077636717,-11.219228979492186,-0.7786259541984732,0.6106870229007634,-1.297709923664122
3910327866631,0.689904635,1,0.2346317626953125,1.7334020019531249,-11.219228979492186,-0.7862595419847328,0.5343511450381679,-1.3358778625954197
3910333796371,0.695834375,1,0.23822306518554687,1.763329522705078,-11.188104357910156,-0.8549618320610687,0.5572519083969466,-1.3129770992366412
3910339713975,0.701751979,1,0.1867477294921875,1.714248388671875,-11.201272467041015,-0.8091603053435115,0.549618320610687,-1.3511450381679388
3910345634288,0.707672292,1,0.20949264526367187,1.7034744812011717,-11.197681164550781,-0.8015267175572519,0.5648854961832062,-1.3587786259541985
3910351575121,0.713613125,1,0.23702596435546874,1.7082628845214842,-11.183315954589844,-0.8931297709923665,0.6641221374045801,-1.381679389312977
3910357489600,0.719527604,1,0.23223756103515625,1.7322049011230467,-11.180921752929686,-0.8473282442748091,0.6259541984732825,-1.3358778625954197
3910363418194,0.725456198,1,0.23822306518554687,1.7465701110839842,-11.149797131347656,-0.7557251908396947,0.5725190839694656,-1.3206106870229009
3910369235121,0.731273125,1,0.23343466186523437,1.707065783691406,-11.15338843383789,-0.8778625954198473,0.5572519083969466,-1.3282442748091603
3910375147829,0.737185833,1,0.25139117431640623,1.707065783691406,-11.164162341308593,-0.8854961832061069,0.5954198473282443,-1.2900763358778626
3910381066683,0.743104687,1,0.23582886352539062,1.7010802795410156,-11.202469567871093,-0.7938931297709924,0.5801526717557252,-1.3358778625954197
3910386974131,0.749012135,1,0.23582886352539062,1.7214309936523438,-11.164162341308593,-0.816793893129771,0.5419847328244275,-1.3358778625954197
3910392900694,0.754938698,1,0.23822306518554687,1.7417817077636717,-11.154585534667968,-0.9236641221374046,0.5572519083969466,-1.297709923664122
3910398809652,0.760847656,1,0.23223756103515625,1.7477672119140624,-11.173739147949219,-0.8015267175572519,0.5801526717557252,-1.3282442748091603
3910404727985,0.766765989,1,0.22505495605468748,1.7190367919921874,-11.192892761230468,-0.7786259541984732,0.5725190839694656,-1.3129770992366412
3910410649808,0.772687812,1,0.2454056701660156,1.715445489501953,-11.19169566040039,-0.8396946564885496,0.5954198473282443,-1.3053435114503817
3910416557465,0.778595469,1,0.2154781494140625,1.7381904052734374,-11.204863769531249,-0.8549618320610687,0.5725190839694656,-1.2748091603053435
3910422456944,0.784494948,1,0.21428104858398436,1.7429788085937499,-11.17852755126953,-0.7938931297709924,0.5648854961832062,-1.2748091603053435
3910428337621,0.790375625,1,0.2166752502441406,1.714248388671875,-11.166556542968749,-0.8015267175572519,0.6106870229007634,-1.2900763358778626
3910434242256,0.79628026,1,0.24660277099609373,1.7561469177246092,-11.189301458740234,-0.8625954198473282,0.6183206106870229,-1.3511450381679388
3910440134444,0.802172448,1,0.2154781494140625,1.7501614135742187,-11.214440576171874,-0.8549618320610687,0.6030534351145038,-1.3206106870229009
3910446038298,0.808076302,1,0.22505495605468748,1.7310078002929687,-11.159373937988281,-0.8625954198473282,0.5877862595419847,-1.2748091603053435
3910451985433,0.814023437,1,0.22505495605468748,1.7417817077636717,-11.155782635498046,-0.8549618320610687,0.6106870229007634,-1.297709923664122
3910457902829,0.819940833,1,0.22385785522460935,1.7465701110839842,-11.168950744628905,-0.8549618320610687,0.5648854961832062,-1.3282442748091603
3910463816319,0.825854323,1,0.20709844360351562,1.70467158203125,-11.21084927368164,-0.7633587786259542,0.5572519083969466,-1.3435114503816794
3910469944392,0.831982396,1,0.2346317626953125,1.705868682861328,-11.194089862060546,-0.816793893129771,0.5572519083969466,-1.297709923664122
3910475919235,0.837957239,1,0.24061726684570311,1.7322049011230467,-11.183315954589844,-0.816793893129771,0.5725190839694656,-1.3129770992366412
3910481873662,0.843911666,1,0.21787235107421873,1.7178396911621092,-11.189301458740234,-0.7786259541984732,0.6106870229007634,-1.3511450381679388
3910487844860,0.849882864,1,0.24181436767578124,1.7393875061035156,-11.171344946289063,-0.7862595419847328,0.5419847328244275,-1.3511450381679388
3910493733142,0.855771146,1,0.24301146850585936,1.7477672119140624,-11.167753643798827,-0.8549618320610687,0.5877862595419847,-1.3740458015267176
3910499639183,0.861677187,1,0.22505495605468748,1.7094599853515624,-11.158176837158203,-0.8473282442748091,0.648854961832061,-1.3282442748091603
3910505572204,0.867610208,1,0.22505495605468748,1.7322049011230467,-11.176133349609374,-0.8244274809160306,0.5343511450381679,-1.3053435114503817
3910511456162,0.873494166,1,0.21308394775390624,1.714248388671875,-11.165359442138671,-0.816793893129771,0.5190839694656488,-1.3282442748091603
3910517359131,0.879397135,1,0.21068974609375,1.715445489501953,-11.148600030517578,-0.9312977099236641,0.5572519083969466,-1.366412213740458
3910523238402,0.885276406,1,0.23223756103515625,1.705868682861328,-11.177330450439452,-0.7938931297709924,0.5267175572519084,-1.3435114503816794
3910529124079,0.891162083,1,0.21068974609375,1.7310078002929687,-11.176133349609374,-0.7786259541984732,0.5343511450381679,-1.2671755725190839
3910535035329,0.897073333,1,0.2154781494140625,1.7226280944824217,-11.197681164550781,-0.7938931297709924,0.5419847328244275,-1.297709923664122
3910540916319,0.902954323,1,0.2166752502441406,1.7190367919921874,-11.177330450439452,-0.8778625954198473,0.5877862595419847,-1.3129770992366412
3910546788090,0.908826094,1,0.21308394775390624,1.7322049011230467,-11.19887826538086,-0.8320610687022901,0.5954198473282443,-1.297709923664122
3910552714027,0.914752031,1,0.25737667846679685,1.7393875061035156,-11.173739147949219,-0.8015267175572519,0.5572519083969466,-1.3282442748091603
3910558657829,0.920695833,1,0.23822306518554687,1.734599102783203,-11.204863769531249,-0.8244274809160306,0.6030534351145038,-1.3053435114503817
3910564563402,0.926601406,1,0.2154781494140625,1.7381904052734374,-11.171344946289063,-0.8091603053435115,0.5725190839694656,-1.3053435114503817
3910570496423,0.932534427,1,0.2262520568847656,1.7549498168945312,-11.142614526367186,-0.8015267175572519,0.5725190839694656,-1.282442748091603
3910576405902,0.938443906,1,0.22864625854492185,1.7369933044433592,-11.17852755126953,-0.816793893129771,0.549618320610687,-1.3129770992366412
3910582331944,0.944369948,1,0.229843359375,1.7274164978027342,-11.14022032470703,-0.8549618320610687,0.549618320610687,-1.2748091603053435
3910588239704,0.950277708,1,0.2214636535644531,1.7525556152343749,-11.162965240478515,-0.8244274809160306,0.5877862595419847,-1.2900763358778626
3910594148454,0.956186458,1,0.22385785522460935,1.7214309936523438,-11.190498559570312,-0.7786259541984732,0.6030534351145038,-1.297709923664122
3910600063975,0.962101979,1,0.21068974609375,1.7513585144042967,-11.18571015625,-0.8091603053435115,0.6412213740458015,-1.3435114503816794
3910606003454,0.968041458,1,0.22385785522460935,1.7477672119140624,-11.179724652099608,-0.732824427480916,0.6183206106870229,-1.2900763358778626
3910611949339,0.973987343,1,0.2166752502441406,1.7106570861816406,-11.195286962890624,-0.7251908396946565,0.5877862595419847,-1.3129770992366412
3910617847569,0.979885573,1,0.229843359375,1.7310078002929687,-11.19169566040039,-0.7480916030534351,0.5801526717557252,-1.2595419847328244
3910623767464,0.985805468,1,0.22385785522460935,1.7238251953125,-11.161768139648437,-0.7938931297709924,0.5725190839694656,-1.297709923664122
3910629706214,0.991744218,1,0.2346317626953125,1.7202338928222656,-11.18571015625,-0.7709923664122137,0.5954198473282443,-1.3435114503816794
3910635602100,0.997640104,1,0.22385785522460935,1.715445489501953,-11.188104357910156,-0.8091603053435115,0.549618320610687,-1.297709923664122
3910641508610,1.003546614,1,0.23702596435546874,1.7286135986328124,-11.225214483642578,-0.8091603053435115,0.5267175572519084,-1.3206106870229009
3910647388454,1.009426458,1,0.2442085693359375,1.7489643127441405,-11.21683477783203,-0.7709923664122137,0.5725190839694656,-1.2595419847328244
3910653318558,1.015356562,1,0.2561795776367187,1.7393875061035156,-11.064802972412108,-0.8320610687022901,0.5572519083969466,-1.2900763358778626
3910659264131,1.021302135,1,0.239420166015625,1.7334020019531249,-11.192892761230468,-0.8854961832061069,0.549618320610687,-1.297709923664122
3910665160694,1.027198698,1,0.23343466186523437,1.7609353210449217,-11.219228979492186,-0.8320610687022901,0.5190839694656488,-1.3129770992366412
3910671028662,1.033066666,1,0.2549824768066406,1.7381904052734374,-11.194089862060546,-0.8549618320610687,0.5190839694656488,-1.3129770992366412
3910676935329,1.038973333,1,0.22864625854492185,1.7214309936523438,-11.195286962890624,-0.8778625954198473,0.5343511450381679,-1.3282442748091603
3910682800329,1.044838333,1,0.21787235107421873,1.7357962036132812,-11.190498559570312,-0.8625954198473282,0.5267175572519084,-1.3435114503816794
3910688716371,1.050754375,1,0.2262520568847656,1.7214309936523438,-11.203666668701171,-0.8549618320610687,0.5572519083969466,-1.3053435114503817
3910694654392,1.056692396,1,0.229843359375,1.7286135986328124,-11.203666668701171,-0.8244274809160306,0.5725190839694656,-1.2900763358778626
3910700573402,1.062611406,1,0.23104046020507812,1.7274164978027342,-11.221623181152344,-0.8091603053435115,0.6106870229007634,-1.3053435114503817
3910706521527,1.068559531,1,0.1975216369628906,1.734599102783203,-11.184513055419922,-0.816793893129771,0.5954198473282443,-1.3206106870229009
3910712413767,1.074451771,1,0.22385785522460935,1.753752716064453,-11.192892761230468,-0.816793893129771,0.549618320610687,-1.2748091603053435
3910718349027,1.080387031,1,0.24301146850585936,1.7393875061035156,-11.201272467041015,-0.8320610687022901,0.6259541984732825,-1.2748091603053435
3910724256214,1.086294218,1,0.22026655273437498,1.7465701110839842,-11.192892761230468,-0.8015267175572519,0.6259541984732825,-1.297709923664122
3910730179704,1.092217708,1,0.22744915771484372,1.7298106994628906,-11.176133349609374,-0.7786259541984732,0.6030534351145038,-1.3282442748091603
3910736082621,1.098120625,1,0.2262520568847656,1.725022296142578,-11.21084927368164,-0.7862595419847328,0.5648854961832062,-1.297709923664122
3910741999548,1.104037552,1,0.20470424194335937,1.7226280944824217,-11.164162341308593,-0.9007633587786259,0.5954198473282443,-1.3129770992366412
3910747885017,1.109923021,1,0.2214636535644531,1.7298106994628906,-11.17254204711914,-0.8244274809160306,0.6259541984732825,-1.3435114503816794
3910753810902,1.115848906,1,0.201112939453125,1.7298106994628906,-11.17852755126953,-0.8320610687022901,0.5954198473282443,-1.3358778625954197
3910759736527,1.121774531,1,0.2262520568847656,1.7501614135742187,-11.152191333007812,-0.8549618320610687,0.6335877862595419,-1.297709923664122
3910765639079,1.127677083,1,0.21906945190429686,1.7238251953125,-11.184513055419922,-0.7786259541984732,0.6183206106870229,-1.3358778625954197
3910771567048,1.133605052,1,0.2214636535644531,1.7298106994628906,-11.188104357910156,-0.7633587786259542,0.5954198473282443,-1.3435114503816794
3910777416058,1.139454062,1,0.22864625854492185,1.7429788085937499,-11.173739147949219,-0.816793893129771,0.5267175572519084,-1.3435114503816794
3910783269860,1.145307864,1,0.22266075439453123,1.7501614135742187,-11.043255157470702,-0.816793893129771,0.6106870229007634,-1.3282442748091603
3910789151787,1.151189791,1,0.22385785522460935,1.734599102783203,-11.189301458740234,-0.8091603053435115,0.4961832061068702,-1.3206106870229009
3910795115277,1.157153281,1,0.2262520568847656,1.7369933044433592,-11.177330450439452,-0.7938931297709924,0.5343511450381679,-1.297709923664122
3910801078975,1.163116979,1,0.22864625854492185,1.715445489501953,-11.232397088623046,-0.8015267175572519,0.549618320610687,-1.3053435114503817
3910806964652,1.169002656,1,0.25139117431640623,1.7477672119140624,-11.194089862060546,-0.7862595419847328,0.6183206106870229,-1.3587786259541985
3910812858975,1.174896979,1,0.2166752502441406,1.7561469177246092,-11.176133349609374,-0.7862595419847328,0.549618320610687,-1.3435114503816794
3910818731944,1.180769948,1,0.1975216369628906,1.7549498168945312,-11.21683477783203,-0.8473282442748091,0.5801526717557252,-1.3358778625954197
3910824702152,1.186740156,1,0.21787235107421873,1.7477672119140624,-11.184513055419922,-0.8396946564885496,0.5801526717557252,-1.3129770992366412
3910830654600,1.192692604,1,0.2166752502441406,1.7513585144042967,-11.184513055419922,-0.7938931297709924,0.549618320610687,-1.3206106870229009
3910836561371,1.198599375,1,0.22505495605468748,1.7405846069335937,-11.183315954589844,-0.8091603053435115,0.5801526717557252,-1.3435114503816794
3910842481319,1.204519323,1,0.2166752502441406,1.7226280944824217,-11.162965240478515,-0.7862595419847328,0.5954198473282443,-1.297709923664122
3910848414131,1.210452135,1,0.21787235107421873,1.7417817077636717,-11.174936248779296,-0.8625954198473282,0.6259541984732825,-1.3129770992366412
3910854357100,1.216395104,1,0.2059013427734375,1.714248388671875,-11.182118853759764,-0.8320610687022901,0.5572519083969466,-1.3206106870229009
3910860253454,1.222291458,1,0.20350714111328125,1.7178396911621092,-11.183315954589844,-0.8549618320610687,0.5419847328244275,-1.3282442748091603
3910866101891,1.228139895,1,0.2166752502441406,1.7166425903320313,-11.206060870361327,-0.8778625954198473,0.549618320610687,-1.3282442748091603
3910871974444,1.234012448,1,0.2214636535644531,1.715445489501953,-11.232397088623046,-0.9007633587786259,0.5648854961832062,-1.297709923664122
3910877935225,1.239973229,1,0.22266075439453123,1.7106570861816406,-11.21084927368164,-0.9312977099236641,0.5038167938931297,-1.2366412213740459
3910883934808,1.245972812,1,0.20829554443359374,1.7226280944824217,-11.184513055419922,-0.8931297709923665,0.5343511450381679,-1.3435114503816794
3910889882412,1.251920416,1,0.2214636535644531,1.725022296142578,-11.170147845458983,-0.8702290076335878,0.5877862595419847,-1.2900763358778626
3910895809548,1.257847552,1,0.22385785522460935,1.7298106994628906,-11.195286962890624,-0.8625954198473282,0.5267175572519084,-1.3053435114503817
3910901805641,1.263843645,1,0.2166752502441406,1.7322049011230467,-11.192892761230468,-0.8320610687022901,0.6030534351145038,-1.2900763358778626
3910907755433,1.269793437,1,0.23104046020507812,1.7369933044433592,-11.156979736328124,-0.8244274809160306,0.6030534351145038,-1.3511450381679388
3910913671110,1.275709114,1,0.21308394775390624,1.7357962036132812,-11.207257971191405,-0.8473282442748091,0.5954198473282443,-1.3358778625954197
3910919584183,1.281622187,1,0.25139117431640623,1.7357962036132812,-11.15338843383789,-0.8244274809160306,0.6030534351145038,-1.282442748091603
3910925477308,1.287515312,1,0.239420166015625,1.7298106994628906,-11.142614526367186,-0.8549618320610687,0.5954198473282443,-1.3129770992366412
3910931413141,1.293451145,1,0.20949264526367187,1.7190367919921874,-11.173739147949219,-0.8396946564885496,0.6106870229007634,-1.3206106870229009
3910937328246,1.29936625,1,0.22266075439453123,1.7262193969726563,-11.180921752929686,-0.8244274809160306,0.5572519083969466,-1.297709923664122
3910943250537,1.305288541,1,0.2346317626953125,1.714248388671875,-11.166556542968749,-0.8244274809160306,0.6335877862595419,-1.3358778625954197
3910949158610,1.311196614,1,0.21787235107421873,1.725022296142578,-11.23718549194336,-0.7786259541984732,0.5648854961832062,-1.3435114503816794
3910955122256,1.31716026,1,0.22744915771484372,1.7310078002929687,-11.19887826538086,-0.8015267175572519,0.5419847328244275,-1.3435114503816794
3910961028246,1.32306625,1,0.21906945190429686,1.7453730102539062,-11.149797131347656,-0.8396946564885496,0.5343511450381679,-1.3358778625954197
3910966956944,1.328994948,1,0.23702596435546874,1.7549498168945312,-11.170147845458983,-0.8549618320610687,0.5648854961832062,-1.3358778625954197
3910972840277,1.334878281,1,0.239420166015625,1.753752716064453,-11.182118853759764,-0.7938931297709924,0.5648854961832062,-1.3282442748091603
3910978706058,1.340744062,1,0.24301146850585936,1.763329522705078,-11.188104357910156,-0.8244274809160306,0.5801526717557252,-1.3129770992366412
3910984614131,1.346652135,1,0.22026655273437498,1.7369933044433592,-11.19169566040039,-0.8396946564885496,0.5572519083969466,-1.2595419847328244
3910990513923,1.352551927,1,0.229843359375,1.7202338928222656,-11.200075366210937,-0.8625954198473282,0.5648854961832062,-1.297709923664122
3910996435902,1.358473906,1,0.20949264526367187,1.725022296142578,-11.220426080322264,-0.8244274809160306,0.6106870229007634,-1.3053435114503817
3911002336475,1.364374479,1,0.20350714111328125,1.7477672119140624,-11.228805786132812,-0.7938931297709924,0.6106870229007634,-1.3358778625954197
3911008175954,1.370213958,1,0.22505495605468748,1.7453730102539062,-11.177330450439452,-0.8549618320610687,0.5801526717557252,-1.3358778625954197
3911014073714,1.376111718,1,0.24899697265624998,1.715445489501953,-11.179724652099608,-0.816793893129771,0.5877862595419847,-1.3206106870229009
3911019962412,1.382000416,1,0.22505495605468748,1.6998831787109374,-11.214440576171874,-0.7786259541984732,0.6564885496183206,-1.3129770992366412
3911025895537,1.387933541,1,0.21428104858398436,1.7022773803710936,-11.221623181152344,-0.8549618320610687,0.6259541984732825,-1.3358778625954197
3911031810173,1.393848177,1,0.20829554443359374,1.7178396911621092,-11.222820281982422,-0.8320610687022901,0.6259541984732825,-1.2900763358778626
3911037769235,1.399807239,1,0.21787235107421873,1.7429788085937499,-11.201272467041015,-0.8244274809160306,0.5877862595419847,-1.297709923664122
3911043651371,1.405689375,1,0.2442085693359375,1.7465701110839842,-11.179724652099608,-0.7938931297709924,0.5954198473282443,-1.3129770992366412
3911049541579,1.411579583,1,0.22266075439453123,1.7465701110839842,-11.133037719726563,-0.8244274809160306,0.5343511450381679,-1.3358778625954197
3911055428871,1.417466875,1,0.20470424194335937,1.7082628845214842,-11.186907257080078,-0.816793893129771,0.5267175572519084,-1.3129770992366412
3911061335016,1.42337302,1,0.229843359375,1.714248388671875,-11.188104357910156,-0.8549618320610687,0.5572519083969466,-1.3129770992366412
3911067266787,1.429304791,1,0.2214636535644531,1.734599102783203,-11.179724652099608,-0.7938931297709924,0.5343511450381679,-1.2748091603053435
3911073394235,1.435432239,1,0.23343466186523437,1.7274164978027342,-11.159373937988281,-0.7862595419847328,0.5725190839694656,-1.3053435114503817
3911082470277,1.444508281,1,0.23582886352539062,1.7202338928222656,-11.15338843383789,-0.8473282442748091,0.6259541984732825,-1.3282442748091603
3911088454391,1.450492395,1,0.23104046020507812,1.7022773803710936,-11.188104357910156,-0.8320610687022901,0.6183206106870229,-1.3053435114503817
3911094253193,1.456291197,1,0.24779987182617186,1.715445489501953,-11.200075366210937,-0.8015267175572519,0.5801526717557252,-1.3129770992366412
3911100237621,1.462275625,1,0.24181436767578124,1.7286135986328124,-11.186907257080078,-0.7938931297709924,0.5343511450381679,-1.3511450381679388
3911106146423,1.468184427,1,0.22385785522460935,1.7094599853515624,-11.17254204711914,-0.8244274809160306,0.5572519083969466,-1.3511450381679388
3911111971423,1.474009427,1,0.22026655273437498,1.7417817077636717,-11.192892761230468,-0.8473282442748091,0.5190839694656488,-1.3358778625954197
3911117948193,1.479986197,1,0.23343466186523437,1.715445489501953,-11.195286962890624,-0.8702290076335878,0.5419847328244275,-1.3511450381679388
3911124073402,1.486111406,1,0.24301146850585936,1.70467158203125,-11.195286962890624,-0.8625954198473282,0.5419847328244275,-1.3282442748091603
3911130007621,1.492045625,1,0.23582886352539062,1.7549498168945312,-11.167753643798827,-0.8931297709923665,0.5725190839694656,-1.3435114503816794
3911136088610,1.498126614,1,0.23702596435546874,1.744175909423828,-11.189301458740234,-0.8396946564885496,0.6564885496183206,-1.366412213740458
3911142035433,1.504073437,1,0.2501940734863281,1.714248388671875,-11.165359442138671,-0.8091603053435115,0.6412213740458015,-1.2671755725190839
3911147963558,1.510001562,1,0.23582886352539062,1.7202338928222656,-11.183315954589844,-0.8320610687022901,0.549618320610687,-1.3206106870229009
3911153915798,1.515953802,1,0.23343466186523437,1.714248388671875,-11.215637677001952,-0.8320610687022901,0.5419847328244275,-1.2900763358778626
3911159843558,1.521881562,1,0.2346317626953125,1.7238251953125,-11.195286962890624,-0.8015267175572519,0.5190839694656488,-1.2595419847328244
3911165855589,1.527893593,1,0.22026655273437498,1.7369933044433592,-11.227608685302734,-0.8091603053435115,0.5267175572519084,-1.3435114503816794
3911171808818,1.533846822,1,0.24061726684570311,1.7357962036132812,-11.220426080322264,-0.8320610687022901,0.549618320610687,-1.3969465648854962
3911177733037,1.539771041,1,0.23822306518554687,1.7310078002929687,-11.219228979492186,-0.7633587786259542,0.5343511450381679,-1.3511450381679388
3911183630798,1.545668802,1,0.24301146850585936,1.7274164978027342,-11.215637677001952,-0.7938931297709924,0.5419847328244275,-1.3206106870229009
3911189553714,1.551591718,1,0.25139117431640623,1.7118541870117185,-11.23000288696289,-0.8778625954198473,0.5419847328244275,-1.3435114503816794
3911195387985,1.557425989,1,0.20949264526367187,1.753752716064453,-11.203666668701171,-0.8625954198473282,0.5114503816793893,-1.3282442748091603
3911201339808,1.563377812,1,0.21068974609375,1.7525556152343749,-11.18571015625,-0.8702290076335878,0.5267175572519084,-1.2595419847328244
3911207187152,1.569225156,1,0.22385785522460935,1.714248388671875,-11.189301458740234,-0.8778625954198473,0.549618320610687,-1.3435114503816794
3911213079964,1.575117968,1,0.22026655273437498,1.7381904052734374,-11.23000288696289,-0.8549618320610687,0.5267175572519084,-1.3358778625954197
3911218965798,1.581003802,1,0.21308394775390624,1.7334020019531249,-11.213243475341796,-0.8473282442748091,0.5343511450381679,-1.3282442748091603
3911224848141,1.586886145,1,0.20709844360351562,1.7118541870117185,-11.189301458740234,-0.8778625954198473,0.5725190839694656,-1.3435114503816794
3911230752204,1.592790208,1,0.21787235107421873,1.725022296142578,-11.206060870361327,-0.8625954198473282,0.549618320610687,-1.3206106870229009
3911236648246,1.59868625,1,0.23343466186523437,1.7310078002929687,-11.209652172851563,-0.8091603053435115,0.6106870229007634,-1.3282442748091603
3911242516318,1.604554322,1,0.20949264526367187,1.7310078002929687,-11.206060870361327,-0.8625954198473282,0.5877862595419847,-1.3435114503816794
3911248447725,1.610485729,1,0.24181436767578124,1.7118541870117185,-11.201272467041015,-0.816793893129771,0.5648854961832062,-1.3206106870229009
3911254343662,1.616381666,1,0.239420166015625,1.725022296142578,-11.21084927368164,-0.8244274809160306,0.6335877862595419,-1.3511450381679388
3911260240693,1.622278697,1,0.22385785522460935,1.6998831787109374,-11.200075366210937,-0.7862595419847328,0.5648854961832062,-1.3129770992366412
3911266131683,1.628169687,1,0.22385785522460935,1.7202338928222656,-11.207257971191405,-0.8091603053435115,0.5648854961832062,-1.297709923664122
3911272061683,1.634099687,1,0.22266075439453123,1.7381904052734374,-11.221623181152344,-0.7938931297709924,0.5419847328244275,-1.282442748091603
3911277995537,1.640033541,1,0.21308394775390624,1.7274164978027342,-11.182118853759764,-0.7938931297709924,0.5190839694656488,-1.2671755725190839
3911283920798,1.645958802,1,0.19632453613281248,1.7274164978027342,-11.176133349609374,-0.7938931297709924,0.5267175572519084,-1.2748091603053435
3911289868245,1.651906249,1,0.22026655273437498,1.7405846069335937,-11.195286962890624,-0.7862595419847328,0.5877862595419847,-1.2900763358778626
3911295785850,1.657823854,1,0.2214636535644531,1.734599102783203,-11.179724652099608,-0.7633587786259542,0.5801526717557252,-1.3282442748091603
3911301720329,1.663758333,1,0.23343466186523437,1.714248388671875,-11.184513055419922,-0.7786259541984732,0.5801526717557252,-1.3511450381679388
3911307619860,1.669657864,1,0.21787235107421873,1.7501614135742187,-11.203666668701171,-0.8396946564885496,0.549618320610687,-1.3893129770992367
3911313542204,1.675580208,1,0.2537853759765625,1.7190367919921874,-11.174936248779296,-0.8854961832061069,0.5419847328244275,-1.3206106870229009
3911319430329,1.681468333,1,0.2166752502441406,1.725022296142578,-11.184513055419922,-0.8778625954198473,0.5801526717557252,-1.3206106870229009
3911325337673,1.687375677,1,0.21308394775390624,1.7393875061035156,-11.194089862060546,-0.8625954198473282,0.5648854961832062,-1.3358778625954197
3911331249079,1.693287083,1,0.22505495605468748,1.7357962036132812,-11.19169566040039,-0.8931297709923665,0.5725190839694656,-1.3282442748091603
3911337167516,1.69920552,1,0.22744915771484372,1.7322049011230467,-11.23000288696289,-0.916030534351145,0.549618320610687,-1.3511450381679388
3911343072464,1.705110468,1,0.22505495605468748,1.7130512878417967,-11.184513055419922,-0.8625954198473282,0.5038167938931297,-1.3206106870229009
3911348995485,1.711033489,1,0.23104046020507812,1.7274164978027342,-11.186907257080078,-0.8549618320610687,0.48854961832061067,-1.3053435114503817
3911354901006,1.71693901,1,0.239420166015625,1.7417817077636717,-11.207257971191405,-0.816793893129771,0.549618320610687,-1.3282442748091603
3911360745954,1.722783958,1,0.21906945190429686,1.7381904052734374,-11.202469567871093,-0.7480916030534351,0.549618320610687,-1.3206106870229009
3911366644183,1.728682187,1,0.229843359375,1.7238251953125,-11.214440576171874,-0.8015267175572519,0.5267175572519084,-1.3511450381679388
3911372556058,1.734594062,1,0.2262520568847656,1.7369933044433592,-11.213243475341796,-0.8549618320610687,0.5572519083969466,-1.3893129770992367
3911378450798,1.740488802,1,0.229843359375,1.7334020019531249,-11.215637677001952,-0.8244274809160306,0.5419847328244275,-1.3435114503816794
3911384318662,1.746356666,1,0.23223756103515625,1.7166425903320313,-11.197681164550781,-0.8396946564885496,0.5572519083969466,-1.2671755725190839
3911390213714,1.752251718,1,0.23702596435546874,1.7118541870117185,-11.221623181152344,-0.8702290076335878,0.5648854961832062,-1.3053435114503817
3911396144600,1.758182604,1,0.2346317626953125,1.725022296142578,-11.221623181152344,-0.8778625954198473,0.5343511450381679,-1.2595419847328244
3911402048506,1.76408651,1,0.21188684692382811,1.7166425903320313,-11.2240173828125,-0.8396946564885496,0.5267175572519084,-1.3206106870229009
3911407996995,1.770034999,1,0.1975216369628906,1.7214309936523438,-11.207257971191405,-0.8396946564885496,0.5572519083969466,-1.3129770992366412
3911413938714,1.775976718,1,0.1975216369628906,1.725022296142578,-11.208455072021483,-0.8244274809160306,0.5572519083969466,-1.2595419847328244
3911419850850,1.781888854,1,0.20350714111328125,1.7286135986328124,-11.179724652099608,-0.7709923664122137,0.5725190839694656,-1.2900763358778626
3911425801683,1.787839687,1,0.21787235107421873,1.707065783691406,-11.222820281982422,-0.7786259541984732,0.5343511450381679,-1.3435114503816794
3911431726995,1.793764999,1,0.2214636535644531,1.7477672119140624,-11.176133349609374,-0.8931297709923665,0.5954198473282443,-1.3053435114503817
3911437653975,1.799691979,1,0.23822306518554687,1.7465701110839842,-11.212046374511718,-0.8702290076335878,0.5572519083969466,-1.297709923664122
3911443574964,1.805612968,1,0.2346317626953125,1.7190367919921874,-11.182118853759764,-0.816793893129771,0.5267175572519084,-1.297709923664122
3911449575381,1.811613385,1,0.23223756103515625,1.7190367919921874,-11.177330450439452,-0.8549618320610687,0.5419847328244275,-1.251908396946565
3911455434183,1.817472187,1,0.2154781494140625,1.7262193969726563,-11.218031878662108,-0.8778625954198473,0.5877862595419847,-1.3282442748091603
3911461346735,1.823384739,1,0.23104046020507812,1.7286135986328124,-11.196484063720703,-0.8549618320610687,0.5725190839694656,-1.282442748091603
3911467299600,1.829337604,1,0.21068974609375,1.7357962036132812,-11.221623181152344,-0.9236641221374046,0.5877862595419847,-1.3206106870229009
3911473245225,1.835283229,1,0.23582886352539062,1.7310078002929687,-11.213243475341796,-0.8549618320610687,0.5801526717557252,-1.3587786259541985
3911479132464,1.841170468,1,0.24899697265624998,1.7549498168945312,-11.197681164550781,-0.8396946564885496,0.5648854961832062,-1.3587786259541985
3911485026266,1.84706427,1,0.2442085693359375,1.7310078002929687,-11.212046374511718,-0.8320610687022901,0.549618320610687,-1.3129770992366412
3911490955902,1.852993906,1,0.24181436767578124,1.7453730102539062,-11.174936248779296,-0.7938931297709924,0.5343511450381679,-1.2442748091603053
3911496878089,1.858916093,1,0.2454056701660156,1.7357962036132812,-11.188104357910156,-0.816793893129771,0.5572519083969466,-1.2748091603053435
3911502861214,1.864899218,1,0.22505495605468748,1.7202338928222656,-11.184513055419922,-0.7480916030534351,0.5190839694656488,-1.297709923664122
3911508787829,1.870825833,1,0.22385785522460935,1.7393875061035156,-11.17852755126953,-0.8091603053435115,0.549618320610687,-1.297709923664122
3911514642516,1.87668052,1,0.21188684692382811,1.7369933044433592,-11.170147845458983,-0.8778625954198473,0.5877862595419847,-1.3206106870229009
3911520565745,1.882603749,1,0.2059013427734375,1.7381904052734374,-11.14022032470703,-0.8015267175572519,0.5801526717557252,-1.3206106870229009
3911526495902,1.888533906,1,0.22385785522460935,1.7310078002929687,-11.17852755126953,-0.7633587786259542,0.5267175572519084,-1.213740458015267
3911532399495,1.894437499,1,0.2454056701660156,1.7190367919921874,-11.046846459960937,-0.8778625954198473,0.5190839694656488,-1.3053435114503817
3911538297204,1.900335208,1,0.24061726684570311,1.725022296142578,-11.200075366210937,-0.816793893129771,0.5038167938931297,-1.3206106870229009
3911544192725,1.906230729,1,0.21787235107421873,1.7262193969726563,-11.202469567871093,-0.8396946564885496,0.5190839694656488,-1.3511450381679388
3911550093193,1.912131197,1,0.1927332336425781,1.7298106994628906,-11.188104357910156,-0.8244274809160306,0.5343511450381679,-1.3435114503816794
3911556046683,1.918084687,1,0.22266075439453123,1.7202338928222656,-11.188104357910156,-0.8549618320610687,0.5954198473282443,-1.3358778625954197
3911561982516,1.92402052,1,0.20231004028320312,1.7369933044433592,-11.141417425537108,-0.732824427480916,0.5801526717557252,-1.3282442748091603
3911567923870,1.929961874,1,0.21428104858398436,1.7310078002929687,-11.176133349609374,-0.7938931297709924,0.5648854961832062,-1.3587786259541985
3911573874756,1.93591276,1,0.25737667846679685,1.7393875061035156,-11.188104357910156,-0.7786259541984732,0.5877862595419847,-1.3358778625954197
3911579782829,1.941820833,1,0.25139117431640623,1.7405846069335937,-11.168950744628905,-0.8091603053435115,0.648854961832061,-1.3587786259541985
3911585713141,1.947751145,1,0.22385785522460935,1.7357962036132812,-11.18571015625,-0.816793893129771,0.5648854961832062,-1.297709923664122
3911591607985,1.953645989,1,0.22744915771484372,1.7286135986328124,-11.182118853759764,-0.8320610687022901,0.5725190839694656,-1.282442748091603
3911597542412,1.959580416,1,0.23822306518554687,1.734599102783203,-11.21683477783203,-0.7786259541984732,0.5648854961832062,-1.3129770992366412
3911603429704,1.965467708,1,0.20829554443359374,1.7381904052734374,-11.19887826538086,-0.7938931297709924,0.5343511450381679,-1.3511450381679388
3911609272256,1.97131026,1,0.1975216369628906,1.7214309936523438,-11.19887826538086,-0.8244274809160306,0.549618320610687,-1.3206106870229009
3911615135641,1.977173645,1,0.2154781494140625,1.7429788085937499,-11.176133349609374,-0.8015267175572519,0.6106870229007634,-1.3358778625954197
3911621071318,1.983109322,1,0.2262520568847656,1.744175909423828,-11.203666668701171,-0.7557251908396947,0.6030534351145038,-1.3053435114503817
3911626955068,1.988993072,1,0.21068974609375,1.7513585144042967,-11.186907257080078,-0.8015267175572519,0.5877862595419847,-1.2900763358778626
3911632848350,1.994886354,1,0.23223756103515625,1.7322049011230467,-11.179724652099608,-0.8625954198473282,0.5725190839694656,-1.297709923664122
3911638752412,2.000790416,1,0.2059013427734375,1.7298106994628906,-11.206060870361327,-0.8244274809160306,0.6183206106870229,-1.3053435114503817
3911644623870,2.006661874,1,0.23104046020507812,1.7178396911621092,-11.19887826538086,-0.8473282442748091,0.5877862595419847,-1.3129770992366412
3911650572672,2.012610676,1,0.2166752502441406,1.7262193969726563,-11.18571015625,-0.7557251908396947,0.549618320610687,-1.3206106870229009
3911656482672,2.018520676,1,0.22864625854492185,1.7501614135742187,-11.227608685302734,-0.7786259541984732,0.5877862595419847,-1.3129770992366412
3911662375016,2.02441302,1,0.2442085693359375,1.744175909423828,-11.16057103881836,-0.732824427480916,0.5114503816793893,-1.3358778625954197
3911668296422,2.030334426,1,0.22744915771484372,1.7274164978027342,-11.15338843383789,-0.8091603053435115,0.5572519083969466,-1.3129770992366412
3911674213818,2.036251822,1,0.19871873779296872,1.7381904052734374,-11.212046374511718,-0.8396946564885496,0.5877862595419847,-1.3435114503816794
3911680179183,2.042217187,1,0.2346317626953125,1.7214309936523438,-11.204863769531249,-0.8244274809160306,0.6030534351145038,-1.3358778625954197
3911686122725,2.048160729,1,0.2346317626953125,1.7310078002929687,-11.209652172851563,-0.8396946564885496,0.5038167938931297,-1.3358778625954197
3911692083089,2.054121093,1,0.22026655273437498,1.7405846069335937,-11.186907257080078,-0.8396946564885496,0.5725190839694656,-1.3206106870229009
3911698092568,2.060130572,1,0.21308394775390624,1.7369933044433592,-11.197681164550781,-0.8320610687022901,0.5648854961832062,-1.3053435114503817
3911704032152,2.066070156,1,0.2214636535644531,1.7226280944824217,-11.212046374511718,-0.7862595419847328,0.549618320610687,-1.282442748091603
3911709948662,2.071986666,1,0.2501940734863281,1.7334020019531249,-11.176133349609374,-0.7786259541984732,0.5343511450381679,-1.2748091603053435
3911715862152,2.077900156,1,0.23104046020507812,1.7190367919921874,-11.158176837158203,-0.8015267175572519,0.5954198473282443,-1.3053435114503817
3911721808454,2.083846458,1,0.22266075439453123,1.7190367919921874,-11.162965240478515,-0.8549618320610687,0.5725190839694656,-1.2748091603053435
3911727740277,2.089778281,1,0.20350714111328125,1.7322049011230467,-11.179724652099608,-0.8549618320610687,0.5343511450381679,-1.3206106870229009
3911733653610,2.095691614,1,0.20949264526367187,1.7465701110839842,-11.164162341308593,-0.816793893129771,0.5954198473282443,-1.297709923664122
3911739519808,2.101557812,1,0.21188684692382811,1.7429788085937499,-11.156979736328124,-0.7938931297709924,0.5877862595419847,-1.297709923664122
3911745436839,2.107474843,1,0.24061726684570311,1.763329522705078,-11.183315954589844,-0.8091603053435115,0.6106870229007634,-1.3358778625954197
3911751406839,2.113444843,1,0.2154781494140625,1.7298106994628906,-11.189301458740234,-0.8473282442748091,0.6106870229007634,-1.2900763358778626
3911757386370,2.119424374,1,0.19991583862304688,1.734599102783203,-11.202469567871093,-0.8549618320610687,0.6183206106870229,-1.3053435114503817
3911763308818,2.125346822,1,0.22385785522460935,1.7118541870117185,-11.197681164550781,-0.8396946564885496,0.549618320610687,-1.3893129770992367
3911769257985,2.131295989,1,0.22744915771484372,1.6903063720703124,-11.214440576171874,-0.9007633587786259,0.5572519083969466,-1.3969465648854962
3911775282881,2.137320885,1,0.2262520568847656,1.7130512878417967,-11.189301458740234,-0.8854961832061069,0.5572519083969466,-1.3435114503816794
3911781234235,2.143272239,1,0.229843359375,1.734599102783203,-11.174936248779296,-0.8320610687022901,0.5648854961832062,-1.297709923664122
3911787154287,2.149192291,1,0.22505495605468748,1.7286135986328124,-11.192892761230468,-0.8854961832061069,0.5038167938931297,-1.3129770992366412
3911793069079,2.155107083,1,0.21428104858398436,1.7310078002929687,-11.197681164550781,-0.9236641221374046,0.6106870229007634,-1.3587786259541985
3911798956370,2.160994374,1,0.21188684692382811,1.7417817077636717,-11.201272467041015,-0.8625954198473282,0.6183206106870229,-1.3435114503816794
3911804877047,2.166915051,1,0.24899697265624998,1.7405846069335937,-11.192892761230468,-0.8396946564885496,0.6412213740458015,-1.3435114503816794
3911810805381,2.172843385,1,0.24660277099609373,1.714248388671875,-11.18571015625,-0.8320610687022901,0.6335877862595419,-1.2900763358778626
3911816734443,2.178772447,1,0.25258827514648435,1.7214309936523438,-11.164162341308593,-0.8549618320610687,0.6106870229007634,-1.3129770992366412
3911822685120,2.184723124,1,0.23104046020507812,1.753752716064453,-11.168950744628905,-0.8702290076335878,0.648854961832061,-1.3129770992366412
3911828609704,2.190647708,1,0.21428104858398436,1.7453730102539062,-11.194089862060546,-0.816793893129771,0.6335877862595419,-1.297709923664122
3911834526527,2.196564531,1,0.21308394775390624,1.7417817077636717,-11.200075366210937,-0.8396946564885496,0.5801526717557252,-1.297709923664122
3911840432360,2.202470364,1,0.22744915771484372,1.7262193969726563,-11.200075366210937,-0.8854961832061069,0.5190839694656488,-1.3129770992366412
3911846322308,2.208360312,1,0.24660277099609373,1.7238251953125,-11.227608685302734,-0.8320610687022901,0.5190839694656488,-1.3435114503816794
3911852220068,2.214258072,1,0.239420166015625,1.734599102783203,-11.189301458740234,-0.8244274809160306,0.5801526717557252,-1.3129770992366412
3911858085381,2.220123385,1,0.23223756103515625,1.7525556152343749,-11.155782635498046,-0.8015267175572519,0.5954198473282443,-1.3129770992366412
3911863978349,2.226016353,1,0.23343466186523437,1.7429788085937499,-11.204863769531249,-0.8015267175572519,0.5419847328244275,-1.3740458015267176
3911869937777,2.231975781,1,0.20231004028320312,1.744175909423828,-11.19169566040039,-0.8015267175572519,0.5648854961832062,-1.381679389312977
3911875904756,2.23794276,1,0.20470424194335937,1.7238251953125,-11.17852755126953,-0.8320610687022901,0.5725190839694656,-1.2900763358778626
3911881920277,2.243958281,1,0.21428104858398436,1.7381904052734374,-11.046846459960937,-0.8320610687022901,0.5648854961832062,-1.3129770992366412
3911887843297,2.249881301,1,0.21188684692382811,1.7118541870117185,-11.207257971191405,-0.8396946564885496,0.5038167938931297,-1.2748091603053435
3911893803349,2.255841353,1,0.22266075439453123,1.7429788085937499,-11.192892761230468,-0.8396946564885496,0.5343511450381679,-1.3358778625954197
3911899755016,2.26179302,1,0.21188684692382811,1.7681179260253905,-11.179724652099608,-0.8549618320610687,0.5038167938931297,-1.297709923664122
3911905687204,2.267725208,1,0.22864625854492185,1.7621324218749999,-11.158176837158203,-0.8320610687022901,0.549618320610687,-1.366412213740458
3911911569287,2.273607291,1,0.22266075439453123,1.7190367919921874,-11.145008728027342,-0.7862595419847328,0.5572519083969466,-1.3129770992366412
3911917488870,2.279526874,1,0.258573779296875,1.7274164978027342,-11.188104357910156,-0.816793893129771,0.5648854961832062,-1.3053435114503817
3911923436787,2.285474791,1,0.23343466186523437,1.7226280944824217,-11.171344946289063,-0.7557251908396947,0.6412213740458015,-1.3435114503816794
3911929340589,2.291378593,1,0.2597708801269531,1.7322049011230467,-11.168950744628905,-0.7938931297709924,0.6030534351145038,-1.3358778625954197
3911935248506,2.29728651,1,0.25737667846679685,1.7274164978027342,-11.17254204711914,-0.916030534351145,0.5648854961832062,-1.3206106870229009
3911941156474,2.303194478,1,0.20350714111328125,1.7417817077636717,-11.174936248779296,-0.8091603053435115,0.5572519083969466,-1.3129770992366412
3911947076735,2.309114739,1,0.22026655273437498,1.7322049011230467,-11.200075366210937,-0.816793893129771,0.5343511450381679,-1.3053435114503817
3911952997724,2.315035728,1,0.22026655273437498,1.7238251953125,-11.19169566040039,-0.8473282442748091,0.5343511450381679,-1.2900763358778626
3911958946526,2.32098453,1,0.23104046020507812,1.715445489501953,-11.180921752929686,-0.8625954198473282,0.5343511450381679,-1.3129770992366412
3911964864756,2.32690276,1,0.23223756103515625,1.7310078002929687,-11.15338843383789,-0.8702290076335878,0.5343511450381679,-1.297709923664122
3911970809704,2.332847708,1,0.23702596435546874,1.7322049011230467,-11.171344946289063,-0.8625954198473282,0.46564885496183206,-1.3511450381679388
3911976720381,2.338758385,1,0.24061726684570311,1.7118541870117185,-11.206060870361327,-0.916030534351145,0.6335877862595419,-1.2900763358778626
3911982643558,2.344681562,1,0.19393033447265623,1.734599102783203,-11.207257971191405,-0.8244274809160306,0.6183206106870229,-1.2442748091603053
3911988547933,2.350585937,1,0.21068974609375,1.7310078002929687,-11.203666668701171,-0.8244274809160306,0.5954198473282443,-1.2366412213740459
3911994461422,2.356499426,1,0.2154781494140625,1.7238251953125,-11.162965240478515,-0.8091603053435115,0.6335877862595419,-1.2748091603053435
3912000335120,2.362373124,1,0.21787235107421873,1.715445489501953,-11.179724652099608,-0.816793893129771,0.6106870229007634,-1.2595419847328244
3912006233870,2.368271874,1,0.2214636535644531,1.7286135986328124,-11.174936248779296,-0.8320610687022901,0.5954198473282443,-1.2900763358778626
3912012193870,2.374231874,1,0.22385785522460935,1.7549498168945312,-11.177330450439452,-0.8702290076335878,0.5725190839694656,-1.2748091603053435
3912018101370,2.380139374,1,0.22505495605468748,1.7357962036132812,-11.183315954589844,-0.8778625954198473,0.5877862595419847,-1.2900763358778626
3912023995485,2.386033489,1,0.2262520568847656,1.7501614135742187,-11.19169566040039,-0.8778625954198473,0.6335877862595419,-1.2900763358778626
3912029950693,2.391988697,1,0.24779987182617186,1.7190367919921874,-11.183315954589844,-0.8625954198473282,0.5801526717557252,-1.3206106870229009
3912035950693,2.397988697,1,0.21428104858398436,1.7274164978027342,-11.184513055419922,-0.732824427480916,0.6183206106870229,-1.3358778625954197
3912041929391,2.403967395,1,0.22864625854492185,1.7214309936523438,-11.202469567871093,-0.8015267175572519,0.5954198473282443,-1.3969465648854962
3912047880276,2.40991828,1,0.21428104858398436,1.7178396911621092,-11.17254204711914,-0.7938931297709924,0.5954198473282443,-1.3053435114503817
3912053848037,2.415886041,1,0.22026655273437498,1.7082628845214842,-11.194089862060546,-0.8244274809160306,0.5725190839694656,-1.3206106870229009
3912059790797,2.421828801,1,0.21308394775390624,1.7310078002929687,-11.19169566040039,-0.8778625954198473,0.5114503816793893,-1.3358778625954197
3912065725641,2.427763645,1,0.21428104858398436,1.7561469177246092,-11.17852755126953,-0.8931297709923665,0.5954198473282443,-1.3206106870229009
3912071641266,2.43367927,1,0.22864625854492185,1.7286135986328124,-11.180921752929686,-0.8015267175572519,0.5343511450381679,-1.251908396946565
3912077534287,2.439572291,1,0.2262520568847656,1.7286135986328124,-11.200075366210937,-0.816793893129771,0.6183206106870229,-1.282442748091603
3912083416214,2.445454218,1,0.2262520568847656,1.7381904052734374,-11.190498559570312,-0.8320610687022901,0.5877862595419847,-1.3206106870229009
3912089334808,2.451372812,1,0.23223756103515625,1.734599102783203,-11.200075366210937,-0.8320610687022901,0.5267175572519084,-1.366412213740458
3912095314651,2.457352655,1,0.2214636535644531,1.7226280944824217,-11.207257971191405,-0.8015267175572519,0.5572519083969466,-1.2595419847328244
3912101240693,2.463278697,1,0.22505495605468748,1.734599102783203,-11.18571015625,-0.8320610687022901,0.5801526717557252,-1.282442748091603
3912107157672,2.469195676,1,0.23104046020507812,1.7477672119140624,-11.167753643798827,-0.8625954198473282,0.6030534351145038,-1.3053435114503817
3912113057360,2.475095364,1,0.23104046020507812,1.7405846069335937,-11.180921752929686,-0.8396946564885496,0.6259541984732825,-1.3511450381679388
3912118948974,2.480986978,1,0.24181436767578124,1.7393875061035156,-11.19169566040039,-0.7938931297709924,0.6412213740458015,-1.3587786259541985
3912124861995,2.486899999,1,0.22385785522460935,1.7453730102539062,-11.200075366210937,-0.816793893129771,0.6106870229007634,-1.366412213740458
3912130806839,2.492844843,1,0.23343466186523437,1.7561469177246092,-11.208455072021483,-0.816793893129771,0.6030534351145038,-1.3206106870229009
3912136713558,2.498751562,1,0.23582886352539062,1.753752716064453,-11.166556542968749,-0.8625954198473282,0.6259541984732825,-1.3206106870229009
3912142670016,2.50470802,1,0.22026655273437498,1.734599102783203,-11.149797131347656,-0.8473282442748091,0.5877862595419847,-1.3129770992366412
3912148604391,2.510642395,1,0.229843359375,1.714248388671875,-11.183315954589844,-0.8549618320610687,0.5954198473282443,-1.3435114503816794
3912154502412,2.516540416,1,0.2346317626953125,1.7214309936523438,-11.196484063720703,-0.7862595419847328,0.6030534351145038,-1.3435114503816794
3912160394339,2.522432343,1,0.2214636535644531,1.7286135986328124,-11.196484063720703,-0.816793893129771,0.5343511450381679,-1.366412213740458
3912166306631,2.528344635,1,0.21428104858398436,1.7178396911621092,-11.203666668701171,-0.816793893129771,0.5572519083969466,-1.3206106870229009
3912172229183,2.534267187,1,0.19393033447265623,1.7381904052734374,-11.184513055419922,-0.816793893129771,0.5725190839694656,-1.2900763358778626
3912178121787,2.540159791,1,0.19871873779296872,1.7238251953125,-11.188104357910156,-0.8091603053435115,0.5648854961832062,-1.3435114503816794
3912183999547,2.546037551,1,0.22744915771484372,1.7238251953125,-11.188104357910156,-0.8625954198473282,0.5648854961832062,-1.3435114503816794
3912189975953,2.552013957,1,0.23223756103515625,1.7405846069335937,-11.186907257080078,-0.8778625954198473,0.5877862595419847,-1.3282442748091603
3912195923506,2.55796151,1,0.20709844360351562,1.7334020019531249,-11.2240173828125,-0.8015267175572519,0.5877862595419847,-1.3435114503816794
3912201892099,2.563930103,1,0.19632453613281248,1.7082628845214842,-11.17852755126953,-0.8549618320610687,0.5572519083969466,-1.3358778625954197
3912207839183,2.569877187,1,0.23104046020507812,1.7453730102539062,-11.171344946289063,-0.8244274809160306,0.6030534351145038,-1.3511450381679388
3912213810328,2.575848332,1,0.2537853759765625,1.753752716064453,-11.201272467041015,-0.7557251908396947,0.5725190839694656,-1.3206106870229009
3912219666995,2.581704999,1,0.229843359375,1.7322049011230467,-11.207257971191405,-0.7404580152671756,0.5419847328244275,-1.3511450381679388
3912225658193,2.587696197,1,0.24301146850585936,1.7322049011230467,-11.186907257080078,-0.7938931297709924,0.6030534351145038,-1.3206106870229009
3912231604756,2.59364276,1,0.24061726684570311,1.7274164978027342,-11.218031878662108,-0.7709923664122137,0.5572519083969466,-1.3511450381679388
3912237558453,2.599596457,1,0.21428104858398436,1.7286135986328124,-11.188104357910156,-0.7709923664122137,0.5267175572519084,-1.3206106870229009
3912243444391,2.605482395,1,0.2166752502441406,1.744175909423828,-11.189301458740234,-0.8778625954198473,0.6030534351145038,-1.251908396946565
3912249327568,2.611365572,1,0.23104046020507812,1.7262193969726563,-11.18571015625,-0.9083969465648855,0.6412213740458015,-1.3053435114503817
3912255292151,2.617330155,1,0.23343466186523437,1.7453730102539062,-11.166556542968749,-0.8244274809160306,0.5801526717557252,-1.3129770992366412
3912261218193,2.623256197,1,0.21428104858398436,1.7262193969726563,-11.218031878662108,-0.8854961832061069,0.5725190839694656,-1.3206106870229009
3912267110589,2.629148593,1,0.229843359375,1.7262193969726563,-11.189301458740234,-0.916030534351145,0.5954198473282443,-1.3740458015267176
3912273018818,2.635056822,1,0.2059013427734375,1.7334020019531249,-11.179724652099608,-0.7938931297709924,0.5954198473282443,-1.3435114503816794
3912278968506,2.64100651,1,0.20949264526367187,1.7334020019531249,-11.180921752929686,-0.7938931297709924,0.5725190839694656,-1.3587786259541985
3912284883818,2.646921822,1,0.1879448303222656,1.7513585144042967,-11.206060870361327,-0.8702290076335878,0.5419847328244275,-1.3435114503816794
3912290779703,2.652817707,1,0.20709844360351562,1.7334020019531249,-11.188104357910156,-0.8396946564885496,0.5572519083969466,-1.3053435114503817
3912296687464,2.658725468,1,0.23822306518554687,1.7381904052734374,-11.179724652099608,-0.8320610687022901,0.4961832061068702,-1.3206106870229009
3912302643714,2.664681718,1,0.24779987182617186,1.7130512878417967,-11.154585534667968,-0.8091603053435115,0.6030534351145038,-1.3282442748091603
3912308547203,2.670585207,1,0.21188684692382811,1.7310078002929687,-11.219228979492186,-0.8320610687022901,0.6183206106870229,-1.3282442748091603
3912314460537,2.676498541,1,0.239420166015625,1.7082628845214842,-11.212046374511718,-0.8549618320610687,0.5572519083969466,-1.3358778625954197
3912320406370,2.682444374,1,0.2166752502441406,1.7238251953125,-11.190498559570312,-0.8244274809160306,0.5419847328244275,-1.3435114503816794
3912326272412,2.688310416,1,0.25139117431640623,1.744175909423828,-11.197681164550781,-0.8396946564885496,0.648854961832061,-1.3053435114503817
3912332172464,2.694210468,1,0.239420166015625,1.7322049011230467,-11.238382592773437,-0.7862595419847328,0.6641221374045801,-1.3053435114503817
3912338071787,2.700109791,1,0.23104046020507812,1.7357962036132812,-11.166556542968749,-0.7862595419847328,0.5725190839694656,-1.3511450381679388
3912344029443,2.706067447,1,0.22505495605468748,1.7130512878417967,-11.214440576171874,-0.8320610687022901,0.549618320610687,-1.3358778625954197
3912349940849,2.711978853,1,0.22505495605468748,1.7334020019531249,-11.220426080322264,-0.8549618320610687,0.5343511450381679,-1.3053435114503817
3912355857620,2.717895624,1,0.2059013427734375,1.744175909423828,-11.182118853759764,-0.8396946564885496,0.5877862595419847,-1.3282442748091603
3912361717880,2.723755884,1,0.23702596435546874,1.7405846069335937,-11.208455072021483,-0.8244274809160306,0.6030534351145038,-1.3129770992366412
3912367733662,2.729771666,1,0.23702596435546874,1.7465701110839842,-11.213243475341796,-0.8854961832061069,0.6564885496183206,-1.3587786259541985
3912373644547,2.735682551,1,0.21787235107421873,1.7334020019531249,-11.227608685302734,-0.8702290076335878,0.6030534351145038,-1.3587786259541985
3912379501735,2.741539739,1,0.22026655273437498,1.7082628845214842,-11.23000288696289,-0.8702290076335878,0.5190839694656488,-1.3053435114503817
3912385365120,2.747403124,1,0.22744915771484372,1.7286135986328124,-11.183315954589844,-0.9083969465648855,0.5267175572519084,-1.282442748091603
3912391258974,2.753296978,1,0.2262520568847656,1.734599102783203,-11.188104357910156,-0.8015267175572519,0.5572519083969466,-1.3206106870229009
3912397182412,2.759220416,1,0.19153613281249998,1.7166425903320313,-11.203666668701171,-0.7862595419847328,0.6412213740458015,-1.3435114503816794
3912403115485,2.765153489,1,0.21308394775390624,1.7238251953125,-11.204863769531249,-0.8396946564885496,0.5725190839694656,-1.3053435114503817
3912409021370,2.771059374,1,0.2262520568847656,1.7262193969726563,-11.203666668701171,-0.8473282442748091,0.6259541984732825,-1.297709923664122
3912414882776,2.77692078,1,0.19153613281249998,1.7525556152343749,-11.196484063720703,-0.7786259541984732,0.6335877862595419,-1.381679389312977
3912420780380,2.782818384,1,0.22864625854492185,1.7262193969726563,-11.196484063720703,-0.7786259541984732,0.549618320610687,-1.3435114503816794
3912426653714,2.788691718,1,0.19871873779296872,1.7405846069335937,-11.209652172851563,-0.916030534351145,0.549618320610687,-1.3206106870229009
3912432572620,2.794610624,1,0.21068974609375,1.7393875061035156,-11.162965240478515,-0.8320610687022901,0.5725190839694656,-1.3358778625954197
3912438525380,2.800563384,1,0.21188684692382811,1.7286135986328124,-11.195286962890624,-0.7557251908396947,0.549618320610687,-1.3129770992366412
3912444457516,2.80649552,1,0.23223756103515625,1.7393875061035156,-11.174936248779296,-0.7786259541984732,0.5572519083969466,-1.3893129770992367
3912450348453,2.812386457,1,0.22505495605468748,1.7130512878417967,-11.21084927368164,-0.8625954198473282,0.5801526717557252,-1.3053435114503817
3912456247203,2.818285207,1,0.23104046020507812,1.7274164978027342,-11.213243475341796,-0.8320610687022901,0.5648854961832062,-1.282442748091603
3912462151578,2.824189582,1,0.24899697265624998,1.7310078002929687,-11.19169566040039,-0.8396946564885496,0.5343511450381679,-1.2900763358778626
3912468108349,2.830146353,1,0.2442085693359375,1.7238251953125,-11.209652172851563,-0.8015267175572519,0.6030534351145038,-1.3435114503816794
3912474032985,2.836070989,1,0.24301146850585936,1.7106570861816406,-11.150994232177734,-0.7938931297709924,0.648854961832061,-1.3206106870229009
3912479955016,2.84199302,1,0.23104046020507812,1.725022296142578,-11.164162341308593,-0.7633587786259542,0.549618320610687,-1.3129770992366412
3912485868297,2.847906301,1,0.2214636535644531,1.7417817077636717,-11.177330450439452,-0.8396946564885496,0.5648854961832062,-1.2671755725190839
3912491780485,2.853818489,1,0.21428104858398436,1.7405846069335937,-11.213243475341796,-0.7862595419847328,0.6106870229007634,-1.3435114503816794
3912497697047,2.859735051,1,0.24181436767578124,1.715445489501953,-11.183315954589844,-0.7633587786259542,0.5190839694656488,-1.3358778625954197
3912503599443,2.865637447,1,0.23223756103515625,1.7130512878417967,-11.179724652099608,-0.8320610687022901,0.48854961832061067,-1.2900763358778626
3912509497151,2.871535155,1,0.22026655273437498,1.7178396911621092,-11.182118853759764,-0.8549618320610687,0.48091603053435117,-1.3206106870229009
3912515426005,2.877464009,1,0.2262520568847656,1.744175909423828,-11.171344946289063,-0.7938931297709924,0.5877862595419847,-1.3053435114503817
3912521322672,2.883360676,1,0.22864625854492185,1.7573440185546874,-11.18571015625,-0.7786259541984732,0.5038167938931297,-1.3282442748091603
3912527256787,2.889294791,1,0.19153613281249998,1.7106570861816406,-11.197681164550781,-0.8778625954198473,0.5114503816793893,-1.3435114503816794
3912533176839,2.895214843,1,0.21428104858398436,1.715445489501953,-11.184513055419922,-0.8778625954198473,0.5267175572519084,-1.381679389312977
3912538975276,2.90101328,1,0.23343466186523437,1.7334020019531249,-11.188104357910156,-0.8244274809160306,0.5114503816793893,-1.3511450381679388
3912544860797,2.906898801,1,0.2214636535644531,1.6938976745605467,-11.158176837158203,-0.8244274809160306,0.5267175572519084,-1.3129770992366412
3912550720693,2.912758697,1,0.2346317626953125,1.6986860778808592,-11.184513055419922,-0.816793893129771,0.5648854961832062,-1.2900763358778626
3912556609599,2.918647603,1,0.2501940734863281,1.714248388671875,-11.245565197753905,-0.7862595419847328,0.5267175572519084,-1.3511450381679388
3912562500172,2.924538176,1,0.22026655273437498,1.7429788085937499,-11.21683477783203,-0.7938931297709924,0.5419847328244275,-1.3206106870229009
3912568398662,2.930436666,1,0.21906945190429686,1.7322049011230467,-11.222820281982422,-0.8549618320610687,0.5648854961832062,-1.297709923664122
3912574292932,2.936330936,1,0.22385785522460935,1.753752716064453,-11.18571015625,-0.8473282442748091,0.5648854961832062,-1.2671755725190839
3912580227047,2.942265051,1,0.22744915771484372,1.7513585144042967,-11.213243475341796,-0.7786259541984732,0.5419847328244275,-1.2595419847328244
3912586116630,2.948154634,1,0.2454056701660156,1.7310078002929687,-11.32577095336914,-0.8396946564885496,0.6030534351145038,-1.2748091603053435
3912591989860,2.954027864,1,0.2346317626953125,1.734599102783203,-11.196484063720703,-0.8091603053435115,0.5954198473282443,-1.366412213740458
3912597910016,2.95994802,1,0.2214636535644531,1.7429788085937499,-11.197681164550781,-0.8320610687022901,0.549618320610687,-1.3282442748091603
3912603825120,2.965863124,1,0.21787235107421873,1.7334020019531249,-11.192892761230468,-0.7709923664122137,0.5038167938931297,-1.297709923664122
3912609798401,2.971836405,1,0.21068974609375,1.7178396911621092,-11.215637677001952,-0.8244274809160306,0.549618320610687,-1.3053435114503817
3912615668297,2.977706301,1,0.23702596435546874,1.7106570861816406,-11.208455072021483,-0.8244274809160306,0.5572519083969466,-1.3053435114503817
3912621578297,2.983616301,1,0.229843359375,1.7262193969726563,-11.21084927368164,-0.8244274809160306,0.5190839694656488,-1.3053435114503817
3912627447412,2.989485416,1,0.2166752502441406,1.7405846069335937,-11.219228979492186,-0.816793893129771,0.5648854961832062,-1.282442748091603
3912633376526,2.99541453,1,0.22026655273437498,1.7202338928222656,-11.173739147949219,-0.816793893129771,0.5801526717557252,-1.3435114503816794
3912639272047,3.001310051,1,0.22026655273437498,1.7238251953125,-11.18571015625,-0.8320610687022901,0.6259541984732825,-1.3053435114503817
3912645162360,3.007200364,1,0.2346317626953125,1.7322049011230467,-11.21683477783203,-0.8091603053435115,0.5648854961832062,-1.297709923664122
3912651034651,3.013072655,1,0.2454056701660156,1.7202338928222656,-11.19169566040039,-0.8549618320610687,0.5877862595419847,-1.3358778625954197
3912656928037,3.018966041,1,0.20350714111328125,1.7585411193847655,-11.149797131347656,-0.8396946564885496,0.5648854961832062,-1.3282442748091603
3912662831057,3.024869061,1,0.20829554443359374,1.7310078002929687,-11.165359442138671,-0.7862595419847328,0.5648854961832062,-1.3282442748091603
3912668758766,3.03079677,1,0.22266075439453123,1.7238251953125,-11.174936248779296,-0.8091603053435115,0.5877862595419847,-1.2900763358778626
3912674648037,3.036686041,1,0.19871873779296872,1.7477672119140624,-11.228805786132812,-0.916030534351145,0.5190839694656488,-1.3206106870229009
3912680566162,3.042604166,1,0.21068974609375,1.7405846069335937,-11.203666668701171,-0.8778625954198473,0.5190839694656488,-1.3511450381679388
3912686485016,3.04852302,1,0.23343466186523437,1.7226280944824217,-11.158176837158203,-0.8625954198473282,0.5801526717557252,-1.3282442748091603
3912692407047,3.054445051,1,0.24301146850585936,1.7393875061035156,-11.156979736328124,-0.8702290076335878,0.6259541984732825,-1.3129770992366412
3912698421266,3.06045927,1,0.20949264526367187,1.7549498168945312,-11.208455072021483,-0.816793893129771,0.5190839694656488,-1.3282442748091603
3912704343922,3.066381926,1,0.23104046020507812,1.763329522705078,-11.195286962890624,-0.7480916030534351,0.5267175572519084,-1.3435114503816794
3912710242672,3.072280676,1,0.239420166015625,1.7322049011230467,-11.214440576171874,-0.7938931297709924,0.5267175572519084,-1.3435114503816794
3912716162776,3.07820078,1,0.21787235107421873,1.7310078002929687,-11.17852755126953,-0.8625954198473282,0.6106870229007634,-1.3358778625954197
3912722050068,3.084088072,1,0.22026655273437498,1.7178396911621092,-11.1474029296875,-0.8625954198473282,0.5877862595419847,-1.282442748091603
3912727966214,3.090004218,1,0.22385785522460935,1.7166425903320313,-11.201272467041015,-0.8549618320610687,0.5801526717557252,-1.3129770992366412
3912733960901,3.095998905,1,0.21188684692382811,1.7130512878417967,-11.192892761230468,-0.8931297709923665,0.6183206106870229,-1.3129770992366412
3912739885953,3.101923957,1,0.2262520568847656,1.7166425903320313,-11.16057103881836,-0.8320610687022901,0.5877862595419847,-1.3129770992366412
3912745842724,3.107880728,1,0.21787235107421873,1.7190367919921874,-11.200075366210937,-0.8091603053435115,0.5801526717557252,-1.2748091603053435
3912751744860,3.113782864,1,0.2214636535644531,1.7262193969726563,-11.21683477783203,-0.8702290076335878,0.5190839694656488,-1.3053435114503817
3912757675953,3.119713957,1,0.21906945190429686,1.7190367919921874,-11.235988391113281,-0.8396946564885496,0.6412213740458015,-1.3129770992366412
3912763503922,3.125541926,1,0.24061726684570311,1.7489643127441405,-11.177330450439452,-0.8015267175572519,0.5801526717557252,-1.2748091603053435
3912769449391,3.131487395,1,0.2154781494140625,1.7429788085937499,-11.213243475341796,-0.8320610687022901,0.549618320610687,-1.3053435114503817
3912775411995,3.137449999,1,0.21428104858398436,1.725022296142578,-11.228805786132812,-0.8396946564885496,0.5801526717557252,-1.3435114503816794
3912781347672,3.143385676,1,0.23582886352539062,1.7238251953125,-11.190498559570312,-0.7938931297709924,0.549618320610687,-1.3587786259541985
3912787236682,3.149274686,1,0.22505495605468748,1.7334020019531249,-11.186907257080078,-0.816793893129771,0.5648854961832062,-1.3206106870229009
3912793205745,3.155243749,1,0.22026655273437498,1.7226280944824217,-11.164162341308593,-0.8778625954198473,0.549618320610687,-1.3053435114503817
3912799150797,3.161188801,1,0.22505495605468748,1.7166425903320313,-11.168950744628905,-0.8625954198473282,0.6030534351145038,-1.2442748091603053
3912805081005,3.167119009,1,0.21068974609375,1.7106570861816406,-11.184513055419922,-0.8320610687022901,0.5801526717557252,-1.3358778625954197
3912810981839,3.173019843,1,0.2262520568847656,1.7214309936523438,-11.036072552490234,-0.9007633587786259,0.5572519083969466,-1.2900763358778626
3912816891787,3.178929791,1,0.21068974609375,1.715445489501953,-11.18571015625,-0.9007633587786259,0.5954198473282443,-1.297709923664122
3912822748245,3.184786249,1,0.2262520568847656,1.7465701110839842,-11.213243475341796,-0.816793893129771,0.6183206106870229,-1.2671755725190839
3912828599859,3.190637863,1,0.2059013427734375,1.7477672119140624,-11.194089862060546,-0.8473282442748091,0.5801526717557252,-1.2671755725190839
3912834493557,3.196531561,1,0.21428104858398436,1.7226280944824217,-11.212046374511718,-0.8015267175572519,0.5877862595419847,-1.2748091603053435
3912840395797,3.202433801,1,0.23343466186523437,1.7262193969726563,-11.203666668701171,-0.8091603053435115,0.5877862595419847,-1.3358778625954197
3912846295068,3.208333072,1,0.22864625854492185,1.7369933044433592,-11.188104357910156,-0.8015267175572519,0.5954198473282443,-1.3740458015267176
3912852231995,3.214269999,1,0.20350714111328125,1.7094599853515624,-11.21683477783203,-0.8473282442748091,0.6259541984732825,-1.3129770992366412
3912858142828,3.220180832,1,0.23223756103515625,1.7369933044433592,-11.184513055419922,-0.8702290076335878,0.6412213740458015,-1.282442748091603
3912864049495,3.226087499,1,0.21428104858398436,1.6998831787109374,-11.218031878662108,-0.8091603053435115,0.5954198473282443,-1.2748091603053435
3912869935276,3.23197328,1,0.21787235107421873,1.7238251953125,-11.194089862060546,-0.8244274809160306,0.5648854961832062,-1.3206106870229009
3912875931214,3.237969218,1,0.1975216369628906,1.7561469177246092,-11.23718549194336,-0.8549618320610687,0.648854961832061,-1.3511450381679388
3912881863974,3.243901978,1,0.22864625854492185,1.7226280944824217,-11.176133349609374,-0.7786259541984732,0.5877862595419847,-1.366412213740458
3912887774807,3.249812811,1,0.2262520568847656,1.7022773803710936,-11.188104357910156,-0.7709923664122137,0.4961832061068702,-1.297709923664122
3912893686682,3.255724686,1,0.23104046020507812,1.7082628845214842,-11.17254204711914,-0.8473282442748091,0.5801526717557252,-1.282442748091603
3912899580328,3.261618332,1,0.20470424194335937,1.7118541870117185,-11.179724652099608,-0.7938931297709924,0.6183206106870229,-1.3206106870229009
3912905479651,3.267517655,1,0.21906945190429686,1.7298106994628906,-11.184513055419922,-0.7557251908396947,0.549618320610687,-1.3511450381679388
3912911402307,3.273440311,1,0.20829554443359374,1.734599102783203,-11.206060870361327,-0.816793893129771,0.5267175572519084,-1.3282442748091603
3912917276943,3.279314947,1,0.21787235107421873,1.7453730102539062,-11.19887826538086,-0.8396946564885496,0.5877862595419847,-1.2671755725190839
3912923181578,3.285219582,1,0.24061726684570311,1.7286135986328124,-11.158176837158203,-0.8320610687022901,0.6641221374045801,-1.3053435114503817
3912929079182,3.291117186,1,0.2501940734863281,1.7214309936523438,-11.212046374511718,-0.8015267175572519,0.5877862595419847,-1.2900763358778626
3912934964234,3.297002238,1,0.24660277099609373,1.7190367919921874,-11.231199987792968,-0.816793893129771,0.5419847328244275,-1.3740458015267176
3912940868818,3.302906822,1,0.19871873779296872,1.7202338928222656,-11.17852755126953,-0.8015267175572519,0.549618320610687,-1.366412213740458
3912946723193,3.308761197,1,0.21906945190429686,1.7513585144042967,-11.19887826538086,-0.816793893129771,0.45038167938931295,-1.3358778625954197
3912952618870,3.314656874,1,0.21188684692382811,1.725022296142578,-11.188104357910156,-0.8778625954198473,0.48854961832061067,-1.3435114503816794
3912958485849,3.320523853,1,0.23223756103515625,1.715445489501953,-11.17254204711914,-0.9007633587786259,0.5419847328244275,-1.3053435114503817
3912964383453,3.326421457,1,0.23223756103515625,1.7405846069335937,-11.15338843383789,-0.8091603053435115,0.5877862595419847,-1.3435114503816794
3912970285328,3.332323332,1,0.2166752502441406,1.7357962036132812,-11.196484063720703,-0.7786259541984732,0.5725190839694656,-1.3282442748091603
3912976150537,3.338188541,1,0.24779987182617186,1.7465701110839842,-11.179724652099608,-0.8778625954198473,0.6030534351145038,-1.3206106870229009
3912982058141,3.344096145,1,0.22026655273437498,1.7298106994628906,-11.196484063720703,-0.7938931297709924,0.5954198473282443,-1.3435114503816794
3912987978297,3.350016301,1,0.2214636535644531,1.7393875061035156,-11.17852755126953,-0.7709923664122137,0.5725190839694656,-1.3282442748091603
3912993937307,3.355975311,1,0.19632453613281248,1.7393875061035156,-11.18571015625,-0.8091603053435115,0.5572519083969466,-1.3206106870229009
3912999850849,3.361888853,1,0.2166752502441406,1.7369933044433592,-11.208455072021483,-0.8091603053435115,0.5877862595419847,-1.2748091603053435
3913005998870,3.368036874,1,0.23223756103515625,1.7405846069335937,-11.219228979492186,-0.8015267175572519,0.5725190839694656,-1.2671755725190839
3913012033714,3.374071718,1,0.24181436767578124,1.7298106994628906,-11.202469567871093,-0.8015267175572519,0.6259541984732825,-1.297709923664122
3913017920589,3.379958593,1,0.2262520568847656,1.734599102783203,-11.207257971191405,-0.9465648854961832,0.5954198473282443,-1.3053435114503817
3913023806995,3.385844999,1,0.22744915771484372,1.7226280944824217,-11.227608685302734,-0.916030534351145,0.5267175572519084,-1.366412213740458
3913029797880,3.391835884,1,0.239420166015625,1.7118541870117185,-11.202469567871093,-0.8931297709923665,0.5648854961832062,-1.2748091603053435
3913035678974,3.397716978,1,0.2166752502441406,1.714248388671875,-11.336544860839844,-0.9007633587786259,0.5343511450381679,-1.2595419847328244
3913041588557,3.403626561,1,0.2059013427734375,1.7381904052734374,-11.202469567871093,-0.8473282442748091,0.5954198473282443,-1.2595419847328244
3913047480745,3.409518749,1,0.21428104858398436,1.715445489501953,-11.202469567871093,-0.7786259541984732,0.5725190839694656,-1.297709923664122
3913053373974,3.415411978,1,0.22864625854492185,1.7118541870117185,-11.204863769531249,-0.7709923664122137,0.46564885496183206,-1.3129770992366412
3913059268714,3.421306718,1,0.23223756103515625,1.7357962036132812,-11.16057103881836,-0.816793893129771,0.4732824427480916,-1.3053435114503817
3913065166474,3.427204478,1,0.22864625854492185,1.7202338928222656,-11.17852755126953,-0.8091603053435115,0.648854961832061,-1.3587786259541985
3913071069026,3.43310703,1,0.19512743530273435,1.7178396911621092,-11.159373937988281,-0.7099236641221374,0.5725190839694656,-1.3053435114503817
3913076956786,3.43899479,1,0.23582886352539062,1.7202338928222656,-11.155782635498046,-0.816793893129771,0.6259541984732825,-1.3358778625954197
3913082839703,3.444877707,1,0.22505495605468748,1.7202338928222656,-11.180921752929686,-0.8549618320610687,0.5954198473282443,-1.2900763358778626
3913088762411,3.450800415,1,0.19153613281249998,1.7226280944824217,-11.180921752929686,-0.8396946564885496,0.5725190839694656,-1.3053435114503817
3913094639703,3.456677707,1,0.201112939453125,1.6986860778808592,-11.150994232177734,-0.8625954198473282,0.5725190839694656,-1.3129770992366412
3913100557411,3.462595415,1,0.22505495605468748,1.7501614135742187,-11.197681164550781,-0.8244274809160306,0.6641221374045801,-1.3587786259541985
3913106530068,3.468568072,1,0.2262520568847656,1.7310078002929687,-11.19169566040039,-0.7633587786259542,0.5648854961832062,-1.3129770992366412
3913112501214,3.474539218,1,0.22385785522460935,1.7298106994628906,-11.171344946289063,-0.8320610687022901,0.5267175572519084,-1.297709923664122
3913118496526,3.48053453,1,0.20709844360351562,1.7453730102539062,-11.182118853759764,-0.8244274809160306,0.5419847328244275,-1.3358778625954197
3913124392672,3.486430676,1,0.22266075439453123,1.7561469177246092,-11.174936248779296,-0.8549618320610687,0.6335877862595419,-1.3282442748091603
3913130263141,3.492301145,1,0.2549824768066406,1.7573440185546874,-11.177330450439452,-0.8244274809160306,0.5572519083969466,-1.3282442748091603
3913136129703,3.498167707,1,0.23104046020507812,1.734599102783203,-11.204863769531249,-0.8396946564885496,0.549618320610687,-1.3206106870229009
3913142012932,3.504050936,1,0.23702596435546874,1.715445489501953,-11.192892761230468,-0.9083969465648855,0.6259541984732825,-1.3206106870229009
3913147939807,3.509977811,1,0.2154781494140625,1.734599102783203,-11.202469567871093,-0.8015267175572519,0.6106870229007634,-1.3282442748091603
3913153839807,3.515877811,1,0.22864625854492185,1.7214309936523438,-11.196484063720703,-0.7862595419847328,0.5801526717557252,-1.3053435114503817
3913159761057,3.521799061,1,0.20949264526367187,1.725022296142578,-11.150994232177734,-0.8320610687022901,0.5725190839694656,-1.3435114503816794
3913165682672,3.527720676,1,0.23223756103515625,1.7130512878417967,-11.19887826538086,-0.8015267175572519,0.5648854961832062,-1.366412213740458
3913171562151,3.533600155,1,0.1867477294921875,1.7334020019531249,-11.166556542968749,-0.8015267175572519,0.5877862595419847,-1.3740458015267176
3913177481526,3.53951953,1,0.21308394775390624,1.753752716064453,-11.196484063720703,-0.7709923664122137,0.5572519083969466,-1.3282442748091603
3913184778661,3.546816665,1,0.2166752502441406,1.7298106994628906,-11.165359442138671,-0.8473282442748091,0.6106870229007634,-1.3053435114503817
3913192122359,3.554160363,1,0.23104046020507812,1.7322049011230467,-11.194089862060546,-0.7862595419847328,0.5648854961832062,-1.297709923664122
3913199450641,3.561488645,1,0.2166752502441406,1.7585411193847655,-11.165359442138671,-0.8320610687022901,0.5725190839694656,-1.3129770992366412
3913206747307,3.568785311,1,0.239420166015625,1.7513585144042967,-11.195286962890624,-0.8244274809160306,0.5114503816793893,-1.3358778625954197
3913214041526,3.57607953,1,0.2442085693359375,1.725022296142578,-11.180921752929686,-0.732824427480916,0.5419847328244275,-1.3435114503816794
3913221349286,3.58338729,1,0.23223756103515625,1.7202338928222656,-11.171344946289063,-0.8778625954198473,0.6259541984732825,-1.3053435114503817
3913228707099,3.590745103,1,0.25139117431640623,1.7334020019531249,-11.179724652099608,-0.8854961832061069,0.6183206106870229,-1.2748091603053435
3913236077463,3.598115467,1,0.22864625854492185,1.7262193969726563,-11.182118853759764,-0.7862595419847328,0.549618320610687,-1.297709923664122
3913243309859,3.605347863,1,0.23104046020507812,1.7369933044433592,-11.197681164550781,-0.8320610687022901,0.5572519083969466,-1.3053435114503817
3913250600432,3.612638436,1,0.20470424194335937,1.7178396911621092,-11.188104357910156,-0.7480916030534351,0.5725190839694656,-1.282442748091603
3913257852620,3.619890624,1,0.22266075439453123,1.7118541870117185,-11.152191333007812,-0.8091603053435115,0.6183206106870229,-1.2366412213740459
3913265139599,3.627177603,1,0.21787235107421873,1.7310078002929687,-11.180921752929686,-0.8320610687022901,0.6106870229007634,-1.2671755725190839
3913272386474,3.634424478,1,0.2442085693359375,1.7286135986328124,-11.19169566040039,-0.8549618320610687,0.6564885496183206,-1.2671755725190839
3913279685953,3.641723957,1,0.2346317626953125,1.7262193969726563,-11.19169566040039,-0.8625954198473282,0.6641221374045801,-1.297709923664122
3913287015224,3.649053228,1,0.24660277099609373,1.7022773803710936,-11.207257971191405,-0.9007633587786259,0.6412213740458015,-1.3053435114503817
3913294372151,3.656410155,1,0.22266075439453123,1.7118541870117185,-11.201272467041015,-0.7786259541984732,0.4732824427480916,-1.2595419847328244
3913301722776,3.66376078,1,0.21308394775390624,1.7166425903320313,-11.204863769531249,-0.8396946564885496,0.549618320610687,-1.2900763358778626
3913309060224,3.671098228,1,0.229843359375,1.7369933044433592,-11.215637677001952,-0.8015267175572519,0.6183206106870229,-1.282442748091603
3913316354807,3.678392811,1,0.201112939453125,1.7274164978027342,-11.213243475341796,-0.7938931297709924,0.5877862595419847,-1.3282442748091603
3913323666682,3.685704686,1,0.1927332336425781,1.7417817077636717,-11.197681164550781,-0.8320610687022901,0.6183206106870229,-1.2900763358778626
3913330951995,3.692989999,1,0.20829554443359374,1.7465701110839842,-11.201272467041015,-0.7862595419847328,0.6793893129770993,-1.3969465648854962
3913338287307,3.700325311,1,0.22385785522460935,1.7166425903320313,-11.204863769531249,-0.7404580152671756,0.5419847328244275,-1.3740458015267176
3913345488766,3.70752677,1,0.20949264526367187,1.7381904052734374,-11.234791290283203,-0.8320610687022901,0.6412213740458015,-1.3358778625954197
3913352853193,3.714891197,1,0.2262520568847656,1.7453730102539062,-11.209652172851563,-0.8244274809160306,0.549618320610687,-1.3358778625954197
3913360167047,3.722205051,1,0.24660277099609373,1.7417817077636717,-11.330559356689452,-0.8549618320610687,0.5725190839694656,-1.3129770992366412
3913367462932,3.729500936,1,0.22266075439453123,1.7597382202148437,-11.179724652099608,-0.8473282442748091,0.6412213740458015,-1.3129770992366412
3913374758557,3.736796561,1,0.2154781494140625,1.7381904052734374,-11.166556542968749,-0.7862595419847328,0.5343511450381679,-1.2671755725190839
3913382133818,3.744171822,1,0.21188684692382811,1.7501614135742187,-11.165359442138671,-0.8473282442748091,0.5419847328244275,-1.3206106870229009
3913389438713,3.751476717,1,0.23343466186523437,1.7226280944824217,-11.208455072021483,-0.8625954198473282,0.6183206106870229,-1.3129770992366412
3913396776370,3.758814374,1,0.22026655273437498,1.734599102783203,-11.174936248779296,-0.7862595419847328,0.5725190839694656,-1.2595419847328244
3913404379963,3.766417967,1,0.21188684692382811,1.7381904052734374,-11.117475408935546,-0.8320610687022901,0.5725190839694656,-1.282442748091603
3913411791005,3.773829009,1,0.25139117431640623,1.7453730102539062,-11.167753643798827,-0.8549618320610687,0.5801526717557252,-1.2900763358778626
3913419139599,3.781177603,1,0.23343466186523437,1.7298106994628906,-11.203666668701171,-0.8625954198473282,0.5114503816793893,-1.282442748091603
3913426508088,3.788546092,1,0.22026655273437498,1.7453730102539062,-11.192892761230468,-0.916030534351145,0.6259541984732825,-1.3358778625954197
3913433808609,3.795846613,1,0.2059013427734375,1.7166425903320313,-11.177330450439452,-0.8549618320610687,0.5801526717557252,-1.297709923664122
3913441380068,3.803418072,1,0.24061726684570311,1.7334020019531249,-11.213243475341796,-0.8091603053435115,0.5038167938931297,-1.2366412213740459
3913449269286,3.81130729,1,0.22026655273437498,1.7501614135742187,-11.21084927368164,-0.8244274809160306,0.6717557251908397,-1.3206106870229009
3913456677047,3.818715051,1,0.22864625854492185,1.7226280944824217,-11.179724652099608,-0.7938931297709924,0.6106870229007634,-1.3435114503816794
3913463987099,3.826025103,1,0.21787235107421873,1.695094775390625,-11.183315954589844,-0.8473282442748091,0.6335877862595419,-1.282442748091603
3913471321734,3.833359738,1,0.24061726684570311,1.7465701110839842,-11.207257971191405,-0.8320610687022901,0.5877862595419847,-1.3129770992366412
3913478651578,3.840689582,1,0.21308394775390624,1.7405846069335937,-11.231199987792968,-0.8015267175572519,0.5572519083969466,-1.282442748091603
3913486104859,3.848142863,1,0.22744915771484372,1.7393875061035156,-11.177330450439452,-0.8396946564885496,0.6030534351145038,-1.2900763358778626
3913493441005,3.855479009,1,0.25258827514648435,1.734599102783203,-11.164162341308593,-0.816793893129771,0.6183206106870229,-1.3206106870229009
3913500772724,3.862810728,1,0.21188684692382811,1.7226280944824217,-11.209652172851563,-0.8320610687022901,0.549618320610687,-1.3282442748091603
3913508189547,3.870227551,1,0.2262520568847656,1.7322049011230467,-11.195286962890624,-0.9007633587786259,0.5801526717557252,-1.3129770992366412
3913515517151,3.877555155,1,0.23104046020507812,1.7585411193847655,-11.16057103881836,-0.8396946564885496,0.6412213740458015,-1.381679389312977
3913522874182,3.884912186,1,0.2214636535644531,1.7429788085937499,-11.186907257080078,-0.8396946564885496,0.5419847328244275,-1.3511450381679388
3913530158974,3.892196978,1,0.18555062866210936,1.7477672119140624,-11.154585534667968,-0.8473282442748091,0.5877862595419847,-1.2900763358778626
3913537446057,3.899484061,1,0.21308394775390624,1.7357962036132812,-11.159373937988281,-0.7862595419847328,0.5954198473282443,-1.3587786259541985
3913544755068,3.906793072,1,0.21068974609375,1.714248388671875,-11.197681164550781,-0.8473282442748091,0.6564885496183206,-1.2748091603053435
3913552081057,3.914119061,1,0.23822306518554687,1.7274164978027342,-11.182118853759764,-0.8854961832061069,0.6259541984732825,-1.251908396946565
3913559384443,3.921422447,1,0.258573779296875,1.7561469177246092,-11.162965240478515,-0.7862595419847328,0.5954198473282443,-1.3129770992366412
3913566621161,3.928659165,1,0.23582886352539062,1.7322049011230467,-11.212046374511718,-0.8396946564885496,0.6106870229007634,-1.2748091603053435
3913573912255,3.935950259,1,0.23343466186523437,1.7310078002929687,-11.165359442138671,-0.8625954198473282,0.5877862595419847,-1.2900763358778626
3913581233140,3.943271144,1,0.20350714111328125,1.7286135986328124,-11.197681164550781,-0.7862595419847328,0.5190839694656488,-1.2900763358778626
3913588515276,3.95055328,1,0.21428104858398436,1.7238251953125,-11.171344946289063,-0.7938931297709924,0.549618320610687,-1.3282442748091603
3913595757828,3.957795832,1,0.2454056701660156,1.7286135986328124,-11.188104357910156,-0.8320610687022901,0.5572519083969466,-1.297709923664122
3913603109651,3.965147655,1,0.20949264526367187,1.7489643127441405,-11.167753643798827,-0.7786259541984732,0.5648854961832062,-1.251908396946565
3913610448193,3.972486197,1,0.2154781494140625,1.7501614135742187,-11.167753643798827,-0.8625954198473282,0.5572519083969466,-1.282442748091603
3913617741370,3.979779374,1,0.20350714111328125,1.7657237243652342,-11.158176837158203,-0.7862595419847328,0.5572519083969466,-1.3358778625954197
3913625064338,3.987102342,1,0.22266075439453123,1.7298106994628906,-11.161768139648437,-0.8244274809160306,0.5343511450381679,-1.282442748091603
3913632365015,3.994403019,1,0.21068974609375,1.7178396911621092,-11.164162341308593,-0.9007633587786259,0.5801526717557252,-1.3129770992366412
3913639661838,4.001699842,1,0.2059013427734375,1.7405846069335937,-11.18571015625,-0.7709923664122137,0.5801526717557252,-1.2671755725190839
3913646949026,4.00898703,1,0.23822306518554687,1.7274164978027342,-11.195286962890624,-0.8396946564885496,0.6259541984732825,-1.2290076335877862
3913654242203,4.016280207,1,0.23822306518554687,1.7274164978027342,-11.202469567871093,-0.8244274809160306,0.6183206106870229,-1.3282442748091603
3913661540745,4.023578749,1,0.23702596435546874,1.7130512878417967,-11.209652172851563,-0.7862595419847328,0.5267175572519084,-1.297709923664122
3913668873140,4.030911144,1,0.24181436767578124,1.725022296142578,-11.179724652099608,-0.8702290076335878,0.5648854961832062,-1.297709923664122
3913676177984,4.038215988,1,0.23582886352539062,1.7082628845214842,-11.19169566040039,-0.8549618320610687,0.5572519083969466,-1.3587786259541985
3913683470328,4.045508332,1,0.24181436767578124,1.7262193969726563,-11.215637677001952,-0.816793893129771,0.5572519083969466,-1.3358778625954197
3913690763713,4.052801717,1,0.2537853759765625,1.7082628845214842,-11.186907257080078,-0.8473282442748091,0.6183206106870229,-1.297709923664122
3913698082255,4.060120259,1,0.21787235107421873,1.7334020019531249,-11.177330450439452,-0.816793893129771,0.5343511450381679,-1.3282442748091603
3913705466786,4.06750479,1,0.23343466186523437,1.715445489501953,-11.180921752929686,-0.8320610687022901,0.4580152671755725,-1.3511450381679388
3913712847203,4.074885207,1,0.2262520568847656,1.7274164978027342,-11.184513055419922,-0.8396946564885496,0.5725190839694656,-1.3282442748091603
3913720155849,4.082193853,1,0.2154781494140625,1.7310078002929687,-11.231199987792968,-0.8244274809160306,0.6106870229007634,-1.2900763358778626
3913727476682,4.089514686,1,0.2154781494140625,1.7166425903320313,-11.204863769531249,-0.8244274809160306,0.5954198473282443,-1.3282442748091603
3913734769390,4.096807394,1,0.23223756103515625,1.7118541870117185,-11.192892761230468,-0.8320610687022901,0.648854961832061,-1.3435114503816794
3913742101317,4.104139321,1,0.17836802368164062,1.7417817077636717,-11.171344946289063,-0.7480916030534351,0.549618320610687,-1.3129770992366412
3913749425432,4.111463436,1,0.2059013427734375,1.7226280944824217,-11.18571015625,-0.9541984732824428,0.5954198473282443,-1.2900763358778626
3913756796422,4.118834426,1,0.2262520568847656,1.7561469177246092,-11.200075366210937,-0.8931297709923665,0.5648854961832062,-1.3206106870229009
3913764112411,4.126150415,1,0.22385785522460935,1.7334020019531249,-11.213243475341796,-0.8091603053435115,0.5725190839694656,-1.3282442748091603
3913771405901,4.133443905,1,0.23104046020507812,1.7393875061035156,-11.19169566040039,-0.8473282442748091,0.5725190839694656,-1.3435114503816794
3913778695380,4.140733384,1,0.22505495605468748,1.7322049011230467,-11.212046374511718,-0.8778625954198473,0.5954198473282443,-1.381679389312977
3913785987567,4.148025571,1,0.24779987182617186,1.7417817077636717,-11.164162341308593,-0.8244274809160306,0.6259541984732825,-1.381679389312977
3913793325536,4.15536354,1,0.2501940734863281,1.7310078002929687,-11.197681164550781,-0.8931297709923665,0.6183206106870229,-1.3893129770992367
3913800621317,4.162659321,1,0.20470424194335937,1.734599102783203,-11.209652172851563,-0.816793893129771,0.5267175572519084,-1.2748091603053435
3913807923713,4.169961717,1,0.2154781494140625,1.7274164978027342,-11.206060870361327,-0.8015267175572519,0.5190839694656488,-1.3358778625954197
3913815297255,4.177335259,1,0.23343466186523437,1.744175909423828,-11.207257971191405,-0.8549618320610687,0.6030534351145038,-1.3358778625954197
3913822611317,4.184649321,1,0.2262520568847656,1.7369933044433592,-11.188104357910156,-0.8625954198473282,0.5725190839694656,-1.2595419847328244
3913829906422,4.191944426,1,0.24061726684570311,1.7357962036132812,-11.204863769531249,-0.8854961832061069,0.5648854961832062,-1.3435114503816794
3913837249442,4.199287446,1,0.2059013427734375,1.7310078002929687,-11.17852755126953,-0.8778625954198473,0.6412213740458015,-1.3282442748091603
3913844564182,4.206602186,1,0.21787235107421873,1.7417817077636717,-11.227608685302734,-0.8320610687022901,0.549618320610687,-1.3511450381679388
3913851837932,4.213875936,1,0.21068974609375,1.7034744812011717,-11.174936248779296,-0.8549618320610687,0.6183206106870229,-1.3206106870229009
3913859141161,4.221179165,1,0.2166752502441406,1.7286135986328124,-11.177330450439452,-0.8396946564885496,0.6106870229007634,-1.3358778625954197
3913866457515,4.228495519,1,0.20231004028320312,1.7166425903320313,-11.17254204711914,-0.7938931297709924,0.5419847328244275,-1.2595419847328244
3913873734442,4.235772446,1,0.19632453613281248,1.7310078002929687,-11.186907257080078,-0.8473282442748091,0.5801526717557252,-1.2748091603053435
3913881061890,4.243099894,1,0.23822306518554687,1.7381904052734374,-11.208455072021483,-0.8244274809160306,0.5801526717557252,-1.297709923664122
3913888347151,4.250385155,1,0.21428104858398436,1.744175909423828,-11.162965240478515,-0.8473282442748091,0.5419847328244275,-1.3511450381679388
3913895652359,4.257690363,1,0.24061726684570311,1.7262193969726563,-11.2240173828125,-0.8549618320610687,0.6183206106870229,-1.2671755725190839
3913902893140,4.264931144,1,0.23702596435546874,1.7094599853515624,-11.161768139648437,-0.7709923664122137,0.6259541984732825,-1.282442748091603
3913910205692,4.272243696,1,0.23582886352539062,1.7190367919921874,-11.213243475341796,-0.8244274809160306,0.5648854961832062,-1.366412213740458
3913917512672,4.279550676,1,0.2262520568847656,1.7106570861816406,-11.245565197753905,-0.8625954198473282,0.5954198473282443,-1.3435114503816794
3913924785015,4.286823019,1,0.2346317626953125,1.7262193969726563,-11.190498559570312,-0.7786259541984732,0.5419847328244275,-1.3435114503816794
3913932110640,4.294148644,1,0.21068974609375,1.7310078002929687,-11.206060870361327,-0.8473282442748091,0.4732824427480916,-1.3358778625954197
3913939407151,4.301445155,1,0.239420166015625,1.7166425903320313,-11.176133349609374,-0.8244274809160306,0.5801526717557252,-1.3053435114503817
3913946642984,4.308680988,1,0.2442085693359375,1.7226280944824217,-11.17254204711914,-0.732824427480916,0.5267175572519084,-1.3511450381679388
3913954031890,4.316069894,1,0.21308394775390624,1.7106570861816406,-11.171344946289063,-0.8625954198473282,0.5801526717557252,-1.3053435114503817
3913961346057,4.323384061,1,0.21428104858398436,1.7022773803710936,-11.197681164550781,-0.8625954198473282,0.6183206106870229,-1.3053435114503817
3913968690172,4.330728176,1,0.2214636535644531,1.714248388671875,-11.200075366210937,-0.8091603053435115,0.6030534351145038,-1.2900763358778626
3913976043557,4.338081561,1,0.22864625854492185,1.7298106994628906,-11.194089862060546,-0.8473282442748091,0.5877862595419847,-1.2366412213740459
3913983391369,4.345429373,1,0.22385785522460935,1.7609353210449217,-11.176133349609374,-0.8320610687022901,0.6106870229007634,-1.2900763358778626
3913990732672,4.352770676,1,0.2214636535644531,1.7489643127441405,-11.188104357910156,-0.8244274809160306,0.5954198473282443,-1.3511450381679388
3913998059755,4.360097759,1,0.23343466186523437,1.763329522705078,-11.180921752929686,-0.916030534351145,0.5877862595419847,-1.3587786259541985
3914005356369,4.367394373,1,0.21308394775390624,1.715445489501953,-11.228805786132812,-0.8091603053435115,0.5877862595419847,-1.3206106870229009
3914012714234,4.374752238,1,0.1927332336425781,1.7334020019531249,-11.182118853759764,-0.8320610687022901,0.6183206106870229,-1.297709923664122
3914020084599,4.382122603,1,0.22266075439453123,1.7501614135742187,-11.166556542968749,-0.8473282442748091,0.5572519083969466,-1.2595419847328244
3914027403713,4.389441717,1,0.22385785522460935,1.7429788085937499,-11.17852755126953,-0.7786259541984732,0.5267175572519084,-1.2900763358778626
3914034721161,4.396759165,1,0.23223756103515625,1.7334020019531249,-11.197681164550781,-0.8702290076335878,0.5954198473282443,-1.297709923664122
3914041982776,4.40402078,1,0.22744915771484372,1.7226280944824217,-11.200075366210937,-0.8091603053435115,0.5343511450381679,-1.3358778625954197
3914049256057,4.411294061,1,0.23223756103515625,1.7381904052734374,-11.3389390625,-0.7480916030534351,0.5725190839694656,-1.3511450381679388
3914056598140,4.418636144,1,0.22026655273437498,1.7214309936523438,-11.162965240478515,-0.816793893129771,0.6183206106870229,-1.282442748091603
3914063891005,4.425929009,1,0.2454056701660156,1.70467158203125,-11.158176837158203,-0.7404580152671756,0.5572519083969466,-1.3129770992366412
3914071212567,4.433250571,1,0.23822306518554687,1.734599102783203,-11.186907257080078,-0.7938931297709924,0.5343511450381679,-1.3053435114503817
3914078494859,4.440532863,1,0.22744915771484372,1.7082628845214842,-11.15338843383789,-0.8854961832061069,0.5725190839694656,-1.3129770992366412
3914085790797,4.447828801,1,0.21188684692382811,1.7369933044433592,-11.146205828857422,-0.7862595419847328,0.5725190839694656,-1.3282442748091603
3914093093244,4.455131248,1,0.22864625854492185,1.7405846069335937,-11.167753643798827,-0.7480916030534351,0.45038167938931295,-1.297709923664122
3914100462307,4.462500311,1,0.2262520568847656,1.7310078002929687,-11.196484063720703,-0.8778625954198473,0.5419847328244275,-1.2442748091603053
3914107751578,4.469789582,1,0.2454056701660156,1.7178396911621092,-11.232397088623046,-0.7786259541984732,0.5648854961832062,-1.282442748091603
3914115095015,4.477133019,1,0.23104046020507812,1.7453730102539062,-11.200075366210937,-0.8549618320610687,0.5877862595419847,-1.2900763358778626
3914122503661,4.484541665,1,0.21068974609375,1.7286135986328124,-11.188104357910156,-0.8778625954198473,0.6030534351145038,-1.297709923664122
3914129821005,4.491859009,1,0.22744915771484372,1.7549498168945312,-11.166556542968749,-0.7862595419847328,0.5954198473282443,-1.3358778625954197
3914137141474,4.499179478,1,0.2454056701660156,1.7322049011230467,-11.197681164550781,-0.7633587786259542,0.5954198473282443,-1.366412213740458
3914144474130,4.506512134,1,0.22505495605468748,1.7465701110839842,-11.204863769531249,-0.8244274809160306,0.5877862595419847,-1.3587786259541985
3914151795849,4.513833853,1,0.23223756103515625,1.7286135986328124,-11.209652172851563,-0.8244274809160306,0.5343511450381679,-1.2748091603053435
3914159137567,4.521175571,1,0.20829554443359374,1.734599102783203,-11.196484063720703,-0.8549618320610687,0.5877862595419847,-1.2748091603053435
3914166500432,4.528538436,1,0.26336218261718747,1.7322049011230467,-11.226411584472656,-0.8091603053435115,0.5954198473282443,-1.3206106870229009
3914173819599,4.535857603,1,0.23223756103515625,1.7298106994628906,-11.207257971191405,-0.8091603053435115,0.5648854961832062,-1.366412213740458
3914181208817,4.543246821,1,0.22266075439453123,1.705868682861328,-11.17852755126953,-0.8473282442748091,0.5267175572519084,-1.3511450381679388
3914188563557,4.550601561,1,0.22505495605468748,1.7334020019531249,-11.107898602294922,-0.7786259541984732,0.6183206106870229,-1.2900763358778626
3914195866474,4.557904478,1,0.22744915771484372,1.734599102783203,-11.15338843383789,-0.7557251908396947,0.6564885496183206,-1.2671755725190839
3914203202359,4.565240363,1,0.22385785522460935,1.7513585144042967,-11.155782635498046,-0.8702290076335878,0.6717557251908397,-1.2671755725190839
3914210550536,4.57258854,1,0.23343466186523437,1.7489643127441405,-11.165359442138671,-0.7251908396946565,0.5114503816793893,-1.2900763358778626
3914217909182,4.579947186,1,0.20231004028320312,1.7238251953125,-11.142614526367186,-0.7404580152671756,0.5725190839694656,-1.282442748091603
3914225276578,4.587314582,1,0.20709844360351562,1.7322049011230467,-11.19887826538086,-0.8015267175572519,0.5648854961832062,-1.3129770992366412
3914232652515,4.594690519,1,0.21068974609375,1.7381904052734374,-11.214440576171874,-0.8473282442748091,0.4961832061068702,-1.3358778625954197
3914239940171,4.601978175,1,0.20829554443359374,1.7334020019531249,-11.19887826538086,-0.916030534351145,0.6030534351145038,-1.366412213740458
3914247275953,4.609313957,1,0.24181436767578124,1.7525556152343749,-11.222820281982422,-0.8549618320610687,0.5725190839694656,-1.3282442748091603
3914254536890,4.616574894,1,0.2214636535644531,1.7310078002929687,-11.228805786132812,-0.7786259541984732,0.5267175572519084,-1.282442748091603
3914261831734,4.623869738,1,0.23582886352539062,1.714248388671875,-11.207257971191405,-0.8015267175572519,0.6106870229007634,-1.3358778625954197
3914269096369,4.631134373,1,0.22385785522460935,1.7166425903320313,-11.18571015625,-0.8320610687022901,0.5572519083969466,-1.3206106870229009
3914276456890,4.638494894,1,0.21906945190429686,1.7657237243652342,-11.194089862060546,-0.8702290076335878,0.5725190839694656,-1.3129770992366412
3914283765953,4.645803957,1,0.20231004028320312,1.7489643127441405,-11.176133349609374,-0.8320610687022901,0.5954198473282443,-1.2595419847328244
3914291093869,4.653131873,1,0.22864625854492185,1.7298106994628906,-11.186907257080078,-0.816793893129771,0.5725190839694656,-1.2900763358778626
3914298353817,4.660391821,1,0.18914193115234373,1.7477672119140624,-11.183315954589844,-0.8015267175572519,0.6259541984732825,-1.3282442748091603
3914305674494,4.667712498,1,0.22026655273437498,1.7214309936523438,-11.180921752929686,-0.8702290076335878,0.6564885496183206,-1.3358778625954197
3914312971526,4.67500953,1,0.21188684692382811,1.7298106994628906,-11.190498559570312,-0.816793893129771,0.5801526717557252,-1.282442748091603
3914320240744,4.682278748,1,0.2262520568847656,1.7549498168945312,-11.173739147949219,-0.8320610687022901,0.5954198473282443,-1.2748091603053435
3914327537515,4.689575519,1,0.22385785522460935,1.7286135986328124,-11.179724652099608,-0.8396946564885496,0.5801526717557252,-1.3053435114503817
3914334827463,4.696865467,1,0.2346317626953125,1.744175909423828,-11.190498559570312,-0.7709923664122137,0.549618320610687,-1.3587786259541985
3914342160015,4.704198019,1,0.2262520568847656,1.7393875061035156,-11.195286962890624,-0.8625954198473282,0.5343511450381679,-1.297709923664122
3914349525171,4.711563175,1,0.21068974609375,1.7202338928222656,-11.212046374511718,-0.8015267175572519,0.5801526717557252,-1.3282442748091603
3914356879442,4.718917446,1,0.23104046020507812,1.7274164978027342,-11.17852755126953,-0.7633587786259542,0.5648854961832062,-1.282442748091603
3914364171265,4.726209269,1,0.2214636535644531,1.7274164978027342,-11.200075366210937,-0.8625954198473282,0.6564885496183206,-1.366412213740458
3914371493973,4.733531977,1,0.24301146850585936,1.7357962036132812,-11.145008728027342,-0.7862595419847328,0.6106870229007634,-1.366412213740458
3914378843088,4.740881092,1,0.21188684692382811,1.7429788085937499,-11.194089862060546,-0.8091603053435115,0.5801526717557252,-1.3587786259541985
3914386244078,4.748282082,1,0.25258827514648435,1.734599102783203,-11.166556542968749,-0.8549618320610687,0.648854961832061,-1.3587786259541985
3914393567932,4.755605936,1,0.23702596435546874,1.7166425903320313,-11.196484063720703,-0.7786259541984732,0.5877862595419847,-1.3053435114503817
3914400928036,4.76296604,1,0.2262520568847656,1.7286135986328124,-11.177330450439452,-0.8702290076335878,0.5954198473282443,-1.251908396946565
3914408291630,4.770329634,1,0.23702596435546874,1.7417817077636717,-11.194089862060546,-0.8854961832061069,0.6259541984732825,-1.2900763358778626
3914415657828,4.777695832,1,0.24779987182617186,1.744175909423828,-11.19887826538086,-0.8320610687022901,0.5801526717557252,-1.3129770992366412
3914422977307,4.785015311,1,0.2346317626953125,1.734599102783203,-11.197681164550781,-0.8854961832061069,0.4961832061068702,-1.3206106870229009
3914430293348,4.792331352,1,0.24779987182617186,1.7417817077636717,-11.170147845458983,-0.8244274809160306,0.6641221374045801,-1.3435114503816794
3914437645692,4.799683696,1,0.229843359375,1.7238251953125,-11.159373937988281,-0.7480916030534351,0.5877862595419847,-1.297709923664122
3914444932567,4.806970571,1,0.2549824768066406,1.7369933044433592,-11.21084927368164,-0.8702290076335878,0.5954198473282443,-1.3740458015267176
3914452271057,4.814309061,1,0.2561795776367187,1.7310078002929687,-11.17852755126953,-0.8473282442748091,0.5725190839694656,-1.3358778625954197
3914459589807,4.821627811,1,0.23104046020507812,1.725022296142578,-11.17852755126953,-0.8549618320610687,0.5190839694656488,-1.3129770992366412
3914466912880,4.828950884,1,0.2214636535644531,1.7190367919921874,-11.182118853759764,-0.9389312977099237,0.5343511450381679,-1.297709923664122
3914474250744,4.836288748,1,0.2214636535644531,1.7022773803710936,-11.154585534667968,-0.8320610687022901,0.6183206106870229,-1.3129770992366412
3914481570796,4.8436088,1,0.2262520568847656,1.7262193969726563,-11.209652172851563,-0.8396946564885496,0.6030534351145038,-1.3358778625954197
3914488914703,4.850952707,1,0.21428104858398436,1.7334020019531249,-11.219228979492186,-0.8702290076335878,0.6183206106870229,-1.3969465648854962
3914496289546,4.85832755,1,0.21787235107421873,1.7429788085937499,-11.21084927368164,-0.816793893129771,0.6106870229007634,-1.3282442748091603
3914503603713,4.865641717,1,0.21906945190429686,1.7202338928222656,-11.128249316406249,-0.9312977099236641,0.5419847328244275,-1.2595419847328244
3914510921734,4.872959738,1,0.21188684692382811,1.7178396911621092,-11.171344946289063,-0.8702290076335878,0.5267175572519084,-1.2595419847328244
3914518299286,4.88033729,1,0.20470424194335937,1.7310078002929687,-11.16057103881836,-0.8015267175572519,0.5343511450381679,-1.3053435114503817
3914525648192,4.887686196,1,0.2549824768066406,1.7190367919921874,-11.174936248779296,-0.8549618320610687,0.5572519083969466,-1.3511450381679388
3914533074598,4.895112602,1,0.21308394775390624,1.715445489501953,-11.184513055419922,-0.8625954198473282,0.549618320610687,-1.3511450381679388
3914540474390,4.902512394,1,0.20829554443359374,1.7106570861816406,-11.183315954589844,-0.8549618320610687,0.5267175572519084,-1.3435114503816794
3914547804859,4.909842863,1,0.2154781494140625,1.7274164978027342,-11.19887826538086,-0.8625954198473282,0.6030534351145038,-1.3129770992366412
3914555082046,4.91712005,1,0.23822306518554687,1.714248388671875,-11.213243475341796,-0.8931297709923665,0.5267175572519084,-1.3511450381679388
3914562415953,4.924453957,1,0.2166752502441406,1.7417817077636717,-11.170147845458983,-0.8091603053435115,0.5190839694656488,-1.3511450381679388
3914569718036,4.93175604,1,0.20470424194335937,1.7357962036132812,-11.162965240478515,-0.8625954198473282,0.5572519083969466,-1.2900763358778626
3914577069078,4.939107082,1,0.2262520568847656,1.7429788085937499,-11.170147845458983,-0.816793893129771,0.5267175572519084,-1.3206106870229009
3914584396578,4.946434582,1,0.21068974609375,1.715445489501953,-11.176133349609374,-0.8473282442748091,0.5572519083969466,-1.3511450381679388
3914591702775,4.953740779,1,0.2346317626953125,1.7262193969726563,-11.150994232177734,-0.8702290076335878,0.6030534351145038,-1.3511450381679388
3914599154598,4.961192602,1,0.20709844360351562,1.7082628845214842,-11.186907257080078,-0.7862595419847328,0.549618320610687,-1.251908396946565
3914606557203,4.968595207,1,0.20949264526367187,1.7477672119140624,-11.190498559570312,-0.8244274809160306,0.5648854961832062,-1.2900763358778626
3914613909598,4.975947602,1,0.21906945190429686,1.7310078002929687,-11.183315954589844,-0.7786259541984732,0.5648854961832062,-1.3435114503816794
3914621258609,4.983296613,1,0.23822306518554687,1.7094599853515624,-11.194089862060546,-0.7786259541984732,0.5572519083969466,-1.3358778625954197
3914628706057,4.990744061,1,0.23822306518554687,1.7178396911621092,-11.337741961669922,-0.9236641221374046,0.5954198473282443,-1.282442748091603
3914636098296,4.9981363,1,0.25258827514648435,1.7214309936523438,-11.206060870361327,-0.9007633587786259,0.6106870229007634,-1.3358778625954197
3914643425484,5.005463488,1,0.21308394775390624,1.7082628845214842,-11.194089862060546,-0.8931297709923665,0.5343511450381679,-1.3129770992366412
3914650752255,5.012790259,1,0.239420166015625,1.7477672119140624,-11.19169566040039,-0.916030534351145,0.5954198473282443,-1.297709923664122
3914658121057,5.020159061,1,0.201112939453125,1.7322049011230467,-11.206060870361327,-0.8244274809160306,0.5648854961832062,-1.2595419847328244
3914665449807,5.027487811,1,0.21188684692382811,1.7190367919921874,-11.19169566040039,-0.816793893129771,0.5725190839694656,-1.3282442748091603
3914672798869,5.034836873,1,0.20470424194335937,1.7393875061035156,-11.174936248779296,-0.9236641221374046,0.5877862595419847,-1.3053435114503817
3914680110432,5.042148436,1,0.20231004028320312,1.6986860778808592,-11.195286962890624,-0.7786259541984732,0.5038167938931297,-1.3129770992366412
3914687495432,5.049533436,1,0.2214636535644531,1.7334020019531249,-11.196484063720703,-0.8396946564885496,0.5648854961832062,-1.3129770992366412
3914694858817,5.056896821,1,0.22505495605468748,1.6998831787109374,-11.227608685302734,-0.8549618320610687,0.6106870229007634,-1.2748091603053435
3914702202203,5.064240207,1,0.23343466186523437,1.7202338928222656,-11.188104357910156,-0.732824427480916,0.5038167938931297,-1.2900763358778626
3914709550796,5.0715888,1,0.2262520568847656,1.7298106994628906,-11.206060870361327,-0.8396946564885496,0.5267175572519084,-1.3358778625954197
3914716877671,5.078915675,1,0.21787235107421873,1.7477672119140624,-11.162965240478515,-0.8091603053435115,0.5648854961832062,-1.3511450381679388
3914724234025,5.086272029,1,0.21787235107421873,1.7549498168945312,-11.167753643798827,-0.7480916030534351,0.5801526717557252,-1.3206106870229009
3914731551161,5.093589165,1,0.19991583862304688,1.7417817077636717,-11.158176837158203,-0.8015267175572519,0.6030534351145038,-1.3053435114503817
3914738900640,5.100938644,1,0.2262520568847656,1.714248388671875,-11.168950744628905,-0.7709923664122137,0.5725190839694656,-1.3129770992366412
3914746234755,5.108272759,1,0.2262520568847656,1.6998831787109374,-11.186907257080078,-0.8091603053435115,0.5648854961832062,-1.2748091603053435
3914753553973,5.115591977,1,0.22266075439453123,1.7310078002929687,-11.326968054199218,-0.8549618320610687,0.6335877862595419,-1.2900763358778626
3914760893921,5.122931925,1,0.2549824768066406,1.7357962036132812,-11.142614526367186,-0.8091603053435115,0.5190839694656488,-1.3435114503816794
3914768280380,5.130318384,1,0.21787235107421873,1.7298106994628906,-11.209652172851563,-0.8320610687022901,0.5572519083969466,-1.3282442748091603
3914775596161,5.137634165,1,0.22744915771484372,1.7322049011230467,-11.15338843383789,-0.8320610687022901,0.6335877862595419,-1.366412213740458
3914782934598,5.144972602,1,0.20709844360351562,1.7130512878417967,-11.179724652099608,-0.7099236641221374,0.5648854961832062,-1.3358778625954197
3914790370744,5.152408748,1,0.20949264526367187,1.7274164978027342,-11.213243475341796,-0.8702290076335878,0.6030534351145038,-1.282442748091603
3914797729911,5.159767915,1,0.23582886352539062,1.7561469177246092,-11.183315954589844,-0.8702290076335878,0.6030534351145038,-1.297709923664122
3914805054338,5.167092342,1,0.20470424194335937,1.7274164978027342,-11.179724652099608,-0.7709923664122137,0.5343511450381679,-1.3358778625954197
3914812373348,5.174411352,1,0.20470424194335937,1.7465701110839842,-11.159373937988281,-0.8854961832061069,0.5343511450381679,-1.297709923664122
3914819719286,5.18175729,1,0.22385785522460935,1.7369933044433592,-11.180921752929686,-0.8091603053435115,0.5877862595419847,-1.2595419847328244
3914827111942,5.189149946,1,0.24660277099609373,1.7262193969726563,-11.177330450439452,-0.8244274809160306,0.6030534351145038,-1.297709923664122
3914834381161,5.196419165,1,0.22864625854492185,1.7381904052734374,-11.179724652099608,-0.8473282442748091,0.6335877862595419,-1.3358778625954197
3914841754807,5.203792811,1,0.22864625854492185,1.7334020019531249,-11.195286962890624,-0.816793893129771,0.5877862595419847,-1.2671755725190839
3914849071890,5.211109894,1,0.21068974609375,1.7130512878417967,-11.225214483642578,-0.8244274809160306,0.5725190839694656,-1.282442748091603
3914856365432,5.218403436,1,0.21787235107421873,1.7226280944824217,-11.225214483642578,-0.7709923664122137,0.5419847328244275,-1.297709923664122
3914863681213,5.225719217,1,0.24899697265624998,1.7274164978027342,-11.161768139648437,-0.7862595419847328,0.549618320610687,-1.3282442748091603
3914871004702,5.233042706,1,0.2346317626953125,1.7214309936523438,-11.189301458740234,-0.8244274809160306,0.5419847328244275,-1.297709923664122
3914878362359,5.240400363,1,0.2154781494140625,1.7202338928222656,-11.246762298583985,-0.8931297709923665,0.6030534351145038,-1.3282442748091603
3914885765223,5.247803227,1,0.22266075439453123,1.7262193969726563,-11.227608685302734,-0.8778625954198473,0.5572519083969466,-1.3053435114503817
3914893075275,5.255113279,1,0.23582886352539062,1.7322049011230467,-11.218031878662108,-0.916030534351145,0.5954198473282443,-1.297709923664122
3914900460588,5.262498592,1,0.2262520568847656,1.7214309936523438,-11.214440576171874,-0.8778625954198473,0.6335877862595419,-1.3053435114503817
3914907790536,5.26982854,1,0.23223756103515625,1.7405846069335937,-11.192892761230468,-0.8931297709923665,0.5877862595419847,-1.3206106870229009
3914915142202,5.277180206,1,0.23223756103515625,1.7238251953125,-11.183315954589844,-0.8854961832061069,0.6030534351145038,-1.366412213740458
3914922527359,5.284565363,1,0.239420166015625,1.715445489501953,-11.197681164550781,-0.816793893129771,0.5572519083969466,-1.381679389312977
3914929860171,5.291898175,1,0.21906945190429686,1.7286135986328124,-11.188104357910156,-0.8091603053435115,0.5801526717557252,-1.4045801526717556
3914937183765,5.299221769,1,0.2262520568847656,1.734599102783203,-11.234791290283203,-0.8473282442748091,0.6183206106870229,-1.3587786259541985
3914944691734,5.306729738,1,0.22505495605468748,1.744175909423828,-11.204863769531249,-0.8244274809160306,0.4961832061068702,-1.3435114503816794
3914952085119,5.314123123,1,0.18914193115234373,1.705868682861328,-11.200075366210937,-0.8549618320610687,0.5038167938931297,-1.366412213740458
3914959410484,5.321448488,1,0.19991583862304688,1.7489643127441405,-11.150994232177734,-0.8015267175572519,0.6183206106870229,-1.3435114503816794
3914966741577,5.328779581,1,0.2214636535644531,1.7274164978027342,-11.19169566040039,-0.7633587786259542,0.6106870229007634,-1.3358778625954197
3914974109129,5.336147133,1,0.2501940734863281,1.744175909423828,-11.174936248779296,-0.8549618320610687,0.6030534351145038,-1.3435114503816794
3914981431994,5.343469998,1,0.2442085693359375,1.7010802795410156,-11.174936248779296,-0.816793893129771,0.6183206106870229,-1.381679389312977
3914988867202,5.350905206,1,0.2262520568847656,1.7429788085937499,-11.202469567871093,-0.8244274809160306,0.648854961832061,-1.3435114503816794
3914996214286,5.35825229,1,0.19033903198242186,1.70467158203125,-11.195286962890624,-0.916030534351145,0.6106870229007634,-1.3587786259541985
3915003538504,5.365576508,1,0.21068974609375,1.7226280944824217,-11.152191333007812,-0.7557251908396947,0.5114503816793893,-1.282442748091603
3915010932098,5.372970102,1,0.22266075439453123,1.7190367919921874,-11.201272467041015,-0.8015267175572519,0.5038167938931297,-1.3053435114503817
3915018372827,5.380410831,1,0.22744915771484372,1.7501614135742187,-11.188104357910156,-0.8625954198473282,0.5190839694656488,-1.3206106870229009
3915025737515,5.387775519,1,0.2214636535644531,1.7489643127441405,-11.194089862060546,-0.8320610687022901,0.549618320610687,-1.3282442748091603
3915033141317,5.395179321,1,0.2346317626953125,1.7369933044433592,-11.311405743408203,-0.8702290076335878,0.5725190839694656,-1.3206106870229009
3915040522202,5.402560206,1,0.19991583862304688,1.7477672119140624,-11.164162341308593,-0.8625954198473282,0.549618320610687,-1.3206106870229009
3915047884338,5.409922342,1,0.1927332336425781,1.7298106994628906,-11.192892761230468,-0.8244274809160306,0.5190839694656488,-1.297709923664122
3915055276786,5.41731479,1,0.23822306518554687,1.7573440185546874,-11.218031878662108,-0.9389312977099237,0.5343511450381679,-1.3282442748091603
3915062590015,5.424628019,1,0.24660277099609373,1.7453730102539062,-11.189301458740234,-0.9007633587786259,0.6183206106870229,-1.3129770992366412
3915069893244,5.431931248,1,0.2561795776367187,1.7286135986328124,-11.19169566040039,-0.8549618320610687,0.5725190839694656,-1.3282442748091603
3915077232046,5.43927005,1,0.23104046020507812,1.7429788085937499,-11.167753643798827,-0.8931297709923665,0.5801526717557252,-1.297709923664122
