timestamp_ns,t_s,sensor_id,ax,ay,az,gx,gy,gz
3909809041059,0.171079063,2,8.106766821289062,5.7329158752441405,0.7026981872558593,-1.7557251908396947,0.25190839694656486,-1.6641221374045803
3909815206215,0.177244219,2,8.110358123779296,5.723339068603515,0.7410054138183594,-1.7709923664122138,0.31297709923664124,-1.6488549618320612
3909821128194,0.183166198,2,8.128314636230469,5.737704278564453,0.7074865905761718,-1.7557251908396947,0.22900763358778625,-1.633587786259542
3909826954913,0.188992917,2,8.113949426269532,5.759252093505859,0.6967126831054687,-1.7404580152671756,0.12213740458015267,-1.6488549618320612
3909832845486,0.19488349,2,8.122329132080077,5.781997009277344,0.7206546997070312,-1.7328244274809161,0.31297709923664124,-1.6641221374045803
3909838732048,0.200770052,2,8.093598712158203,5.744886883544922,0.74699091796875,-1.748091603053435,0.22900763358778625,-1.6641221374045803
3909844618923,0.206656927,2,8.125920434570313,5.735310076904296,0.7302315063476562,-1.7251908396946565,0.21374045801526717,-1.6564885496183206
3909850531579,0.212569583,2,8.13310303955078,5.76523759765625,0.6751648681640625,-1.7328244274809161,0.22900763358778625,-1.5725190839694656
3909856488142,0.218526146,2,8.10796392211914,5.754463690185546,0.718260498046875,-1.7251908396946565,0.31297709923664124,-1.6106870229007633
3909862376788,0.224414792,2,8.09479581298828,5.737704278564453,0.7122749938964843,-1.7328244274809161,0.2595419847328244,-1.5801526717557253
3909868294236,0.23033224,2,8.122329132080077,5.7520694885253905,0.7481880187988281,-1.717557251908397,0.2824427480916031,-1.5801526717557253
3909874146371,0.236184375,2,8.100781317138672,5.7317187744140625,0.7242460021972655,-1.7251908396946565,0.31297709923664124,-1.618320610687023
3909880055590,0.242093594,2,8.100781317138672,5.735310076904296,0.7697358337402344,-1.7404580152671756,0.2595419847328244,-1.6259541984732824
3909885963663,0.248001667,2,8.106766821289062,5.722141967773437,0.7505822204589844,-1.7404580152671756,0.22137404580152673,-1.5725190839694656
3909891870329,0.253908333,2,8.124723333740233,5.761646295166015,0.7038952880859375,-1.7328244274809161,0.15267175572519084,-1.6488549618320612
3909897837465,0.259875469,2,8.141482745361328,5.737704278564453,0.7230489013671875,-1.7251908396946565,0.29770992366412213,-1.5725190839694656
3909903790694,0.265828698,2,8.112752325439452,5.762843395996094,0.7134720947265625,-1.8091603053435115,0.1297709923664122,-1.5725190839694656
3909909707673,0.271745677,2,8.123526232910155,5.744886883544922,0.7326257080078125,-1.7404580152671756,0.20610687022900764,-1.5801526717557253
3909915600902,0.277638906,2,8.116343627929687,5.755660791015624,0.7326257080078125,-1.748091603053435,0.25190839694656486,-1.633587786259542
3909921518038,0.283556042,2,8.118737829589843,5.768828900146484,0.7362170104980469,-1.8015267175572518,0.2748091603053435,-1.6564885496183206
3909927444340,0.289482344,2,8.116343627929687,5.758054992675781,0.709880792236328,-1.816793893129771,0.25190839694656486,-1.5877862595419847
3909933357309,0.295395313,2,8.14028564453125,5.7520694885253905,0.7062894897460937,-1.7633587786259541,0.2748091603053435,-1.5801526717557253
3909939271736,0.30130974,2,8.112752325439452,5.749675286865234,0.7445967163085937,-1.7633587786259541,0.2748091603053435,-1.6412213740458015
3909945132152,0.307170156,2,8.11514652709961,5.77122310180664,0.7326257080078125,-1.748091603053435,0.2748091603053435,-1.6106870229007633
3909951005017,0.313043021,2,8.109161022949218,5.735310076904296,0.6979097839355468,-1.748091603053435,0.32061068702290074,-1.5954198473282444
3909956852673,0.318890677,2,8.109161022949218,5.7508723876953125,0.7350199096679687,-1.8396946564885497,0.35877862595419846,-1.6564885496183206
3909962753350,0.324791354,2,8.095992913818359,5.761646295166015,0.7517793212890624,-1.816793893129771,0.20610687022900764,-1.6030534351145038
3909968661371,0.330699375,2,8.113949426269532,5.758054992675781,0.7350199096679687,-1.7709923664122138,0.20610687022900764,-1.6564885496183206
3909974523767,0.336561771,2,8.084021905517577,5.761646295166015,0.7206546997070312,-1.8091603053435115,0.2595419847328244,-1.6030534351145038
3909980366319,0.342404323,2,8.098387115478515,5.754463690185546,0.7134720947265625,-1.7938931297709924,0.3435114503816794,-1.6259541984732824
3909986199548,0.348237552,2,8.103175518798828,5.755660791015624,0.7278373046875,-1.7938931297709924,0.29770992366412213,-1.6488549618320612
3909992072465,0.354110469,2,8.131905938720703,5.740098480224609,0.7266402038574218,-1.7709923664122138,0.25190839694656486,-1.6488549618320612
3909997901944,0.359939948,2,8.125920434570313,5.761646295166015,0.6979097839355468,-1.7633587786259541,0.25190839694656486,-1.618320610687023
3910004524861,0.366562865,2,8.111555224609374,5.761646295166015,0.7350199096679687,-1.7557251908396947,0.21374045801526717,-1.5267175572519085
3910010805746,0.37284375,2,8.145074047851562,5.759252093505859,0.7278373046875,-1.7938931297709924,0.22900763358778625,-1.5114503816793894
3910016779444,0.378817448,2,8.12711753540039,5.746083984375,0.689530078125,-1.8549618320610688,0.21374045801526717,-1.618320610687023
3910022700798,0.384738802,2,8.13310303955078,5.746083984375,0.737414111328125,-1.8091603053435115,0.2900763358778626,-1.5877862595419847
3910028683194,0.390721198,2,7.967903124999999,5.780799908447265,0.7589619262695312,-1.7938931297709924,0.22900763358778625,-1.6259541984732824
3910034566996,0.396605,2,8.149862451171874,5.761646295166015,0.7326257080078125,-1.786259541984733,0.31297709923664124,-1.5801526717557253
3910040471944,0.402509948,2,8.139088543701172,5.744886883544922,0.7230489013671875,-1.8015267175572518,0.3053435114503817,-1.5725190839694656
3910046380850,0.408418854,2,8.087613208007811,5.730521673583984,0.718260498046875,-1.7328244274809161,0.25190839694656486,-1.633587786259542
3910052311475,0.414349479,2,8.123526232910155,5.735310076904296,0.74699091796875,-1.7251908396946565,0.21374045801526717,-1.5801526717557253
3910058206215,0.420244219,2,8.142679846191406,5.719747766113281,0.7314286071777343,-1.786259541984733,0.22900763358778625,-1.5801526717557253
3910064100069,0.426138073,2,8.103175518798828,5.7520694885253905,0.7553706237792969,-1.7251908396946565,0.26717557251908397,-1.549618320610687
3910070017465,0.432055469,2,8.118737829589843,5.746083984375,0.729034405517578,-1.7251908396946565,0.20610687022900764,-1.5725190839694656
3910075952569,0.437990573,2,8.122329132080077,5.767631799316406,0.719457598876953,-1.7633587786259541,0.1984732824427481,-1.633587786259542
3910081901892,0.443939896,2,8.12711753540039,5.749675286865234,0.7326257080078125,-1.7633587786259541,0.2748091603053435,-1.5801526717557253
3910087810954,0.449848958,2,8.143876947021484,5.756857891845703,0.7134720947265625,-1.7404580152671756,0.24427480916030533,-1.5190839694656488
3910093743767,0.455781771,2,8.117540728759765,5.753266589355468,0.7158662963867187,-1.6793893129770991,0.183206106870229,-1.5648854961832062
3910099628142,0.461666146,2,8.125920434570313,5.768828900146484,0.70868369140625,-1.7251908396946565,0.22137404580152673,-1.6259541984732824
3910105508298,0.467546302,2,8.098387115478515,5.738901379394531,0.7338228088378905,-1.748091603053435,0.16793893129770993,-1.534351145038168
3910111417361,0.473455365,2,8.137891442871092,5.755660791015624,0.7410054138183594,-1.7404580152671756,0.16030534351145037,-1.5267175572519085
3910117293194,0.479331198,2,8.10796392211914,5.754463690185546,0.737414111328125,-1.748091603053435,0.26717557251908397,-1.4961832061068703
3910123135798,0.485173802,2,8.118737829589843,5.767631799316406,0.7493851196289062,-1.7633587786259541,0.24427480916030533,-1.5572519083969465
3910129042361,0.491080365,2,8.104372619628906,5.758054992675781,0.7350199096679687,-1.7557251908396947,0.20610687022900764,-1.5801526717557253
3910134974236,0.49701224,2,8.100781317138672,5.744886883544922,0.7338228088378905,-1.786259541984733,0.22137404580152673,-1.5419847328244274
3910141027204,0.503065208,2,8.098387115478515,5.744886883544922,0.7110778930664062,-1.7099236641221374,0.32061068702290074,-1.6106870229007633
3910147007465,0.509045469,2,8.085219006347655,5.716156463623046,0.7386112121582031,-1.717557251908397,0.2595419847328244,-1.6030534351145038
3910153050642,0.515088646,2,8.098387115478515,5.7317187744140625,0.7637503295898437,-1.7938931297709924,0.22137404580152673,-1.6641221374045803
3910158982985,0.521020989,2,8.10197841796875,5.72693037109375,0.7026981872558593,-1.786259541984733,0.2595419847328244,-1.6030534351145038
3910164874808,0.526912812,2,8.09479581298828,5.744886883544922,0.7398083129882812,-1.7328244274809161,0.21374045801526717,-1.5954198473282444
3910170679913,0.532717917,2,8.119934930419921,5.761646295166015,0.7266402038574218,-1.7328244274809161,0.15267175572519084,-1.618320610687023
3910176554548,0.538592552,2,8.111555224609374,5.772420202636718,0.7338228088378905,-1.7557251908396947,0.15267175572519084,-1.6259541984732824
3910182441527,0.544479531,2,8.097190014648437,5.778405706787109,0.7302315063476562,-1.748091603053435,0.26717557251908397,-1.618320610687023
3910188362933,0.550400937,2,8.13310303955078,5.7700260009765625,0.7074865905761718,-1.786259541984733,0.21374045801526717,-1.618320610687023
3910194248767,0.556286771,2,8.130708837890625,5.7700260009765625,0.6787561706542968,-1.702290076335878,0.2366412213740458,-1.6106870229007633
3910200164340,0.562202344,2,8.103175518798828,5.741295581054687,0.7314286071777343,-1.7557251908396947,0.2366412213740458,-1.6106870229007633
3910205945850,0.567983854,2,8.099584216308592,5.753266589355468,0.7314286071777343,-1.7709923664122138,0.26717557251908397,-1.549618320610687
3910211855173,0.573893177,2,8.103175518798828,5.741295581054687,0.7003039855957031,-1.6870229007633588,0.25190839694656486,-1.5725190839694656
3910217806892,0.579844896,2,8.125920434570313,5.749675286865234,0.7074865905761718,-1.8015267175572518,0.2595419847328244,-1.5877862595419847
3910223664340,0.585702344,2,8.116343627929687,5.7149593627929685,0.7350199096679687,-1.7786259541984732,0.2366412213740458,-1.5954198473282444
3910229546215,0.591584219,2,8.143876947021484,5.735310076904296,0.7481880187988281,-1.8244274809160306,0.20610687022900764,-1.5725190839694656
3910235437673,0.597475677,2,8.147468249511718,5.7137622619628905,0.7242460021972655,-1.7786259541984732,0.2748091603053435,-1.5419847328244274
3910241327569,0.603365573,2,8.128314636230469,5.756857891845703,0.7493851196289062,-1.786259541984733,0.25190839694656486,-1.5572519083969465
3910247217985,0.609255989,2,8.092401611328125,5.758054992675781,0.7841010437011718,-1.7709923664122138,0.29770992366412213,-1.5877862595419847
3910253135277,0.615173281,2,8.106766821289062,5.723339068603515,0.7386112121582031,-1.7709923664122138,0.20610687022900764,-1.5419847328244274
3910258996892,0.621034896,2,8.128314636230469,5.7520694885253905,0.7170633972167968,-1.7404580152671756,0.25190839694656486,-1.5572519083969465
3910264899183,0.626937187,2,8.122329132080077,5.744886883544922,0.7003039855957031,-1.702290076335878,0.2824427480916031,-1.5572519083969465
3910270745121,0.632783125,2,8.122329132080077,5.722141967773437,0.7242460021972655,-1.7709923664122138,0.2748091603053435,-1.5801526717557253
3910276626996,0.638665,2,8.117540728759765,5.747281085205078,0.6667851623535156,-1.7557251908396947,0.22137404580152673,-1.5801526717557253
3910282525433,0.644563437,2,8.111555224609374,5.759252093505859,0.7302315063476562,-1.7404580152671756,0.29770992366412213,-1.5190839694656488
3910288408402,0.650446406,2,8.125920434570313,5.773617303466796,0.719457598876953,-1.786259541984733,0.26717557251908397,-1.549618320610687
3910294300642,0.656338646,2,8.113949426269532,5.743689782714843,0.7038952880859375,-1.7709923664122138,0.2366412213740458,-1.5801526717557253
3910300159027,0.662197031,2,8.099584216308592,5.756857891845703,0.7362170104980469,-1.7709923664122138,0.20610687022900764,-1.633587786259542
3910306090590,0.668128594,2,8.10796392211914,5.753266589355468,0.7398083129882812,-1.816793893129771,0.25190839694656486,-1.5954198473282444
3910312044340,0.674082344,2,8.12113203125,5.7317187744140625,0.7254431030273437,-1.816793893129771,0.13740458015267176,-1.633587786259542
3910317962621,0.680000625,2,8.125920434570313,5.740098480224609,0.7242460021972655,-1.7938931297709924,0.2824427480916031,-1.618320610687023
3910323896631,0.685934635,2,8.092401611328125,5.723339068603515,0.7326257080078125,-1.7786259541984732,0.3511450381679389,-1.5572519083969465
3910329862725,0.691900729,2,8.123526232910155,5.749675286865234,0.7218518005371093,-1.7557251908396947,0.22900763358778625,-1.5725190839694656
3910335765433,0.697803437,2,8.124723333740233,5.746083984375,0.7050923889160156,-1.7709923664122138,0.22900763358778625,-1.633587786259542
3910341686996,0.703725,2,8.142679846191406,5.72693037109375,0.7278373046875,-1.7709923664122138,0.2366412213740458,-1.6259541984732824
3910347607673,0.709645677,2,8.143876947021484,5.7508723876953125,0.6739677673339843,-1.8015267175572518,0.2366412213740458,-1.5877862595419847
3910353548923,0.715586927,2,8.074445098876952,5.742492681884765,0.6739677673339843,-1.7709923664122138,0.1450381679389313,-1.5572519083969465
3910359460590,0.721498594,2,8.135497241210937,5.747281085205078,0.6907271789550781,-1.6793893129770991,0.21374045801526717,-1.618320610687023
3910365369392,0.727407396,2,8.141482745361328,5.741295581054687,0.7206546997070312,-1.748091603053435,0.2366412213740458,-1.6030534351145038
3910371211110,0.733249114,2,8.152256652832031,5.7700260009765625,0.7362170104980469,-1.7328244274809161,0.31297709923664124,-1.5648854961832062
3910377154288,0.739192292,2,8.137891442871092,5.756857891845703,0.7457938171386719,-1.717557251908397,0.16030534351145037,-1.633587786259542
3910383038402,0.745076406,2,7.975085729980468,5.748478186035156,0.7254431030273437,-1.702290076335878,0.22900763358778625,-1.6793893129770991
3910388972100,0.751010104,2,8.119934930419921,5.756857891845703,0.7709329345703124,-1.7633587786259541,0.22137404580152673,-1.6488549618320612
3910394868454,0.756906458,2,8.10796392211914,5.742492681884765,0.7900865478515624,-1.748091603053435,0.09923664122137404,-1.6412213740458015
3910400790225,0.762828229,2,8.124723333740233,5.760449194335937,0.7350199096679687,-1.7633587786259541,0.13740458015267176,-1.6259541984732824
3910406710329,0.768748333,2,8.0828248046875,5.746083984375,0.699106884765625,-1.7328244274809161,0.2824427480916031,-1.633587786259542
3910412627725,0.774665729,2,8.131905938720703,5.723339068603515,0.7302315063476562,-1.7786259541984732,0.2900763358778626,-1.618320610687023
3910418524860,0.780562864,2,8.136694342041014,5.741295581054687,0.7302315063476562,-1.7557251908396947,0.21374045801526717,-1.6412213740458015
3910424431423,0.786469427,2,8.10796392211914,5.747281085205078,0.7888894470214843,-1.7251908396946565,0.2900763358778626,-1.633587786259542
3910430308662,0.792346666,2,8.092401611328125,5.762843395996094,0.74699091796875,-1.748091603053435,0.2366412213740458,-1.6412213740458015
3910436219131,0.798257135,2,8.105569720458984,5.729324572753906,0.7398083129882812,-1.7633587786259541,0.16793893129770993,-1.618320610687023
3910442102673,0.804140677,2,8.095992913818359,5.7508723876953125,0.737414111328125,-1.7251908396946565,0.19083969465648856,-1.5954198473282444
3910448038506,0.81007651,2,8.093598712158203,5.772420202636718,0.7362170104980469,-1.7633587786259541,0.2748091603053435,-1.6259541984732824
3910453987569,0.816025573,2,8.106766821289062,5.747281085205078,0.718260498046875,-1.7786259541984732,0.2366412213740458,-1.5954198473282444
3910459838090,0.821876094,2,8.128314636230469,5.7317187744140625,0.7230489013671875,-1.786259541984733,0.1984732824427481,-1.633587786259542
3910465880433,0.827918437,2,8.098387115478515,5.761646295166015,0.7350199096679687,-1.7633587786259541,0.20610687022900764,-1.6412213740458015
3910471940173,0.833978177,2,8.113949426269532,5.773617303466796,0.7218518005371093,-1.7557251908396947,0.3053435114503817,-1.6412213740458015
3910477922829,0.839960833,2,8.10197841796875,5.761646295166015,0.709880792236328,-1.7786259541984732,0.19083969465648856,-1.6564885496183206
3910483845537,0.845883541,2,8.128314636230469,5.77122310180664,0.7038952880859375,-1.7938931297709924,0.25190839694656486,-1.5954198473282444
3910489840694,0.851878698,2,8.124723333740233,5.7317187744140625,0.7242460021972655,-1.7557251908396947,0.2900763358778626,-1.5954198473282444
3910495706215,0.857744219,2,8.124723333740233,5.7329158752441405,0.719457598876953,-1.7557251908396947,0.25190839694656486,-1.549618320610687
3910501620433,0.863658437,2,8.137891442871092,5.742492681884765,0.699106884765625,-1.7328244274809161,0.2824427480916031,-1.6488549618320612
3910507548142,0.869586146,2,8.123526232910155,5.744886883544922,0.709880792236328,-1.702290076335878,0.31297709923664124,-1.6564885496183206
3910513454131,0.875492135,2,8.125920434570313,5.72693037109375,0.7206546997070312,-1.717557251908397,0.22137404580152673,-1.6259541984732824
3910519334652,0.881372656,2,8.128314636230469,5.762843395996094,0.7122749938964843,-1.7328244274809161,0.1984732824427481,-1.5801526717557253
3910525215225,0.887253229,2,8.11514652709961,5.746083984375,0.7134720947265625,-1.702290076335878,0.24427480916030533,-1.6106870229007633
3910531095173,0.893133177,2,8.119934930419921,5.741295581054687,0.7757213378906249,-1.6946564885496183,0.19083969465648856,-1.5725190839694656
3910537006371,0.899044375,2,8.119934930419921,5.72693037109375,0.70868369140625,-1.717557251908397,0.2366412213740458,-1.6030534351145038
3910542885277,0.904923281,2,8.141482745361328,5.762843395996094,0.729034405517578,-1.702290076335878,0.2595419847328244,-1.5954198473282444
3910548762777,0.910800781,2,8.130708837890625,5.734112976074218,0.6871358764648438,-1.748091603053435,0.29770992366412213,-1.6488549618320612
3910554688142,0.916726146,2,8.116343627929687,5.7317187744140625,0.7158662963867187,-1.717557251908397,0.25190839694656486,-1.549618320610687
3910560662569,0.922700573,2,8.090007409667969,5.754463690185546,0.6907271789550781,-1.7404580152671756,0.22137404580152673,-1.5801526717557253
3910566531267,0.928569271,2,8.113949426269532,5.7520694885253905,0.6679822631835937,-1.8015267175572518,0.32061068702290074,-1.5725190839694656
3910572468975,0.934506979,2,8.135497241210937,5.758054992675781,0.7062894897460937,-1.7633587786259541,0.35877862595419846,-1.549618320610687
3910578372465,0.940410469,2,8.10796392211914,5.7700260009765625,0.7326257080078125,-1.748091603053435,0.22900763358778625,-1.5267175572519085
3910584306735,0.946344739,2,8.118737829589843,5.729324572753906,0.6823474731445313,-1.7786259541984732,0.22137404580152673,-1.5114503816793894
3910590214131,0.952252135,2,8.097190014648437,5.730521673583984,0.7254431030273437,-1.7404580152671756,0.25190839694656486,-1.5725190839694656
3910596122933,0.958160937,2,8.10796392211914,5.764040496826172,0.7505822204589844,-1.748091603053435,0.1984732824427481,-1.6106870229007633
3910602037881,0.964075885,2,8.119934930419921,5.779602807617187,0.7481880187988281,-1.786259541984733,0.22137404580152673,-1.6488549618320612
3910607978350,0.970016354,2,8.103175518798828,5.744886883544922,0.7362170104980469,-1.7786259541984732,0.32061068702290074,-1.5648854961832062
3910613924027,0.975962031,2,8.125920434570313,5.754463690185546,0.70868369140625,-1.748091603053435,0.2900763358778626,-1.5954198473282444
3910619824652,0.981862656,2,8.109161022949218,5.744886883544922,0.729034405517578,-1.7251908396946565,0.183206106870229,-1.633587786259542
3910625767725,0.987805729,2,8.134300140380859,5.725733270263672,0.7326257080078125,-1.717557251908397,0.21374045801526717,-1.549618320610687
3910631667569,0.993705573,2,8.12711753540039,5.7317187744140625,0.7386112121582031,-1.7557251908396947,0.24427480916030533,-1.5801526717557253
3910637605173,0.999643177,2,8.265981231689453,5.742492681884765,0.7218518005371093,-1.8244274809160306,0.2595419847328244,-1.5419847328244274
3910643480798,1.005518802,2,8.110358123779296,5.744886883544922,0.7266402038574218,-1.7633587786259541,0.22137404580152673,-1.5801526717557253
3910649364339,1.011402343,2,8.100781317138672,5.758054992675781,0.7242460021972655,-1.7633587786259541,0.31297709923664124,-1.5725190839694656
3910655301267,1.017339271,2,8.112752325439452,5.766434698486328,0.7505822204589844,-1.7633587786259541,0.31297709923664124,-1.5648854961832062
3910661238298,1.023276302,2,8.12113203125,5.747281085205078,0.7410054138183594,-1.717557251908397,0.20610687022900764,-1.5725190839694656
3910667099704,1.029137708,2,8.117540728759765,5.7520694885253905,0.7254431030273437,-1.7709923664122138,0.20610687022900764,-1.5801526717557253
3910673009235,1.035047239,2,8.122329132080077,5.747281085205078,0.7445967163085937,-1.7938931297709924,0.183206106870229,-1.6412213740458015
3910678905746,1.04094375,2,8.122329132080077,5.755660791015624,0.7793126403808593,-1.7633587786259541,0.2824427480916031,-1.618320610687023
3910684777777,1.046815781,2,8.113949426269532,5.740098480224609,0.7565677246093749,-1.702290076335878,0.26717557251908397,-1.633587786259542
3910690690485,1.052728489,2,8.103175518798828,5.7329158752441405,0.7134720947265625,-1.8091603053435115,0.22900763358778625,-1.6030534351145038
3910696631006,1.05866901,2,8.104372619628906,5.748478186035156,0.7110778930664062,-1.7633587786259541,0.13740458015267176,-1.5954198473282444
3910702549183,1.064587187,2,8.128314636230469,5.753266589355468,0.7266402038574218,-1.748091603053435,0.19083969465648856,-1.618320610687023
3910708519548,1.070557552,2,8.12113203125,5.774814404296874,0.7146691955566405,-1.7251908396946565,0.22137404580152673,-1.5725190839694656
3910714390954,1.076428958,2,8.104372619628906,5.767631799316406,0.7517793212890624,-1.7404580152671756,0.20610687022900764,-1.5725190839694656
3910720325746,1.08236375,2,8.117540728759765,5.737704278564453,0.7158662963867187,-1.7404580152671756,0.17557251908396945,-1.6106870229007633
3910726220642,1.088258646,2,8.137891442871092,5.755660791015624,0.7230489013671875,-1.7404580152671756,0.3511450381679389,-1.6412213740458015
3910732155589,1.094193593,2,8.13310303955078,5.766434698486328,0.7493851196289062,-1.7251908396946565,0.3511450381679389,-1.6106870229007633
3910738049027,1.100087031,2,8.124723333740233,5.756857891845703,0.718260498046875,-1.7251908396946565,0.19083969465648856,-1.5954198473282444
3910743963089,1.106001093,2,8.124723333740233,5.766434698486328,0.70868369140625,-1.7099236641221374,0.12213740458015267,-1.4961832061068703
3910749880902,1.111918906,2,8.128314636230469,5.756857891845703,0.7158662963867187,-1.7251908396946565,0.15267175572519084,-1.5648854961832062
3910755786006,1.11782401,2,8.13310303955078,5.737704278564453,0.7326257080078125,-1.717557251908397,0.17557251908396945,-1.6030534351145038
3910761709704,1.123747708,2,8.109161022949218,5.748478186035156,0.7457938171386719,-1.7938931297709924,0.16793893129770993,-1.6488549618320612
3910767606996,1.129645,2,8.113949426269532,5.772420202636718,0.7122749938964843,-1.7709923664122138,0.2366412213740458,-1.6030534351145038
3910773529860,1.135567864,2,8.123526232910155,5.7317187744140625,0.7110778930664062,-1.717557251908397,0.29770992366412213,-1.6030534351145038
3910779380694,1.141418698,2,8.12113203125,5.768828900146484,0.6967126831054687,-1.7404580152671756,0.2900763358778626,-1.618320610687023
3910785242725,1.147280729,2,8.125920434570313,5.738901379394531,0.7266402038574218,-1.717557251908397,0.26717557251908397,-1.6106870229007633
3910791161371,1.153199375,2,8.118737829589843,5.735310076904296,0.719457598876953,-1.7557251908396947,0.24427480916030533,-1.5572519083969465
3910797092464,1.159130468,2,8.103175518798828,5.7520694885253905,0.7589619262695312,-1.83206106870229,0.15267175572519084,-1.5648854961832062
3910803061944,1.165099948,2,8.105569720458984,5.748478186035156,0.7386112121582031,-1.7938931297709924,0.19083969465648856,-1.6259541984732824
3910808937829,1.170975833,2,8.130708837890625,5.738901379394531,0.7517793212890624,-1.7709923664122138,0.2900763358778626,-1.633587786259542
3910814823662,1.176861666,2,8.113949426269532,5.746083984375,0.7386112121582031,-1.7709923664122138,0.2900763358778626,-1.6030534351145038
3910820702308,1.182740312,2,8.110358123779296,5.738901379394531,0.7206546997070312,-1.786259541984733,0.2595419847328244,-1.5801526717557253
3910826692569,1.188730573,2,8.105569720458984,5.748478186035156,0.6919242797851562,-1.8091603053435115,0.25190839694656486,-1.5648854961832062
3910832627464,1.194665468,2,8.095992913818359,5.724536169433593,0.7146691955566405,-1.7709923664122138,0.2748091603053435,-1.5877862595419847
3910838528662,1.200566666,2,8.091204510498047,5.758054992675781,0.7505822204589844,-1.7709923664122138,0.22900763358778625,-1.5648854961832062
3910844453141,1.206491145,2,8.118737829589843,5.77122310180664,0.7589619262695312,-1.8015267175572518,0.2595419847328244,-1.5877862595419847
3910850389235,1.212427239,2,8.123526232910155,5.759252093505859,0.7398083129882812,-1.8091603053435115,0.22900763358778625,-1.5725190839694656
3910856354287,1.218392291,2,8.09479581298828,5.743689782714843,0.7517793212890624,-1.7251908396946565,0.33587786259541985,-1.6488549618320612
3910862192777,1.224230781,2,8.11514652709961,5.738901379394531,0.7433996154785156,-1.8015267175572518,0.2366412213740458,-1.6412213740458015
3910868073766,1.23011177,2,8.10796392211914,5.759252093505859,0.7422025146484375,-1.7633587786259541,0.22137404580152673,-1.6793893129770991
3910873980433,1.236018437,2,8.106766821289062,5.755660791015624,0.7649474304199219,-1.7404580152671756,0.25190839694656486,-1.6412213740458015
3910879903610,1.241941614,2,8.130708837890625,5.754463690185546,0.699106884765625,-1.7709923664122138,0.1984732824427481,-1.6259541984732824
3910885922516,1.24796052,2,8.135497241210937,5.743689782714843,0.70868369140625,-1.7633587786259541,0.2366412213740458,-1.5801526717557253
3910891855694,1.253893698,2,8.098387115478515,5.762843395996094,0.7326257080078125,-1.7709923664122138,0.3053435114503817,-1.549618320610687
3910897841475,1.259879479,2,8.112752325439452,5.760449194335937,0.6811503723144531,-1.786259541984733,0.2595419847328244,-1.4732824427480915
3910903788454,1.265826458,2,8.134300140380859,5.730521673583984,0.6823474731445313,-1.7251908396946565,0.20610687022900764,-1.5419847328244274
3910909758975,1.271796979,2,8.116343627929687,5.72693037109375,0.7314286071777343,-1.748091603053435,0.22137404580152673,-1.5877862595419847
3910915646006,1.27768401,2,8.104372619628906,5.762843395996094,0.7445967163085937,-1.7709923664122138,0.2748091603053435,-1.618320610687023
3910921562777,1.283600781,2,8.10197841796875,5.729324572753906,0.74699091796875,-1.7557251908396947,0.2824427480916031,-1.5725190839694656
3910927442621,1.289480625,2,8.109161022949218,5.724536169433593,0.7481880187988281,-1.7328244274809161,0.24427480916030533,-1.5877862595419847
3910933392152,1.295430156,2,8.093598712158203,5.730521673583984,0.737414111328125,-1.7404580152671756,0.22900763358778625,-1.6259541984732824
3910939299704,1.301337708,2,8.110358123779296,5.743689782714843,0.7601590270996094,-1.786259541984733,0.20610687022900764,-1.618320610687023
3910945220850,1.307258854,2,8.087613208007811,5.743689782714843,0.699106884765625,-1.748091603053435,0.17557251908396945,-1.618320610687023
3910951147204,1.313185208,2,8.104372619628906,5.735310076904296,0.7026981872558593,-1.7328244274809161,0.2595419847328244,-1.5725190839694656
3910957099444,1.319137448,2,8.092401611328125,5.749675286865234,0.7206546997070312,-1.6946564885496183,0.2824427480916031,-1.5877862595419847
3910963002881,1.325040885,2,8.12113203125,5.747281085205078,0.719457598876953,-1.6793893129770991,0.20610687022900764,-1.6488549618320612
3910968916996,1.330955,2,8.14028564453125,5.740098480224609,0.7074865905761718,-1.7099236641221374,0.20610687022900764,-1.5648854961832062
3910974811787,1.336849791,2,8.105569720458984,5.760449194335937,0.74699091796875,-1.7709923664122138,0.2748091603053435,-1.5954198473282444
3910980680537,1.342718541,2,8.100781317138672,5.760449194335937,0.7410054138183594,-1.7328244274809161,0.22900763358778625,-1.5801526717557253
3910986587100,1.348625104,2,8.111555224609374,5.755660791015624,0.7386112121582031,-1.7786259541984732,0.15267175572519084,-1.6030534351145038
3910992511319,1.354549323,2,8.128314636230469,5.77122310180664,0.74699091796875,-1.7786259541984732,0.19083969465648856,-1.6641221374045803
3910998403558,1.360441562,2,8.136694342041014,5.748478186035156,0.7338228088378905,-1.7328244274809161,0.1984732824427481,-1.618320610687023
3911004312725,1.366350729,2,8.093598712158203,5.740098480224609,0.7350199096679687,-1.7328244274809161,0.21374045801526717,-1.6412213740458015
3911010146787,1.372184791,2,8.10197841796875,5.722141967773437,0.6943184814453125,-1.717557251908397,0.19083969465648856,-1.6259541984732824
3911016067621,1.378105625,2,8.128314636230469,5.762843395996094,0.7350199096679687,-1.7938931297709924,0.20610687022900764,-1.6412213740458015
3911021956006,1.38399401,2,8.091204510498047,5.748478186035156,0.7050923889160156,-1.7709923664122138,0.2748091603053435,-1.6870229007633588
3911027861735,1.389899739,2,8.110358123779296,5.753266589355468,0.7110778930664062,-1.8091603053435115,0.2900763358778626,-1.6259541984732824
3911033806839,1.395844843,2,8.105569720458984,5.747281085205078,0.7218518005371093,-1.8015267175572518,0.3282442748091603,-1.5877862595419847
3911039737048,1.401775052,2,8.123526232910155,5.7508723876953125,0.6967126831054687,-1.7786259541984732,0.26717557251908397,-1.5954198473282444
3911045611527,1.407649531,2,8.104372619628906,5.720944866943359,0.699106884765625,-1.7633587786259541,0.16793893129770993,-1.5572519083969465
3911051514756,1.41355276,2,8.10796392211914,5.7700260009765625,0.7398083129882812,-1.7328244274809161,0.2366412213740458,-1.702290076335878
3911057400537,1.419438541,2,8.12711753540039,5.7317187744140625,0.7026981872558593,-1.7709923664122138,0.2366412213740458,-1.7099236641221374
3911063305746,1.42534375,2,8.122329132080077,5.741295581054687,0.7541735229492187,-1.717557251908397,0.21374045801526717,-1.6488549618320612
3911069236683,1.431274687,2,8.104372619628906,5.761646295166015,0.729034405517578,-1.717557251908397,0.24427480916030533,-1.6030534351145038
3911076487256,1.43852526,2,8.074445098876952,5.744886883544922,0.729034405517578,-1.8091603053435115,0.25190839694656486,-1.618320610687023
3911084542933,1.446580937,2,8.112752325439452,5.755660791015624,0.7637503295898437,-1.7633587786259541,0.1450381679389313,-1.6412213740458015
3911090396006,1.45243401,2,8.131905938720703,5.759252093505859,0.7505822204589844,-1.786259541984733,0.16030534351145037,-1.5877862595419847
3911096249964,1.458287968,2,8.12711753540039,5.764040496826172,0.729034405517578,-1.8015267175572518,0.17557251908396945,-1.6106870229007633
3911102212412,1.464250416,2,8.081627703857421,5.725733270263672,0.7302315063476562,-1.7633587786259541,0.13740458015267176,-1.5954198473282444
3911108123662,1.470161666,2,8.09479581298828,5.741295581054687,0.729034405517578,-1.7328244274809161,0.20610687022900764,-1.6030534351145038
3911113990537,1.476028541,2,8.129511737060547,5.738901379394531,0.7134720947265625,-1.7251908396946565,0.2595419847328244,-1.5954198473282444
3911119962256,1.48200026,2,8.128314636230469,5.766434698486328,0.6979097839355468,-1.7633587786259541,0.2595419847328244,-1.534351145038168
3911126046631,1.488084635,2,8.125920434570313,5.764040496826172,0.6919242797851562,-1.786259541984733,0.183206106870229,-1.4961832061068703
3911131968871,1.494006875,2,8.09479581298828,5.760449194335937,0.7577648254394531,-1.7328244274809161,0.21374045801526717,-1.5114503816793894
3911138061162,1.500099166,2,8.085219006347655,5.772420202636718,0.7314286071777343,-1.7404580152671756,0.22900763358778625,-1.6259541984732824
3911143995693,1.506033697,2,8.100781317138672,5.753266589355468,0.7218518005371093,-1.816793893129771,0.2900763358778626,-1.6488549618320612
3911149953141,1.511991145,2,8.113949426269532,5.76523759765625,0.7122749938964843,-1.7557251908396947,0.24427480916030533,-1.6488549618320612
3911155884704,1.517922708,2,8.134300140380859,5.753266589355468,0.70868369140625,-1.786259541984733,0.2824427480916031,-1.5801526717557253
3911161842829,1.523880833,2,8.103175518798828,5.7520694885253905,0.7110778930664062,-1.7633587786259541,0.2900763358778626,-1.6106870229007633
3911167844808,1.529882812,2,8.123526232910155,5.747281085205078,0.7122749938964843,-1.702290076335878,0.20610687022900764,-1.5954198473282444
3911173804235,1.535842239,2,8.124723333740233,5.759252093505859,0.719457598876953,-1.6946564885496183,0.20610687022900764,-1.6106870229007633
3911179694860,1.541732864,2,8.128314636230469,5.76523759765625,0.7553706237792969,-1.702290076335878,0.2748091603053435,-1.6106870229007633
3911185625121,1.547663125,2,8.134300140380859,5.772420202636718,0.7050923889160156,-1.786259541984733,0.15267175572519084,-1.5572519083969465
3911191518506,1.55355651,2,8.124723333740233,5.737704278564453,0.689530078125,-1.702290076335878,0.22900763358778625,-1.5267175572519085
3911197394756,1.55943276,2,8.116343627929687,5.759252093505859,0.6871358764648438,-1.702290076335878,0.3282442748091603,-1.618320610687023
3911203299964,1.565337968,2,8.125920434570313,5.743689782714843,0.7302315063476562,-1.7328244274809161,0.26717557251908397,-1.5877862595419847
3911209146371,1.571184375,2,8.112752325439452,5.755660791015624,0.7529764221191406,-1.83206106870229,0.2366412213740458,-1.5648854961832062
3911215040589,1.577078593,2,8.142679846191406,5.77122310180664,0.7625532287597656,-1.8091603053435115,0.31297709923664124,-1.5801526717557253
3911220934339,1.582972343,2,8.134300140380859,5.734112976074218,0.719457598876953,-1.748091603053435,0.24427480916030533,-1.5419847328244274
3911226813766,1.58885177,2,8.131905938720703,5.7149593627929685,0.7015010864257812,-1.7557251908396947,0.20610687022900764,-1.5725190839694656
3911232721891,1.594759895,2,8.119934930419921,5.747281085205078,0.7218518005371093,-1.7709923664122138,0.22900763358778625,-1.5877862595419847
3911238604027,1.600642031,2,8.112752325439452,5.758054992675781,0.729034405517578,-1.7786259541984732,0.22137404580152673,-1.5725190839694656
3911244514652,1.606552656,2,8.11514652709961,5.761646295166015,0.719457598876953,-1.7251908396946565,0.2595419847328244,-1.5877862595419847
3911250408298,1.612446302,2,8.11514652709961,5.741295581054687,0.7529764221191406,-1.6946564885496183,0.1984732824427481,-1.633587786259542
3911256311735,1.618349739,2,8.256404425048828,5.740098480224609,0.7481880187988281,-1.7251908396946565,0.26717557251908397,-1.6106870229007633
3911262201891,1.624239895,2,8.119934930419921,5.744886883544922,0.7398083129882812,-1.7633587786259541,0.2748091603053435,-1.6106870229007633
3911268094756,1.63013276,2,8.112752325439452,5.746083984375,0.699106884765625,-1.7557251908396947,0.2366412213740458,-1.6641221374045803
3911274027829,1.636065833,2,8.075642199707032,5.766434698486328,0.7170633972167968,-1.702290076335878,0.22900763358778625,-1.6030534351145038
3911279955850,1.641993854,2,8.084021905517577,5.7520694885253905,0.7529764221191406,-1.7709923664122138,0.2900763358778626,-1.5877862595419847
3911285908245,1.647946249,2,8.097190014648437,5.740098480224609,0.7134720947265625,-1.7099236641221374,0.3282442748091603,-1.6030534351145038
3911291822673,1.653860677,2,8.128314636230469,5.746083984375,0.7050923889160156,-1.7557251908396947,0.22900763358778625,-1.5954198473282444
3911297772308,1.659810312,2,8.151059552001952,5.738901379394531,0.7003039855957031,-1.7633587786259541,0.22137404580152673,-1.5801526717557253
3911303687204,1.665725208,2,8.14028564453125,5.766434698486328,0.7577648254394531,-1.8015267175572518,0.20610687022900764,-1.6030534351145038
3911309616318,1.671654322,2,8.119934930419921,5.737704278564453,0.7230489013671875,-1.7786259541984732,0.19083969465648856,-1.534351145038168
3911315501943,1.677539947,2,8.105569720458984,5.743689782714843,0.7206546997070312,-1.7404580152671756,0.24427480916030533,-1.5954198473282444
3911321397516,1.68343552,2,8.112752325439452,5.7508723876953125,0.7110778930664062,-1.7938931297709924,0.2366412213740458,-1.6564885496183206
3911327291162,1.689329166,2,8.125920434570313,5.772420202636718,0.7122749938964843,-1.786259541984733,0.22137404580152673,-1.618320610687023
3911333216995,1.695254999,2,8.123526232910155,5.756857891845703,0.6943184814453125,-1.702290076335878,0.20610687022900764,-1.6412213740458015
3911339132881,1.701170885,2,8.116343627929687,5.777208605957031,0.709880792236328,-1.717557251908397,0.32061068702290074,-1.6106870229007633
3911345035068,1.707073072,2,8.103175518798828,5.754463690185546,0.7493851196289062,-1.7709923664122138,0.33587786259541985,-1.5572519083969465
3911350960485,1.712998489,2,8.118737829589843,5.76523759765625,0.718260498046875,-1.7633587786259541,0.29770992366412213,-1.6030534351145038
3911356840537,1.718878541,2,8.12113203125,5.755660791015624,0.709880792236328,-1.7557251908396947,0.22137404580152673,-1.633587786259542
3911362709079,1.724747083,2,8.117540728759765,5.780799908447265,0.7170633972167968,-1.748091603053435,0.22137404580152673,-1.6793893129770991
3911368609964,1.730647968,2,8.104372619628906,5.7137622619628905,0.7326257080078125,-1.7251908396946565,0.22137404580152673,-1.6259541984732824
3911374516370,1.736554374,2,8.129511737060547,5.718550665283203,0.7505822204589844,-1.8015267175572518,0.33587786259541985,-1.633587786259542
3911380413245,1.742451249,2,8.109161022949218,5.749675286865234,0.7422025146484375,-1.717557251908397,0.1984732824427481,-1.6106870229007633
3911386281891,1.748319895,2,8.128314636230469,5.759252093505859,0.737414111328125,-1.7557251908396947,0.20610687022900764,-1.5954198473282444
3911392214964,1.754252968,2,8.097190014648437,5.748478186035156,0.7206546997070312,-1.7709923664122138,0.16793893129770993,-1.5877862595419847
3911398106058,1.760144062,2,8.091204510498047,5.741295581054687,0.7074865905761718,-1.8244274809160306,0.20610687022900764,-1.6030534351145038
3911404046891,1.766084895,2,8.097190014648437,5.759252093505859,0.7445967163085937,-1.7709923664122138,0.24427480916030533,-1.6259541984732824
3911409987985,1.772025989,2,8.070853796386718,5.742492681884765,0.7350199096679687,-1.7786259541984732,0.19083969465648856,-1.5877862595419847
3911415898975,1.777936979,2,8.090007409667969,5.7508723876953125,0.7386112121582031,-1.7251908396946565,0.24427480916030533,-1.6030534351145038
3911421841683,1.783879687,2,8.12113203125,5.753266589355468,0.7326257080078125,-1.7633587786259541,0.29770992366412213,-1.618320610687023
3911427769548,1.789807552,2,8.095992913818359,5.7843912109375,0.7529764221191406,-1.786259541984733,0.183206106870229,-1.6412213740458015
3911433689600,1.795727604,2,8.137891442871092,5.761646295166015,0.7158662963867187,-1.7404580152671756,0.15267175572519084,-1.6030534351145038
3911439616683,1.801654687,2,8.129511737060547,5.743689782714843,0.7266402038574218,-1.786259541984733,0.1450381679389313,-1.5954198473282444
3911445619860,1.807657864,2,8.124723333740233,5.744886883544922,0.7254431030273437,-1.816793893129771,0.2748091603053435,-1.6030534351145038
3911451541423,1.813579427,2,8.124723333740233,5.766434698486328,0.7278373046875,-1.7709923664122138,0.1984732824427481,-1.5725190839694656
3911457402933,1.819440937,2,8.134300140380859,5.768828900146484,0.7050923889160156,-1.7633587786259541,0.2748091603053435,-1.6106870229007633
3911463306839,1.825344843,2,8.111555224609374,5.744886883544922,0.7003039855957031,-1.7633587786259541,0.24427480916030533,-1.6259541984732824
3911469307256,1.83134526,2,8.103175518798828,5.754463690185546,0.7326257080078125,-1.6946564885496183,0.22900763358778625,-1.6488549618320612
3911475204912,1.837242916,2,8.093598712158203,5.783194110107422,0.7493851196289062,-1.702290076335878,0.09923664122137404,-1.5877862595419847
3911481075589,1.843113593,2,8.099584216308592,5.742492681884765,0.6715735656738281,-1.7328244274809161,0.16793893129770993,-1.5725190839694656
3911486990329,1.849028333,2,8.098387115478515,5.753266589355468,0.6943184814453125,-1.717557251908397,0.1984732824427481,-1.6412213740458015
3911492924756,1.85496276,2,8.113949426269532,5.736507177734374,0.7074865905761718,-1.7557251908396947,0.22900763358778625,-1.633587786259542
3911498842047,1.860880051,2,8.113949426269532,5.7508723876953125,0.7278373046875,-1.748091603053435,0.183206106870229,-1.6106870229007633
3911504851110,1.866889114,2,8.118737829589843,5.755660791015624,0.7242460021972655,-1.7404580152671756,0.183206106870229,-1.6259541984732824
3911510751162,1.872789166,2,8.131905938720703,5.742492681884765,0.7158662963867187,-1.7786259541984732,0.16030534351145037,-1.6259541984732824
3911516609027,1.878647031,2,8.097190014648437,5.734112976074218,0.7074865905761718,-1.7938931297709924,0.183206106870229,-1.5648854961832062
3911522532464,1.884570468,2,8.111555224609374,5.738901379394531,0.7074865905761718,-1.748091603053435,0.22137404580152673,-1.5725190839694656
3911528459235,1.890497239,2,8.081627703857421,5.740098480224609,0.6859387756347656,-1.7557251908396947,0.33587786259541985,-1.5877862595419847
3911534359860,1.896397864,2,8.10197841796875,5.738901379394531,0.737414111328125,-1.8396946564885497,0.25190839694656486,-1.633587786259542
3911540264704,1.902302708,2,8.098387115478515,5.7508723876953125,0.719457598876953,-1.7557251908396947,0.2366412213740458,-1.6106870229007633
3911546157725,1.908195729,2,8.113949426269532,5.728127471923828,0.7170633972167968,-1.816793893129771,0.2595419847328244,-1.6030534351145038
3911552083558,1.914121562,2,8.110358123779296,5.736507177734374,0.70868369140625,-1.8473282442748091,0.22900763358778625,-1.6488549618320612
3911558018506,1.92005651,2,8.095992913818359,5.737704278564453,0.7517793212890624,-1.83206106870229,0.1984732824427481,-1.6030534351145038
3911563946058,1.925984062,2,8.116343627929687,5.749675286865234,0.7326257080078125,-1.7633587786259541,0.22900763358778625,-1.618320610687023
3911569906162,1.931944166,2,8.125920434570313,5.734112976074218,0.6607996582031249,-1.717557251908397,0.22137404580152673,-1.5419847328244274
3911575836891,1.937874895,2,8.122329132080077,5.742492681884765,0.6955155822753906,-1.7328244274809161,0.2366412213740458,-1.6030534351145038
3911581773454,1.943811458,2,8.116343627929687,5.741295581054687,0.7122749938964843,-1.7633587786259541,0.22900763358778625,-1.5954198473282444
3911587674860,1.949712864,2,8.12113203125,5.736507177734374,0.7003039855957031,-1.7786259541984732,0.2366412213740458,-1.6412213740458015
3911593600954,1.955638958,2,8.117540728759765,5.722141967773437,0.7350199096679687,-1.7786259541984732,0.29770992366412213,-1.5725190839694656
3911599504704,1.961542708,2,8.12113203125,5.725733270263672,0.6811503723144531,-1.7633587786259541,0.22137404580152673,-1.5572519083969465
3911605373089,1.967411093,2,8.109161022949218,5.749675286865234,0.7338228088378905,-1.7557251908396947,0.20610687022900764,-1.5954198473282444
3911611235225,1.973273229,2,8.143876947021484,5.7329158752441405,0.7134720947265625,-1.7709923664122138,0.19083969465648856,-1.6030534351145038
3911617133610,1.979171614,2,8.124723333740233,5.7329158752441405,0.737414111328125,-1.7633587786259541,0.21374045801526717,-1.5725190839694656
3911623030745,1.985068749,2,8.12113203125,5.7329158752441405,0.7529764221191406,-1.7328244274809161,0.183206106870229,-1.5954198473282444
3911628919860,1.990957864,2,8.113949426269532,5.738901379394531,0.7410054138183594,-1.7328244274809161,0.1984732824427481,-1.6030534351145038
3911634814495,1.996852499,2,8.129511737060547,5.767631799316406,0.6919242797851562,-1.7328244274809161,0.22900763358778625,-1.5877862595419847
3911640706995,2.002744999,2,8.078036401367187,5.747281085205078,0.7481880187988281,-1.786259541984733,0.26717557251908397,-1.5801526717557253
3911646620381,2.008658385,2,8.118737829589843,5.729324572753906,0.6847416748046875,-1.7328244274809161,0.2900763358778626,-1.5725190839694656
3911652555329,2.014593333,2,8.113949426269532,5.761646295166015,0.7038952880859375,-1.7328244274809161,0.2595419847328244,-1.5648854961832062
3911658457464,2.020495468,2,8.125920434570313,5.748478186035156,0.7433996154785156,-1.7404580152671756,0.22900763358778625,-1.5572519083969465
3911664386266,2.02642427,2,8.112752325439452,5.736507177734374,0.7266402038574218,-1.7786259541984732,0.25190839694656486,-1.5801526717557253
3911670271318,2.032309322,2,8.103175518798828,5.743689782714843,0.7326257080078125,-1.7099236641221374,0.20610687022900764,-1.6259541984732824
3911676221943,2.038259947,2,8.106766821289062,5.735310076904296,0.737414111328125,-1.7633587786259541,0.22900763358778625,-1.6030534351145038
3911682173297,2.044211301,2,8.142679846191406,5.760449194335937,0.7110778930664062,-1.8091603053435115,0.26717557251908397,-1.5419847328244274
3911688097256,2.05013526,2,8.100781317138672,5.737704278564453,0.7038952880859375,-1.7328244274809161,0.2366412213740458,-1.5419847328244274
3911694061162,2.056099166,2,8.09479581298828,5.753266589355468,0.7350199096679687,-1.7251908396946565,0.2595419847328244,-1.5877862595419847
3911700081214,2.062119218,2,8.106766821289062,5.7508723876953125,0.70868369140625,-1.702290076335878,0.2824427480916031,-1.618320610687023
3911706013818,2.068051822,2,8.122329132080077,5.780799908447265,0.7326257080078125,-1.748091603053435,0.2366412213740458,-1.5954198473282444
3911711925537,2.073963541,2,8.157045056152343,5.7508723876953125,0.6943184814453125,-1.7786259541984732,0.15267175572519084,-1.6030534351145038
3911717871735,2.079909739,2,8.141482745361328,5.749675286865234,0.6679822631835937,-1.8015267175572518,0.26717557251908397,-1.5648854961832062
3911723790433,2.085828437,2,8.129511737060547,5.774814404296874,0.6907271789550781,-1.7938931297709924,0.183206106870229,-1.534351145038168
3911729715120,2.091753124,2,8.104372619628906,5.7520694885253905,0.7158662963867187,-1.7557251908396947,0.22900763358778625,-1.6717557251908397
3911735633349,2.097671353,2,8.103175518798828,5.744886883544922,0.7230489013671875,-1.8015267175572518,0.183206106870229,-1.6412213740458015
3911741492464,2.103530468,2,8.125920434570313,5.741295581054687,0.718260498046875,-1.6946564885496183,0.12213740458015267,-1.633587786259542
3911747418558,2.109456562,2,8.099584216308592,5.7508723876953125,0.6871358764648438,-1.748091603053435,0.183206106870229,-1.5801526717557253
3911753409131,2.115447135,2,8.12113203125,5.762843395996094,0.7050923889160156,-1.7404580152671756,0.2366412213740458,-1.5725190839694656
3911759359391,2.121397395,2,8.12711753540039,5.755660791015624,0.7254431030273437,-1.786259541984733,0.16030534351145037,-1.5572519083969465
3911765313610,2.127351614,2,8.10796392211914,5.740098480224609,0.7062894897460937,-1.8015267175572518,0.20610687022900764,-1.5954198473282444
3911771274339,2.133312343,2,8.103175518798828,5.743689782714843,0.7493851196289062,-1.7709923664122138,0.21374045801526717,-1.5648854961832062
3911777287881,2.139325885,2,8.139088543701172,5.755660791015624,0.7433996154785156,-1.7633587786259541,0.20610687022900764,-1.5419847328244274
3911783206787,2.145244791,2,8.09479581298828,5.766434698486328,0.729034405517578,-1.7557251908396947,0.1984732824427481,-1.4885496183206106
3911789149027,2.151187031,2,8.06965669555664,5.761646295166015,0.6967126831054687,-1.7251908396946565,0.22900763358778625,-1.5419847328244274
3911795043974,2.157081978,2,8.113949426269532,5.76523759765625,0.7254431030273437,-1.7251908396946565,0.12213740458015267,-1.5038167938931297
3911800922829,2.162960833,2,8.111555224609374,5.748478186035156,0.7302315063476562,-1.7709923664122138,0.1984732824427481,-1.5648854961832062
3911806869391,2.168907395,2,8.137891442871092,5.7520694885253905,0.7481880187988281,-1.7709923664122138,0.3053435114503817,-1.5801526717557253
3911812786579,2.174824583,2,8.129511737060547,5.740098480224609,0.7757213378906249,-1.8091603053435115,0.32061068702290074,-1.6030534351145038
3911818711474,2.180749478,2,8.129511737060547,5.716156463623046,0.7206546997070312,-1.7709923664122138,0.32061068702290074,-1.549618320610687
3911824693141,2.186731145,2,8.099584216308592,5.729324572753906,0.7613561279296874,-1.7404580152671756,0.24427480916030533,-1.6030534351145038
3911830577933,2.192615937,2,8.10796392211914,5.740098480224609,0.6811503723144531,-1.717557251908397,0.2748091603053435,-1.6030534351145038
3911836528141,2.198566145,2,8.12113203125,5.742492681884765,0.7326257080078125,-1.7328244274809161,0.25190839694656486,-1.5801526717557253
3911842405224,2.204443228,2,8.119934930419921,5.744886883544922,0.7110778930664062,-1.7251908396946565,0.183206106870229,-1.6106870229007633
3911848288089,2.210326093,2,8.13310303955078,5.7520694885253905,0.7218518005371093,-1.748091603053435,0.2366412213740458,-1.5725190839694656
3911854164235,2.216202239,2,8.106766821289062,5.7508723876953125,0.7338228088378905,-1.7633587786259541,0.1984732824427481,-1.6412213740458015
3911860068297,2.222106301,2,8.12113203125,5.756857891845703,0.6811503723144531,-1.8015267175572518,0.22900763358778625,-1.633587786259542
3911865985016,2.22802302,2,8.111555224609374,5.728127471923828,0.7015010864257812,-1.7786259541984732,0.2366412213740458,-1.5877862595419847
3911871914704,2.233952708,2,8.100781317138672,5.737704278564453,0.7386112121582031,-1.7557251908396947,0.2824427480916031,-1.6030534351145038
3911877947777,2.239985781,2,8.117540728759765,5.758054992675781,0.719457598876953,-1.717557251908397,0.25190839694656486,-1.5877862595419847
3911883902256,2.24594026,2,8.135497241210937,5.768828900146484,0.7146691955566405,-1.7099236641221374,0.2595419847328244,-1.5572519083969465
3911889848714,2.251886718,2,8.129511737060547,5.7329158752441405,0.7218518005371093,-1.717557251908397,0.2824427480916031,-1.5954198473282444
3911895783506,2.25782151,2,8.109161022949218,5.744886883544922,0.6967126831054687,-1.7328244274809161,0.183206106870229,-1.5725190839694656
3911901760068,2.263798072,2,8.10796392211914,5.755660791015624,0.718260498046875,-1.7557251908396947,0.16030534351145037,-1.6030534351145038
3911907658870,2.269696874,2,8.10796392211914,5.764040496826172,0.729034405517578,-1.7938931297709924,0.32061068702290074,-1.5725190839694656
3911913536058,2.275574062,2,8.112752325439452,5.764040496826172,0.7410054138183594,-1.8091603053435115,0.3816793893129771,-1.618320610687023
3911919466787,2.281504791,2,8.11514652709961,5.764040496826172,0.7565677246093749,-1.7786259541984732,0.25190839694656486,-1.5648854961832062
3911925440224,2.287478228,2,8.111555224609374,5.72693037109375,0.7134720947265625,-1.7251908396946565,0.22137404580152673,-1.6106870229007633
3911931309756,2.29334776,2,8.106766821289062,5.723339068603515,0.7517793212890624,-1.7709923664122138,0.2366412213740458,-1.6106870229007633
3911937215589,2.299253593,2,8.109161022949218,5.725733270263672,0.7062894897460937,-1.748091603053435,0.19083969465648856,-1.5877862595419847
3911943130224,2.305168228,2,8.134300140380859,5.7508723876953125,0.6823474731445313,-1.6946564885496183,0.21374045801526717,-1.6412213740458015
3911949059235,2.311097239,2,8.116343627929687,5.749675286865234,0.7338228088378905,-1.748091603053435,0.3435114503816794,-1.5572519083969465
3911954978297,2.317016301,2,7.981071234130859,5.743689782714843,0.7757213378906249,-1.702290076335878,0.2748091603053435,-1.6030534351145038
3911960924756,2.32296276,2,8.106766821289062,5.76523759765625,0.7565677246093749,-1.6870229007633588,0.22137404580152673,-1.6641221374045803
3911966840901,2.328878905,2,8.137891442871092,5.756857891845703,0.7218518005371093,-1.7404580152671756,0.2824427480916031,-1.5877862595419847
3911972786214,2.334824218,2,8.12711753540039,5.735310076904296,0.7026981872558593,-1.786259541984733,0.2748091603053435,-1.633587786259542
3911978700120,2.340738124,2,8.142679846191406,5.737704278564453,0.7158662963867187,-1.7786259541984732,0.16793893129770993,-1.6488549618320612
3911984612360,2.346650364,2,8.143876947021484,5.736507177734374,0.7445967163085937,-1.7251908396946565,0.2595419847328244,-1.5801526717557253
3911990524131,2.352562135,2,8.112752325439452,5.744886883544922,0.7242460021972655,-1.7251908396946565,0.2824427480916031,-1.5725190839694656
3911996420589,2.358458593,2,8.110358123779296,5.72693037109375,0.7170633972167968,-1.717557251908397,0.2824427480916031,-1.5725190839694656
3912002310797,2.364348801,2,8.111555224609374,5.730521673583984,0.7230489013671875,-1.7938931297709924,0.17557251908396945,-1.6717557251908397
3912008240120,2.370278124,2,8.117540728759765,5.740098480224609,0.7350199096679687,-1.786259541984733,0.21374045801526717,-1.5954198473282444
3912014174339,2.376212343,2,8.109161022949218,5.764040496826172,0.7242460021972655,-1.7786259541984732,0.2748091603053435,-1.5954198473282444
3912020076891,2.382114895,2,8.087613208007811,5.756857891845703,0.70868369140625,-1.7938931297709924,0.25190839694656486,-1.5877862595419847
3912025993245,2.388031249,2,8.105569720458984,5.759252093505859,0.7230489013671875,-1.8091603053435115,0.17557251908396945,-1.5190839694656488
3912031927308,2.393965312,2,8.105569720458984,5.742492681884765,0.7254431030273437,-1.786259541984733,0.24427480916030533,-1.618320610687023
3912037965485,2.400003489,2,8.111555224609374,5.742492681884765,0.6943184814453125,-1.7633587786259541,0.2595419847328244,-1.6488549618320612
3912043904912,2.405942916,2,8.113949426269532,5.756857891845703,0.7038952880859375,-1.7557251908396947,0.22137404580152673,-1.6106870229007633
3912049885381,2.411923385,2,8.086416107177733,5.743689782714843,0.7302315063476562,-1.7404580152671756,0.2900763358778626,-1.6106870229007633
3912055833506,2.41787151,2,8.086416107177733,5.755660791015624,0.6739677673339843,-1.6870229007633588,0.26717557251908397,-1.6717557251908397
3912061791891,2.423829895,2,8.104372619628906,5.741295581054687,0.7278373046875,-1.717557251908397,0.21374045801526717,-1.6259541984732824
3912067695901,2.429733905,2,8.149862451171874,5.741295581054687,0.7050923889160156,-1.717557251908397,0.21374045801526717,-1.5801526717557253
3912073612516,2.43565052,2,8.110358123779296,5.774814404296874,0.7386112121582031,-1.7633587786259541,0.29770992366412213,-1.6412213740458015
3912079502464,2.441540468,2,8.105569720458984,5.719747766113281,0.74699091796875,-1.7786259541984732,0.2366412213740458,-1.6259541984732824
3912085394860,2.447432864,2,8.08881030883789,5.7508723876953125,0.7565677246093749,-1.7251908396946565,0.19083969465648856,-1.6564885496183206
3912091309339,2.453347343,2,8.098387115478515,5.748478186035156,0.7625532287597656,-1.8015267175572518,0.25190839694656486,-1.6106870229007633
3912097315433,2.459353437,2,8.105569720458984,5.728127471923828,0.7529764221191406,-1.7786259541984732,0.31297709923664124,-1.6030534351145038
3912103183870,2.465221874,2,8.116343627929687,5.7700260009765625,0.7038952880859375,-1.7633587786259541,0.21374045801526717,-1.5725190839694656
3912109155641,2.471193645,2,8.109161022949218,5.759252093505859,0.7146691955566405,-1.8091603053435115,0.2824427480916031,-1.6106870229007633
3912115035589,2.477073593,2,8.113949426269532,5.758054992675781,0.7422025146484375,-1.7633587786259541,0.2900763358778626,-1.5877862595419847
3912120925901,2.482963905,2,8.129511737060547,5.780799908447265,0.718260498046875,-1.786259541984733,0.20610687022900764,-1.5572519083969465
3912126834756,2.48887276,2,8.116343627929687,5.735310076904296,0.6811503723144531,-1.8015267175572518,0.20610687022900764,-1.6488549618320612
3912132781006,2.49481901,2,8.112752325439452,5.736507177734374,0.7278373046875,-1.7709923664122138,0.2366412213740458,-1.5954198473282444
3912138735224,2.500773228,2,8.124723333740233,5.743689782714843,0.7817068420410156,-1.7251908396946565,0.2366412213740458,-1.6030534351145038
3912144685953,2.506723957,2,8.148665350341796,5.761646295166015,0.7050923889160156,-1.7099236641221374,0.15267175572519084,-1.5801526717557253
3912150578089,2.512616093,2,8.130708837890625,5.768828900146484,0.7146691955566405,-1.702290076335878,0.25190839694656486,-1.5801526717557253
3912156480328,2.518518332,2,8.099584216308592,5.743689782714843,0.7386112121582031,-1.7557251908396947,0.29770992366412213,-1.5725190839694656
3912162357308,2.524395312,2,8.104372619628906,5.741295581054687,0.7433996154785156,-1.7786259541984732,0.2824427480916031,-1.6030534351145038
3912168286006,2.53032401,2,8.113949426269532,5.738901379394531,0.7493851196289062,-1.7709923664122138,0.2900763358778626,-1.534351145038168
3912174203818,2.536241822,2,8.0828248046875,5.755660791015624,0.719457598876953,-1.8244274809160306,0.29770992366412213,-1.5648854961832062
3912180091214,2.542129218,2,8.128314636230469,5.76523759765625,0.7338228088378905,-1.7786259541984732,0.2366412213740458,-1.5877862595419847
3912186007203,2.548045207,2,8.142679846191406,5.744886883544922,0.7314286071777343,-1.786259541984733,0.2366412213740458,-1.5190839694656488
3912191950797,2.553988801,2,8.125920434570313,5.747281085205078,0.6763619689941406,-1.7328244274809161,0.25190839694656486,-1.549618320610687
3912197928401,2.559966405,2,8.0828248046875,5.762843395996094,0.7218518005371093,-1.7328244274809161,0.24427480916030533,-1.5419847328244274
3912203866162,2.565904166,2,8.081627703857421,5.741295581054687,0.7386112121582031,-1.717557251908397,0.16793893129770993,-1.5114503816793894
3912209840537,2.571878541,2,8.131905938720703,5.754463690185546,0.7481880187988281,-1.7251908396946565,0.19083969465648856,-1.5877862595419847
3912215787412,2.577825416,2,8.137891442871092,5.725733270263672,0.7457938171386719,-1.7404580152671756,0.19083969465648856,-1.633587786259542
3912221702360,2.583740364,2,8.128314636230469,5.7520694885253905,0.729034405517578,-1.6870229007633588,0.17557251908396945,-1.5954198473282444
3912227631058,2.589669062,2,8.104372619628906,5.7317187744140625,0.7230489013671875,-1.6793893129770991,0.19083969465648856,-1.6259541984732824
3912233608401,2.595646405,2,8.117540728759765,5.7329158752441405,0.7134720947265625,-1.717557251908397,0.31297709923664124,-1.5419847328244274
3912239535224,2.601573228,2,8.109161022949218,5.756857891845703,0.699106884765625,-1.7938931297709924,0.20610687022900764,-1.5572519083969465
3912245439078,2.607477082,2,8.142679846191406,5.7520694885253905,0.7517793212890624,-1.7786259541984732,0.1450381679389313,-1.6106870229007633
3912251306110,2.613344114,2,8.13310303955078,5.76523759765625,0.7266402038574218,-1.7251908396946565,0.22900763358778625,-1.5572519083969465
3912257293610,2.619331614,2,8.104372619628906,5.754463690185546,0.7050923889160156,-1.7633587786259541,0.183206106870229,-1.6106870229007633
3912263195381,2.625233385,2,8.099584216308592,5.747281085205078,0.709880792236328,-1.7709923664122138,0.1984732824427481,-1.6412213740458015
3912269091370,2.631129374,2,8.100781317138672,5.728127471923828,0.6775590698242188,-1.7251908396946565,0.24427480916030533,-1.618320610687023
3912274997099,2.637035103,2,8.104372619628906,5.747281085205078,0.6943184814453125,-1.7557251908396947,0.3282442748091603,-1.5954198473282444
3912280941891,2.642979895,2,8.119934930419921,5.749675286865234,0.7134720947265625,-1.7251908396946565,0.2824427480916031,-1.6259541984732824
3912286860433,2.648898437,2,8.112752325439452,5.762843395996094,0.718260498046875,-1.6946564885496183,0.2366412213740458,-1.5877862595419847
3912292749964,2.654787968,2,8.105569720458984,5.754463690185546,0.7038952880859375,-1.717557251908397,0.2748091603053435,-1.6717557251908397
3912298673037,2.660711041,2,8.130708837890625,5.7520694885253905,0.7362170104980469,-1.7251908396946565,0.2748091603053435,-1.5954198473282444
3912304621214,2.666659218,2,8.10796392211914,5.72693037109375,0.7134720947265625,-1.748091603053435,0.2366412213740458,-1.5725190839694656
3912310518818,2.672556822,2,8.118737829589843,5.773617303466796,0.7254431030273437,-1.7404580152671756,0.22137404580152673,-1.6259541984732824
3912316446735,2.678484739,2,8.117540728759765,5.744886883544922,0.7110778930664062,-1.6946564885496183,0.22900763358778625,-1.549618320610687
3912322373037,2.684411041,2,8.113949426269532,5.741295581054687,0.7278373046875,-1.7557251908396947,0.2824427480916031,-1.5572519083969465
3912328228506,2.69026651,2,8.095992913818359,5.734112976074218,0.7062894897460937,-1.8244274809160306,0.20610687022900764,-1.6030534351145038
3912334136995,2.696174999,2,8.104372619628906,5.783194110107422,0.70868369140625,-1.7709923664122138,0.26717557251908397,-1.6259541984732824
3912340064599,2.702102603,2,8.117540728759765,5.7317187744140625,0.7326257080078125,-1.7328244274809161,0.26717557251908397,-1.5954198473282444
3912346004287,2.708042291,2,8.11514652709961,5.7149593627929685,0.7050923889160156,-1.6946564885496183,0.20610687022900764,-1.5954198473282444
3912351906005,2.713944009,2,8.097190014648437,5.736507177734374,0.729034405517578,-1.8244274809160306,0.22137404580152673,-1.5801526717557253
3912357829703,2.719867707,2,8.130708837890625,5.737704278564453,0.7074865905761718,-1.8015267175572518,0.2824427480916031,-1.549618320610687
3912363686370,2.725724374,2,8.106766821289062,5.758054992675781,0.7326257080078125,-1.7099236641221374,0.25190839694656486,-1.5648854961832062
3912369711839,2.731749843,2,8.113949426269532,5.749675286865234,0.7302315063476562,-1.748091603053435,0.22137404580152673,-1.5954198473282444
3912375605849,2.737643853,2,8.112752325439452,5.744886883544922,0.7314286071777343,-1.7251908396946565,0.1984732824427481,-1.6030534351145038
3912381465901,2.743503905,2,8.118737829589843,5.779602807617187,0.7254431030273437,-1.6946564885496183,0.2595419847328244,-1.618320610687023
3912387329912,2.749367916,2,8.0828248046875,5.759252093505859,0.7266402038574218,-1.786259541984733,0.22900763358778625,-1.5877862595419847
3912393223922,2.755261926,2,8.122329132080077,5.761646295166015,0.7050923889160156,-1.702290076335878,0.29770992366412213,-1.5877862595419847
3912399146943,2.761184947,2,8.259995727539062,5.749675286865234,0.6907271789550781,-1.7251908396946565,0.29770992366412213,-1.6106870229007633
3912405085120,2.767123124,2,8.098387115478515,5.744886883544922,0.7709329345703124,-1.7099236641221374,0.22900763358778625,-1.633587786259542
3912410986578,2.773024582,2,8.10796392211914,5.754463690185546,0.7661445312499999,-1.7404580152671756,0.22900763358778625,-1.6259541984732824
3912416846630,2.778884634,2,8.125920434570313,5.767631799316406,0.737414111328125,-1.8015267175572518,0.2748091603053435,-1.5954198473282444
3912422742255,2.784780259,2,8.135497241210937,5.753266589355468,0.7386112121582031,-1.7557251908396947,0.2595419847328244,-1.5954198473282444
3912428618505,2.790656509,2,8.131905938720703,5.761646295166015,0.6919242797851562,-1.717557251908397,0.2366412213740458,-1.534351145038168
3912434560120,2.796598124,2,8.123526232910155,5.77122310180664,0.6955155822753906,-1.7557251908396947,0.24427480916030533,-1.5877862595419847
3912440519391,2.802557395,2,8.111555224609374,5.748478186035156,0.7410054138183594,-1.7328244274809161,0.2366412213740458,-1.6030534351145038
3912446422516,2.80846052,2,8.106766821289062,5.748478186035156,0.7709329345703124,-1.717557251908397,0.2366412213740458,-1.633587786259542
3912452312985,2.814350989,2,8.113949426269532,5.755660791015624,0.7302315063476562,-1.7404580152671756,0.20610687022900764,-1.5954198473282444
3912458211735,2.820249739,2,8.122329132080077,5.7520694885253905,0.7206546997070312,-1.702290076335878,0.2748091603053435,-1.5954198473282444
3912464156005,2.826194009,2,8.11514652709961,5.736507177734374,0.718260498046875,-1.6641221374045803,0.2900763358778626,-1.5725190839694656
3912470069287,2.832107291,2,8.113949426269532,5.738901379394531,0.689530078125,-1.6793893129770991,0.2595419847328244,-1.534351145038168
3912475995797,2.838033801,2,8.12113203125,5.7329158752441405,0.7493851196289062,-1.702290076335878,0.22137404580152673,-1.6488549618320612
3912481907308,2.843945312,2,8.092401611328125,5.735310076904296,0.7481880187988281,-1.6488549618320612,0.2748091603053435,-1.6488549618320612
3912487826630,2.849864634,2,8.104372619628906,5.742492681884765,0.7302315063476562,-1.717557251908397,0.25190839694656486,-1.5725190839694656
3912493770745,2.855808749,2,8.117540728759765,5.728127471923828,0.7146691955566405,-1.7099236641221374,0.2366412213740458,-1.6259541984732824
3912499657568,2.861695572,2,8.104372619628906,5.741295581054687,0.718260498046875,-1.7251908396946565,0.3053435114503817,-1.6106870229007633
3912505561526,2.86759953,2,8.125920434570313,5.735310076904296,0.7254431030273437,-1.7328244274809161,0.29770992366412213,-1.6106870229007633
3912511463818,2.873501822,2,8.1594392578125,5.729324572753906,0.6955155822753906,-1.7557251908396947,0.29770992366412213,-1.5954198473282444
3912517397568,2.879435572,2,8.119934930419921,5.742492681884765,0.7445967163085937,-1.7633587786259541,0.2595419847328244,-1.6106870229007633
3912523287099,2.885325103,2,8.11514652709961,5.749675286865234,0.7026981872558593,-1.786259541984733,0.25190839694656486,-1.5801526717557253
3912529224130,2.891262134,2,8.129511737060547,5.760449194335937,0.729034405517578,-1.7709923664122138,0.2900763358778626,-1.5648854961832062
3912535137255,2.897175259,2,8.105569720458984,5.758054992675781,0.7050923889160156,-1.7633587786259541,0.2595419847328244,-1.618320610687023
3912540921474,2.902959478,2,8.10796392211914,5.746083984375,0.6979097839355468,-1.702290076335878,0.29770992366412213,-1.633587786259542
3912546817151,2.908855155,2,8.09479581298828,5.755660791015624,0.718260498046875,-1.786259541984733,0.26717557251908397,-1.6106870229007633
3912552684860,2.914722864,2,8.099584216308592,5.741295581054687,0.7314286071777343,-1.7938931297709924,0.22900763358778625,-1.6106870229007633
3912558574443,2.920612447,2,8.12113203125,5.736507177734374,0.729034405517578,-1.7328244274809161,0.29770992366412213,-1.5954198473282444
3912564465120,2.926503124,2,8.100781317138672,5.747281085205078,0.7362170104980469,-1.748091603053435,0.2900763358778626,-1.5954198473282444
3912570356787,2.932394791,2,8.122329132080077,5.741295581054687,0.7266402038574218,-1.748091603053435,0.2748091603053435,-1.5954198473282444
3912576255745,2.938293749,2,8.10197841796875,5.72693037109375,0.7422025146484375,-1.7633587786259541,0.22900763358778625,-1.6030534351145038
3912582185224,2.944223228,2,8.103175518798828,5.747281085205078,0.7721300354003906,-1.7633587786259541,0.2366412213740458,-1.6106870229007633
3912588080849,2.950118853,2,8.117540728759765,5.7520694885253905,0.74699091796875,-1.7404580152671756,0.21374045801526717,-1.6259541984732824
3912593983557,2.956021561,2,8.119934930419921,5.7508723876953125,0.7158662963867187,-1.786259541984733,0.19083969465648856,-1.6259541984732824
3912599874287,2.961912291,2,8.113949426269532,5.758054992675781,0.70868369140625,-1.7786259541984732,0.25190839694656486,-1.6717557251908397
3912605837620,2.967875624,2,8.10197841796875,5.755660791015624,0.7003039855957031,-1.786259541984733,0.2748091603053435,-1.6030534351145038
3912611769443,2.973807447,2,8.117540728759765,5.746083984375,0.6955155822753906,-1.7633587786259541,0.2366412213740458,-1.5648854961832062
3912617636839,2.979674843,2,8.113949426269532,5.743689782714843,0.7254431030273437,-1.7251908396946565,0.24427480916030533,-1.5877862595419847
3912623544078,2.985582082,2,8.111555224609374,5.725733270263672,0.7146691955566405,-1.8396946564885497,0.3282442748091603,-1.5877862595419847
3912629442724,2.991480728,2,8.119934930419921,5.730521673583984,0.7242460021972655,-1.8091603053435115,0.24427480916030533,-1.6259541984732824
3912635339287,2.997377291,2,8.10796392211914,5.722141967773437,0.7242460021972655,-1.8015267175572518,0.183206106870229,-1.6106870229007633
3912641238818,3.003276822,2,8.109161022949218,5.7317187744140625,0.7445967163085937,-1.7938931297709924,0.24427480916030533,-1.5648854961832062
3912647125068,3.009163072,2,8.117540728759765,5.7317187744140625,0.7553706237792969,-1.816793893129771,0.29770992366412213,-1.6106870229007633
3912653000849,3.015038853,2,8.116343627929687,5.746083984375,0.7170633972167968,-1.7251908396946565,0.22137404580152673,-1.5954198473282444
3912658895380,3.020933384,2,8.116343627929687,5.754463690185546,0.718260498046875,-1.748091603053435,0.3053435114503817,-1.5801526717557253
3912664823505,3.026861509,2,8.113949426269532,5.724536169433593,0.7613561279296874,-1.7404580152671756,0.32061068702290074,-1.5877862595419847
3912670717412,3.032755416,2,8.113949426269532,5.730521673583984,0.7158662963867187,-1.786259541984733,0.26717557251908397,-1.6030534351145038
3912676612672,3.038650676,2,8.134300140380859,5.737704278564453,0.7122749938964843,-1.7404580152671756,0.24427480916030533,-1.633587786259542
3912682530328,3.044568332,2,8.123526232910155,5.742492681884765,0.6847416748046875,-1.7557251908396947,0.2595419847328244,-1.5954198473282444
3912688452620,3.050490624,2,8.135497241210937,5.724536169433593,0.7553706237792969,-1.8091603053435115,0.22137404580152673,-1.5725190839694656
3912694372828,3.056410832,2,8.116343627929687,5.740098480224609,0.709880792236328,-1.748091603053435,0.2366412213740458,-1.6030534351145038
3912700406162,3.062444166,2,8.105569720458984,5.729324572753906,0.7134720947265625,-1.7633587786259541,0.26717557251908397,-1.5801526717557253
3912706315537,3.068353541,2,8.103175518798828,5.747281085205078,0.7242460021972655,-1.748091603053435,0.33587786259541985,-1.5572519083969465
3912712229235,3.074267239,2,8.078036401367187,5.7329158752441405,0.6655880615234374,-1.717557251908397,0.1450381679389313,-1.5572519083969465
3912718125224,3.080163228,2,8.106766821289062,5.748478186035156,0.7003039855957031,-1.7633587786259541,0.183206106870229,-1.6488549618320612
3912724038766,3.08607677,2,8.118737829589843,5.7329158752441405,0.7110778930664062,-1.7633587786259541,0.3053435114503817,-1.6488549618320612
3912730044026,3.09208203,2,8.095992913818359,5.767631799316406,0.718260498046875,-1.7938931297709924,0.21374045801526717,-1.6259541984732824
3912735925120,3.097963124,2,8.129511737060547,5.77122310180664,0.737414111328125,-1.8015267175572518,0.22900763358778625,-1.5877862595419847
3912741881735,3.103919739,2,8.124723333740233,5.755660791015624,0.70868369140625,-1.7633587786259541,0.2595419847328244,-1.5954198473282444
3912747812203,3.109850207,2,8.099584216308592,5.748478186035156,0.7242460021972655,-1.7709923664122138,0.2900763358778626,-1.6259541984732824
3912753739807,3.115777811,2,8.123526232910155,5.72693037109375,0.729034405517578,-1.8473282442748091,0.20610687022900764,-1.5725190839694656
3912759636682,3.121674686,2,8.12113203125,5.764040496826172,0.7649474304199219,-1.8931297709923665,0.1984732824427481,-1.549618320610687
3912765468922,3.127506926,2,8.13310303955078,5.758054992675781,0.7266402038574218,-1.83206106870229,0.25190839694656486,-1.534351145038168
3912771442932,3.133480936,2,8.11514652709961,5.755660791015624,0.7410054138183594,-1.8015267175572518,0.2595419847328244,-1.5725190839694656
3912777379182,3.139417186,2,8.109161022949218,5.748478186035156,0.7386112121582031,-1.7786259541984732,0.183206106870229,-1.549618320610687
3912783314495,3.145352499,2,8.117540728759765,5.730521673583984,0.7350199096679687,-1.786259541984733,0.2824427480916031,-1.6030534351145038
3912789244703,3.151282707,2,8.105569720458984,5.749675286865234,0.7733271362304687,-1.8244274809160306,0.29770992366412213,-1.6106870229007633
3912795162828,3.157200832,2,8.13310303955078,5.744886883544922,0.7433996154785156,-1.83206106870229,0.2748091603053435,-1.6259541984732824
3912801143766,3.16318177,2,8.10796392211914,5.734112976074218,0.7433996154785156,-1.7633587786259541,0.22137404580152673,-1.5648854961832062
3912807044912,3.169082916,2,8.118737829589843,5.735310076904296,0.7134720947265625,-1.7099236641221374,0.2366412213740458,-1.549618320610687
3912812969287,3.175007291,2,8.104372619628906,5.7520694885253905,0.699106884765625,-1.7328244274809161,0.20610687022900764,-1.549618320610687
3912818850172,3.180888176,2,8.134300140380859,5.734112976074218,0.719457598876953,-1.7938931297709924,0.16793893129770993,-1.5877862595419847
3912824711318,3.186749322,2,8.137891442871092,5.748478186035156,0.7015010864257812,-1.8015267175572518,0.1984732824427481,-1.6106870229007633
3912830563037,3.192601041,2,8.099584216308592,5.738901379394531,0.7266402038574218,-1.7557251908396947,0.2595419847328244,-1.6106870229007633
3912836462412,3.198500416,2,8.091204510498047,5.766434698486328,0.7817068420410156,-1.7786259541984732,0.20610687022900764,-1.6412213740458015
3912842356995,3.204394999,2,8.10197841796875,5.76523759765625,0.7266402038574218,-1.717557251908397,0.183206106870229,-1.6030534351145038
3912848266682,3.210304686,2,8.234856610107421,5.729324572753906,0.7350199096679687,-1.6870229007633588,0.1984732824427481,-1.5572519083969465
3912854200016,3.21623802,2,8.086416107177733,5.737704278564453,0.7278373046875,-1.7786259541984732,0.24427480916030533,-1.549618320610687
3912860114964,3.222152968,2,8.068459594726562,5.72693037109375,0.7386112121582031,-1.7328244274809161,0.20610687022900764,-1.5572519083969465
3912866011682,3.228049686,2,8.06965669555664,5.77122310180664,0.7433996154785156,-1.7251908396946565,0.24427480916030533,-1.618320610687023
3912871896578,3.233934582,2,8.08881030883789,5.7508723876953125,0.7062894897460937,-1.7328244274809161,0.22137404580152673,-1.6030534351145038
3912877903193,3.239941197,2,8.10796392211914,5.755660791015624,0.7230489013671875,-1.7938931297709924,0.22137404580152673,-1.5877862595419847
3912883817880,3.245855884,2,8.117540728759765,5.755660791015624,0.7350199096679687,-1.816793893129771,0.25190839694656486,-1.534351145038168
3912889757724,3.251795728,2,8.123526232910155,5.760449194335937,0.7242460021972655,-1.83206106870229,0.366412213740458,-1.5114503816793894
3912895647464,3.257685468,2,8.103175518798828,5.7520694885253905,0.719457598876953,-1.7557251908396947,0.31297709923664124,-1.5954198473282444
3912901543089,3.263581093,2,8.123526232910155,5.746083984375,0.729034405517578,-1.7404580152671756,0.19083969465648856,-1.618320610687023
3912907443870,3.269481874,2,8.12113203125,5.762843395996094,0.737414111328125,-1.7328244274809161,0.3282442748091603,-1.633587786259542
3912913369078,3.275407082,2,8.098387115478515,5.7508723876953125,0.7015010864257812,-1.7633587786259541,0.24427480916030533,-1.6259541984732824
3912919245641,3.281283645,2,8.110358123779296,5.740098480224609,0.6931213806152343,-1.7404580152671756,0.13740458015267176,-1.6030534351145038
3912925147568,3.287185572,2,8.087613208007811,5.749675286865234,0.699106884765625,-1.786259541984733,0.2366412213740458,-1.6259541984732824
3912931039703,3.293077707,2,8.09479581298828,5.717353564453124,0.7134720947265625,-1.8091603053435115,0.2595419847328244,-1.6259541984732824
3912936927620,3.298965624,2,8.099584216308592,5.7137622619628905,0.6823474731445313,-1.7404580152671756,0.13740458015267176,-1.618320610687023
3912942829234,3.304867238,2,8.099584216308592,5.77122310180664,0.7278373046875,-1.7404580152671756,0.2748091603053435,-1.5954198473282444
3912948688557,3.310726561,2,8.158242156982421,5.7508723876953125,0.7158662963867187,-1.7633587786259541,0.33587786259541985,-1.5572519083969465
3912954584391,3.316622395,2,8.116343627929687,5.746083984375,0.7158662963867187,-1.6870229007633588,0.26717557251908397,-1.618320610687023
3912960452099,3.322490103,2,8.11514652709961,5.743689782714843,0.7350199096679687,-1.7633587786259541,0.22137404580152673,-1.5725190839694656
3912966348401,3.328386405,2,8.110358123779296,5.748478186035156,0.6655880615234374,-1.7328244274809161,0.2824427480916031,-1.6030534351145038
3912972248974,3.334286978,2,8.090007409667969,5.743689782714843,0.7481880187988281,-1.7404580152671756,0.2824427480916031,-1.5648854961832062
3912978099391,3.340137395,2,8.113949426269532,5.758054992675781,0.6883329772949218,-1.7251908396946565,0.21374045801526717,-1.4732824427480915
3912984045901,3.346083905,2,8.092401611328125,5.7508723876953125,0.6775590698242188,-1.748091603053435,0.26717557251908397,-1.534351145038168
3912989967151,3.352005155,2,8.097190014648437,5.758054992675781,0.6643909606933593,-1.8015267175572518,0.29770992366412213,-1.5267175572519085
3912995902359,3.357940363,2,8.105569720458984,5.723339068603515,0.7230489013671875,-1.7938931297709924,0.25190839694656486,-1.5419847328244274
3913002012672,3.364050676,2,8.152256652832031,5.742492681884765,0.74699091796875,-1.786259541984733,0.24427480916030533,-1.633587786259542
3913007967411,3.370005415,2,8.118737829589843,5.738901379394531,0.7505822204589844,-1.8015267175572518,0.29770992366412213,-1.6259541984732824
3913013998974,3.376036978,2,8.099584216308592,5.7508723876953125,0.7433996154785156,-1.786259541984733,0.29770992366412213,-1.618320610687023
3913019847672,3.381885676,2,8.118737829589843,5.77122310180664,0.7445967163085937,-1.8396946564885497,0.20610687022900764,-1.6259541984732824
3913025798974,3.387836978,2,8.104372619628906,5.774814404296874,0.7218518005371093,-1.7938931297709924,0.183206106870229,-1.633587786259542
3913031766734,3.393804738,2,8.095992913818359,5.764040496826172,0.7350199096679687,-1.7251908396946565,0.2595419847328244,-1.633587786259542
3913037651057,3.399689061,2,8.09479581298828,5.7891796142578125,0.7218518005371093,-1.7786259541984732,0.12213740458015267,-1.5648854961832062
3913043549859,3.405587863,2,8.093598712158203,5.77122310180664,0.7146691955566405,-1.786259541984733,0.1297709923664122,-1.6030534351145038
3913049446370,3.411484374,2,8.099584216308592,5.7891796142578125,0.7015010864257812,-1.8015267175572518,0.2595419847328244,-1.6412213740458015
3913055338609,3.417376613,2,8.105569720458984,5.762843395996094,0.7266402038574218,-1.7786259541984732,0.3282442748091603,-1.5648854961832062
3913061232411,3.423270415,2,8.08881030883789,5.749675286865234,0.6907271789550781,-1.7786259541984732,0.19083969465648856,-1.6030534351145038
3913067127516,3.42916552,2,8.125920434570313,5.761646295166015,0.709880792236328,-1.7251908396946565,0.366412213740458,-1.6030534351145038
3913073033661,3.435071665,2,8.087613208007811,5.767631799316406,0.7793126403808593,-1.7709923664122138,0.32061068702290074,-1.5801526717557253
3913078916578,3.440954582,2,8.123526232910155,5.746083984375,0.7218518005371093,-1.786259541984733,0.22137404580152673,-1.549618320610687
3913084837255,3.446875259,2,8.109161022949218,5.7508723876953125,0.7122749938964843,-1.7633587786259541,0.19083969465648856,-1.618320610687023
3913090721266,3.45275927,2,8.086416107177733,5.759252093505859,0.7386112121582031,-1.83206106870229,0.24427480916030533,-1.5877862595419847
3913096600641,3.458638645,2,8.078036401367187,5.76523759765625,0.7529764221191406,-1.8015267175572518,0.19083969465648856,-1.6259541984732824
3913102521630,3.464559634,2,8.091204510498047,5.720944866943359,0.7338228088378905,-1.7633587786259541,0.1450381679389313,-1.6412213740458015
3913108551161,3.470589165,2,8.091204510498047,5.7329158752441405,0.74699091796875,-1.7251908396946565,0.2748091603053435,-1.5801526717557253
3913114509964,3.476547968,2,8.119934930419921,5.743689782714843,0.7254431030273437,-1.7633587786259541,0.26717557251908397,-1.5572519083969465
3913120465953,3.482503957,2,8.109161022949218,5.7317187744140625,0.7338228088378905,-1.7557251908396947,0.1450381679389313,-1.5954198473282444
3913126354026,3.48839203,2,8.086416107177733,5.749675286865234,0.7074865905761718,-1.7404580152671756,0.1297709923664122,-1.5267175572519085
3913132226630,3.494264634,2,8.12113203125,5.737704278564453,0.7577648254394531,-1.717557251908397,0.32061068702290074,-1.5877862595419847
3913138088193,3.500126197,2,8.098387115478515,5.740098480224609,0.7110778930664062,-1.7938931297709924,0.1984732824427481,-1.5801526717557253
3913143978818,3.506016822,2,8.116343627929687,5.749675286865234,0.6967126831054687,-1.7633587786259541,0.15267175572519084,-1.5954198473282444
3913149888401,3.511926405,2,8.122329132080077,5.742492681884765,0.6727706665039062,-1.786259541984733,0.29770992366412213,-1.6259541984732824
3913155806630,3.517844634,2,8.119934930419921,5.758054992675781,0.7134720947265625,-1.7633587786259541,0.33587786259541985,-1.618320610687023
3913161742359,3.523780363,2,8.123526232910155,5.760449194335937,0.737414111328125,-1.7404580152671756,0.1984732824427481,-1.5725190839694656
3913167635536,3.52967354,2,8.142679846191406,5.735310076904296,0.7074865905761718,-1.7709923664122138,0.22900763358778625,-1.6259541984732824
3913173528453,3.535566457,2,8.129511737060547,5.735310076904296,0.719457598876953,-1.7251908396946565,0.2366412213740458,-1.5954198473282444
3913179868505,3.541906509,2,8.11514652709961,5.736507177734374,0.7230489013671875,-1.786259541984733,0.22900763358778625,-1.549618320610687
3913187211682,3.549249686,2,8.112752325439452,5.7329158752441405,0.7230489013671875,-1.6412213740458015,0.20610687022900764,-1.5725190839694656
3913194560589,3.556598593,2,8.113949426269532,5.7508723876953125,0.7661445312499999,-1.717557251908397,0.25190839694656486,-1.6030534351145038
3913201886630,3.563924634,2,8.100781317138672,5.740098480224609,0.7110778930664062,-1.816793893129771,0.2366412213740458,-1.5725190839694656
3913209203401,3.571241405,2,8.12711753540039,5.762843395996094,0.7398083129882812,-1.7709923664122138,0.3053435114503817,-1.5801526717557253
3913216472464,3.578510468,2,8.08881030883789,5.747281085205078,0.7146691955566405,-1.786259541984733,0.3053435114503817,-1.5572519083969465
3913223776213,3.585814217,2,8.131905938720703,5.766434698486328,0.6979097839355468,-1.8091603053435115,0.16793893129770993,-1.5954198473282444
3913231136109,3.593174113,2,8.112752325439452,5.7700260009765625,0.6751648681640625,-1.7633587786259541,0.33587786259541985,-1.618320610687023
3913238511161,3.600549165,2,8.07683930053711,5.754463690185546,0.7038952880859375,-1.7709923664122138,0.2366412213740458,-1.6030534351145038
3913245727672,3.607765676,2,8.117540728759765,5.744886883544922,0.7050923889160156,-1.7251908396946565,0.17557251908396945,-1.6106870229007633
3913253028609,3.615066613,2,8.10197841796875,5.760449194335937,0.7302315063476562,-1.7328244274809161,0.2595419847328244,-1.6106870229007633
3913260279755,3.622317759,2,8.091204510498047,5.744886883544922,0.709880792236328,-1.7633587786259541,0.20610687022900764,-1.5954198473282444
3913267563297,3.629601301,2,8.117540728759765,5.760449194335937,0.729034405517578,-1.702290076335878,0.183206106870229,-1.5954198473282444
3913274811474,3.636849478,2,8.128314636230469,5.758054992675781,0.7529764221191406,-1.7557251908396947,0.3435114503816794,-1.6259541984732824
3913282159859,3.644197863,2,8.119934930419921,5.76523759765625,0.7206546997070312,-1.7709923664122138,0.16793893129770993,-1.5419847328244274
3913289448141,3.651486145,2,8.137891442871092,5.766434698486328,0.7278373046875,-1.786259541984733,0.22137404580152673,-1.5954198473282444
3913296835120,3.658873124,2,8.125920434570313,5.747281085205078,0.718260498046875,-1.7251908396946565,0.2824427480916031,-1.5648854961832062
3913304155901,3.666193905,2,8.091204510498047,5.736507177734374,0.7230489013671875,-1.786259541984733,0.22137404580152673,-1.5572519083969465
3913311485536,3.67352354,2,8.097190014648437,5.741295581054687,0.7158662963867187,-1.7709923664122138,0.22137404580152673,-1.549618320610687
3913318773401,3.680811405,2,8.09479581298828,5.762843395996094,0.7254431030273437,-1.7557251908396947,0.21374045801526717,-1.5954198473282444
3913326096526,3.68813453,2,8.087613208007811,5.79037671508789,0.6907271789550781,-1.7786259541984732,0.22900763358778625,-1.6717557251908397
3913333402047,3.695440051,2,8.12113203125,5.748478186035156,0.7015010864257812,-1.7786259541984732,0.2748091603053435,-1.5877862595419847
3913340701266,3.70273927,2,8.111555224609374,5.764040496826172,0.7302315063476562,-1.717557251908397,0.183206106870229,-1.6259541984732824
3913347920432,3.709958436,2,8.111555224609374,5.758054992675781,0.7350199096679687,-1.7328244274809161,0.1984732824427481,-1.6717557251908397
3913355287828,3.717325832,2,8.12113203125,5.740098480224609,0.7314286071777343,-1.7404580152671756,0.2900763358778626,-1.6030534351145038
3913362598349,3.724636353,2,8.123526232910155,5.723339068603515,0.7481880187988281,-1.7709923664122138,0.2595419847328244,-1.534351145038168
3913369892359,3.731930363,2,8.109161022949218,5.758054992675781,0.737414111328125,-1.7786259541984732,0.21374045801526717,-1.5572519083969465
3913377219026,3.73925703,2,8.269572534179687,5.744886883544922,0.7781155395507812,-1.717557251908397,0.25190839694656486,-1.5954198473282444
3913384560953,3.746598957,2,8.110358123779296,5.7317187744140625,0.7553706237792969,-1.7557251908396947,0.2748091603053435,-1.5648854961832062
3913391868036,3.75390604,2,8.100781317138672,5.736507177734374,0.737414111328125,-1.7404580152671756,0.24427480916030533,-1.6488549618320612
3913399205901,3.761243905,2,8.13310303955078,5.7508723876953125,0.7637503295898437,-1.7557251908396947,0.2824427480916031,-1.6717557251908397
3913406889130,3.768927134,2,8.113949426269532,5.719747766113281,0.7338228088378905,-1.7938931297709924,0.21374045801526717,-1.6106870229007633
3913414270276,3.77630828,2,8.097190014648437,5.740098480224609,0.7230489013671875,-1.7633587786259541,0.2366412213740458,-1.6564885496183206
3913421592828,3.783630832,2,8.09479581298828,5.741295581054687,0.7398083129882812,-1.748091603053435,0.21374045801526717,-1.5648854961832062
3913428941370,3.790979374,2,8.12113203125,5.748478186035156,0.6931213806152343,-1.717557251908397,0.16030534351145037,-1.5877862595419847
3913436271422,3.798309426,2,8.117540728759765,5.743689782714843,0.7074865905761718,-1.7328244274809161,0.22137404580152673,-1.6412213740458015
3913443945693,3.805983697,2,8.118737829589843,5.746083984375,0.7278373046875,-1.7709923664122138,0.20610687022900764,-1.5877862595419847
3913451754547,3.813792551,2,8.085219006347655,5.7520694885253905,0.6763619689941406,-1.7633587786259541,0.25190839694656486,-1.6488549618320612
3913459107880,3.821145884,2,8.100781317138672,5.748478186035156,0.6871358764648438,-1.7709923664122138,0.22137404580152673,-1.633587786259542
3913466450328,3.828488332,2,8.112752325439452,5.760449194335937,0.7565677246093749,-1.7251908396946565,0.16793893129770993,-1.5267175572519085
3913473774911,3.835812915,2,8.118737829589843,5.735310076904296,0.7242460021972655,-1.7328244274809161,0.22137404580152673,-1.5725190839694656
3913481242932,3.843280936,2,8.104372619628906,5.755660791015624,0.6919242797851562,-1.8396946564885497,0.1984732824427481,-1.6106870229007633
3913488534338,3.850572342,2,8.111555224609374,5.772420202636718,0.737414111328125,-1.748091603053435,0.16030534351145037,-1.6106870229007633
3913495868870,3.857906874,2,8.105569720458984,5.748478186035156,0.7948749511718749,-1.7251908396946565,0.26717557251908397,-1.6717557251908397
3913503252776,3.86529078,2,8.08881030883789,5.735310076904296,0.7302315063476562,-1.7328244274809161,0.26717557251908397,-1.6488549618320612
3913510648140,3.872686144,2,8.116343627929687,5.742492681884765,0.7242460021972655,-1.7633587786259541,0.13740458015267176,-1.5419847328244274
3913517991682,3.880029686,2,8.098387115478515,5.748478186035156,0.7230489013671875,-1.7709923664122138,0.20610687022900764,-1.534351145038168
3913525307151,3.887345155,2,8.129511737060547,5.749675286865234,0.7170633972167968,-1.748091603053435,0.183206106870229,-1.5648854961832062
3913532560015,3.894598019,2,8.14028564453125,5.749675286865234,0.7170633972167968,-1.7786259541984732,0.13740458015267176,-1.534351145038168
3913539860849,3.901898853,2,8.14627114868164,5.762843395996094,0.7134720947265625,-1.7404580152671756,0.22900763358778625,-1.6259541984732824
3913547185953,3.909223957,2,8.093598712158203,5.753266589355468,0.7122749938964843,-1.786259541984733,0.15267175572519084,-1.5877862595419847
3913554514078,3.916552082,2,8.12113203125,5.738901379394531,0.7242460021972655,-1.7786259541984732,0.22137404580152673,-1.6412213740458015
3913561782515,3.923820519,2,8.104372619628906,5.760449194335937,0.7254431030273437,-1.7709923664122138,0.26717557251908397,-1.4961832061068703
3913569054286,3.93109229,2,8.09479581298828,5.759252093505859,0.7230489013671875,-1.717557251908397,0.17557251908396945,-1.5267175572519085
3913576341161,3.938379165,2,8.11514652709961,5.753266589355468,0.7158662963867187,-1.7786259541984732,0.24427480916030533,-1.6030534351145038
3913583665432,3.945703436,2,8.118737829589843,5.758054992675781,0.699106884765625,-1.8091603053435115,0.29770992366412213,-1.6259541984732824
3913590897724,3.952935728,2,8.11514652709961,5.740098480224609,0.7158662963867187,-1.717557251908397,0.24427480916030533,-1.6030534351145038
3913598241734,3.960279738,2,8.100781317138672,5.762843395996094,0.7326257080078125,-1.7709923664122138,0.2366412213740458,-1.5801526717557253
3913605541995,3.967579999,2,8.098387115478515,5.749675286865234,0.7565677246093749,-1.8091603053435115,0.26717557251908397,-1.5572519083969465
3913612877828,3.974915832,2,8.130708837890625,5.748478186035156,0.7326257080078125,-1.7786259541984732,0.1984732824427481,-1.5648854961832062
3913620172880,3.982210884,2,8.111555224609374,5.742492681884765,0.7697358337402344,-1.786259541984733,0.24427480916030533,-1.633587786259542
3913627492672,3.989530676,2,8.104372619628906,5.747281085205078,0.7146691955566405,-1.7328244274809161,0.1984732824427481,-1.6488549618320612
3913634794234,3.996832238,2,8.106766821289062,5.754463690185546,0.7206546997070312,-1.7633587786259541,0.183206106870229,-1.6259541984732824
3913642092359,4.004130363,2,8.092401611328125,5.762843395996094,0.7433996154785156,-1.7404580152671756,0.19083969465648856,-1.6488549618320612
3913649384338,4.011422342,2,8.090007409667969,5.783194110107422,0.7350199096679687,-1.7786259541984732,0.20610687022900764,-1.5954198473282444
3913656683192,4.018721196,2,7.970297326660156,5.72693037109375,0.729034405517578,-1.6564885496183206,0.17557251908396945,-1.5725190839694656
3913663969234,4.026007238,2,8.116343627929687,5.7508723876953125,0.7278373046875,-1.7557251908396947,0.26717557251908397,-1.6030534351145038
3913671304130,4.033342134,2,8.106766821289062,5.755660791015624,0.7242460021972655,-1.8244274809160306,0.19083969465648856,-1.5725190839694656
3913678602151,4.040640155,2,8.10796392211914,5.734112976074218,0.6883329772949218,-1.7938931297709924,0.19083969465648856,-1.5954198473282444
3913685900380,4.047938384,2,8.111555224609374,5.735310076904296,0.7266402038574218,-1.7557251908396947,0.22900763358778625,-1.5954198473282444
3913693227880,4.055265884,2,8.142679846191406,5.747281085205078,0.7362170104980469,-1.8015267175572518,0.15267175572519084,-1.5954198473282444
3913700511057,4.062549061,2,8.113949426269532,5.746083984375,0.7230489013671875,-1.7786259541984732,0.32061068702290074,-1.5801526717557253
3913707903505,4.069941509,2,8.100781317138672,5.729324572753906,0.7026981872558593,-1.7786259541984732,0.3053435114503817,-1.5801526717557253
3913715284911,4.077322915,2,8.10796392211914,5.735310076904296,0.7350199096679687,-1.7633587786259541,0.22137404580152673,-1.5114503816793894
3913722581786,4.08461979,2,8.111555224609374,5.778405706787109,0.74699091796875,-1.7251908396946565,0.2824427480916031,-1.5725190839694656
3913729909755,4.091947759,2,8.112752325439452,5.748478186035156,0.7661445312499999,-1.7557251908396947,0.1450381679389313,-1.5267175572519085
3913737233922,4.099271926,2,8.106766821289062,5.742492681884765,0.7242460021972655,-1.7404580152671756,0.16030534351145037,-1.5648854961832062
3913744526995,4.106564999,2,8.100781317138672,5.756857891845703,0.7350199096679687,-1.7404580152671756,0.24427480916030533,-1.5801526717557253
3913751843870,4.113881874,2,8.148665350341796,5.743689782714843,0.7026981872558593,-1.6870229007633588,0.2366412213740458,-1.5419847328244274
3913759247620,4.121285624,2,8.139088543701172,5.7508723876953125,0.6919242797851562,-1.7099236641221374,0.24427480916030533,-1.5572519083969465
3913766545015,4.128583019,2,8.112752325439452,5.748478186035156,0.7015010864257812,-1.7251908396946565,0.26717557251908397,-1.5190839694656488
3913773837776,4.13587578,2,8.10796392211914,5.728127471923828,0.718260498046875,-1.7404580152671756,0.2366412213740458,-1.549618320610687
3913781127307,4.143165311,2,8.106766821289062,5.767631799316406,0.7589619262695312,-1.7251908396946565,0.29770992366412213,-1.5877862595419847
3913788454911,4.150492915,2,8.13310303955078,5.7508723876953125,0.7302315063476562,-1.7557251908396947,0.33587786259541985,-1.6106870229007633
3913795754390,4.157792394,2,8.137891442871092,5.7149593627929685,0.7422025146484375,-1.7099236641221374,0.1297709923664122,-1.6030534351145038
3913803057672,4.165095676,2,8.117540728759765,5.753266589355468,0.7170633972167968,-1.6870229007633588,0.25190839694656486,-1.618320610687023
3913810405797,4.172443801,2,8.136694342041014,5.748478186035156,0.6919242797851562,-1.7786259541984732,0.183206106870229,-1.5267175572519085
3913817731734,4.179769738,2,8.10796392211914,5.725733270263672,0.6907271789550781,-1.7251908396946565,0.21374045801526717,-1.5725190839694656
3913825040953,4.187078957,2,8.124723333740233,5.742492681884765,0.7422025146484375,-1.717557251908397,0.31297709923664124,-1.5725190839694656
3913832339078,4.194377082,2,8.116343627929687,5.760449194335937,0.7158662963867187,-1.7786259541984732,0.17557251908396945,-1.5954198473282444
3913839697828,4.201735832,2,8.109161022949218,5.744886883544922,0.7158662963867187,-1.7557251908396947,0.2595419847328244,-1.5725190839694656
3913846988349,4.209026353,2,8.097190014648437,5.737704278564453,0.7338228088378905,-1.8244274809160306,0.2824427480916031,-1.5419847328244274
3913854297307,4.216335311,2,8.087613208007811,5.737704278564453,0.7110778930664062,-1.7709923664122138,0.16030534351145037,-1.6412213740458015
3913861590588,4.223628592,2,8.095992913818359,5.755660791015624,0.6919242797851562,-1.7404580152671756,0.2366412213740458,-1.5954198473282444
3913868887984,4.230925988,2,8.119934930419921,5.742492681884765,0.6943184814453125,-1.7404580152671756,0.26717557251908397,-1.6106870229007633
3913876160224,4.238198228,2,8.105569720458984,5.764040496826172,0.7158662963867187,-1.7786259541984732,0.19083969465648856,-1.6030534351145038
3913883482724,4.245520728,2,8.11514652709961,5.72693037109375,0.6871358764648438,-1.786259541984733,0.16030534351145037,-1.5725190839694656
3913890772880,4.252810884,2,8.111555224609374,5.730521673583984,0.6871358764648438,-1.6870229007633588,0.24427480916030533,-1.6106870229007633
3913898074494,4.260112498,2,8.117540728759765,5.742492681884765,0.718260498046875,-1.7099236641221374,0.17557251908396945,-1.5190839694656488
3913905319755,4.267357759,2,8.10796392211914,5.754463690185546,0.7589619262695312,-1.7709923664122138,0.2595419847328244,-1.4885496183206106
3913912661526,4.27469953,2,8.100781317138672,5.7317187744140625,0.7733271362304687,-1.717557251908397,0.20610687022900764,-1.5648854961832062
3913919930119,4.281968123,2,8.119934930419921,5.736507177734374,0.6859387756347656,-1.7251908396946565,0.1984732824427481,-1.5648854961832062
3913927217411,4.289255415,2,8.098387115478515,5.746083984375,0.7242460021972655,-1.702290076335878,0.2824427480916031,-1.5801526717557253
3913934541317,4.296579321,2,8.103175518798828,5.779602807617187,0.7350199096679687,-1.7709923664122138,0.16030534351145037,-1.5572519083969465
3913941838922,4.303876926,2,8.095992913818359,5.749675286865234,0.7242460021972655,-1.8091603053435115,0.19083969465648856,-1.6030534351145038
3913949120692,4.311158696,2,8.09479581298828,5.778405706787109,0.7218518005371093,-1.816793893129771,0.31297709923664124,-1.6259541984732824
3913956472619,4.318510623,2,8.119934930419921,5.754463690185546,0.7398083129882812,-1.816793893129771,0.16030534351145037,-1.549618320610687
3913963775953,4.325813957,2,8.090007409667969,5.748478186035156,0.689530078125,-1.8244274809160306,0.22137404580152673,-1.618320610687023
3913971123922,4.333161926,2,8.25520732421875,5.742492681884765,0.7362170104980469,-1.7328244274809161,0.2366412213740458,-1.6030534351145038
3913978484599,4.340522603,2,8.092401611328125,5.741295581054687,0.7122749938964843,-1.748091603053435,0.17557251908396945,-1.633587786259542
3913985825119,4.347863123,2,8.110358123779296,5.762843395996094,0.7302315063476562,-1.816793893129771,0.2595419847328244,-1.549618320610687
3913993198817,4.355236821,2,8.110358123779296,5.753266589355468,0.7553706237792969,-1.786259541984733,0.2366412213740458,-1.5648854961832062
3914000486369,4.362524373,2,8.106766821289062,5.767631799316406,0.7110778930664062,-1.7328244274809161,0.21374045801526717,-1.5419847328244274
3914007809807,4.369847811,2,8.135497241210937,5.7317187744140625,0.7350199096679687,-1.748091603053435,0.2748091603053435,-1.534351145038168
3914015144130,4.377182134,2,8.13310303955078,5.747281085205078,0.7278373046875,-1.8015267175572518,0.21374045801526717,-1.5954198473282444
3914022529651,4.384567655,2,8.095992913818359,5.7520694885253905,0.7493851196289062,-1.7709923664122138,0.24427480916030533,-1.6106870229007633
3914029832984,4.391870988,2,8.093598712158203,5.743689782714843,0.7721300354003906,-1.7633587786259541,0.25190839694656486,-1.6030534351145038
3914037157151,4.399195155,2,8.097190014648437,5.737704278564453,0.7350199096679687,-1.7709923664122138,0.22137404580152673,-1.5954198473282444
3914044370536,4.40640854,2,8.106766821289062,5.737704278564453,0.6919242797851562,-1.6946564885496183,0.26717557251908397,-1.549618320610687
3914051690640,4.413728644,2,8.08881030883789,5.774814404296874,0.7493851196289062,-1.7709923664122138,0.31297709923664124,-1.6412213740458015
3914059028869,4.421066873,2,8.095992913818359,5.758054992675781,0.7398083129882812,-1.7786259541984732,0.2824427480916031,-1.5572519083969465
3914066343505,4.428381509,2,8.117540728759765,5.737704278564453,0.7218518005371093,-1.748091603053435,0.21374045801526717,-1.6259541984732824
3914073643401,4.435681405,2,8.105569720458984,5.754463690185546,0.7050923889160156,-1.748091603053435,0.31297709923664124,-1.6488549618320612
3914080931109,4.442969113,2,8.113949426269532,5.758054992675781,0.7062894897460937,-1.7251908396946565,0.20610687022900764,-1.5725190839694656
3914088200797,4.450238801,2,8.110358123779296,5.7508723876953125,0.7170633972167968,-1.748091603053435,0.1297709923664122,-1.5648854961832062
3914095530171,4.457568175,2,8.113949426269532,5.753266589355468,0.719457598876953,-1.7709923664122138,0.2900763358778626,-1.5725190839694656
3914102897411,4.464935415,2,8.10796392211914,5.744886883544922,0.7278373046875,-1.7328244274809161,0.26717557251908397,-1.5419847328244274
3914110231474,4.472269478,2,8.1594392578125,5.7520694885253905,0.7254431030273437,-1.8015267175572518,0.31297709923664124,-1.6030534351145038
3914117513088,4.479551092,2,8.128314636230469,5.753266589355468,0.7422025146484375,-1.7557251908396947,0.25190839694656486,-1.6030534351145038
3914124948921,4.486986925,2,8.122329132080077,5.762843395996094,0.7362170104980469,-1.748091603053435,0.16030534351145037,-1.5648854961832062
3914132283036,4.49432104,2,8.112752325439452,5.777208605957031,0.737414111328125,-1.7633587786259541,0.32061068702290074,-1.5419847328244274
3914139571005,4.501609009,2,8.090007409667969,5.749675286865234,0.729034405517578,-1.7786259541984732,0.20610687022900764,-1.6259541984732824
3914146908088,4.508946092,2,8.111555224609374,5.741295581054687,0.7326257080078125,-1.7557251908396947,0.24427480916030533,-1.618320610687023
3914154269651,4.516307655,2,8.106766821289062,5.736507177734374,0.7062894897460937,-1.8091603053435115,0.20610687022900764,-1.5572519083969465
3914161603349,4.523641353,2,8.124723333740233,5.743689782714843,0.70868369140625,-1.8473282442748091,0.1450381679389313,-1.5419847328244274
3914168931734,4.530969738,2,8.139088543701172,5.741295581054687,0.7350199096679687,-1.7633587786259541,0.183206106870229,-1.5648854961832062
3914176278349,4.538316353,2,8.116343627929687,5.735310076904296,0.7613561279296874,-1.7938931297709924,0.17557251908396945,-1.534351145038168
3914183676317,4.545714321,2,8.104372619628906,5.758054992675781,0.7457938171386719,-1.7404580152671756,0.1297709923664122,-1.5954198473282444
3914190996057,4.553034061,2,8.093598712158203,5.748478186035156,0.7314286071777343,-1.7328244274809161,0.17557251908396945,-1.6412213740458015
3914198339442,4.560377446,2,8.08881030883789,5.728127471923828,0.6512228515624999,-1.7328244274809161,0.20610687022900764,-1.5725190839694656
3914205639494,4.567677498,2,8.110358123779296,5.72693037109375,0.6979097839355468,-1.7404580152671756,0.19083969465648856,-1.6412213740458015
3914213019911,4.575057915,2,8.099584216308592,5.758054992675781,0.7134720947265625,-1.7251908396946565,0.25190839694656486,-1.6564885496183206
3914220385692,4.582423696,2,8.086416107177733,5.753266589355468,0.7218518005371093,-1.7633587786259541,0.21374045801526717,-1.6259541984732824
3914227714078,4.589752082,2,8.116343627929687,5.740098480224609,0.7445967163085937,-1.7328244274809161,0.3053435114503817,-1.5801526717557253
3914235073557,4.597111561,2,8.118737829589843,5.762843395996094,0.7721300354003906,-1.7328244274809161,0.2595419847328244,-1.534351145038168
3914242414286,4.60445229,2,8.152256652832031,5.741295581054687,0.709880792236328,-1.6793893129770991,0.13740458015267176,-1.6106870229007633
3914249711317,4.611749321,2,8.131905938720703,5.735310076904296,0.7350199096679687,-1.7404580152671756,0.31297709923664124,-1.5954198473282444
3914256939911,4.618977915,2,8.143876947021484,5.737704278564453,0.7218518005371093,-1.717557251908397,0.25190839694656486,-1.5954198473282444
3914264266421,4.626304425,2,8.13310303955078,5.760449194335937,0.719457598876953,-1.7251908396946565,0.1984732824427481,-1.5572519083969465
3914271529546,4.63356755,2,8.097190014648437,5.760449194335937,0.718260498046875,-1.7251908396946565,0.33587786259541985,-1.549618320610687
3914278890849,4.640928853,2,8.095992913818359,5.758054992675781,0.6931213806152343,-1.7404580152671756,0.19083969465648856,-1.6106870229007633
3914286223974,4.648261978,2,8.106766821289062,5.778405706787109,0.7541735229492187,-1.7404580152671756,0.09923664122137404,-1.618320610687023
3914293528192,4.655566196,2,8.11514652709961,5.767631799316406,0.7457938171386719,-1.748091603053435,0.15267175572519084,-1.618320610687023
3914300807203,4.662845207,2,8.113949426269532,5.760449194335937,0.7314286071777343,-1.7251908396946565,0.20610687022900764,-1.6030534351145038
3914308112411,4.670150415,2,8.111555224609374,5.755660791015624,0.7278373046875,-1.8015267175572518,0.21374045801526717,-1.5877862595419847
3914315403401,4.677441405,2,8.251616021728514,5.753266589355468,0.7158662963867187,-1.8244274809160306,0.25190839694656486,-1.6030534351145038
3914322676473,4.684714477,2,8.105569720458984,5.766434698486328,0.7218518005371093,-1.7786259541984732,0.183206106870229,-1.5954198473282444
3914329964078,4.692002082,2,8.13310303955078,5.749675286865234,0.7158662963867187,-1.7328244274809161,0.25190839694656486,-1.5725190839694656
3914337272880,4.699310884,2,8.124723333740233,5.729324572753906,0.7410054138183594,-1.7938931297709924,0.2824427480916031,-1.5419847328244274
3914344636734,4.706674738,2,8.109161022949218,5.754463690185546,0.7254431030273437,-1.8244274809160306,0.16793893129770993,-1.618320610687023
3914351971578,4.714009582,2,8.129511737060547,5.7520694885253905,0.6835445739746093,-1.816793893129771,0.20610687022900764,-1.6488549618320612
3914359323869,4.721361873,2,8.112752325439452,5.717353564453124,0.7433996154785156,-1.7557251908396947,0.1984732824427481,-1.5954198473282444
3914366610588,4.728648592,2,8.129511737060547,5.718550665283203,0.718260498046875,-1.8015267175572518,0.12213740458015267,-1.5725190839694656
3914373972255,4.736010259,2,8.134300140380859,5.761646295166015,0.7517793212890624,-1.7709923664122138,0.2748091603053435,-1.534351145038168
3914381284807,4.743322811,2,8.135497241210937,5.746083984375,0.7038952880859375,-1.7938931297709924,0.24427480916030533,-1.5801526717557253
3914388691994,4.750729998,2,8.148665350341796,5.742492681884765,0.709880792236328,-1.816793893129771,0.183206106870229,-1.5725190839694656
3914396042515,4.758080519,2,8.154650854492187,5.767631799316406,0.6847416748046875,-1.7404580152671756,0.2595419847328244,-1.6030534351145038
3914403376109,4.765414113,2,8.111555224609374,5.742492681884765,0.7254431030273437,-1.7633587786259541,0.1984732824427481,-1.6030534351145038
3914410738140,4.772776144,2,8.139088543701172,5.756857891845703,0.6763619689941406,-1.7404580152671756,0.21374045801526717,-1.618320610687023
3914418099651,4.780137655,2,8.125920434570313,5.736507177734374,0.6835445739746093,-1.7709923664122138,0.2900763358778626,-1.6106870229007633
3914425421526,4.78745953,2,8.092401611328125,5.735310076904296,0.7218518005371093,-1.7557251908396947,0.16030534351145037,-1.633587786259542
3914432739234,4.794777238,2,8.12113203125,5.742492681884765,0.7314286071777343,-1.7786259541984732,0.22137404580152673,-1.5801526717557253
3914440093348,4.802131352,2,7.988253839111327,5.719747766113281,0.7206546997070312,-1.7938931297709924,0.22900763358778625,-1.534351145038168
3914447367359,4.809405363,2,8.112752325439452,5.747281085205078,0.7422025146484375,-1.7633587786259541,0.16030534351145037,-1.5954198473282444
3914454711213,4.816749217,2,8.118737829589843,5.743689782714843,0.7230489013671875,-1.7557251908396947,0.3053435114503817,-1.6488549618320612
3914462029182,4.824067186,2,8.119934930419921,5.749675286865234,0.7338228088378905,-1.7938931297709924,0.22137404580152673,-1.6030534351145038
3914469330692,4.831368696,2,8.109161022949218,5.76523759765625,0.6165069274902344,-1.7328244274809161,0.29770992366412213,-1.534351145038168
3914476698140,4.838736144,2,8.097190014648437,5.746083984375,0.7529764221191406,-1.7633587786259541,0.3282442748091603,-1.5801526717557253
3914484043401,4.846081405,2,8.095992913818359,5.77122310180664,0.7553706237792969,-1.6793893129770991,0.24427480916030533,-1.6106870229007633
3914491351421,4.853389425,2,8.104372619628906,5.7520694885253905,0.7038952880859375,-1.6488549618320612,0.2595419847328244,-1.6106870229007633
3914498725484,4.860763488,2,8.119934930419921,5.740098480224609,0.7254431030273437,-1.6564885496183206,0.2748091603053435,-1.6641221374045803
3914506046578,4.868084582,2,8.123526232910155,5.719747766113281,0.7326257080078125,-1.748091603053435,0.19083969465648856,-1.6870229007633588
3914513396317,4.875434321,2,8.113949426269532,5.743689782714843,0.7062894897460937,-1.7328244274809161,0.2595419847328244,-1.6412213740458015
3914520740380,4.882778384,2,8.116343627929687,5.735310076904296,0.6871358764648438,-1.748091603053435,0.2748091603053435,-1.5877862595419847
3914528096213,4.890134217,2,8.112752325439452,5.748478186035156,0.6715735656738281,-1.8091603053435115,0.19083969465648856,-1.5725190839694656
3914535533036,4.89757104,2,8.124723333740233,5.748478186035156,0.7170633972167968,-1.7709923664122138,0.2900763358778626,-1.5954198473282444
3914542913713,4.904951717,2,8.112752325439452,5.758054992675781,0.7254431030273437,-1.8091603053435115,0.3282442748091603,-1.5801526717557253
3914550292463,4.912330467,2,8.12113203125,5.7508723876953125,0.7386112121582031,-1.7557251908396947,0.1984732824427481,-1.6106870229007633
3914557513036,4.91955104,2,8.113949426269532,5.761646295166015,0.7003039855957031,-1.8091603053435115,0.2366412213740458,-1.6106870229007633
3914564861421,4.926899425,2,8.271966735839843,5.76523759765625,0.7242460021972655,-1.7251908396946565,0.22137404580152673,-1.6030534351145038
3914572159025,4.934197029,2,8.134300140380859,5.736507177734374,0.7134720947265625,-1.7328244274809161,0.17557251908396945,-1.5648854961832062
3914579511161,4.941549165,2,8.130708837890625,5.747281085205078,0.7481880187988281,-1.7251908396946565,0.2748091603053435,-1.5572519083969465
3914586792150,4.948830154,2,8.125920434570313,5.764040496826172,0.7553706237792969,-1.7099236641221374,0.183206106870229,-1.4961832061068703
3914594182932,4.956220936,2,8.112752325439452,5.758054992675781,0.7601590270996094,-1.7786259541984732,0.17557251908396945,-1.633587786259542
3914601632203,4.963670207,2,8.122329132080077,5.720944866943359,0.7984662536621093,-1.7786259541984732,0.22900763358778625,-1.6106870229007633
3914609033036,4.97107104,2,8.10197841796875,5.773617303466796,0.7266402038574218,-1.6717557251908397,0.1984732824427481,-1.6030534351145038
3914616352984,4.978390988,2,8.119934930419921,5.746083984375,0.7266402038574218,-1.7099236641221374,0.24427480916030533,-1.6564885496183206
3914623756005,4.985794009,2,8.137891442871092,5.740098480224609,0.7170633972167968,-1.7709923664122138,0.25190839694656486,-1.549618320610687
3914631149494,4.993187498,2,8.10796392211914,5.722141967773437,0.7134720947265625,-1.7251908396946565,0.21374045801526717,-1.633587786259542
3914638539546,5.00057755,2,8.0828248046875,5.744886883544922,0.7553706237792969,-1.748091603053435,0.2595419847328244,-1.5648854961832062
3914645871213,5.007909217,2,8.099584216308592,5.735310076904296,0.7338228088378905,-1.7709923664122138,0.2595419847328244,-1.5954198473282444
3914653231942,5.015269946,2,8.117540728759765,5.730521673583984,0.7757213378906249,-1.7709923664122138,0.25190839694656486,-1.5038167938931297
3914660563973,5.022601977,2,8.097190014648437,5.785588311767578,0.7050923889160156,-1.7633587786259541,0.25190839694656486,-1.549618320610687
3914667889963,5.029927967,2,8.104372619628906,5.761646295166015,0.7386112121582031,-1.748091603053435,0.22137404580152673,-1.5877862595419847
3914675214025,5.037252029,2,8.128314636230469,5.7508723876953125,0.7338228088378905,-1.8091603053435115,0.17557251908396945,-1.5419847328244274
3914682540328,5.044578332,2,8.125920434570313,5.746083984375,0.7613561279296874,-1.7786259541984732,0.2824427480916031,-1.6259541984732824
3914689974078,5.052012082,2,8.143876947021484,5.753266589355468,0.6943184814453125,-1.748091603053435,0.1984732824427481,-1.633587786259542
3914697302775,5.059340779,2,8.13310303955078,5.743689782714843,0.6979097839355468,-1.7404580152671756,0.21374045801526717,-1.6259541984732824
3914704676109,5.066714113,2,8.143876947021484,5.743689782714843,0.718260498046875,-1.7099236641221374,0.22900763358778625,-1.5725190839694656
3914711988453,5.074026457,2,8.119934930419921,5.755660791015624,0.7625532287597656,-1.7557251908396947,0.22900763358778625,-1.6641221374045803
3914719323400,5.081361404,2,8.131905938720703,5.742492681884765,0.7062894897460937,-1.748091603053435,0.37404580152671757,-1.5801526717557253
3914726663817,5.088701821,2,8.098387115478515,5.760449194335937,0.7350199096679687,-1.816793893129771,0.366412213740458,-1.6412213740458015
3914733994078,5.096032082,2,8.134300140380859,5.778405706787109,0.6739677673339843,-1.748091603053435,0.22900763358778625,-1.6488549618320612
3914741342203,5.103380207,2,8.09479581298828,5.755660791015624,0.7110778930664062,-1.816793893129771,0.2748091603053435,-1.6412213740458015
3914748677775,5.110715779,2,8.095992913818359,5.737704278564453,0.719457598876953,-1.7251908396946565,0.2366412213740458,-1.5954198473282444
3914755991213,5.118029217,2,8.086416107177733,5.754463690185546,0.7338228088378905,-1.7404580152671756,0.19083969465648856,-1.618320610687023
3914763337150,5.125375154,2,8.105569720458984,5.749675286865234,0.7230489013671875,-1.748091603053435,0.2366412213740458,-1.633587786259542
3914770717619,5.132755623,2,8.085219006347655,5.768828900146484,0.7445967163085937,-1.7633587786259541,0.183206106870229,-1.6717557251908397
3914778045275,5.140083279,2,8.08881030883789,5.767631799316406,0.7649474304199219,-1.7938931297709924,0.21374045801526717,-1.618320610687023
3914785461682,5.147499686,2,8.10796392211914,5.764040496826172,0.7457938171386719,-1.748091603053435,0.2366412213740458,-1.5877862595419847
3914792845588,5.154883592,2,8.111555224609374,5.780799908447265,0.7254431030273437,-1.7251908396946565,0.16030534351145037,-1.5725190839694656
3914800174963,5.162212967,2,8.118737829589843,5.778405706787109,0.7398083129882812,-1.6946564885496183,0.25190839694656486,-1.6030534351145038
3914807499598,5.169537602,2,8.128314636230469,5.755660791015624,0.7242460021972655,-1.717557251908397,0.2824427480916031,-1.5954198473282444
3914814834911,5.176872915,2,8.111555224609374,5.756857891845703,0.7362170104980469,-1.702290076335878,0.1984732824427481,-1.5954198473282444
3914822192723,5.184230727,2,8.109161022949218,5.759252093505859,0.7493851196289062,-1.7099236641221374,0.2366412213740458,-1.6106870229007633
3914829495692,5.191533696,2,8.0828248046875,5.760449194335937,0.6883329772949218,-1.7557251908396947,0.21374045801526717,-1.5419847328244274
3914836860640,5.198898644,2,8.098387115478515,5.746083984375,0.6967126831054687,-1.7709923664122138,0.22137404580152673,-1.5648854961832062
3914844176994,5.206214998,2,8.105569720458984,5.7508723876953125,0.7302315063476562,-1.7557251908396947,0.2366412213740458,-1.5572519083969465
3914851515900,5.213553904,2,8.116343627929687,5.7700260009765625,0.6919242797851562,-1.7633587786259541,0.2595419847328244,-1.5954198473282444
3914858804650,5.220842654,2,8.092401611328125,5.7520694885253905,0.7110778930664062,-1.7709923664122138,0.22137404580152673,-1.5572519083969465
3914866126890,5.228164894,2,8.097190014648437,5.759252093505859,0.7445967163085937,-1.7328244274809161,0.2748091603053435,-1.5877862595419847
3914873446890,5.235484894,2,8.125920434570313,5.7520694885253905,0.7625532287597656,-1.7251908396946565,0.2595419847328244,-1.5572519083969465
3914880835640,5.242873644,2,8.113949426269532,5.756857891845703,0.7517793212890624,-1.717557251908397,0.21374045801526717,-1.5267175572519085
3914888205015,5.250243019,2,8.11514652709961,5.76523759765625,0.7026981872558593,-1.7404580152671756,0.1984732824427481,-1.5190839694656488
3914895516109,5.257554113,2,8.113949426269532,5.764040496826172,0.7589619262695312,-1.7786259541984732,0.183206106870229,-1.4885496183206106
3914902898088,5.264936092,2,8.117540728759765,5.7700260009765625,0.7122749938964843,-1.7633587786259541,0.2900763358778626,-1.6259541984732824
3914910255432,5.272293436,2,8.100781317138672,5.738901379394531,0.6955155822753906,-1.7404580152671756,0.22900763358778625,-1.6488549618320612
3914917614807,5.279652811,2,8.113949426269532,5.722141967773437,0.6584054565429687,-1.8091603053435115,0.1297709923664122,-1.5725190839694656
3914924974234,5.287012238,2,8.131905938720703,5.755660791015624,0.7278373046875,-1.7557251908396947,0.16030534351145037,-1.6030534351145038
3914932303869,5.294341873,2,8.129511737060547,5.744886883544922,0.7254431030273437,-1.7328244274809161,0.21374045801526717,-1.5877862595419847
3914939624286,5.30166229,2,8.087613208007811,5.749675286865234,0.699106884765625,-1.7633587786259541,0.15267175572519084,-1.6030534351145038
3914947142202,5.309180206,2,8.10796392211914,5.761646295166015,0.6967126831054687,-1.786259541984733,0.25190839694656486,-1.6259541984732824
3914954531265,5.316569269,2,8.10197841796875,5.719747766113281,0.7062894897460937,-1.717557251908397,0.22900763358778625,-1.6564885496183206
3914961854338,5.323892342,2,8.105569720458984,5.7317187744140625,0.7529764221191406,-1.748091603053435,0.19083969465648856,-1.6030534351145038
3914969221369,5.331259373,2,8.113949426269532,5.747281085205078,0.7302315063476562,-1.717557251908397,0.2748091603053435,-1.6412213740458015
3914976553817,5.338591821,2,8.10796392211914,5.742492681884765,0.7158662963867187,-1.7328244274809161,0.22137404580152673,-1.6030534351145038
3914983872827,5.345910831,2,8.10796392211914,5.764040496826172,0.7481880187988281,-1.7633587786259541,0.21374045801526717,-1.6488549618320612
3914991314077,5.353352081,2,8.116343627929687,5.723339068603515,0.7314286071777343,-1.7633587786259541,0.24427480916030533,-1.5954198473282444
3914998655744,5.360693748,2,8.123526232910155,5.76523759765625,0.7230489013671875,-1.717557251908397,0.21374045801526717,-1.5954198473282444
3915006017463,5.368055467,2,8.123526232910155,5.7520694885253905,0.7517793212890624,-1.7404580152671756,0.2748091603053435,-1.5877862595419847
3915013407150,5.375445154,2,8.118737829589843,5.779602807617187,0.7278373046875,-1.7938931297709924,0.2366412213740458,-1.5725190839694656
3915020850119,5.382888123,2,8.12711753540039,5.774814404296874,0.7206546997070312,-1.816793893129771,0.16793893129770993,-1.6259541984732824
3915028217254,5.390255258,2,8.118737829589843,5.756857891845703,0.7242460021972655,-1.748091603053435,0.33587786259541985,-1.6412213740458015
3915035588713,5.397626717,2,8.116343627929687,5.741295581054687,0.709880792236328,-1.786259541984733,0.24427480916030533,-1.5954198473282444
3915042964546,5.40500255,2,8.100781317138672,5.758054992675781,0.689530078125,-1.8244274809160306,0.24427480916030533,-1.6259541984732824
3915050372619,5.412410623,2,8.13310303955078,5.756857891845703,0.6847416748046875,-1.816793893129771,0.32061068702290074,-1.5648854961832062
3915057719546,5.41975755,2,8.119934930419921,5.743689782714843,0.6835445739746093,-1.7633587786259541,0.13740458015267176,-1.5877862595419847
3915065018192,5.427056196,2,8.130708837890625,5.722141967773437,0.6979097839355468,-1.7633587786259541,0.24427480916030533,-1.618320610687023
3915072333661,5.434371665,2,8.098387115478515,5.718550665283203,0.7601590270996094,-1.7709923664122138,0.2366412213740458,-1.5801526717557253
3915079633504,5.441671508,2,8.111555224609374,5.740098480224609,0.7242460021972655,-1.7557251908396947,0.22900763358778625,-1.5572519083969465
3915087019963,5.449057967,2,8.093598712158203,5.747281085205078,0.7326257080078125,-1.7404580152671756,0.29770992366412213,-1.618320610687023
3915094366369,5.456404373,2,8.08881030883789,5.759252093505859,0.718260498046875,-1.7251908396946565,0.19083969465648856,-1.6030534351145038
3915101673869,5.463711873,2,8.12113203125,5.762843395996094,0.729034405517578,-1.717557251908397,0.183206106870229,-1.5954198473282444
3915109032463,5.471070467,2,8.106766821289062,5.767631799316406,0.7433996154785156,-1.7328244274809161,0.32061068702290074,-1.6106870229007633
3915116349546,5.47838755,2,8.098387115478515,5.747281085205078,0.7242460021972655,-1.7786259541984732,0.24427480916030533,-1.6106870229007633
3915123703504,5.485741508,2,8.113949426269532,5.749675286865234,0.7410054138183594,-1.8473282442748091,0.20610687022900764,-1.5419847328244274
3915130992202,5.493030206,2,8.087613208007811,5.755660791015624,0.7338228088378905,-1.816793893129771,0.26717557251908397,-1.5801526717557253
3915138334702,5.500372706,2,8.116343627929687,5.760449194335937,0.6679822631835937,-1.7938931297709924,0.22900763358778625,-1.5801526717557253
3915145674025,5.507712029,2,8.110358123779296,5.759252093505859,0.7050923889160156,-1.7404580152671756,0.22137404580152673,-1.618320610687023
3915153040640,5.515078644,2,8.103175518798828,5.734112976074218,0.70868369140625,-1.748091603053435,0.17557251908396945,-1.5801526717557253
3915160379182,5.522417186,2,8.087613208007811,5.7137622619628905,0.699106884765625,-1.7404580152671756,0.15267175572519084,-1.5190839694656488
3915167693452,5.529731456,2,8.103175518798828,5.746083984375,0.7134720947265625,-1.7099236641221374,0.22137404580152673,-1.6030534351145038
3915175047411,5.537085415,2,8.142679846191406,5.741295581054687,0.7398083129882812,-1.717557251908397,0.2366412213740458,-1.5877862595419847
3915182407932,5.544445936,2,8.134300140380859,5.742492681884765,0.737414111328125,-1.7786259541984732,0.24427480916030533,-1.5954198473282444
3915189819754,5.551857758,2,8.10197841796875,5.753266589355468,0.7230489013671875,-1.7099236641221374,0.3435114503816794,-1.5572519083969465
3915197203661,5.559241665,2,8.112752325439452,5.761646295166015,0.6727706665039062,-1.7251908396946565,0.19083969465648856,-1.6259541984732824
3915204517098,5.566555102,2,8.128314636230469,5.742492681884765,0.7158662963867187,-1.7557251908396947,0.15267175572519084,-1.6106870229007633
3915211870484,5.573908488,2,8.095992913818359,5.758054992675781,0.7026981872558593,-1.7404580152671756,0.183206106870229,-1.6412213740458015
