timestamp_ns,t_s,sensor_id,ax,ay,az,gx,gy,gz
5208275439626,0.064843907,1,0.22026655273437498,1.7381904052734374,-11.19169566040039,-0.8931297709923665,0.6106870229007634,-1.5419847328244274
5208285405042,0.074809323,1,0.22266075439453123,1.6927005737304686,-11.2240173828125,-0.8320610687022901,0.5267175572519084,-1.3206106870229009
5208295404574,0.084808855,1,0.21906945190429686,1.7585411193847655,-11.156979736328124,-0.8091603053435115,0.5343511450381679,-1.3511450381679388
5208305406657,0.094810938,1,0.23104046020507812,1.7214309936523438,-11.186907257080078,-0.8244274809160306,0.6183206106870229,-1.3740458015267176
5208315398011,0.104802292,1,0.25737667846679685,1.7238251953125,-11.143811627197264,-0.7938931297709924,0.549618320610687,-1.381679389312977
5208325397594,0.114801875,1,0.23223756103515625,1.7226280944824217,-11.08395658569336,-0.8320610687022901,0.549618320610687,-1.3358778625954197
5208335397074,0.124801355,1,0.2154781494140625,1.734599102783203,-11.196484063720703,-0.9083969465648855,0.5877862595419847,-1.3358778625954197
5208345397126,0.134801407,1,0.24061726684570311,1.7238251953125,-11.125855114746093,-0.8778625954198473,0.6183206106870229,-1.2900763358778626
5208355397334,0.144801615,1,0.19153613281249998,1.7621324218749999,-11.180921752929686,-0.8625954198473282,0.5954198473282443,-1.3358778625954197
5208365396553,0.154800834,1,0.24181436767578124,1.7226280944824217,-11.103110198974608,-0.8473282442748091,0.5572519083969466,-1.282442748091603
5208375395563,0.164799844,1,0.22266075439453123,1.7465701110839842,-11.19887826538086,-0.8473282442748091,0.5267175572519084,-1.3129770992366412
5208385396032,0.174800313,1,0.24061726684570311,1.725022296142578,-11.139023223876952,-0.7480916030534351,0.5801526717557252,-1.381679389312977
5208395396084,0.184800365,1,0.1592144104003906,1.7118541870117185,-11.161768139648437,-0.8549618320610687,0.6106870229007634,-1.3511450381679388
5208405396344,0.194800625,1,0.21188684692382811,1.675941162109375,-11.271901416015623,-0.8702290076335878,0.5877862595419847,-1.2900763358778626
5208415396761,0.204801042,1,0.23343466186523437,1.70467158203125,-11.21683477783203,-0.8625954198473282,0.6335877862595419,-1.3053435114503817
5208425395563,0.214799844,1,0.24660277099609373,1.715445489501953,-11.171344946289063,-0.7786259541984732,0.5648854961832062,-1.3053435114503817
5208435395719,0.2248,1,0.23343466186523437,1.7453730102539062,-11.220426080322264,-0.7938931297709924,0.5801526717557252,-1.3206106870229009
5208445399365,0.234803646,1,0.19991583862304688,1.7465701110839842,-11.188104357910156,-0.8244274809160306,0.5877862595419847,-1.3053435114503817
5208455396449,0.24480073,1,0.2154781494140625,1.7525556152343749,-11.243170996093749,-0.8931297709923665,0.5343511450381679,-1.3511450381679388
5208465396917,0.254801198,1,0.28012159423828126,1.7429788085937499,-11.168950744628905,-0.816793893129771,0.5419847328244275,-1.3358778625954197
5208475395876,0.264800157,1,0.24779987182617186,1.7166425903320313,-11.225214483642578,-0.8549618320610687,0.5572519083969466,-1.3129770992366412
5208485396292,0.274800573,1,0.21308394775390624,1.7489643127441405,-11.184513055419922,-0.7404580152671756,0.5572519083969466,-1.2290076335877862
5208495396240,0.284800521,1,0.24181436767578124,1.7393875061035156,-11.23000288696289,-0.9083969465648855,0.6564885496183206,-1.3053435114503817
5208505396032,0.294800313,1,0.23582886352539062,1.7561469177246092,-11.16057103881836,-0.8244274809160306,0.6106870229007634,-1.3129770992366412
5208515396188,0.304800469,1,0.2442085693359375,1.7657237243652342,-11.18571015625,-0.816793893129771,0.5877862595419847,-1.3129770992366412
5208525396084,0.314800365,1,0.23104046020507812,1.7034744812011717,-11.174936248779296,-0.7786259541984732,0.5267175572519084,-1.3435114503816794
5208535395511,0.324799792,1,0.22744915771484372,1.7166425903320313,-11.188104357910156,-0.8931297709923665,0.5725190839694656,-1.3358778625954197
5208545397074,0.334801355,1,0.2454056701660156,1.7334020019531249,-11.146205828857422,-0.7938931297709924,0.5877862595419847,-1.2671755725190839
5208555396032,0.344800313,1,0.239420166015625,1.6998831787109374,-11.161768139648437,-0.8549618320610687,0.6335877862595419,-1.2671755725190839
5208565396553,0.354800834,1,0.258573779296875,1.7034744812011717,-11.179724652099608,-0.8244274809160306,0.5725190839694656,-1.3129770992366412
5208575396084,0.364800365,1,0.22266075439453123,1.6903063720703124,-11.247959399414063,-0.8244274809160306,0.5801526717557252,-1.2900763358778626
5208585394678,0.374798959,1,0.22385785522460935,1.753752716064453,-11.146205828857422,-0.8091603053435115,0.5954198473282443,-1.366412213740458
5208595396657,0.384800938,1,0.22864625854492185,1.7669208251953124,-11.231199987792968,-0.8625954198473282,0.5190839694656488,-1.2595419847328244
5208605396032,0.394800313,1,0.1771709228515625,1.7645266235351562,-11.231199987792968,-0.7633587786259542,0.5114503816793893,-1.3435114503816794
5208615397803,0.404802084,1,0.229843359375,1.7393875061035156,-11.17254204711914,-0.8702290076335878,0.5648854961832062,-1.297709923664122
5208625395459,0.41479974,1,0.2154781494140625,1.715445489501953,-11.139023223876952,-0.7175572519083969,0.549618320610687,-1.3053435114503817
5208635396449,0.42480073,1,0.22026655273437498,1.7298106994628906,-11.146205828857422,-0.7709923664122137,0.5648854961832062,-1.3358778625954197
5208645398167,0.434802448,1,0.22385785522460935,1.7453730102539062,-11.13423482055664,-0.7557251908396947,0.5267175572519084,-1.3206106870229009
5208655395876,0.444800157,1,0.21188684692382811,1.7322049011230467,-11.200075366210937,-0.8549618320610687,0.5877862595419847,-1.282442748091603
5208665396240,0.454800521,1,0.2454056701660156,1.7417817077636717,-11.220426080322264,-0.8091603053435115,0.5343511450381679,-1.2671755725190839
5208675395355,0.464799636,1,0.2214636535644531,1.715445489501953,-11.171344946289063,-0.8473282442748091,0.6106870229007634,-1.3129770992366412
5208685395198,0.474799479,1,0.22266075439453123,1.7286135986328124,-11.213243475341796,-0.7633587786259542,0.5343511450381679,-1.3358778625954197
5208695396292,0.484800573,1,0.2442085693359375,1.7369933044433592,-11.197681164550781,-0.8625954198473282,0.6412213740458015,-1.297709923664122
5208705396084,0.494800365,1,0.2549824768066406,1.7369933044433592,-11.195286962890624,-0.7633587786259542,0.6030534351145038,-1.3358778625954197
5208715395615,0.504799896,1,0.23822306518554687,1.7082628845214842,-11.21683477783203,-0.8091603053435115,0.6183206106870229,-1.3740458015267176
5208725395407,0.514799688,1,0.24301146850585936,1.7465701110839842,-11.171344946289063,-0.8244274809160306,0.5877862595419847,-1.3587786259541985
5208735396292,0.524800573,1,0.20709844360351562,1.7118541870117185,-11.192892761230468,-0.7786259541984732,0.5572519083969466,-1.3282442748091603
5208745395615,0.534799896,1,0.21068974609375,1.714248388671875,-11.179724652099608,-0.7786259541984732,0.6183206106870229,-1.3511450381679388
5208755396188,0.544800469,1,0.17118541870117188,1.7429788085937499,-11.186907257080078,-0.7557251908396947,0.5419847328244275,-1.3129770992366412
5208765395198,0.554799479,1,0.21308394775390624,1.7310078002929687,-11.159373937988281,-0.816793893129771,0.5114503816793893,-1.3206106870229009
5208775395407,0.564799688,1,0.21068974609375,1.7238251953125,-11.282675323486327,-0.8396946564885496,0.549618320610687,-1.3053435114503817
5208785395615,0.574799896,1,0.2561795776367187,1.7202338928222656,-11.228805786132812,-0.8015267175572519,0.5725190839694656,-1.3511450381679388
5208795394678,0.584798959,1,0.2154781494140625,1.744175909423828,-11.19887826538086,-0.8473282442748091,0.6030534351145038,-1.2900763358778626
5208805395980,0.594800261,1,0.18315642700195311,1.7429788085937499,-11.150994232177734,-0.7862595419847328,0.5725190839694656,-1.3129770992366412
5208815395511,0.604799792,1,0.24899697265624998,1.7357962036132812,-11.171344946289063,-0.8549618320610687,0.5801526717557252,-1.3282442748091603
5208825396188,0.614800469,1,0.21308394775390624,1.7286135986328124,-11.214440576171874,-0.7862595419847328,0.5114503816793893,-1.3206106870229009
5208835402542,0.624806823,1,0.19871873779296872,1.7501614135742187,-11.212046374511718,-0.9007633587786259,0.5572519083969466,-1.3358778625954197
5208845398532,0.634802813,1,0.29927520751953124,1.7298106994628906,-11.165359442138671,-0.7862595419847328,0.5954198473282443,-1.297709923664122
5208855395303,0.644799584,1,0.24181436767578124,1.734599102783203,-11.176133349609374,-0.8091603053435115,0.5877862595419847,-1.3206106870229009
5208865396084,0.654800365,1,0.24660277099609373,1.744175909423828,-11.130643518066405,-0.8473282442748091,0.648854961832061,-1.3206106870229009
5208875396136,0.664800417,1,0.22385785522460935,1.7381904052734374,-11.196484063720703,-0.8091603053435115,0.5725190839694656,-1.3206106870229009
5208885396084,0.674800365,1,0.2861070983886719,1.7226280944824217,-11.13423482055664,-0.7938931297709924,0.5801526717557252,-1.3053435114503817
5208895397386,0.684801667,1,0.30526071166992186,1.7477672119140624,-11.208455072021483,-0.8549618320610687,0.5419847328244275,-1.3129770992366412
5208905398480,0.694802761,1,0.22744915771484372,1.6735469604492186,-11.164162341308593,-0.8549618320610687,0.4961832061068702,-1.3129770992366412
5208915396344,0.704800625,1,0.2597708801269531,1.7106570861816406,-11.192892761230468,-0.7786259541984732,0.5038167938931297,-1.2671755725190839
5208925395511,0.714799792,1,0.19871873779296872,1.7226280944824217,-11.219228979492186,-0.8015267175572519,0.6030534351145038,-1.3129770992366412
5208935397282,0.724801563,1,0.2609679809570312,1.7489643127441405,-11.227608685302734,-0.8091603053435115,0.5267175572519084,-1.366412213740458
5208945395094,0.734799375,1,0.20949264526367187,1.7513585144042967,-11.239579693603515,-0.8473282442748091,0.6259541984732825,-1.282442748091603
5208955395250,0.744799531,1,0.24660277099609373,1.7453730102539062,-11.204863769531249,-0.816793893129771,0.5343511450381679,-1.3129770992366412
5208965395667,0.754799948,1,0.22026655273437498,1.7788918334960937,-11.167753643798827,-0.7938931297709924,0.6106870229007634,-1.366412213740458
5208975395823,0.764800104,1,0.15562310791015624,1.744175909423828,-11.221623181152344,-0.8015267175572519,0.5190839694656488,-1.3206106870229009
5208985395980,0.774800261,1,0.19393033447265623,1.7334020019531249,-11.16057103881836,-0.8244274809160306,0.5572519083969466,-1.297709923664122
5208995395511,0.784799792,1,0.1975216369628906,1.7489643127441405,-11.197681164550781,-0.7938931297709924,0.6183206106870229,-1.3129770992366412
5209005396605,0.794800886,1,0.26815058593749996,1.7214309936523438,-11.190498559570312,-0.816793893129771,0.5572519083969466,-1.297709923664122
5209015395615,0.804799896,1,0.1867477294921875,1.763329522705078,-11.177330450439452,-0.7633587786259542,0.5114503816793893,-1.3435114503816794
5209025395094,0.814799375,1,0.21906945190429686,1.763329522705078,-11.23000288696289,-0.8473282442748091,0.5190839694656488,-1.3740458015267176
5209035396032,0.824800313,1,0.22505495605468748,1.7118541870117185,-11.164162341308593,-0.7938931297709924,0.48854961832061067,-1.297709923664122
5209045395459,0.83479974,1,0.24899697265624998,1.7082628845214842,-11.152191333007812,-0.8549618320610687,0.6106870229007634,-1.3358778625954197
5209055395146,0.844799427,1,0.23223756103515625,1.707065783691406,-11.19887826538086,-0.8396946564885496,0.549618320610687,-1.3206106870229009
5209065395875,0.854800156,1,0.1975216369628906,1.7417817077636717,-11.171344946289063,-0.8396946564885496,0.5343511450381679,-1.3358778625954197
5209075394782,0.864799063,1,0.23822306518554687,1.7525556152343749,-11.190498559570312,-0.8091603053435115,0.48854961832061067,-1.3435114503816794
5209085396188,0.874800469,1,0.22385785522460935,1.7741034301757812,-11.176133349609374,-0.8931297709923665,0.6183206106870229,-1.297709923664122
5209095396188,0.884800469,1,0.22026655273437498,1.7513585144042967,-11.145008728027342,-0.7938931297709924,0.48854961832061067,-1.297709923664122
5209105396552,0.894800833,1,0.24061726684570311,1.7741034301757812,-11.206060870361327,-0.816793893129771,0.5954198473282443,-1.282442748091603
5209115396240,0.904800521,1,0.23223756103515625,1.715445489501953,-11.207257971191405,-0.8015267175572519,0.5801526717557252,-1.3129770992366412
5209125392855,0.914797136,1,0.2537853759765625,1.7393875061035156,-11.250353601074218,-0.8702290076335878,0.5801526717557252,-1.3129770992366412
5209135395875,0.924800156,1,0.18315642700195311,1.7334020019531249,-11.247959399414063,-0.8015267175572519,0.4961832061068702,-1.3129770992366412
5209145393792,0.934798073,1,0.28969840087890625,1.7429788085937499,-11.197681164550781,-0.8549618320610687,0.549618320610687,-1.2748091603053435
5209155396240,0.944800521,1,0.2346317626953125,1.707065783691406,-11.13423482055664,-0.7786259541984732,0.5267175572519084,-1.297709923664122
5209165395407,0.954799688,1,0.22505495605468748,1.648407843017578,-11.200075366210937,-0.8854961832061069,0.5343511450381679,-1.3129770992366412
5209175393427,0.964797708,1,0.24779987182617186,1.7501614135742187,-11.190498559570312,-0.8015267175572519,0.5572519083969466,-1.3358778625954197
5209185395511,0.974799792,1,0.2609679809570312,1.744175909423828,-11.238382592773437,-0.8702290076335878,0.6564885496183206,-1.3435114503816794
5209195396136,0.984800417,1,0.21308394775390624,1.7357962036132812,-11.17254204711914,-0.7938931297709924,0.5114503816793893,-1.3358778625954197
5209205396084,0.994800365,1,0.24660277099609373,1.7597382202148437,-11.118672509765624,-0.8320610687022901,0.5648854961832062,-1.282442748091603
5209215395667,1.004799948,1,0.2549824768066406,1.7238251953125,-11.141417425537108,-0.7557251908396947,0.5190839694656488,-1.3053435114503817
5209225394417,1.014798698,1,0.2454056701660156,1.7226280944824217,-11.197681164550781,-0.8473282442748091,0.5877862595419847,-1.3282442748091603
5209235396084,1.024800365,1,0.24061726684570311,1.7334020019531249,-11.190498559570312,-0.7786259541984732,0.6259541984732825,-1.381679389312977
5209245395875,1.034800156,1,0.21068974609375,1.7214309936523438,-11.142614526367186,-0.8625954198473282,0.5725190839694656,-1.3740458015267176
5209255395615,1.044799896,1,0.21188684692382811,1.7489643127441405,-11.177330450439452,-0.8091603053435115,0.6106870229007634,-1.3740458015267176
5209265395094,1.054799375,1,0.20470424194335937,1.7022773803710936,-11.215637677001952,-0.7938931297709924,0.6106870229007634,-1.3129770992366412
5209275394157,1.064798438,1,0.24061726684570311,1.753752716064453,-11.162965240478515,-0.8015267175572519,0.5954198473282443,-1.2900763358778626
5209285395563,1.074799844,1,0.28969840087890625,1.7585411193847655,-11.202469567871093,-0.8396946564885496,0.5419847328244275,-1.3282442748091603
5209295395667,1.084799948,1,0.22505495605468748,1.7262193969726563,-11.136629022216797,-0.8091603053435115,0.5267175572519084,-1.3282442748091603
5209305395927,1.094800208,1,0.16759411621093748,1.7657237243652342,-11.141417425537108,-0.8015267175572519,0.5343511450381679,-1.3358778625954197
5209315395407,1.104799688,1,0.22505495605468748,1.7094599853515624,-11.168950744628905,-0.7786259541984732,0.5419847328244275,-1.3587786259541985
5209325394157,1.114798438,1,0.239420166015625,1.6915034729003906,-11.202469567871093,-0.8778625954198473,0.5572519083969466,-1.297709923664122
5209335395667,1.124799948,1,0.201112939453125,1.6927005737304686,-11.171344946289063,-0.7633587786259542,0.6259541984732825,-1.3358778625954197
5209345395042,1.134799323,1,0.2501940734863281,1.7262193969726563,-11.207257971191405,-0.8396946564885496,0.5267175572519084,-1.2748091603053435
5209355395042,1.144799323,1,0.2501940734863281,1.7226280944824217,-11.168950744628905,-0.8091603053435115,0.5572519083969466,-1.3358778625954197
5209365396500,1.154800781,1,0.25258827514648435,1.7465701110839842,-11.209652172851563,-0.8473282442748091,0.5190839694656488,-1.3511450381679388
5209375394938,1.164799219,1,0.21308394775390624,1.7022773803710936,-11.186907257080078,-0.8549618320610687,0.4961832061068702,-1.3358778625954197
5209385396396,1.174800677,1,0.2501940734863281,1.7106570861816406,-11.214440576171874,-0.8473282442748091,0.5572519083969466,-1.3587786259541985
5209395430719,1.184835,1,0.23702596435546874,1.7274164978027342,-11.219228979492186,-0.8778625954198473,0.6259541984732825,-1.366412213740458
5209405411344,1.194815625,1,0.21308394775390624,1.687912170410156,-11.225214483642578,-0.7862595419847328,0.5725190839694656,-1.2900763358778626
5209415398115,1.204802396,1,0.1867477294921875,1.7489643127441405,-11.226411584472656,-0.8396946564885496,0.6183206106870229,-1.3358778625954197
5209425395823,1.214800104,1,0.2154781494140625,1.7166425903320313,-11.196484063720703,-0.9007633587786259,0.45038167938931295,-1.3282442748091603
5209435397959,1.22480224,1,0.21308394775390624,1.7202338928222656,-11.213243475341796,-0.7862595419847328,0.5114503816793893,-1.3206106870229009
5209445396552,1.234800833,1,0.258573779296875,1.7310078002929687,-11.19887826538086,-0.8473282442748091,0.6030534351145038,-1.282442748091603
5209455396448,1.244800729,1,0.22266075439453123,1.744175909423828,-11.158176837158203,-0.816793893129771,0.5877862595419847,-1.3435114503816794
5209465397698,1.254801979,1,0.26216508178710934,1.753752716064453,-11.12226381225586,-0.8396946564885496,0.6259541984732825,-1.3053435114503817
5209475396448,1.264800729,1,0.23822306518554687,1.7274164978027342,-11.202469567871093,-0.8702290076335878,0.5877862595419847,-1.3206106870229009
5209485395250,1.274799531,1,0.1867477294921875,1.7573440185546874,-11.188104357910156,-0.8396946564885496,0.5114503816793893,-1.366412213740458
5209495395563,1.284799844,1,0.21906945190429686,1.734599102783203,-11.213243475341796,-0.8473282442748091,0.5877862595419847,-1.3587786259541985
5209505397073,1.294801354,1,0.23343466186523437,1.7310078002929687,-11.275492718505859,-0.7862595419847328,0.5801526717557252,-1.3053435114503817
5209515395771,1.304800052,1,0.258573779296875,1.7465701110839842,-11.182118853759764,-0.8396946564885496,0.5801526717557252,-1.381679389312977
5209525395459,1.31479974,1,0.21068974609375,1.7393875061035156,-11.099518896484375,-0.816793893129771,0.5114503816793893,-1.3435114503816794
5209535396292,1.324800573,1,0.239420166015625,1.7381904052734374,-11.156979736328124,-0.816793893129771,0.6717557251908397,-1.3435114503816794
5209545395459,1.33479974,1,0.23223756103515625,1.6603788513183593,-11.143811627197264,-0.7862595419847328,0.5572519083969466,-1.3435114503816794
5209555395615,1.344799896,1,0.181959326171875,1.7010802795410156,-11.136629022216797,-0.8396946564885496,0.5648854961832062,-1.3053435114503817
5209565395198,1.354799479,1,0.27892449340820313,1.7357962036132812,-11.19169566040039,-0.8396946564885496,0.6183206106870229,-1.3129770992366412
5209575395979,1.36480026,1,0.2549824768066406,1.7525556152343749,-11.148600030517578,-0.7938931297709924,0.5190839694656488,-1.3206106870229009
5209585395979,1.37480026,1,0.21068974609375,1.7477672119140624,-11.18571015625,-0.7862595419847328,0.6183206106870229,-1.2748091603053435
5209595395511,1.384799792,1,0.2609679809570312,1.753752716064453,-11.17254204711914,-0.8320610687022901,0.5419847328244275,-1.3206106870229009
5209605395875,1.394800156,1,0.239420166015625,1.7405846069335937,-11.202469567871093,-0.7786259541984732,0.5343511450381679,-1.2671755725190839
5209615395719,1.4048,1,0.21068974609375,1.7573440185546874,-11.094730493164063,-0.8931297709923665,0.5954198473282443,-1.3358778625954197
5209625395563,1.414799844,1,0.181959326171875,1.7657237243652342,-11.204863769531249,-0.7633587786259542,0.5343511450381679,-1.3206106870229009
5209635397021,1.424801302,1,0.24899697265624998,1.7034744812011717,-11.215637677001952,-0.916030534351145,0.5725190839694656,-1.3053435114503817
5209645397542,1.434801823,1,0.23702596435546874,1.7310078002929687,-11.214440576171874,-0.7938931297709924,0.5954198473282443,-1.297709923664122
5209655396448,1.444800729,1,0.24061726684570311,1.714248388671875,-11.184513055419922,-0.8320610687022901,0.5725190839694656,-1.3511450381679388
5209665397177,1.454801458,1,0.24779987182617186,1.7393875061035156,-11.218031878662108,-0.7404580152671756,0.5343511450381679,-1.3282442748091603
5209675396292,1.464800573,1,0.23343466186523437,1.7429788085937499,-11.189301458740234,-0.8625954198473282,0.549618320610687,-1.3511450381679388
5209685395511,1.474799792,1,0.20350714111328125,1.7034744812011717,-11.202469567871093,-0.8549618320610687,0.5877862595419847,-1.297709923664122
5209695395459,1.48479974,1,0.22505495605468748,1.7369933044433592,-11.182118853759764,-0.916030534351145,0.5954198473282443,-1.2748091603053435
5209705396136,1.494800417,1,0.24301146850585936,1.7298106994628906,-11.201272467041015,-0.816793893129771,0.5648854961832062,-1.2900763358778626
5209715395354,1.504799635,1,0.23223756103515625,1.7429788085937499,-11.177330450439452,-0.7938931297709924,0.5725190839694656,-1.297709923664122
5209725395771,1.514800052,1,0.2442085693359375,1.7286135986328124,-11.165359442138671,-0.8015267175572519,0.5801526717557252,-1.297709923664122
5209735395771,1.524800052,1,0.22744915771484372,1.7238251953125,-11.21683477783203,-0.8244274809160306,0.6106870229007634,-1.2900763358778626
5209745395198,1.534799479,1,0.20470424194335937,1.7322049011230467,-11.142614526367186,-0.7633587786259542,0.5419847328244275,-1.3740458015267176
5209755394990,1.544799271,1,0.23223756103515625,1.7226280944824217,-11.143811627197264,-0.7786259541984732,0.5877862595419847,-1.3053435114503817
5209765395667,1.554799948,1,0.2597708801269531,1.7489643127441405,-11.213243475341796,-0.7862595419847328,0.5877862595419847,-1.3740458015267176
5209775395563,1.564799844,1,0.239420166015625,1.7214309936523438,-11.17254204711914,-0.8244274809160306,0.5725190839694656,-1.366412213740458
5209785395927,1.574800208,1,0.2753331909179687,1.707065783691406,-11.146205828857422,-0.7938931297709924,0.5572519083969466,-1.3206106870229009
5209795396188,1.584800469,1,0.2657563842773437,1.7322049011230467,-11.190498559570312,-0.8702290076335878,0.5801526717557252,-1.3282442748091603
5209805396136,1.594800417,1,0.23822306518554687,1.7202338928222656,-11.182118853759764,-0.7786259541984732,0.4961832061068702,-1.381679389312977
5209815395979,1.60480026,1,0.1927332336425781,1.7166425903320313,-11.130643518066405,-0.7862595419847328,0.5725190839694656,-1.2900763358778626
5209825395563,1.614799844,1,0.2166752502441406,1.695094775390625,-11.176133349609374,-0.8091603053435115,0.5114503816793893,-1.297709923664122
5209835396344,1.624800625,1,0.22505495605468748,1.7429788085937499,-11.17852755126953,-0.7862595419847328,0.549618320610687,-1.3129770992366412
5209845395042,1.634799323,1,0.23223756103515625,1.7525556152343749,-11.150994232177734,-0.732824427480916,0.5725190839694656,-1.2900763358778626
5209855395042,1.644799323,1,0.22505495605468748,1.7621324218749999,-11.180921752929686,-0.8244274809160306,0.5419847328244275,-1.2366412213740459
5209865395615,1.654799896,1,0.20470424194335937,1.7274164978027342,-11.214440576171874,-0.8320610687022901,0.5801526717557252,-1.297709923664122
5209875395719,1.6648,1,0.2214636535644531,1.7393875061035156,-11.221623181152344,-0.8320610687022901,0.5801526717557252,-1.282442748091603
5209885395094,1.674799375,1,0.22864625854492185,1.772906329345703,-11.158176837158203,-0.8244274809160306,0.5954198473282443,-1.3435114503816794
5209895400146,1.684804427,1,0.24061726684570311,1.7298106994628906,-11.165359442138671,-0.7709923664122137,0.6717557251908397,-1.2595419847328244
5209905397854,1.694802135,1,0.21906945190429686,1.7705121276855467,-11.265915911865234,-0.8396946564885496,0.5343511450381679,-1.3587786259541985
5209915395875,1.704800156,1,0.2537853759765625,1.7334020019531249,-11.17852755126953,-0.8244274809160306,0.5267175572519084,-1.3282442748091603
5209925398688,1.714802969,1,0.19512743530273435,1.6819266662597656,-11.177330450439452,-0.7938931297709924,0.5267175572519084,-1.381679389312977
5209935393844,1.724798125,1,0.17597382202148437,1.7274164978027342,-11.177330450439452,-0.8473282442748091,0.5114503816793893,-1.3282442748091603
5209945395667,1.734799948,1,0.22864625854492185,1.696291876220703,-11.231199987792968,-0.816793893129771,0.5190839694656488,-1.3282442748091603
5209955395198,1.744799479,1,0.20470424194335937,1.7477672119140624,-11.16057103881836,-0.8473282442748091,0.46564885496183206,-1.2748091603053435
5209965404104,1.754808385,1,0.21428104858398436,1.7549498168945312,-11.148600030517578,-0.8244274809160306,0.6106870229007634,-1.381679389312977
5209975398063,1.764802344,1,0.2262520568847656,1.7214309936523438,-11.161768139648437,-0.7938931297709924,0.6793893129770993,-1.297709923664122
5209985396083,1.774800364,1,0.23343466186523437,1.7226280944824217,-11.19887826538086,-0.8549618320610687,0.5954198473282443,-1.3053435114503817
5209995396760,1.784801041,1,0.2059013427734375,1.7381904052734374,-11.256339105224608,-0.8015267175572519,0.5954198473282443,-1.3587786259541985
5210005396031,1.794800312,1,0.20829554443359374,1.7298106994628906,-11.165359442138671,-0.8320610687022901,0.6183206106870229,-1.2366412213740459
5210015395615,1.804799896,1,0.2262520568847656,1.714248388671875,-11.215637677001952,-0.8473282442748091,0.5419847328244275,-1.3206106870229009
5210025395198,1.814799479,1,0.24061726684570311,1.7226280944824217,-11.194089862060546,-0.8015267175572519,0.5572519083969466,-1.3587786259541985
5210035395927,1.824800208,1,0.20949264526367187,1.714248388671875,-11.119869610595703,-0.8625954198473282,0.5877862595419847,-1.3435114503816794
5210045396448,1.834800729,1,0.19393033447265623,1.7465701110839842,-11.149797131347656,-0.8625954198473282,0.6030534351145038,-1.366412213740458
5210055396969,1.84480125,1,0.2214636535644531,1.7130512878417967,-11.152191333007812,-0.8854961832061069,0.549618320610687,-1.282442748091603
5210065396083,1.854800364,1,0.21428104858398436,1.7621324218749999,-11.16057103881836,-0.816793893129771,0.6183206106870229,-1.366412213740458
5210075395667,1.864799948,1,0.1975216369628906,1.7549498168945312,-11.219228979492186,-0.816793893129771,0.5725190839694656,-1.3511450381679388
5210085395927,1.874800208,1,0.1975216369628906,1.725022296142578,-11.150994232177734,-0.8473282442748091,0.5648854961832062,-1.3587786259541985
5210095396083,1.884800364,1,0.19393033447265623,1.7669208251953124,-11.164162341308593,-0.7557251908396947,0.5190839694656488,-1.366412213740458
5210105395875,1.894800156,1,0.18076222534179687,1.734599102783203,-11.243170996093749,-0.8244274809160306,0.6183206106870229,-1.366412213740458
5210115394990,1.904799271,1,0.2166752502441406,1.7357962036132812,-11.171344946289063,-0.7480916030534351,0.5343511450381679,-1.3435114503816794
5210125395406,1.914799687,1,0.22505495605468748,1.7741034301757812,-11.2240173828125,-0.8320610687022901,0.6259541984732825,-1.3129770992366412
5210135396135,1.924800416,1,0.24779987182617186,1.7561469177246092,-11.209652172851563,-0.7480916030534351,0.48854961832061067,-1.3206106870229009
5210145398427,1.934802708,1,0.24181436767578124,1.7178396911621092,-11.200075366210937,-0.8396946564885496,0.6412213740458015,-1.3358778625954197
5210155396135,1.944800416,1,0.2059013427734375,1.6843208679199217,-11.176133349609374,-0.7862595419847328,0.5190839694656488,-1.2671755725190839
5210165396865,1.954801146,1,0.2501940734863281,1.7429788085937499,-11.170147845458983,-0.8473282442748091,0.6106870229007634,-1.297709923664122
5210175394312,1.964798593,1,0.20350714111328125,1.705868682861328,-11.226411584472656,-0.8396946564885496,0.5801526717557252,-1.2900763358778626
5210185396812,1.974801093,1,0.22385785522460935,1.7741034301757812,-11.228805786132812,-0.8320610687022901,0.6030534351145038,-1.3358778625954197
5210195395979,1.98480026,1,0.2059013427734375,1.7214309936523438,-11.21683477783203,-0.8396946564885496,0.5267175572519084,-1.381679389312977
5210205396708,1.994800989,1,0.27293898925781246,1.7393875061035156,-11.136629022216797,-0.8549618320610687,0.6030534351145038,-1.2900763358778626
5210215395406,2.004799687,1,0.19153613281249998,1.6915034729003906,-11.167753643798827,-0.7862595419847328,0.5419847328244275,-1.282442748091603
5210225395198,2.014799479,1,0.201112939453125,1.7262193969726563,-11.11508120727539,-0.8625954198473282,0.549618320610687,-1.3511450381679388
5210235396396,2.024800677,1,0.23822306518554687,1.7082628845214842,-11.136629022216797,-0.7404580152671756,0.549618320610687,-1.3053435114503817
5210245395979,2.03480026,1,0.20709844360351562,1.697488977050781,-11.246762298583985,-0.8625954198473282,0.6183206106870229,-1.3129770992366412
5210255395927,2.044800208,1,0.23822306518554687,1.7836802368164062,-11.189301458740234,-0.8320610687022901,0.5114503816793893,-1.297709923664122
5210265396760,2.054801041,1,0.24181436767578124,1.7848773376464844,-11.235988391113281,-0.816793893129771,0.5801526717557252,-1.3282442748091603
5210275401708,2.064805989,1,0.22266075439453123,1.705868682861328,-11.208455072021483,-0.7938931297709924,0.48854961832061067,-1.2748091603053435
5210285398010,2.074802291,1,0.31483751831054685,1.7489643127441405,-11.232397088623046,-0.8473282442748091,0.5725190839694656,-1.3358778625954197
5210295395875,2.084800156,1,0.1927332336425781,1.7130512878417967,-11.251550701904296,-0.7786259541984732,0.5954198473282443,-1.4122137404580153
5210305396708,2.094800989,1,0.2454056701660156,1.7166425903320313,-11.192892761230468,-0.8244274809160306,0.6183206106870229,-1.3282442748091603
5210315395615,2.104799896,1,0.22505495605468748,1.7022773803710936,-11.250353601074218,-0.8015267175572519,0.6564885496183206,-1.3511450381679388
5210325395927,2.114800208,1,0.17357962036132812,1.7010802795410156,-11.221623181152344,-0.8778625954198473,0.4961832061068702,-1.282442748091603
5210335392073,2.124796354,1,0.23343466186523437,1.7226280944824217,-11.142614526367186,-0.8625954198473282,0.5114503816793893,-1.2900763358778626
5210345396448,2.134800729,1,0.21428104858398436,1.7238251953125,-11.113884106445312,-0.7786259541984732,0.5038167938931297,-1.3435114503816794
5210355395406,2.144799687,1,0.22026655273437498,1.7166425903320313,-11.186907257080078,-0.7480916030534351,0.5419847328244275,-1.3358778625954197
5210365395875,2.154800156,1,0.12569558715820311,1.6986860778808592,-11.155782635498046,-0.8854961832061069,0.6106870229007634,-1.3587786259541985
5210375395719,2.1648,1,0.2059013427734375,1.7429788085937499,-11.222820281982422,-0.7633587786259542,0.6259541984732825,-1.2900763358778626
5210385392646,2.174796927,1,0.22864625854492185,1.6998831787109374,-11.121066711425781,-0.7938931297709924,0.48854961832061067,-1.282442748091603
5210395396031,2.184800312,1,0.29568390502929687,1.7202338928222656,-11.196484063720703,-0.7480916030534351,0.6106870229007634,-1.3206106870229009
5210405396552,2.194800833,1,0.25258827514648435,1.7357962036132812,-11.133037719726563,-0.8473282442748091,0.6030534351145038,-1.3206106870229009
5210415396708,2.204800989,1,0.14125789794921875,1.707065783691406,-11.184513055419922,-0.7938931297709924,0.5419847328244275,-1.3206106870229009
5210425395302,2.214799583,1,0.2549824768066406,1.7226280944824217,-11.16057103881836,-0.8320610687022901,0.5877862595419847,-1.2900763358778626
5210435394833,2.224799114,1,0.21188684692382811,1.7262193969726563,-11.11508120727539,-0.7709923664122137,0.5267175572519084,-1.297709923664122
5210445395614,2.234799895,1,0.21428104858398436,1.7465701110839842,-11.19887826538086,-0.8396946564885496,0.5877862595419847,-1.3511450381679388
5210455395927,2.244800208,1,0.24061726684570311,1.7453730102539062,-11.149797131347656,-0.7786259541984732,0.549618320610687,-1.2900763358778626
5210465397594,2.254801875,1,0.25258827514648435,1.6735469604492186,-11.174936248779296,-0.8778625954198473,0.6259541984732825,-1.3511450381679388
5210475395042,2.264799323,1,0.19033903198242186,1.7118541870117185,-11.256339105224608,-0.7557251908396947,0.5572519083969466,-1.3435114503816794
5210485393219,2.2747975,1,0.2501940734863281,1.7357962036132812,-11.189301458740234,-0.7480916030534351,0.5801526717557252,-1.297709923664122
5210495394625,2.284798906,1,0.28371289672851563,1.7489643127441405,-11.179724652099608,-0.8320610687022901,0.6259541984732825,-1.3206106870229009
5210505396812,2.294801093,1,0.2932897033691406,1.7298106994628906,-11.154585534667968,-0.7938931297709924,0.6106870229007634,-1.3206106870229009
5210515395614,2.304799895,1,0.2705447875976562,1.7573440185546874,-11.208455072021483,-0.8549618320610687,0.5343511450381679,-1.3129770992366412
5210525395875,2.314800156,1,0.22026655273437498,1.7453730102539062,-11.184513055419922,-0.7709923664122137,0.5725190839694656,-1.3053435114503817
5210535394781,2.324799062,1,0.19632453613281248,1.7274164978027342,-11.183315954589844,-0.8015267175572519,0.6030534351145038,-1.3129770992366412
5210545396344,2.334800625,1,0.24061726684570311,1.7190367919921874,-11.164162341308593,-0.8473282442748091,0.5801526717557252,-1.3740458015267176
5210555396187,2.344800468,1,0.17238251953125,1.7034744812011717,-11.258733306884764,-0.8015267175572519,0.5801526717557252,-1.297709923664122
5210565396604,2.354800885,1,0.22026655273437498,1.7453730102539062,-11.137826123046874,-0.7938931297709924,0.5190839694656488,-1.3206106870229009
5210575395146,2.364799427,1,0.20949264526367187,1.7166425903320313,-11.289857928466796,-0.7938931297709924,0.5877862595419847,-1.3129770992366412
5210585396604,2.374800885,1,0.2214636535644531,1.7621324218749999,-11.145008728027342,-0.8015267175572519,0.6030534351145038,-1.3435114503816794
5210595394937,2.384799218,1,0.22864625854492185,1.7010802795410156,-11.212046374511718,-0.816793893129771,0.6564885496183206,-1.3053435114503817
5210605396500,2.394800781,1,0.25258827514648435,1.7334020019531249,-11.232397088623046,-0.7938931297709924,0.5343511450381679,-1.3435114503816794
5210615396708,2.404800989,1,0.2166752502441406,1.744175909423828,-11.257536206054686,-0.8549618320610687,0.6106870229007634,-1.366412213740458
5210625397333,2.414801614,1,0.23223756103515625,1.7465701110839842,-11.184513055419922,-0.7786259541984732,0.5877862595419847,-1.297709923664122
5210635394312,2.424798593,1,0.1927332336425781,1.7657237243652342,-11.17254204711914,-0.816793893129771,0.5648854961832062,-1.297709923664122
5210645396083,2.434800364,1,0.2442085693359375,1.7322049011230467,-11.186907257080078,-0.8244274809160306,0.549618320610687,-1.3358778625954197
5210655395458,2.444799739,1,0.26216508178710934,1.7585411193847655,-11.131840618896483,-0.8320610687022901,0.6259541984732825,-1.3587786259541985
5210665397177,2.454801458,1,0.19871873779296872,1.7657237243652342,-11.190498559570312,-0.816793893129771,0.6259541984732825,-1.3053435114503817
5210675395354,2.464799635,1,0.22385785522460935,1.7310078002929687,-11.089942089843749,-0.8244274809160306,0.6335877862595419,-1.3435114503816794
5210685394364,2.474798645,1,0.20231004028320312,1.7118541870117185,-11.221623181152344,-0.7786259541984732,0.5267175572519084,-1.3053435114503817
5210695396239,2.48480052,1,0.23582886352539062,1.7573440185546874,-11.188104357910156,-0.8854961832061069,0.6030534351145038,-1.3587786259541985
5210705396291,2.494800572,1,0.229843359375,1.7202338928222656,-11.16057103881836,-0.8244274809160306,0.6183206106870229,-1.3129770992366412
5210715395666,2.504799947,1,0.2154781494140625,1.7357962036132812,-11.267113012695312,-0.8091603053435115,0.5954198473282443,-1.2748091603053435
5210725395302,2.514799583,1,0.181959326171875,1.7226280944824217,-11.195286962890624,-0.7557251908396947,0.4961832061068702,-1.3129770992366412
5210735395094,2.524799375,1,0.19153613281249998,1.7238251953125,-11.097124694824219,-0.8244274809160306,0.5725190839694656,-1.366412213740458
5210745395666,2.534799947,1,0.20470424194335937,1.7286135986328124,-11.145008728027342,-0.8396946564885496,0.5572519083969466,-1.3435114503816794
5210755395510,2.544799791,1,0.23582886352539062,1.697488977050781,-11.207257971191405,-0.8625954198473282,0.6030534351145038,-1.297709923664122
5210765395666,2.554799947,1,0.2346317626953125,1.763329522705078,-11.133037719726563,-0.7404580152671756,0.6106870229007634,-1.2900763358778626
5210775395406,2.564799687,1,0.23343466186523437,1.782483135986328,-11.113884106445312,-0.8473282442748091,0.5648854961832062,-1.3053435114503817
5210785395354,2.574799635,1,0.22744915771484372,1.7022773803710936,-11.204863769531249,-0.7557251908396947,0.5801526717557252,-1.3282442748091603
5210795395666,2.584799947,1,0.22266075439453123,1.7501614135742187,-11.158176837158203,-0.8396946564885496,0.6717557251908397,-1.2900763358778626
5210805396604,2.594800885,1,0.2166752502441406,1.7381904052734374,-11.145008728027342,-0.8244274809160306,0.5725190839694656,-1.3587786259541985
5210815395250,2.604799531,1,0.229843359375,1.7561469177246092,-11.190498559570312,-0.9007633587786259,0.6717557251908397,-1.3511450381679388
5210825395250,2.614799531,1,0.19512743530273435,1.7393875061035156,-11.164162341308593,-0.8396946564885496,0.5267175572519084,-1.3282442748091603
5210835395510,2.624799791,1,0.22744915771484372,1.7741034301757812,-11.190498559570312,-0.8549618320610687,0.6106870229007634,-1.3129770992366412
5210845400875,2.634805156,1,0.201112939453125,1.7238251953125,-11.24915650024414,-0.7557251908396947,0.5877862595419847,-1.3587786259541985
5210855398010,2.644802291,1,0.23582886352539062,1.7178396911621092,-11.19169566040039,-0.8473282442748091,0.5877862595419847,-1.3206106870229009
5210865396031,2.654800312,1,0.27174188842773433,1.7130512878417967,-11.155782635498046,-0.7633587786259542,0.6335877862595419,-1.3206106870229009
5210875396187,2.664800468,1,0.2346317626953125,1.763329522705078,-11.17254204711914,-0.7786259541984732,0.48854961832061067,-1.3511450381679388
5210885398531,2.674802812,1,0.2537853759765625,1.7381904052734374,-11.154585534667968,-0.7557251908396947,0.5801526717557252,-1.3206106870229009
5210895396604,2.684800885,1,0.2059013427734375,1.7022773803710936,-11.171344946289063,-0.8244274809160306,0.6259541984732825,-1.3206106870229009
5210905396500,2.694800781,1,0.2059013427734375,1.7118541870117185,-11.177330450439452,-0.7557251908396947,0.5648854961832062,-1.3358778625954197
5210915395823,2.704800104,1,0.2346317626953125,1.7513585144042967,-11.220426080322264,-0.8396946564885496,0.5267175572519084,-1.297709923664122
5210925395510,2.714799791,1,0.21428104858398436,1.7334020019531249,-11.183315954589844,-0.8396946564885496,0.5419847328244275,-1.3282442748091603
5210935395510,2.724799791,1,0.22026655273437498,1.705868682861328,-11.213243475341796,-0.9007633587786259,0.6183206106870229,-1.3587786259541985
5210945395823,2.734800104,1,0.24181436767578124,1.7429788085937499,-11.159373937988281,-0.7633587786259542,0.5572519083969466,-1.282442748091603
5210955396396,2.744800677,1,0.19512743530273435,1.7082628845214842,-11.240776794433593,-0.7786259541984732,0.5190839694656488,-1.3053435114503817
5210965396031,2.754800312,1,0.23343466186523437,1.7609353210449217,-11.262324609375,-0.7404580152671756,0.5572519083969466,-1.2900763358778626
5210975394104,2.764798385,1,0.24899697265624998,1.7489643127441405,-11.141417425537108,-0.7633587786259542,0.5038167938931297,-1.3282442748091603
5210985396083,2.774800364,1,0.239420166015625,1.7561469177246092,-11.155782635498046,-0.7709923664122137,0.5419847328244275,-1.3282442748091603
5210995395510,2.784799791,1,0.2609679809570312,1.7286135986328124,-11.250353601074218,-0.8549618320610687,0.5877862595419847,-1.3053435114503817
5211005396656,2.794800937,1,0.2346317626953125,1.7681179260253905,-11.177330450439452,-0.8091603053435115,0.5801526717557252,-1.3206106870229009
5211015395927,2.804800208,1,0.24779987182617186,1.7465701110839842,-11.212046374511718,-0.8091603053435115,0.5877862595419847,-1.3206106870229009
5211025396135,2.814800416,1,0.22266075439453123,1.7118541870117185,-11.219228979492186,-0.7938931297709924,0.6335877862595419,-1.3206106870229009
5211035395927,2.824800208,1,0.21308394775390624,1.7286135986328124,-11.158176837158203,-0.8320610687022901,0.5419847328244275,-1.3435114503816794
5211045395093,2.834799374,1,0.17118541870117188,1.7322049011230467,-11.188104357910156,-0.816793893129771,0.6259541984732825,-1.3435114503816794
5211055395458,2.844799739,1,0.25139117431640623,1.697488977050781,-11.118672509765624,-0.8244274809160306,0.5648854961832062,-1.3282442748091603
5211065396291,2.854800572,1,0.22744915771484372,1.7010802795410156,-11.196484063720703,-0.8702290076335878,0.5190839694656488,-1.3129770992366412
5211075395875,2.864800156,1,0.2059013427734375,1.7717092285156248,-11.206060870361327,-0.8549618320610687,0.4961832061068702,-1.3358778625954197
5211085394937,2.874799218,1,0.22266075439453123,1.7513585144042967,-11.188104357910156,-0.8931297709923665,0.5114503816793893,-1.3893129770992367
5211095395354,2.884799635,1,0.24181436767578124,1.7369933044433592,-11.19169566040039,-0.8473282442748091,0.4961832061068702,-1.3282442748091603
5211105396239,2.89480052,1,0.229843359375,1.7381904052734374,-11.1474029296875,-0.816793893129771,0.6106870229007634,-1.3206106870229009
5211115395823,2.904800104,1,0.21188684692382811,1.7286135986328124,-11.142614526367186,-0.7557251908396947,0.5648854961832062,-1.3129770992366412
5211125395770,2.914800051,1,0.1867477294921875,1.7082628845214842,-11.19169566040039,-0.816793893129771,0.6259541984732825,-1.3129770992366412
5211135396656,2.924800937,1,0.26695348510742184,1.6543933471679686,-11.226411584472656,-0.7862595419847328,0.5114503816793893,-1.2900763358778626
5211145396291,2.934800572,1,0.24061726684570311,1.714248388671875,-11.197681164550781,-0.7938931297709924,0.6717557251908397,-1.2900763358778626
5211155396291,2.944800572,1,0.21787235107421873,1.7477672119140624,-11.15338843383789,-0.8015267175572519,0.5725190839694656,-1.3587786259541985
5211165396500,2.954800781,1,0.2501940734863281,1.7669208251953124,-11.177330450439452,-0.8549618320610687,0.5648854961832062,-1.3282442748091603
5211175396708,2.964800989,1,0.21428104858398436,1.772906329345703,-11.17852755126953,-0.7633587786259542,0.5190839694656488,-1.297709923664122
5211185395718,2.974799999,1,0.1927332336425781,1.6986860778808592,-11.106701501464842,-0.8396946564885496,0.6030534351145038,-1.3969465648854962
5211195395666,2.984799947,1,0.19991583862304688,1.7501614135742187,-11.179724652099608,-0.7022900763358778,0.48091603053435117,-1.3587786259541985
5211205397854,2.994802135,1,0.20829554443359374,1.7477672119140624,-11.245565197753905,-0.8396946564885496,0.5954198473282443,-1.297709923664122
5211215395510,3.004799791,1,0.23702596435546874,1.7549498168945312,-11.245565197753905,-0.7786259541984732,0.5572519083969466,-1.3129770992366412
5211225395406,3.014799687,1,0.22026655273437498,1.7130512878417967,-11.118672509765624,-0.8702290076335878,0.6106870229007634,-1.282442748091603
5211235396291,3.024800572,1,0.2657563842773437,1.7489643127441405,-11.209652172851563,-0.8473282442748091,0.48854961832061067,-1.2900763358778626
5211245456031,3.034860312,1,0.229843359375,1.7741034301757812,-11.165359442138671,-0.8778625954198473,0.6106870229007634,-1.2748091603053435
5211255396343,3.044800624,1,0.21308394775390624,1.714248388671875,-11.19169566040039,-0.7862595419847328,0.5419847328244275,-1.3740458015267176
5211265396395,3.054800676,1,0.2454056701660156,1.7118541870117185,-11.194089862060546,-0.8320610687022901,0.5954198473282443,-1.3206106870229009
5211275395927,3.064800208,1,0.23223756103515625,1.7681179260253905,-11.23000288696289,-0.6870229007633588,0.549618320610687,-1.4122137404580153
5211285396187,3.074800468,1,0.22505495605468748,1.7525556152343749,-11.139023223876952,-0.8396946564885496,0.5877862595419847,-1.3129770992366412
5211295395093,3.084799374,1,0.25139117431640623,1.7764976318359373,-11.180921752929686,-0.8320610687022901,0.549618320610687,-1.282442748091603
5211305396343,3.094800624,1,0.25258827514648435,1.753752716064453,-11.212046374511718,-0.816793893129771,0.5648854961832062,-1.3282442748091603
5211315395302,3.104799583,1,0.2154781494140625,1.7262193969726563,-11.154585534667968,-0.8396946564885496,0.5343511450381679,-1.297709923664122
5211325395093,3.114799374,1,0.2262520568847656,1.7477672119140624,-11.17852755126953,-0.8320610687022901,0.6030534351145038,-1.3206106870229009
5211335395562,3.124799843,1,0.26695348510742184,1.7405846069335937,-11.167753643798827,-0.7404580152671756,0.5038167938931297,-1.2900763358778626
5211345395718,3.134799999,1,0.229843359375,1.7310078002929687,-11.14022032470703,-0.8702290076335878,0.5877862595419847,-1.2900763358778626
5211355395510,3.144799791,1,0.23343466186523437,1.7465701110839842,-11.167753643798827,-0.816793893129771,0.549618320610687,-1.297709923664122
5211365395510,3.154799791,1,0.24779987182617186,1.763329522705078,-11.215637677001952,-0.8320610687022901,0.5954198473282443,-1.3511450381679388
5211375395093,3.164799374,1,0.23702596435546874,1.7393875061035156,-11.184513055419922,-0.7786259541984732,0.5648854961832062,-1.2900763358778626
5211385396552,3.174800833,1,0.2657563842773437,1.7417817077636717,-11.170147845458983,-0.8778625954198473,0.6183206106870229,-1.3282442748091603
5211395395458,3.184799739,1,0.24181436767578124,1.7645266235351562,-11.23000288696289,-0.7862595419847328,0.5725190839694656,-1.3282442748091603
5211405401343,3.194805624,1,0.239420166015625,1.7190367919921874,-11.168950744628905,-0.9083969465648855,0.5725190839694656,-1.3358778625954197
5211415397281,3.204801562,1,0.24301146850585936,1.6986860778808592,-11.196484063720703,-0.7862595419847328,0.5725190839694656,-1.3053435114503817
5211425395458,3.214799739,1,0.23582886352539062,1.705868682861328,-11.127052215576171,-0.8473282442748091,0.549618320610687,-1.2671755725190839
5211435395562,3.224799843,1,0.2262520568847656,1.696291876220703,-11.177330450439452,-0.7404580152671756,0.5648854961832062,-1.3282442748091603
5211445395197,3.234799478,1,0.2825157958984375,1.7334020019531249,-11.188104357910156,-0.8778625954198473,0.48854961832061067,-1.297709923664122
5211455393479,3.24479776,1,0.23223756103515625,1.7621324218749999,-11.202469567871093,-0.7938931297709924,0.5267175572519084,-1.3282442748091603
5211465397072,3.254801353,1,0.23822306518554687,1.7357962036132812,-11.208455072021483,-0.8320610687022901,0.6183206106870229,-1.282442748091603
5211475396604,3.264800885,1,0.28012159423828126,1.7369933044433592,-11.192892761230468,-0.8015267175572519,0.6335877862595419,-1.2748091603053435
5211485396656,3.274800937,1,0.19991583862304688,1.725022296142578,-11.200075366210937,-0.8625954198473282,0.5725190839694656,-1.3053435114503817
5211495395822,3.284800103,1,0.2166752502441406,1.7238251953125,-11.167753643798827,-0.7862595419847328,0.5877862595419847,-1.3206106870229009
5211505395718,3.294799999,1,0.20829554443359374,1.7477672119140624,-11.176133349609374,-0.8778625954198473,0.6106870229007634,-1.3129770992366412
5211515396708,3.304800989,1,0.1771709228515625,1.7166425903320313,-11.231199987792968,-0.7938931297709924,0.6106870229007634,-1.3206106870229009
5211525395041,3.314799322,1,0.22864625854492185,1.7202338928222656,-11.180921752929686,-0.8702290076335878,0.5725190839694656,-1.3587786259541985
5211535395302,3.324799583,1,0.23343466186523437,1.687912170410156,-11.14022032470703,-0.7862595419847328,0.5419847328244275,-1.3511450381679388
5211545395406,3.334799687,1,0.24061726684570311,1.7489643127441405,-11.105504400634764,-0.8473282442748091,0.5114503816793893,-1.2748091603053435
5211555395927,3.344800208,1,0.22505495605468748,1.7453730102539062,-11.192892761230468,-0.7938931297709924,0.6106870229007634,-1.3511450381679388
5211565396135,3.354800416,1,0.2442085693359375,1.7262193969726563,-11.154585534667968,-0.8396946564885496,0.5954198473282443,-1.2900763358778626
5211575395041,3.364799322,1,0.2262520568847656,1.7082628845214842,-11.164162341308593,-0.7709923664122137,0.6106870229007634,-1.297709923664122
5211585395197,3.374799478,1,0.17836802368164062,1.7334020019531249,-11.206060870361327,-0.8320610687022901,0.6412213740458015,-1.3206106870229009
5211595391604,3.384795885,1,0.19393033447265623,1.7106570861816406,-11.19887826538086,-0.7251908396946565,0.5877862595419847,-1.3511450381679388
5211605397177,3.394801458,1,0.22744915771484372,1.7166425903320313,-11.133037719726563,-0.8473282442748091,0.549618320610687,-1.297709923664122
5211615410927,3.404815208,1,0.21787235107421873,1.7561469177246092,-11.215637677001952,-0.8244274809160306,0.5267175572519084,-1.3358778625954197
5211625404104,3.414808385,1,0.21308394775390624,1.6998831787109374,-11.190498559570312,-0.8473282442748091,0.5343511450381679,-1.2900763358778626
5211635400666,3.424804947,1,0.21906945190429686,1.7357962036132812,-11.218031878662108,-0.8320610687022901,0.5954198473282443,-1.3282442748091603
5211645393010,3.434797291,1,0.23104046020507812,1.725022296142578,-11.139023223876952,-0.816793893129771,0.5954198473282443,-1.3053435114503817
5211655396395,3.444800676,1,0.24061726684570311,1.7298106994628906,-11.127052215576171,-0.8778625954198473,0.549618320610687,-1.2900763358778626
5211665396187,3.454800468,1,0.23104046020507812,1.7262193969726563,-11.244368096923827,-0.7938931297709924,0.48854961832061067,-1.282442748091603
5211675394937,3.464799218,1,0.24061726684570311,1.7166425903320313,-11.189301458740234,-0.7251908396946565,0.6335877862595419,-1.366412213740458
5211685471135,3.474875416,1,0.2346317626953125,1.7776947326660155,-11.186907257080078,-0.8702290076335878,0.5419847328244275,-1.3282442748091603
5211695412958,3.484817239,1,0.21428104858398436,1.707065783691406,-11.265915911865234,-0.8778625954198473,0.5648854961832062,-1.3206106870229009
5211705410718,3.494814999,1,0.27892449340820313,1.7513585144042967,-11.257536206054686,-0.816793893129771,0.5954198473282443,-1.3129770992366412
5211715408895,3.504813176,1,0.23223756103515625,1.7166425903320313,-11.119869610595703,-0.7786259541984732,0.6183206106870229,-1.3587786259541985
5211725411031,3.514815312,1,0.22266075439453123,1.6807295654296874,-11.182118853759764,-0.8015267175572519,0.5419847328244275,-1.282442748091603
5211735410301,3.524814582,1,0.24061726684570311,1.7405846069335937,-11.244368096923827,-0.8473282442748091,0.5648854961832062,-1.3282442748091603
5211745410458,3.534814739,1,0.22744915771484372,1.7585411193847655,-11.13423482055664,-0.7404580152671756,0.5267175572519084,-1.3587786259541985
5211755409937,3.544814218,1,0.20949264526367187,1.7393875061035156,-11.173739147949219,-0.7862595419847328,0.549618320610687,-1.3511450381679388
5211765409885,3.554814166,1,0.19393033447265623,1.7513585144042967,-11.182118853759764,-0.7709923664122137,0.5648854961832062,-1.3053435114503817
5211775410874,3.564815155,1,0.22744915771484372,1.7393875061035156,-11.174936248779296,-0.8473282442748091,0.6030534351145038,-1.2900763358778626
5211785488479,3.57489276,1,0.21188684692382811,1.7501614135742187,-11.166556542968749,-0.8549618320610687,0.6030534351145038,-1.3511450381679388
5211795419885,3.584824166,1,0.229843359375,1.715445489501953,-11.190498559570312,-0.8473282442748091,0.5954198473282443,-1.3282442748091603
5211805418583,3.594822864,1,0.22744915771484372,1.7573440185546874,-11.200075366210937,-0.7709923664122137,0.5572519083969466,-1.3358778625954197
5211815417541,3.604821822,1,0.20829554443359374,1.7166425903320313,-11.17254204711914,-0.816793893129771,0.6183206106870229,-1.2442748091603053
5211825424572,3.614828853,1,0.24301146850585936,1.714248388671875,-11.189301458740234,-0.8396946564885496,0.5114503816793893,-1.3358778625954197
5211835418062,3.624822343,1,0.2454056701660156,1.7417817077636717,-11.279084020996093,-0.8931297709923665,0.5343511450381679,-1.297709923664122
5211845418374,3.634822655,1,0.2154781494140625,1.7010802795410156,-11.164162341308593,-0.816793893129771,0.5725190839694656,-1.3206106870229009
5211855416760,3.644821041,1,0.2609679809570312,1.7477672119140624,-11.117475408935546,-0.8549618320610687,0.6564885496183206,-1.3587786259541985
5211865418687,3.654822968,1,0.2454056701660156,1.7369933044433592,-11.207257971191405,-0.7786259541984732,0.5877862595419847,-1.3206106870229009
5211875417229,3.66482151,1,0.23343466186523437,1.707065783691406,-11.18571015625,-0.8244274809160306,0.5954198473282443,-1.3129770992366412
5211885504676,3.674908957,1,0.2442085693359375,1.7645266235351562,-11.221623181152344,-0.7938931297709924,0.549618320610687,-1.3969465648854962
5211895411864,3.684816145,1,0.2059013427734375,1.7238251953125,-11.16057103881836,-0.8091603053435115,0.6183206106870229,-1.3969465648854962
5211905409312,3.694813593,1,0.19991583862304688,1.7202338928222656,-11.215637677001952,-0.7251908396946565,0.48091603053435117,-1.3282442748091603
5211915409468,3.704813749,1,0.20231004028320312,1.7262193969726563,-11.201272467041015,-0.816793893129771,0.6183206106870229,-1.2671755725190839
5211925409572,3.714813853,1,0.23223756103515625,1.7549498168945312,-11.207257971191405,-0.8015267175572519,0.5190839694656488,-1.2748091603053435
5211935409416,3.724813697,1,0.2154781494140625,1.763329522705078,-11.228805786132812,-0.8244274809160306,0.5954198473282443,-1.366412213740458
5211945409520,3.734813801,1,0.2262520568847656,1.714248388671875,-11.26831011352539,-0.7786259541984732,0.5267175572519084,-1.3511450381679388
5211955409103,3.744813384,1,0.2537853759765625,1.7178396911621092,-11.195286962890624,-0.9312977099236641,0.5572519083969466,-1.2900763358778626
5211965416603,3.754820884,1,0.2561795776367187,1.7597382202148437,-11.177330450439452,-0.7480916030534351,0.5801526717557252,-1.3053435114503817
5211975412176,3.764816457,1,0.21428104858398436,1.7190367919921874,-11.16057103881836,-0.8396946564885496,0.6030534351145038,-1.381679389312977
5211985413374,3.774817655,1,0.23822306518554687,1.707065783691406,-11.2240173828125,-0.7938931297709924,0.6030534351145038,-1.3129770992366412
5211995421603,3.784825884,1,0.2753331909179687,1.7322049011230467,-11.19887826538086,-0.7938931297709924,0.5267175572519084,-1.3511450381679388
5212005467228,3.794871509,1,0.21906945190429686,1.7776947326660155,-11.214440576171874,-0.7557251908396947,0.6641221374045801,-1.3129770992366412
5212015474103,3.804878384,1,0.22744915771484372,1.7094599853515624,-11.182118853759764,-0.8396946564885496,0.5877862595419847,-1.3206106870229009
5212025424312,3.814828593,1,0.18435352783203124,1.6903063720703124,-11.247959399414063,-0.7862595419847328,0.5877862595419847,-1.3206106870229009
5212035420249,3.82482453,1,0.22505495605468748,1.7429788085937499,-11.1474029296875,-0.7709923664122137,0.5419847328244275,-1.3282442748091603
5212045420197,3.834824478,1,0.2657563842773437,1.7549498168945312,-11.233594189453123,-0.7251908396946565,0.5725190839694656,-1.3511450381679388
5212055417853,3.844822134,1,0.28730419921875,1.7202338928222656,-11.182118853759764,-0.8015267175572519,0.648854961832061,-1.2900763358778626
5212065419260,3.854823541,1,0.2442085693359375,1.7106570861816406,-11.154585534667968,-0.816793893129771,0.6030534351145038,-1.3435114503816794
5212075418218,3.864822499,1,0.20709844360351562,1.7034744812011717,-11.164162341308593,-0.7633587786259542,0.5343511450381679,-1.3358778625954197
5212085417853,3.874822134,1,0.20350714111328125,1.7190367919921874,-11.258733306884764,-0.7251908396946565,0.5725190839694656,-1.282442748091603
5212095411812,3.884816093,1,0.201112939453125,1.763329522705078,-11.212046374511718,-0.8854961832061069,0.5038167938931297,-1.3206106870229009
5212105409937,3.894814218,1,0.22385785522460935,1.7549498168945312,-11.225214483642578,-0.816793893129771,0.5648854961832062,-1.3053435114503817
5212115410093,3.904814374,1,0.22864625854492185,1.7621324218749999,-11.135431921386719,-0.7633587786259542,0.46564885496183206,-1.3511450381679388
5212125413062,3.914817343,1,0.22505495605468748,1.7753005310058592,-11.238382592773437,-0.8473282442748091,0.549618320610687,-1.3282442748091603
5212135413010,3.924817291,1,0.2442085693359375,1.7286135986328124,-11.158176837158203,-0.8244274809160306,0.5114503816793893,-1.3206106870229009
5212145408739,3.93481302,1,0.21068974609375,1.7010802795410156,-11.201272467041015,-0.816793893129771,0.5801526717557252,-1.3282442748091603
5212155410562,3.944814843,1,0.28012159423828126,1.7741034301757812,-11.146205828857422,-0.8320610687022901,0.5725190839694656,-1.366412213740458
5212165411603,3.954815884,1,0.24779987182617186,1.7393875061035156,-11.213243475341796,-0.8473282442748091,0.5419847328244275,-1.3282442748091603
5212175411812,3.964816093,1,0.22744915771484372,1.6938976745605467,-11.256339105224608,-0.8625954198473282,0.549618320610687,-1.3053435114503817
5212185411603,3.974815884,1,0.1879448303222656,1.7477672119140624,-11.227608685302734,-0.7480916030534351,0.5725190839694656,-1.3282442748091603
5212195418947,3.984823228,1,0.239420166015625,1.7429788085937499,-11.148600030517578,-0.7938931297709924,0.6412213740458015,-1.366412213740458
5212205419624,3.994823905,1,0.26336218261718747,1.7357962036132812,-11.167753643798827,-0.8549618320610687,0.5419847328244275,-1.3053435114503817
5212215418478,4.004822759,1,0.16160861206054686,1.7178396911621092,-11.135431921386719,-0.8549618320610687,0.5801526717557252,-1.2900763358778626
5212225419989,4.01482427,1,0.19991583862304688,1.7585411193847655,-11.152191333007812,-0.7938931297709924,0.6030534351145038,-1.366412213740458
5212235418999,4.02482328,1,0.1927332336425781,1.7178396911621092,-11.214440576171874,-0.7633587786259542,0.5267175572519084,-1.381679389312977
5212245417489,4.03482177,1,0.229843359375,1.7693150268554687,-11.118672509765624,-0.8320610687022901,0.5572519083969466,-1.3435114503816794
5212255416864,4.044821145,1,0.1927332336425781,1.7202338928222656,-11.154585534667968,-0.7709923664122137,0.5725190839694656,-1.3587786259541985
5212265418687,4.054822968,1,0.2561795776367187,1.7310078002929687,-11.14022032470703,-0.7862595419847328,0.549618320610687,-1.366412213740458
5212275424051,4.064828332,1,0.23822306518554687,1.7166425903320313,-11.17852755126953,-0.7633587786259542,0.6564885496183206,-1.3282442748091603
5212285421239,4.07482552,1,0.239420166015625,1.7525556152343749,-11.165359442138671,-0.8091603053435115,0.5419847328244275,-1.297709923664122
5212295413270,4.084817551,1,0.2166752502441406,1.715445489501953,-11.150994232177734,-0.8244274809160306,0.5419847328244275,-1.3053435114503817
5212305410822,4.094815103,1,0.201112939453125,1.7597382202148437,-11.167753643798827,-0.8549618320610687,0.5648854961832062,-1.282442748091603
5212315411655,4.104815936,1,0.18914193115234373,1.7896657409667969,-11.201272467041015,-0.7862595419847328,0.5343511450381679,-1.297709923664122
5212325409833,4.114814114,1,0.22026655273437498,1.7130512878417967,-11.21084927368164,-0.7709923664122137,0.5419847328244275,-1.3206106870229009
5212335411499,4.12481578,1,0.2214636535644531,1.7357962036132812,-11.184513055419922,-0.8091603053435115,0.549618320610687,-1.3893129770992367
5212345409364,4.134813645,1,0.22385785522460935,1.7166425903320313,-11.171344946289063,-0.8625954198473282,0.6183206106870229,-1.2671755725190839
5212355409364,4.144813645,1,0.1879448303222656,1.6903063720703124,-11.186907257080078,-0.8015267175572519,0.5572519083969466,-1.3511450381679388
5212365410301,4.154814582,1,0.2549824768066406,1.7369933044433592,-11.207257971191405,-0.816793893129771,0.5038167938931297,-1.3129770992366412
5212375410770,4.164815051,1,0.2561795776367187,1.7405846069335937,-11.141417425537108,-0.7480916030534351,0.5114503816793893,-1.366412213740458
5212385411082,4.174815363,1,0.2537853759765625,1.753752716064453,-11.159373937988281,-0.8625954198473282,0.5877862595419847,-1.3435114503816794
5212395419728,4.184824009,1,0.25139117431640623,1.7130512878417967,-11.207257971191405,-0.8244274809160306,0.549618320610687,-1.3206106870229009
5212405416551,4.194820832,1,0.2154781494140625,1.7573440185546874,-11.183315954589844,-0.8396946564885496,0.5114503816793893,-1.3282442748091603
5212415417957,4.204822238,1,0.1975216369628906,1.7429788085937499,-11.152191333007812,-0.8244274809160306,0.6030534351145038,-1.297709923664122
5212425418166,4.214822447,1,0.2561795776367187,1.7669208251953124,-11.214440576171874,-0.8396946564885496,0.5648854961832062,-1.2748091603053435
5212435417176,4.224821457,1,0.2346317626953125,1.7429788085937499,-11.184513055419922,-0.7786259541984732,0.5877862595419847,-1.3282442748091603
5212445417593,4.234821874,1,0.19393033447265623,1.7202338928222656,-11.212046374511718,-0.8244274809160306,0.5801526717557252,-1.3511450381679388
5212455418999,4.24482328,1,0.201112939453125,1.725022296142578,-11.203666668701171,-0.7557251908396947,0.5648854961832062,-1.3511450381679388
5212465419728,4.254824009,1,0.21787235107421873,1.7238251953125,-11.177330450439452,-0.8778625954198473,0.5725190839694656,-1.3053435114503817
5212475418166,4.264822447,1,0.19153613281249998,1.7453730102539062,-11.146205828857422,-0.7786259541984732,0.6259541984732825,-1.2900763358778626
5212485419937,4.274824218,1,0.24061726684570311,1.7489643127441405,-11.243170996093749,-0.9465648854961832,0.5877862595419847,-1.3511450381679388
5212495416603,4.284820884,1,0.21906945190429686,1.7717092285156248,-11.156979736328124,-0.732824427480916,0.6412213740458015,-1.297709923664122
5212505416187,4.294820468,1,0.20470424194335937,1.7669208251953124,-11.159373937988281,-0.7709923664122137,0.5419847328244275,-1.3358778625954197
5212515413843,4.304818124,1,0.27174188842773433,1.7106570861816406,-11.197681164550781,-0.8091603053435115,0.5419847328244275,-1.3740458015267176
5212525413947,4.314818228,1,0.23702596435546874,1.744175909423828,-11.130643518066405,-0.7709923664122137,0.5419847328244275,-1.297709923664122
5212535412749,4.32481703,1,0.21787235107421873,1.7357962036132812,-11.227608685302734,-0.8091603053435115,0.6106870229007634,-1.366412213740458
5212545413478,4.334817759,1,0.26336218261718747,1.7334020019531249,-11.10191309814453,-0.8015267175572519,0.5648854961832062,-1.297709923664122
5212555412905,4.344817186,1,0.19033903198242186,1.7166425903320313,-11.123460913085937,-0.7633587786259542,0.6641221374045801,-1.381679389312977
5212565413322,4.354817603,1,0.23223756103515625,1.7465701110839842,-11.15338843383789,-0.8549618320610687,0.6564885496183206,-1.3511450381679388
5212575413114,4.364817395,1,0.18555062866210936,1.697488977050781,-11.135431921386719,-0.7938931297709924,0.5725190839694656,-1.3206106870229009
5212585413114,4.374817395,1,0.2861070983886719,1.7238251953125,-11.226411584472656,-0.916030534351145,0.4580152671755725,-1.3053435114503817
5212595429937,4.384834218,1,0.27293898925781246,1.695094775390625,-11.17254204711914,-0.8091603053435115,0.5877862595419847,-1.3740458015267176
5212605413374,4.394817655,1,0.2597708801269531,1.7549498168945312,-11.1474029296875,-0.8320610687022901,0.5725190839694656,-1.3282442748091603
5212615413322,4.404817603,1,0.23822306518554687,1.7561469177246092,-11.271901416015623,-0.8091603053435115,0.5190839694656488,-1.3282442748091603
5212625413582,4.414817863,1,0.2549824768066406,1.7645266235351562,-11.155782635498046,-0.8244274809160306,0.5419847328244275,-1.3206106870229009
5212635413687,4.424817968,1,0.25737667846679685,1.7286135986328124,-11.121066711425781,-0.8244274809160306,0.5877862595419847,-1.3129770992366412
5212645415666,4.434819947,1,0.29089550170898437,1.6843208679199217,-11.179724652099608,-0.7633587786259542,0.5343511450381679,-1.3129770992366412
5212655414364,4.444818645,1,0.2705447875976562,1.7298106994628906,-11.171344946289063,-0.7938931297709924,0.6030534351145038,-1.366412213740458
5212665413530,4.454817811,1,0.23343466186523437,1.7573440185546874,-11.244368096923827,-0.7938931297709924,0.648854961832061,-1.366412213740458
5212675413166,4.464817447,1,0.22026655273437498,1.7513585144042967,-11.200075366210937,-0.7938931297709924,0.5648854961832062,-1.3587786259541985
5212685412645,4.474816926,1,0.22026655273437498,1.7226280944824217,-11.152191333007812,-0.8931297709923665,0.5419847328244275,-1.3129770992366412
5212695448374,4.484852655,1,0.24301146850585936,1.744175909423828,-11.150994232177734,-0.8015267175572519,0.5648854961832062,-1.3053435114503817
5212705413947,4.494818228,1,0.25258827514648435,1.734599102783203,-11.133037719726563,-0.8549618320610687,0.5725190839694656,-1.366412213740458
5212715414207,4.504818488,1,0.21428104858398436,1.7238251953125,-11.194089862060546,-0.7404580152671756,0.6259541984732825,-1.3435114503816794
5212725412593,4.514816874,1,0.2609679809570312,1.7118541870117185,-11.131840618896483,-0.8244274809160306,0.5419847328244275,-1.3206106870229009
5212735408947,4.524813228,1,0.2597708801269531,1.7549498168945312,-11.195286962890624,-0.8015267175572519,0.5572519083969466,-1.3587786259541985
5212745412801,4.534817082,1,0.19871873779296872,1.705868682861328,-11.183315954589844,-0.8396946564885496,0.6106870229007634,-1.3282442748091603
5212755412489,4.54481677,1,0.22744915771484372,1.7118541870117185,-11.214440576171874,-0.7862595419847328,0.5801526717557252,-1.3435114503816794
5212765412020,4.554816301,1,0.2442085693359375,1.7357962036132812,-11.192892761230468,-0.8320610687022901,0.5801526717557252,-1.3129770992366412
5212775413166,4.564817447,1,0.20949264526367187,1.7573440185546874,-11.184513055419922,-0.816793893129771,0.5954198473282443,-1.3129770992366412
5212785412489,4.57481677,1,0.22744915771484372,1.7597382202148437,-11.167753643798827,-0.8778625954198473,0.6183206106870229,-1.3358778625954197
5212795449572,4.584853853,1,0.2214636535644531,1.7082628845214842,-11.215637677001952,-0.7938931297709924,0.5801526717557252,-1.2595419847328244
5212805414155,4.594818436,1,0.2597708801269531,1.7118541870117185,-11.164162341308593,-0.8396946564885496,0.5343511450381679,-1.2748091603053435
5212815413009,4.60481729,1,0.20709844360351562,1.7118541870117185,-11.189301458740234,-0.7709923664122137,0.48091603053435117,-1.3587786259541985
5212825412697,4.614816978,1,0.23822306518554687,1.7106570861816406,-11.204863769531249,-0.8854961832061069,0.5801526717557252,-1.3587786259541985
5212835414520,4.624818801,1,0.2549824768066406,1.7262193969726563,-11.228805786132812,-0.8778625954198473,0.5801526717557252,-1.2900763358778626
5212845425041,4.634829322,1,0.20829554443359374,1.7082628845214842,-11.165359442138671,-0.8778625954198473,0.6335877862595419,-1.3053435114503817
5212855414155,4.644818436,1,0.2657563842773437,1.7405846069335937,-11.129446417236327,-0.8625954198473282,0.5190839694656488,-1.3129770992366412
5212865410301,4.654814582,1,0.22385785522460935,1.744175909423828,-11.123460913085937,-0.7862595419847328,0.6030534351145038,-1.3435114503816794
5212875414207,4.664818488,1,0.25258827514648435,1.753752716064453,-11.182118853759764,-0.7938931297709924,0.48854961832061067,-1.297709923664122
5212885412489,4.67481677,1,0.2214636535644531,1.7130512878417967,-11.1474029296875,-0.8473282442748091,0.6412213740458015,-1.3893129770992367
5212895413270,4.684817551,1,0.21188684692382811,1.7405846069335937,-11.136629022216797,-0.7709923664122137,0.5801526717557252,-1.3587786259541985
5212905414676,4.694818957,1,0.21787235107421873,1.6831237670898436,-11.222820281982422,-0.8320610687022901,0.6259541984732825,-1.3129770992366412
5212915412905,4.704817186,1,0.23582886352539062,1.7393875061035156,-11.129446417236327,-0.7862595419847328,0.5419847328244275,-1.282442748091603
5212925413843,4.714818124,1,0.2932897033691406,1.7202338928222656,-11.197681164550781,-0.916030534351145,0.6183206106870229,-1.3511450381679388
5212935413582,4.724817863,1,0.2346317626953125,1.7022773803710936,-11.13423482055664,-0.8473282442748091,0.5190839694656488,-1.3206106870229009
5212945412697,4.734816978,1,0.22744915771484372,1.7549498168945312,-11.192892761230468,-0.8473282442748091,0.5877862595419847,-1.3587786259541985
5212955413999,4.74481828,1,0.23343466186523437,1.7214309936523438,-11.164162341308593,-0.7709923664122137,0.5648854961832062,-1.3129770992366412
5212965414051,4.754818332,1,0.19632453613281248,1.7381904052734374,-11.159373937988281,-0.8702290076335878,0.6030534351145038,-1.3435114503816794
5212975413426,4.764817707,1,0.2262520568847656,1.7453730102539062,-11.158176837158203,-0.7633587786259542,0.5648854961832062,-1.2595419847328244
5212985413270,4.774817551,1,0.22266075439453123,1.7405846069335937,-11.139023223876952,-0.816793893129771,0.5725190839694656,-1.3893129770992367
5212995414364,4.784818645,1,0.2561795776367187,1.7202338928222656,-11.18571015625,-0.7862595419847328,0.5343511450381679,-1.282442748091603
5213005413582,4.794817863,1,0.21068974609375,1.7453730102539062,-11.190498559570312,-0.8473282442748091,0.6183206106870229,-1.3435114503816794
5213015412697,4.804816978,1,0.22266075439453123,1.7010802795410156,-11.139023223876952,-0.8015267175572519,0.4961832061068702,-1.3511450381679388
5213025413686,4.814817967,1,0.23223756103515625,1.7286135986328124,-11.148600030517578,-0.8244274809160306,0.549618320610687,-1.3587786259541985
5213035413478,4.824817759,1,0.2262520568847656,1.772906329345703,-11.19169566040039,-0.8320610687022901,0.5877862595419847,-1.366412213740458
5213045413634,4.834817915,1,0.21787235107421873,1.7214309936523438,-11.207257971191405,-0.9007633587786259,0.5725190839694656,-1.3206106870229009
5213055412020,4.844816301,1,0.22505495605468748,1.7262193969726563,-11.18571015625,-0.7786259541984732,0.5648854961832062,-1.3511450381679388
5213065413322,4.854817603,1,0.23343466186523437,1.7645266235351562,-11.154585534667968,-0.8702290076335878,0.5343511450381679,-1.3053435114503817
5213075413009,4.86481729,1,0.22744915771484372,1.7178396911621092,-11.207257971191405,-0.7557251908396947,0.549618320610687,-1.3053435114503817
5213085413322,4.874817603,1,0.2346317626953125,1.7705121276855467,-11.189301458740234,-0.7862595419847328,0.5801526717557252,-1.3206106870229009
5213095413218,4.884817499,1,0.2501940734863281,1.7178396911621092,-11.19169566040039,-0.8091603053435115,0.6412213740458015,-1.3511450381679388
5213105415145,4.894819426,1,0.24779987182617186,1.725022296142578,-11.152191333007812,-0.8320610687022901,0.5190839694656488,-1.282442748091603
5213115408634,4.904812915,1,0.21906945190429686,1.7405846069335937,-11.121066711425781,-0.7786259541984732,0.5419847328244275,-1.297709923664122
5213125413582,4.914817863,1,0.25737667846679685,1.7130512878417967,-11.190498559570312,-0.8244274809160306,0.5572519083969466,-1.282442748091603
5213135412749,4.92481703,1,0.20470424194335937,1.6903063720703124,-11.149797131347656,-0.7557251908396947,0.6641221374045801,-1.3282442748091603
5213145412957,4.934817238,1,0.17597382202148437,1.7405846069335937,-11.17852755126953,-0.7862595419847328,0.5267175572519084,-1.297709923664122
5213155412957,4.944817238,1,0.24061726684570311,1.7274164978027342,-11.214440576171874,-0.7633587786259542,0.6106870229007634,-1.3435114503816794
5213165413218,4.954817499,1,0.24061726684570311,1.7310078002929687,-11.170147845458983,-0.8625954198473282,0.5419847328244275,-1.3206106870229009
5213175413322,4.964817603,1,0.22505495605468748,1.7190367919921874,-11.220426080322264,-0.7862595419847328,0.5801526717557252,-1.297709923664122
5213185412801,4.974817082,1,0.18914193115234373,1.7298106994628906,-11.170147845458983,-0.8244274809160306,0.5725190839694656,-1.3511450381679388
5213195412697,4.984816978,1,0.24181436767578124,1.7166425903320313,-11.148600030517578,-0.816793893129771,0.5801526717557252,-1.3053435114503817
5213205414624,4.994818905,1,0.2154781494140625,1.7334020019531249,-11.04564935913086,-0.816793893129771,0.5419847328244275,-1.3206106870229009
5213215413113,5.004817394,1,0.22864625854492185,1.7286135986328124,-11.314997045898437,-0.8854961832061069,0.6259541984732825,-1.3511450381679388
5213225414311,5.014818592,1,0.23702596435546874,1.6986860778808592,-11.164162341308593,-0.8702290076335878,0.6106870229007634,-1.297709923664122
5213235413374,5.024817655,1,0.19393033447265623,1.7561469177246092,-11.161768139648437,-0.8244274809160306,0.6030534351145038,-1.251908396946565
5213245408270,5.034812551,1,0.21787235107421873,1.725022296142578,-11.152191333007812,-0.816793893129771,0.5648854961832062,-1.3358778625954197
5213255412749,5.04481703,1,0.2154781494140625,1.7776947326660155,-11.124658013916015,-0.816793893129771,0.6183206106870229,-1.3282442748091603
5213265413061,5.054817342,1,0.24899697265624998,1.70467158203125,-11.043255157470702,-0.8702290076335878,0.5877862595419847,-1.3282442748091603
5213275413322,5.064817603,1,0.18555062866210936,1.7010802795410156,-11.204863769531249,-0.7862595419847328,0.5572519083969466,-1.3435114503816794
5213285413374,5.074817655,1,0.1771709228515625,1.6771382629394531,-11.337741961669922,-0.7404580152671756,0.6106870229007634,-1.282442748091603
5213295413582,5.084817863,1,0.26336218261718747,1.714248388671875,-11.066000073242186,-0.8549618320610687,0.549618320610687,-1.3587786259541985
5213305413426,5.094817707,1,0.2501940734863281,1.7274164978027342,-11.209652172851563,-0.7938931297709924,0.5572519083969466,-1.3893129770992367
5213315412540,5.104816821,1,0.25737667846679685,1.6915034729003906,-11.246762298583985,-0.8091603053435115,0.5114503816793893,-1.3053435114503817
5213325414207,5.114818488,1,0.26695348510742184,1.6639701538085936,-11.334150659179686,-0.816793893129771,0.5419847328244275,-1.2900763358778626
5213335414103,5.124818384,1,0.19991583862304688,1.7286135986328124,-11.064802972412108,-0.8015267175572519,0.5572519083969466,-1.3511450381679388
5213345413686,5.134817967,1,0.2454056701660156,1.7812860351562498,-11.323376751708985,-0.8244274809160306,0.5267175572519084,-1.282442748091603
5213355413895,5.144818176,1,0.20709844360351562,1.7322049011230467,-11.067197174072264,-0.8320610687022901,0.5648854961832062,-1.2442748091603053
5213365412488,5.154816769,1,0.24779987182617186,1.7417817077636717,-11.289857928466796,-0.8473282442748091,0.6412213740458015,-1.3129770992366412
5213375413218,5.164817499,1,0.24061726684570311,1.7525556152343749,-11.166556542968749,-0.8854961832061069,0.5419847328244275,-1.3053435114503817
5213385413999,5.17481828,1,0.21428104858398436,1.68551796875,-11.170147845458983,-0.8091603053435115,0.549618320610687,-1.3206106870229009
5213395413478,5.184817759,1,0.2549824768066406,1.7381904052734374,-11.161768139648437,-0.8473282442748091,0.6335877862595419,-1.282442748091603
5213405441238,5.194845519,1,0.23223756103515625,1.7669208251953124,-11.139023223876952,-0.8625954198473282,0.48091603053435117,-1.3282442748091603
5213415420405,5.204824686,1,0.19393033447265623,1.7082628845214842,-11.215637677001952,-0.8396946564885496,0.5572519083969466,-1.3511450381679388
5213425414311,5.214818592,1,0.23343466186523437,1.697488977050781,-11.213243475341796,-0.7709923664122137,0.5572519083969466,-1.3282442748091603
5213435412384,5.224816665,1,0.2059013427734375,1.7130512878417967,-11.125855114746093,-0.8549618320610687,0.5801526717557252,-1.3435114503816794
5213445413374,5.234817655,1,0.2346317626953125,1.7381904052734374,-11.130643518066405,-0.8320610687022901,0.48854961832061067,-1.3129770992366412
5213455412488,5.244816769,1,0.2932897033691406,1.7357962036132812,-11.118672509765624,-0.7938931297709924,0.549618320610687,-1.3435114503816794
5213465414467,5.254818748,1,0.17836802368164062,1.707065783691406,-11.168950744628905,-0.7862595419847328,0.5725190839694656,-1.3358778625954197
5213475413061,5.264817342,1,0.21787235107421873,1.707065783691406,-11.15338843383789,-0.8396946564885496,0.5648854961832062,-1.4122137404580153
5213485412697,5.274816978,1,0.18076222534179687,1.7980454467773437,-11.201272467041015,-0.7862595419847328,0.5572519083969466,-1.3206106870229009
5213495413009,5.28481729,1,0.22266075439453123,1.7513585144042967,-11.123460913085937,-0.8473282442748091,0.5190839694656488,-1.3435114503816794
5213505410509,5.29481479,1,0.31962592163085934,1.725022296142578,-11.143811627197264,-0.7404580152671756,0.5572519083969466,-1.3587786259541985
5213515411759,5.30481604,1,0.20949264526367187,1.7417817077636717,-11.244368096923827,-0.9083969465648855,0.5725190839694656,-1.366412213740458
5213525408947,5.314813228,1,0.20709844360351562,1.7130512878417967,-11.208455072021483,-0.8244274809160306,0.5648854961832062,-1.4045801526717556
5213535410092,5.324814373,1,0.2166752502441406,1.7118541870117185,-11.177330450439452,-0.8549618320610687,0.5954198473282443,-1.3129770992366412
5213545410926,5.334815207,1,0.23702596435546874,1.725022296142578,-11.179724652099608,-0.8473282442748091,0.5572519083969466,-1.4122137404580153
5213555410040,5.344814321,1,0.229843359375,1.7310078002929687,-11.213243475341796,-0.8244274809160306,0.5038167938931297,-1.3206106870229009
5213565409572,5.354813853,1,0.19871873779296872,1.705868682861328,-11.182118853759764,-0.7862595419847328,0.5190839694656488,-1.251908396946565
5213575409728,5.364814009,1,0.25139117431640623,1.7717092285156248,-11.186907257080078,-0.8473282442748091,0.5648854961832062,-1.3129770992366412
5213585409676,5.374813957,1,0.2501940734863281,1.7561469177246092,-11.17254204711914,-0.7480916030534351,0.549618320610687,-1.3587786259541985
5213595410249,5.38481453,1,0.23104046020507812,1.7334020019531249,-11.188104357910156,-0.8091603053435115,0.5877862595419847,-1.2900763358778626
5213605495040,5.394899321,1,0.25258827514648435,1.7393875061035156,-11.13423482055664,-0.7938931297709924,0.5343511450381679,-1.3053435114503817
5213615420145,5.404824426,1,0.22864625854492185,1.7597382202148437,-11.184513055419922,-0.7938931297709924,0.6641221374045801,-1.3511450381679388
5213625419155,5.414823436,1,0.23104046020507812,1.6915034729003906,-11.179724652099608,-0.816793893129771,0.5343511450381679,-1.2595419847328244
5213635417280,5.424821561,1,0.23223756103515625,1.7465701110839842,-11.220426080322264,-0.8702290076335878,0.6030534351145038,-1.2900763358778626
5213645418217,5.434822498,1,0.2693476867675781,1.7178396911621092,-11.200075366210937,-0.7938931297709924,0.5877862595419847,-1.3206106870229009
5213655418426,5.444822707,1,0.26695348510742184,1.7525556152343749,-11.17254204711914,-0.8778625954198473,0.5954198473282443,-1.2900763358778626
5213665418270,5.454822551,1,0.22385785522460935,1.7298106994628906,-11.184513055419922,-0.7557251908396947,0.5572519083969466,-1.282442748091603
5213675417384,5.464821665,1,0.23104046020507812,1.7693150268554687,-11.188104357910156,-0.8549618320610687,0.5267175572519084,-1.3129770992366412
5213685418374,5.474822655,1,0.2861070983886719,1.763329522705078,-11.176133349609374,-0.7709923664122137,0.5343511450381679,-1.3587786259541985
5213695417019,5.4848213,1,0.22744915771484372,1.7298106994628906,-11.171344946289063,-0.8396946564885496,0.5572519083969466,-1.2748091603053435
5213705498009,5.49490229,1,0.2645592834472656,1.7298106994628906,-11.146205828857422,-0.7709923664122137,0.549618320610687,-1.3740458015267176
5213715411238,5.504815519,1,0.18555062866210936,1.7393875061035156,-11.176133349609374,-0.7938931297709924,0.5725190839694656,-1.366412213740458
5213725409259,5.51481354,1,0.2537853759765625,1.7286135986328124,-11.200075366210937,-0.7709923664122137,0.5343511450381679,-1.3358778625954197
5213735411134,5.524815415,1,0.229843359375,1.7202338928222656,-11.176133349609374,-0.8320610687022901,0.6183206106870229,-1.2748091603053435
5213745410144,5.534814425,1,0.24061726684570311,1.7334020019531249,-11.227608685302734,-0.7709923664122137,0.6106870229007634,-1.3282442748091603
5213755410978,5.544815259,1,0.23343466186523437,1.7705121276855467,-11.26831011352539,-0.8625954198473282,0.5725190839694656,-1.3053435114503817
5213765411342,5.554815623,1,0.24061726684570311,1.7310078002929687,-11.156979736328124,-0.7557251908396947,0.5343511450381679,-1.3129770992366412
5213775410197,5.564814478,1,0.2442085693359375,1.753752716064453,-11.194089862060546,-0.8549618320610687,0.6412213740458015,-1.3587786259541985
5213785410978,5.574815259,1,0.19632453613281248,1.734599102783203,-11.166556542968749,-0.8091603053435115,0.6870229007633588,-1.4045801526717556
5213795411290,5.584815571,1,0.23343466186523437,1.7393875061035156,-11.184513055419922,-0.8015267175572519,0.5190839694656488,-1.3893129770992367
5213805409676,5.594813957,1,0.1975216369628906,1.705868682861328,-11.097124694824219,-0.8244274809160306,0.5648854961832062,-1.3206106870229009
5213815420978,5.604825259,1,0.20470424194335937,1.7022773803710936,-11.166556542968749,-0.8549618320610687,0.5648854961832062,-1.282442748091603
5213825418113,5.614822394,1,0.2346317626953125,1.7489643127441405,-11.164162341308593,-0.8244274809160306,0.5725190839694656,-1.3893129770992367
5213835417176,5.624821457,1,0.20470424194335937,1.7513585144042967,-11.239579693603515,-0.8549618320610687,0.5267175572519084,-1.366412213740458
5213845416759,5.63482104,1,0.22864625854492185,1.714248388671875,-11.192892761230468,-0.8473282442748091,0.6564885496183206,-1.3129770992366412
5213855417697,5.644821978,1,0.2214636535644531,1.7274164978027342,-11.235988391113281,-0.8015267175572519,0.5114503816793893,-1.3358778625954197
5213865420665,5.654824946,1,0.23582886352539062,1.687912170410156,-11.131840618896483,-0.8091603053435115,0.5572519083969466,-1.282442748091603
5213875418738,5.664823019,1,0.258573779296875,1.7585411193847655,-11.194089862060546,-0.8091603053435115,0.5648854961832062,-1.3435114503816794
5213885416967,5.674821248,1,0.20470424194335937,1.725022296142578,-11.17254204711914,-0.8931297709923665,0.6259541984732825,-1.381679389312977
5213895418374,5.684822655,1,0.24181436767578124,1.734599102783203,-11.258733306884764,-0.8091603053435115,0.5038167938931297,-1.297709923664122
5213905417540,5.694821821,1,0.2597708801269531,1.7334020019531249,-11.125855114746093,-0.8015267175572519,0.648854961832061,-1.3740458015267176
5213915413686,5.704817967,1,0.21308394775390624,1.7597382202148437,-11.159373937988281,-0.8244274809160306,0.5801526717557252,-1.3053435114503817
5213925411290,5.714815571,1,0.19393033447265623,1.7334020019531249,-11.209652172851563,-0.7786259541984732,0.48854961832061067,-1.3435114503816794
5213935410196,5.724814477,1,0.21906945190429686,1.7705121276855467,-11.149797131347656,-0.8549618320610687,0.549618320610687,-1.282442748091603
5213945409571,5.734813852,1,0.22026655273437498,1.7393875061035156,-11.245565197753905,-0.7557251908396947,0.5725190839694656,-1.297709923664122
5213955410926,5.744815207,1,0.2442085693359375,1.7800889343261719,-11.204863769531249,-0.7938931297709924,0.549618320610687,-1.3511450381679388
5213965419155,5.754823436,1,0.22385785522460935,1.7573440185546874,-11.219228979492186,-0.8549618320610687,0.549618320610687,-1.282442748091603
5213975412853,5.764817134,1,0.21068974609375,1.725022296142578,-11.161768139648437,-0.7709923664122137,0.5190839694656488,-1.2900763358778626
5213985410353,5.774814634,1,0.28969840087890625,1.7226280944824217,-11.137826123046874,-0.8396946564885496,0.6259541984732825,-1.3358778625954197
5213995411707,5.784815988,1,0.22505495605468748,1.7286135986328124,-11.202469567871093,-0.816793893129771,0.5114503816793893,-1.2900763358778626
5214005409519,5.7948138,1,0.25258827514648435,1.7561469177246092,-11.21084927368164,-0.8091603053435115,0.5572519083969466,-1.3129770992366412
5214015414936,5.804819217,1,0.22266075439453123,1.7286135986328124,-11.145008728027342,-0.7404580152671756,0.5648854961832062,-1.2900763358778626
5214025420405,5.814824686,1,0.18435352783203124,1.7178396911621092,-11.141417425537108,-0.8625954198473282,0.5801526717557252,-1.2595419847328244
5214035417696,5.824821977,1,0.21068974609375,1.7393875061035156,-11.161768139648437,-0.7633587786259542,0.549618320610687,-1.297709923664122
5214045415196,5.834819477,1,0.2059013427734375,1.6891092712402342,-11.158176837158203,-0.8244274809160306,0.6183206106870229,-1.3206106870229009
5214055419988,5.844824269,1,0.23223756103515625,1.6891092712402342,-11.182118853759764,-0.7938931297709924,0.549618320610687,-1.3129770992366412
5214065417905,5.854822186,1,0.20829554443359374,1.7322049011230467,-11.167753643798827,-0.8015267175572519,0.6183206106870229,-1.3129770992366412
5214075418321,5.864822602,1,0.19991583862304688,1.7298106994628906,-11.170147845458983,-0.8091603053435115,0.6335877862595419,-1.3129770992366412
5214085417801,5.874822082,1,0.18076222534179687,1.7286135986328124,-11.1474029296875,-0.8931297709923665,0.5114503816793893,-1.297709923664122
5214095417801,5.884822082,1,0.1927332336425781,1.6508020446777343,-11.170147845458983,-0.732824427480916,0.5190839694656488,-1.366412213740458
5214105416551,5.894820832,1,0.2454056701660156,1.7393875061035156,-11.139023223876952,-0.8473282442748091,0.5572519083969466,-1.381679389312977
5214115415144,5.904819425,1,0.20350714111328125,1.7034744812011717,-11.161768139648437,-0.7709923664122137,0.5954198473282443,-1.366412213740458
5214125410509,5.91481479,1,0.23104046020507812,1.7717092285156248,-11.176133349609374,-0.8549618320610687,0.5725190839694656,-1.3206106870229009
5214135410561,5.924814842,1,0.22385785522460935,1.7106570861816406,-11.16057103881836,-0.816793893129771,0.5267175572519084,-1.3740458015267176
5214145410353,5.934814634,1,0.2262520568847656,1.7525556152343749,-11.194089862060546,-0.816793893129771,0.5801526717557252,-1.3435114503816794
5214155410405,5.944814686,1,0.22505495605468748,1.7453730102539062,-11.19169566040039,-0.8244274809160306,0.5801526717557252,-1.3358778625954197
5214165410821,5.954815102,1,0.21787235107421873,1.7884686401367187,-11.19169566040039,-0.8473282442748091,0.5801526717557252,-1.3893129770992367
5214175411446,5.964815727,1,0.24779987182617186,1.7334020019531249,-11.173739147949219,-0.8244274809160306,0.5877862595419847,-1.297709923664122
5214185410613,5.974814894,1,0.20709844360351562,1.7238251953125,-11.154585534667968,-0.8854961832061069,0.6259541984732825,-1.2900763358778626
5214195410457,5.984814738,1,0.23104046020507812,1.6807295654296874,-11.21084927368164,-0.8625954198473282,0.5648854961832062,-1.3206106870229009
5214205409676,5.994813957,1,0.21787235107421873,1.7202338928222656,-11.208455072021483,-0.9083969465648855,0.6259541984732825,-1.3358778625954197
5214215418842,6.004823123,1,0.26216508178710934,1.7298106994628906,-11.21683477783203,-0.8091603053435115,0.6183206106870229,-1.3053435114503817
5214225419415,6.014823696,1,0.2693476867675781,1.7609353210449217,-11.262324609375,-0.9618320610687023,0.5419847328244275,-1.2595419847328244
5214235417488,6.024821769,1,0.2166752502441406,1.7549498168945312,-11.203666668701171,-0.7938931297709924,0.5954198473282443,-1.3435114503816794
5214245417853,6.034822134,1,0.22026655273437498,1.7369933044433592,-11.149797131347656,-0.8931297709923665,0.549618320610687,-1.2671755725190839
5214255418269,6.04482255,1,0.22744915771484372,1.7693150268554687,-11.232397088623046,-0.7404580152671756,0.5572519083969466,-1.3053435114503817
5214265416967,6.054821248,1,0.17956512451171874,1.7381904052734374,-11.177330450439452,-0.8091603053435115,0.5190839694656488,-1.2595419847328244
5214275420717,6.064824998,1,0.19033903198242186,1.7274164978027342,-11.161768139648437,-0.8702290076335878,0.5572519083969466,-1.3511450381679388
5214285427540,6.074831821,1,0.22505495605468748,1.7298106994628906,-11.194089862060546,-0.8396946564885496,0.5572519083969466,-1.3511450381679388
5214295419519,6.0848238,1,0.2154781494140625,1.714248388671875,-11.189301458740234,-0.8244274809160306,0.5801526717557252,-1.3282442748091603
5214305418217,6.094822498,1,0.21906945190429686,1.7465701110839842,-11.197681164550781,-0.8473282442748091,0.5572519083969466,-1.2900763358778626
5214315413842,6.104818123,1,0.19393033447265623,1.7310078002929687,-11.200075366210937,-0.816793893129771,0.5877862595419847,-1.3511450381679388
5214325411030,6.114815311,1,0.24899697265624998,1.725022296142578,-11.1474029296875,-0.8015267175572519,0.5343511450381679,-1.3206106870229009
5214335410978,6.124815259,1,0.20709844360351562,1.6675614562988281,-11.16057103881836,-0.8244274809160306,0.6106870229007634,-1.2748091603053435
5214345410196,6.134814477,1,0.18435352783203124,1.7657237243652342,-11.204863769531249,-0.8015267175572519,0.549618320610687,-1.2748091603053435
5214355409259,6.14481354,1,0.19393033447265623,1.7322049011230467,-11.091139190673827,-0.8931297709923665,0.5419847328244275,-1.3740458015267176
5214365410821,6.154815102,1,0.20231004028320312,1.7681179260253905,-11.182118853759764,-0.7251908396946565,0.5267175572519084,-1.3053435114503817
5214375408686,6.164812967,1,0.21308394775390624,1.7226280944824217,-11.183315954589844,-0.8244274809160306,0.549618320610687,-1.366412213740458
5214385410353,6.174814634,1,0.21428104858398436,1.7968483459472655,-11.16057103881836,-0.8244274809160306,0.5343511450381679,-1.2748091603053435
5214395409103,6.184813384,1,0.20949264526367187,1.697488977050781,-11.194089862060546,-0.8473282442748091,0.5801526717557252,-1.3206106870229009
5214405451186,6.194855467,1,0.23104046020507812,1.7465701110839842,-11.188104357910156,-0.8549618320610687,0.5114503816793893,-1.3206106870229009
5214415422228,6.204826509,1,0.22505495605468748,1.7369933044433592,-11.116278308105468,-0.8549618320610687,0.5572519083969466,-1.3129770992366412
5214425412957,6.214817238,1,0.21428104858398436,1.7393875061035156,-11.212046374511718,-0.8091603053435115,0.6183206106870229,-1.282442748091603
5214435410665,6.224814946,1,0.2214636535644531,1.7298106994628906,-11.244368096923827,-0.8625954198473282,0.5954198473282443,-1.381679389312977
5214445412853,6.234817134,1,0.24181436767578124,1.7369933044433592,-11.222820281982422,-0.7633587786259542,0.5725190839694656,-1.2595419847328244
5214455411550,6.244815831,1,0.21906945190429686,1.7094599853515624,-11.215637677001952,-0.7862595419847328,0.549618320610687,-1.381679389312977
5214465412436,6.254816717,1,0.25139117431640623,1.70467158203125,-11.173739147949219,-0.7557251908396947,0.5954198473282443,-1.3129770992366412
5214475410769,6.26481505,1,0.23702596435546874,1.7717092285156248,-11.182118853759764,-0.816793893129771,0.48854961832061067,-1.3053435114503817
5214485410509,6.27481479,1,0.2346317626953125,1.7549498168945312,-11.221623181152344,-0.8244274809160306,0.5190839694656488,-1.3358778625954197
5214495406134,6.284810415,1,0.229843359375,1.7274164978027342,-11.204863769531249,-0.8244274809160306,0.6030534351145038,-1.3435114503816794
5214505412071,6.294816352,1,0.23343466186523437,1.7657237243652342,-11.167753643798827,-0.816793893129771,0.5267175572519084,-1.4122137404580153
5214515506290,6.304910571,1,0.239420166015625,1.715445489501953,-11.154585534667968,-0.7709923664122137,0.6946564885496184,-1.3206106870229009
5214525417384,6.314821665,1,0.19153613281249998,1.7513585144042967,-11.145008728027342,-0.7175572519083969,0.5267175572519084,-1.3053435114503817
5214535418425,6.324822706,1,0.19512743530273435,1.7274164978027342,-11.112687005615234,-0.8091603053435115,0.5877862595419847,-1.3053435114503817
5214545418061,6.334822342,1,0.22864625854492185,1.6639701538085936,-11.203666668701171,-0.7938931297709924,0.5419847328244275,-1.3358778625954197
5214555417488,6.344821769,1,0.24061726684570311,1.668758557128906,-11.214440576171874,-0.8549618320610687,0.5725190839694656,-1.381679389312977
5214565418686,6.354822967,1,0.24061726684570311,1.7848773376464844,-11.155782635498046,-0.7633587786259542,0.5267175572519084,-1.3053435114503817
5214575418425,6.364822706,1,0.2214636535644531,1.7393875061035156,-11.133037719726563,-0.8244274809160306,0.5725190839694656,-1.282442748091603
5214585418477,6.374822758,1,0.21428104858398436,1.7369933044433592,-11.19887826538086,-0.8244274809160306,0.5954198473282443,-1.297709923664122
5214595418894,6.384823175,1,0.2561795776367187,1.7585411193847655,-11.166556542968749,-0.8778625954198473,0.6030534351145038,-1.3435114503816794
5214605418842,6.394823123,1,0.20470424194335937,1.7681179260253905,-11.19887826538086,-0.8473282442748091,0.5801526717557252,-1.3129770992366412
5214615505092,6.404909373,1,0.21188684692382811,1.7381904052734374,-11.162965240478515,-0.8015267175572519,0.5419847328244275,-1.282442748091603
5214625412384,6.414816665,1,0.18914193115234373,1.7681179260253905,-11.243170996093749,-0.7709923664122137,0.6030534351145038,-1.3893129770992367
5214635410873,6.424815154,1,0.26815058593749996,1.7178396911621092,-11.15338843383789,-0.8778625954198473,0.5648854961832062,-1.2671755725190839
5214645410613,6.434814894,1,0.2693476867675781,1.734599102783203,-11.192892761230468,-0.7938931297709924,0.5954198473282443,-1.3129770992366412
5214655408998,6.444813279,1,0.1867477294921875,1.7501614135742187,-11.206060870361327,-0.8320610687022901,0.5648854961832062,-1.3053435114503817
5214665411759,6.45481604,1,0.24899697265624998,1.7190367919921874,-11.192892761230468,-0.7938931297709924,0.5801526717557252,-1.3282442748091603
5214675410300,6.464814581,1,0.2346317626953125,1.7214309936523438,-11.1474029296875,-0.8473282442748091,0.5190839694656488,-1.3206106870229009
5214685410769,6.47481505,1,0.20231004028320312,1.7501614135742187,-11.204863769531249,-0.7557251908396947,0.6183206106870229,-1.3435114503816794
5214695410092,6.484814373,1,0.23702596435546874,1.7202338928222656,-11.161768139648437,-0.8320610687022901,0.6106870229007634,-1.381679389312977
5214705410196,6.494814477,1,0.239420166015625,1.7130512878417967,-11.206060870361327,-0.7862595419847328,0.5114503816793893,-1.297709923664122
5214715410144,6.504814425,1,0.2214636535644531,1.7202338928222656,-11.156979736328124,-0.8473282442748091,0.5648854961832062,-1.3435114503816794
5214725420457,6.514824738,1,0.25139117431640623,1.6986860778808592,-11.212046374511718,-0.7709923664122137,0.5954198473282443,-1.4122137404580153
5214735416394,6.524820675,1,0.2537853759765625,1.7298106994628906,-11.137826123046874,-0.8778625954198473,0.6183206106870229,-1.2900763358778626
5214745418842,6.534823123,1,0.17238251953125,1.7465701110839842,-11.213243475341796,-0.6641221374045801,0.5648854961832062,-1.3282442748091603
5214755419727,6.544824008,1,0.23104046020507812,1.7489643127441405,-11.194089862060546,-0.8931297709923665,0.5648854961832062,-1.2595419847328244
5214765418946,6.554823227,1,0.24301146850585936,1.7621324218749999,-11.17254204711914,-0.7404580152671756,0.5572519083969466,-1.3511450381679388
5214775417332,6.564821613,1,0.19153613281249998,1.7034744812011717,-11.11508120727539,-0.8778625954198473,0.5725190839694656,-1.3587786259541985
5214785420092,6.574824373,1,0.23582886352539062,1.7298106994628906,-11.158176837158203,-0.7938931297709924,0.5801526717557252,-1.3587786259541985
5214795417904,6.584822185,1,0.22864625854492185,1.7334020019531249,-11.17254204711914,-0.7786259541984732,0.6106870229007634,-1.366412213740458
5214805417384,6.594821665,1,0.239420166015625,1.7238251953125,-11.088744989013671,-0.732824427480916,0.5725190839694656,-1.3129770992366412
5214815417696,6.604821977,1,0.21787235107421873,1.70467158203125,-11.228805786132812,-0.8702290076335878,0.5877862595419847,-1.3129770992366412
5214825412540,6.614816821,1,0.2262520568847656,1.7214309936523438,-11.146205828857422,-0.7862595419847328,0.5725190839694656,-1.3740458015267176
5214835410977,6.624815258,1,0.16519991455078123,1.7465701110839842,-11.156979736328124,-0.8091603053435115,0.5572519083969466,-1.3435114503816794
5214845410613,6.634814894,1,0.2262520568847656,1.696291876220703,-11.171344946289063,-0.7938931297709924,0.5343511450381679,-1.3282442748091603
5214855423582,6.644827863,1,0.258573779296875,1.7369933044433592,-11.168950744628905,-0.8473282442748091,0.5648854961832062,-1.2900763358778626
5214865414779,6.65481906,1,0.24779987182617186,1.707065783691406,-11.218031878662108,-0.7862595419847328,0.5648854961832062,-1.3740458015267176
5214875410561,6.664814842,1,0.23343466186523437,1.70467158203125,-11.203666668701171,-0.8396946564885496,0.5877862595419847,-1.366412213740458
5214885409519,6.6748138,1,0.20709844360351562,1.7166425903320313,-11.192892761230468,-0.732824427480916,0.549618320610687,-1.3740458015267176
5214895408842,6.684813123,1,0.21428104858398436,1.7393875061035156,-11.19169566040039,-0.8625954198473282,0.5648854961832062,-1.3053435114503817
5214905408998,6.694813279,1,0.24181436767578124,1.7214309936523438,-11.21683477783203,-0.7786259541984732,0.5190839694656488,-1.3969465648854962
5214915410509,6.70481479,1,0.21428104858398436,1.6986860778808592,-11.213243475341796,-0.7938931297709924,0.6106870229007634,-1.3282442748091603
5214925420248,6.714824529,1,0.2645592834472656,1.7322049011230467,-11.19169566040039,-0.8473282442748091,0.6564885496183206,-1.3435114503816794
5214935417227,6.724821508,1,0.24899697265624998,1.6986860778808592,-11.16057103881836,-0.7557251908396947,0.5343511450381679,-1.3206106870229009
5214945418842,6.734823123,1,0.2885013000488281,1.7369933044433592,-11.09592759399414,-0.8396946564885496,0.6335877862595419,-1.3358778625954197
5214955416498,6.744820779,1,0.18435352783203124,1.7190367919921874,-11.212046374511718,-0.7938931297709924,0.5267175572519084,-1.2671755725190839
5214965417071,6.754821352,1,0.17597382202148437,1.7286135986328124,-11.173739147949219,-0.8473282442748091,0.5648854961832062,-1.3435114503816794
5214975419154,6.764823435,1,0.2262520568847656,1.7465701110839842,-11.161768139648437,-0.7709923664122137,0.5877862595419847,-1.3511450381679388
5214985416967,6.774821248,1,0.28490999755859375,1.7130512878417967,-11.215637677001952,-0.7862595419847328,0.5648854961832062,-1.3282442748091603
5214995416811,6.784821092,1,0.21428104858398436,1.7477672119140624,-11.143811627197264,-0.8015267175572519,0.5572519083969466,-1.3282442748091603
5215005417956,6.794822237,1,0.181959326171875,1.7429788085937499,-11.19887826538086,-0.8244274809160306,0.6259541984732825,-1.3282442748091603
5215015417384,6.804821665,1,0.24301146850585936,1.7190367919921874,-11.203666668701171,-0.7938931297709924,0.5725190839694656,-1.3282442748091603
5215025412540,6.814816821,1,0.21428104858398436,1.7477672119140624,-11.08395658569336,-0.8320610687022901,0.5114503816793893,-1.3129770992366412
5215035410196,6.824814477,1,0.21787235107421873,1.7609353210449217,-11.131840618896483,-0.8015267175572519,0.5877862595419847,-1.282442748091603
5215045411602,6.834815883,1,0.17956512451171874,1.7322049011230467,-11.14022032470703,-0.7938931297709924,0.5572519083969466,-1.3206106870229009
5215055409415,6.844813696,1,0.22385785522460935,1.7010802795410156,-11.171344946289063,-0.7557251908396947,0.5343511450381679,-1.3129770992366412
5215065410144,6.854814425,1,0.258573779296875,1.7669208251953124,-11.239579693603515,-0.8320610687022901,0.549618320610687,-1.3282442748091603
5215075412331,6.864816612,1,0.229843359375,1.6938976745605467,-11.23718549194336,-0.8396946564885496,0.5801526717557252,-1.297709923664122
5215085411342,6.874815623,1,0.2609679809570312,1.7178396911621092,-11.276689819335937,-0.8396946564885496,0.5190839694656488,-1.3435114503816794
5215095409727,6.884814008,1,0.23104046020507812,1.7369933044433592,-11.155782635498046,-0.9007633587786259,0.5419847328244275,-1.2900763358778626
5215105410300,6.894814581,1,0.1927332336425781,1.7178396911621092,-11.176133349609374,-0.7938931297709924,0.6717557251908397,-1.3206106870229009
5215115409884,6.904814165,1,0.2645592834472656,1.7405846069335937,-11.183315954589844,-0.7557251908396947,0.5343511450381679,-1.3129770992366412
5215125419623,6.914823904,1,0.22385785522460935,1.6915034729003906,-11.244368096923827,-0.8396946564885496,0.549618320610687,-1.3587786259541985
5215135418477,6.924822758,1,0.22385785522460935,1.6843208679199217,-11.190498559570312,-0.7862595419847328,0.5419847328244275,-1.2748091603053435
5215145417852,6.934822133,1,0.2501940734863281,1.7429788085937499,-11.253944903564452,-0.7862595419847328,0.5801526717557252,-1.3587786259541985
5215155417227,6.944821508,1,0.20231004028320312,1.686715069580078,-11.156979736328124,-0.7862595419847328,0.48091603053435117,-1.282442748091603
5215165418113,6.954822394,1,0.23223756103515625,1.7262193969726563,-11.192892761230468,-0.8396946564885496,0.5648854961832062,-1.3740458015267176
5215175417279,6.96482156,1,0.22385785522460935,1.7310078002929687,-11.12226381225586,-0.7557251908396947,0.6183206106870229,-1.3053435114503817
5215185418061,6.974822342,1,0.16280571289062498,1.696291876220703,-11.23000288696289,-0.8549618320610687,0.6259541984732825,-1.3358778625954197
5215195416238,6.984820519,1,0.17836802368164062,1.7262193969726563,-11.269507214355468,-0.8244274809160306,0.48854961832061067,-1.3206106870229009
5215205416915,6.994821196,1,0.2262520568847656,1.7812860351562498,-11.119869610595703,-0.8320610687022901,0.6183206106870229,-1.3587786259541985
5215215417956,7.004822237,1,0.2214636535644531,1.7597382202148437,-11.203666668701171,-0.7862595419847328,0.5954198473282443,-1.282442748091603
5215225412331,7.014816612,1,0.19871873779296872,1.7286135986328124,-11.143811627197264,-0.8625954198473282,0.5572519083969466,-1.3206106870229009
5215235410144,7.024814425,1,0.21308394775390624,1.715445489501953,-11.19169566040039,-0.7404580152671756,0.5038167938931297,-1.3282442748091603
5215245410873,7.034815154,1,0.2501940734863281,1.7130512878417967,-11.202469567871093,-0.9083969465648855,0.5877862595419847,-1.3511450381679388
5215255409883,7.044814164,1,0.24301146850585936,1.7286135986328124,-11.207257971191405,-0.7862595419847328,0.5954198473282443,-1.3740458015267176
5215265410456,7.054814737,1,0.2442085693359375,1.7573440185546874,-11.1474029296875,-0.7938931297709924,0.549618320610687,-1.2748091603053435
5215275409936,7.064814217,1,0.19153613281249998,1.734599102783203,-11.269507214355468,-0.7709923664122137,0.6106870229007634,-1.3358778625954197
5215285408217,7.074812498,1,0.19393033447265623,1.7645266235351562,-11.200075366210937,-0.7862595419847328,0.5572519083969466,-1.3206106870229009
5215295407279,7.08481156,1,0.16998831787109375,1.686715069580078,-11.226411584472656,-0.7404580152671756,0.549618320610687,-1.3511450381679388
5215305411602,7.094815883,1,0.22505495605468748,1.7226280944824217,-11.176133349609374,-0.8091603053435115,0.5801526717557252,-1.282442748091603
5215315411602,7.104815883,1,0.229843359375,1.6711527587890624,-11.141417425537108,-0.8244274809160306,0.5267175572519084,-1.3206106870229009
5215325484102,7.114888383,1,0.17836802368164062,1.6831237670898436,-11.235988391113281,-0.8625954198473282,0.6412213740458015,-1.3206106870229009
5215335418894,7.124823175,1,0.22026655273437498,1.7286135986328124,-11.209652172851563,-0.8396946564885496,0.5267175572519084,-1.3511450381679388
5215345416394,7.134820675,1,0.22505495605468748,1.734599102783203,-11.165359442138671,-0.8244274809160306,0.6564885496183206,-1.282442748091603
5215355417488,7.144821769,1,0.20709844360351562,1.7202338928222656,-11.2240173828125,-0.7633587786259542,0.5343511450381679,-1.3740458015267176
5215365416758,7.154821039,1,0.2501940734863281,1.7178396911621092,-11.180921752929686,-0.8625954198473282,0.6335877862595419,-1.3129770992366412
5215375418165,7.164822446,1,0.28371289672851563,1.725022296142578,-11.186907257080078,-0.7633587786259542,0.5419847328244275,-1.3740458015267176
5215385418321,7.174822602,1,0.2166752502441406,1.7525556152343749,-11.251550701904296,-0.8931297709923665,0.5419847328244275,-1.251908396946565
5215395415717,7.184819998,1,0.16639701538085935,1.7214309936523438,-11.208455072021483,-0.7251908396946565,0.5877862595419847,-1.3053435114503817
5215405417956,7.194822237,1,0.22864625854492185,1.7094599853515624,-11.133037719726563,-0.7786259541984732,0.5801526717557252,-1.3511450381679388
5215415423633,7.204827914,1,0.26216508178710934,1.7513585144042967,-11.136629022216797,-0.8473282442748091,0.5419847328244275,-1.3282442748091603
5215425512748,7.214917029,1,0.2561795776367187,1.6998831787109374,-11.206060870361327,-0.8549618320610687,0.5648854961832062,-1.3358778625954197
5215435411915,7.224816196,1,0.24181436767578124,1.7190367919921874,-11.251550701904296,-0.8625954198473282,0.6335877862595419,-1.2671755725190839
5215445411029,7.23481531,1,0.24660277099609373,1.6603788513183593,-11.171344946289063,-0.7633587786259542,0.549618320610687,-1.3282442748091603
5215455409623,7.244813904,1,0.22505495605468748,1.6891092712402342,-11.162965240478515,-0.8015267175572519,0.5114503816793893,-1.3129770992366412
5215465409623,7.254813904,1,0.23343466186523437,1.7310078002929687,-11.192892761230468,-0.816793893129771,0.5190839694656488,-1.297709923664122
5215475409102,7.264813383,1,0.25258827514648435,1.6998831787109374,-11.131840618896483,-0.8244274809160306,0.5572519083969466,-1.282442748091603
5215485410352,7.274814633,1,0.24779987182617186,1.7525556152343749,-11.183315954589844,-0.816793893129771,0.549618320610687,-1.3740458015267176
5215495408894,7.284813175,1,0.24899697265624998,1.7178396911621092,-11.240776794433593,-0.816793893129771,0.5572519083969466,-1.3282442748091603
5215505409415,7.294813696,1,0.2561795776367187,1.7226280944824217,-11.190498559570312,-0.8091603053435115,0.5419847328244275,-1.3740458015267176
5215515410040,7.304814321,1,0.22026655273437498,1.7202338928222656,-11.280281121826171,-0.8015267175572519,0.5801526717557252,-1.3435114503816794
5215525406602,7.314810883,1,0.19153613281249998,1.7310078002929687,-11.264718811035156,-0.8473282442748091,0.5343511450381679,-1.3282442748091603
5215535416394,7.324820675,1,0.1975216369628906,1.7334020019531249,-11.19887826538086,-0.7938931297709924,0.5954198473282443,-1.3053435114503817
5215545420040,7.334824321,1,0.21428104858398436,1.7489643127441405,-11.161768139648437,-0.8015267175572519,0.5801526717557252,-1.3435114503816794
5215555418633,7.344822914,1,0.22864625854492185,1.7369933044433592,-11.25514200439453,-0.8320610687022901,0.5954198473282443,-1.3587786259541985
5215565417904,7.354822185,1,0.2693476867675781,1.714248388671875,-11.11508120727539,-0.8244274809160306,0.5572519083969466,-1.3053435114503817
5215575417383,7.364821664,1,0.26216508178710934,1.7118541870117185,-11.177330450439452,-0.8549618320610687,0.6030534351145038,-1.3358778625954197
5215585416654,7.374820935,1,0.2346317626953125,1.7226280944824217,-11.195286962890624,-0.8091603053435115,0.5267175572519084,-1.3282442748091603
5215595414258,7.384818539,1,0.22026655273437498,1.7549498168945312,-11.180921752929686,-0.7251908396946565,0.5877862595419847,-1.3511450381679388
5215605418790,7.394823071,1,0.258573779296875,1.7166425903320313,-11.125855114746093,-0.8320610687022901,0.549618320610687,-1.3206106870229009
5215615418060,7.404822341,1,0.21188684692382811,1.7405846069335937,-11.208455072021483,-0.7404580152671756,0.6030534351145038,-1.282442748091603
5215625416810,7.414821091,1,0.19991583862304688,1.7322049011230467,-11.168950744628905,-0.7938931297709924,0.5190839694656488,-1.297709923664122
5215635411810,7.424816091,1,0.28012159423828126,1.7621324218749999,-11.219228979492186,-0.8473282442748091,0.5267175572519084,-1.3587786259541985
5215645410821,7.434815102,1,0.23343466186523437,1.725022296142578,-11.141417425537108,-0.7862595419847328,0.5648854961832062,-1.3358778625954197
5215655410560,7.444814841,1,0.26695348510742184,1.696291876220703,-11.228805786132812,-0.8320610687022901,0.6030534351145038,-1.3282442748091603
5215665409519,7.4548138,1,0.22505495605468748,1.7022773803710936,-11.142614526367186,-0.7633587786259542,0.5343511450381679,-1.297709923664122
5215675409362,7.464813643,1,0.24899697265624998,1.7585411193847655,-11.174936248779296,-0.8473282442748091,0.5648854961832062,-1.3435114503816794
5215685410040,7.474814321,1,0.2346317626953125,1.7286135986328124,-11.094730493164063,-0.8015267175572519,0.5114503816793893,-1.3053435114503817
5215695410769,7.48481505,1,0.181959326171875,1.7166425903320313,-11.204863769531249,-0.8702290076335878,0.5725190839694656,-1.3282442748091603
5215705409102,7.494813383,1,0.2154781494140625,1.6735469604492186,-11.23718549194336,-0.7938931297709924,0.5572519083969466,-1.2900763358778626
5215715409987,7.504814268,1,0.22385785522460935,1.7262193969726563,-11.221623181152344,-0.8244274809160306,0.5343511450381679,-1.3969465648854962
5215725409623,7.514813904,1,0.24301146850585936,1.6915034729003906,-11.182118853759764,-0.7709923664122137,0.6030534351145038,-1.3129770992366412
5215735418685,7.524822966,1,0.23223756103515625,1.7322049011230467,-11.215637677001952,-0.8320610687022901,0.5267175572519084,-1.2595419847328244
5215745418790,7.534823071,1,0.23822306518554687,1.7226280944824217,-11.196484063720703,-0.7786259541984732,0.5114503816793893,-1.3282442748091603
5215755416550,7.544820831,1,0.229843359375,1.763329522705078,-11.251550701904296,-0.8702290076335878,0.5419847328244275,-1.3282442748091603
5215765418685,7.554822966,1,0.19512743530273435,1.7369933044433592,-11.162965240478515,-0.8015267175572519,0.5267175572519084,-1.3282442748091603
5215775416029,7.56482031,1,0.239420166015625,1.7262193969726563,-11.26831011352539,-0.8396946564885496,0.5572519083969466,-1.2748091603053435
5215785418269,7.57482255,1,0.21906945190429686,1.7429788085937499,-11.235988391113281,-0.8015267175572519,0.5267175572519084,-1.3282442748091603
5215795417019,7.5848213,1,0.2166752502441406,1.7453730102539062,-11.168950744628905,-0.8854961832061069,0.648854961832061,-1.2671755725190839
5215805415196,7.594819477,1,0.21308394775390624,1.7082628845214842,-11.16057103881836,-0.7557251908396947,0.5114503816793893,-1.3511450381679388
5215815418425,7.604822706,1,0.2454056701660156,1.7010802795410156,-11.158176837158203,-0.8549618320610687,0.5877862595419847,-1.3206106870229009
5215825417956,7.614822237,1,0.24660277099609373,1.7034744812011717,-11.232397088623046,-0.8320610687022901,0.5190839694656488,-1.3511450381679388
5215835412435,7.624816716,1,0.2262520568847656,1.7286135986328124,-11.170147845458983,-0.8702290076335878,0.5877862595419847,-1.3129770992366412
5215845411446,7.634815727,1,0.20470424194335937,1.7489643127441405,-11.130643518066405,-0.7938931297709924,0.6335877862595419,-1.3587786259541985
5215855412175,7.644816456,1,0.21906945190429686,1.7405846069335937,-11.174936248779296,-0.816793893129771,0.5648854961832062,-1.2748091603053435
5215865410196,7.654814477,1,0.20350714111328125,1.7357962036132812,-11.233594189453123,-0.7557251908396947,0.5343511450381679,-1.3053435114503817
5215875408998,7.664813279,1,0.22385785522460935,1.7334020019531249,-11.265915911865234,-0.8702290076335878,0.5572519083969466,-1.3206106870229009
5215885408737,7.674813018,1,0.2561795776367187,1.7238251953125,-11.228805786132812,-0.8320610687022901,0.5343511450381679,-1.282442748091603
5215895409779,7.68481406,1,0.18914193115234373,1.782483135986328,-11.221623181152344,-0.816793893129771,0.5419847328244275,-1.297709923664122
5215905408685,7.694812966,1,0.16160861206054686,1.7106570861816406,-11.156979736328124,-0.7557251908396947,0.6030534351145038,-1.3206106870229009
5215915409935,7.704814216,1,0.21906945190429686,1.7645266235351562,-11.176133349609374,-0.8473282442748091,0.5801526717557252,-1.3206106870229009
5215925406446,7.714810727,1,0.2561795776367187,1.7417817077636717,-11.197681164550781,-0.7862595419847328,0.5648854961832062,-1.3358778625954197
5215935419987,7.724824268,1,0.2346317626953125,1.7585411193847655,-11.207257971191405,-0.8702290076335878,0.5114503816793893,-1.2748091603053435
5215945420300,7.734824581,1,0.19033903198242186,1.6998831787109374,-11.158176837158203,-0.7480916030534351,0.4961832061068702,-1.3206106870229009
5215955417227,7.744821508,1,0.20829554443359374,1.7369933044433592,-11.180921752929686,-0.8244274809160306,0.5954198473282443,-1.297709923664122
5215965418269,7.75482255,1,0.2154781494140625,1.7214309936523438,-11.221623181152344,-0.8091603053435115,0.5343511450381679,-1.3893129770992367
5215975428633,7.764832914,1,0.19153613281249998,1.725022296142578,-11.161768139648437,-0.816793893129771,0.4961832061068702,-1.3282442748091603
5215985421498,7.774825779,1,0.18315642700195311,1.7477672119140624,-11.176133349609374,-0.7480916030534351,0.5801526717557252,-1.3282442748091603
5215995418269,7.78482255,1,0.20829554443359374,1.7393875061035156,-11.166556542968749,-0.816793893129771,0.5648854961832062,-1.3511450381679388
5216005418060,7.794822341,1,0.24301146850585936,1.7274164978027342,-11.235988391113281,-0.816793893129771,0.6335877862595419,-1.3206106870229009
5216015418998,7.804823279,1,0.22505495605468748,1.7334020019531249,-11.221623181152344,-0.8473282442748091,0.5190839694656488,-1.297709923664122
5216025417435,7.814821716,1,0.23104046020507812,1.7118541870117185,-11.212046374511718,-0.7786259541984732,0.5572519083969466,-1.3282442748091603
5216035415300,7.824819581,1,0.201112939453125,1.6998831787109374,-11.128249316406249,-0.8015267175572519,0.5038167938931297,-1.3740458015267176
5216045413946,7.834818227,1,0.18076222534179687,1.7513585144042967,-11.207257971191405,-0.816793893129771,0.5572519083969466,-1.366412213740458
5216055413529,7.84481781,1,0.2262520568847656,1.7094599853515624,-11.212046374511718,-0.8473282442748091,0.5114503816793893,-1.3206106870229009
5216065411758,7.854816039,1,0.26815058593749996,1.7286135986328124,-11.219228979492186,-0.7557251908396947,0.5572519083969466,-1.3435114503816794
5216075412644,7.864816925,1,0.19512743530273435,1.7010802795410156,-11.186907257080078,-0.8625954198473282,0.5725190839694656,-1.3129770992366412
5216085413216,7.874817497,1,0.24061726684570311,1.7226280944824217,-11.227608685302734,-0.8320610687022901,0.6564885496183206,-1.366412213740458
5216095408998,7.884813279,1,0.229843359375,1.7477672119140624,-11.150994232177734,-0.8091603053435115,0.6412213740458015,-1.3282442748091603
5216105413529,7.89481781,1,0.2346317626953125,1.7298106994628906,-11.150994232177734,-0.7633587786259542,0.5801526717557252,-1.3206106870229009
5216115411862,7.904816143,1,0.21188684692382811,1.753752716064453,-11.161768139648437,-0.7862595419847328,0.5877862595419847,-1.297709923664122
5216125412435,7.914816716,1,0.23582886352539062,1.725022296142578,-11.190498559570312,-0.7938931297709924,0.5648854961832062,-1.3893129770992367
5216135428529,7.92483281,1,0.2214636535644531,1.734599102783203,-11.171344946289063,-0.8778625954198473,0.549618320610687,-1.3587786259541985
5216145413425,7.934817706,1,0.258573779296875,1.7298106994628906,-11.202469567871093,-0.8549618320610687,0.5877862595419847,-1.3282442748091603
5216155412383,7.944816664,1,0.17597382202148437,1.7118541870117185,-11.244368096923827,-0.7557251908396947,0.549618320610687,-1.3129770992366412
5216165412435,7.954816716,1,0.2262520568847656,1.7573440185546874,-11.174936248779296,-0.8015267175572519,0.6259541984732825,-1.2748091603053435
5216175411914,7.964816195,1,0.18555062866210936,1.7908628417968748,-11.184513055419922,-0.7480916030534351,0.6259541984732825,-1.282442748091603
5216185411394,7.974815675,1,0.19871873779296872,1.725022296142578,-11.149797131347656,-0.8473282442748091,0.6412213740458015,-1.2748091603053435
5216195412227,7.984816508,1,0.21068974609375,1.7513585144042967,-11.136629022216797,-0.816793893129771,0.6183206106870229,-1.3206106870229009
5216205412227,7.994816508,1,0.258573779296875,1.7298106994628906,-11.209652172851563,-0.8778625954198473,0.5801526717557252,-1.3282442748091603
5216215412123,8.004816404,1,0.2346317626953125,1.763329522705078,-11.148600030517578,-0.8015267175572519,0.5267175572519084,-1.3206106870229009
5216225412383,8.014816664,1,0.1927332336425781,1.7477672119140624,-11.225214483642578,-0.8549618320610687,0.5725190839694656,-1.3282442748091603
5216235412279,8.02481656,1,0.24899697265624998,1.6927005737304686,-11.182118853759764,-0.8244274809160306,0.4351145038167939,-1.3358778625954197
5216245412956,8.034817237,1,0.17118541870117188,1.7118541870117185,-11.186907257080078,-0.8778625954198473,0.5572519083969466,-1.2900763358778626
5216255415352,8.044819633,1,0.2753331909179687,1.70467158203125,-11.204863769531249,-0.7557251908396947,0.5801526717557252,-1.3587786259541985
5216265413685,8.054817966,1,0.24660277099609373,1.7693150268554687,-11.177330450439452,-0.8396946564885496,0.5954198473282443,-1.2595419847328244
5216275412591,8.064816872,1,0.22266075439453123,1.7094599853515624,-11.245565197753905,-0.8473282442748091,0.4961832061068702,-1.2366412213740459
5216285413216,8.074817497,1,0.17357962036132812,1.715445489501953,-11.219228979492186,-0.8244274809160306,0.6030534351145038,-1.3206106870229009
5216295422643,8.084826924,1,0.23104046020507812,1.7202338928222656,-11.182118853759764,-0.7633587786259542,0.5343511450381679,-1.3206106870229009
5216305414414,8.094818695,1,0.23104046020507812,1.7274164978027342,-11.203666668701171,-0.7938931297709924,0.549618320610687,-1.3511450381679388
5216315412800,8.104817081,1,0.26695348510742184,1.7369933044433592,-11.179724652099608,-0.7480916030534351,0.5190839694656488,-1.3358778625954197
5216325412591,8.114816872,1,0.20709844360351562,1.7226280944824217,-11.19887826538086,-0.8396946564885496,0.5877862595419847,-1.366412213740458
5216335412018,8.124816299,1,0.2442085693359375,1.678335363769531,-11.240776794433593,-0.7786259541984732,0.5038167938931297,-1.2748091603053435
5216345413112,8.134817393,1,0.21068974609375,1.7369933044433592,-11.195286962890624,-0.8549618320610687,0.5572519083969466,-1.381679389312977
5216355413008,8.144817289,1,0.19153613281249998,1.7477672119140624,-11.201272467041015,-0.7938931297709924,0.549618320610687,-1.3511450381679388
5216365412643,8.154816924,1,0.258573779296875,1.7178396911621092,-11.154585534667968,-0.8473282442748091,0.5343511450381679,-1.3282442748091603
5216375412435,8.164816716,1,0.2442085693359375,1.6807295654296874,-11.171344946289063,-0.7938931297709924,0.5190839694656488,-1.297709923664122
5216385412018,8.174816299,1,0.23223756103515625,1.7657237243652342,-11.093533392333983,-0.8473282442748091,0.6335877862595419,-1.3435114503816794
5216395412383,8.184816664,1,0.229843359375,1.7609353210449217,-11.176133349609374,-0.8091603053435115,0.5648854961832062,-1.2900763358778626
5216405412904,8.194817185,1,0.2262520568847656,1.7118541870117185,-11.180921752929686,-0.7938931297709924,0.6030534351145038,-1.366412213740458
5216415413164,8.204817445,1,0.2537853759765625,1.7262193969726563,-11.180921752929686,-0.8091603053435115,0.48091603053435117,-1.3129770992366412
5216425413008,8.214817289,1,0.20350714111328125,1.725022296142578,-11.21683477783203,-0.8778625954198473,0.6183206106870229,-1.3511450381679388
5216435412800,8.224817081,1,0.21188684692382811,1.7776947326660155,-11.192892761230468,-0.8091603053435115,0.6183206106870229,-1.3511450381679388
5216445413425,8.234817706,1,0.19512743530273435,1.7549498168945312,-11.110292803955078,-0.8625954198473282,0.6030534351145038,-1.3358778625954197
5216455412696,8.244816977,1,0.2549824768066406,1.6639701538085936,-11.167753643798827,-0.8320610687022901,0.6106870229007634,-1.3435114503816794
5216465413529,8.25481781,1,0.24779987182617186,1.7621324218749999,-11.174936248779296,-0.8702290076335878,0.5725190839694656,-1.297709923664122
5216475413112,8.264817393,1,0.24660277099609373,1.7034744812011717,-11.117475408935546,-0.8015267175572519,0.549618320610687,-1.2671755725190839
5216485412852,8.274817133,1,0.20231004028320312,1.6986860778808592,-11.170147845458983,-0.816793893129771,0.5877862595419847,-1.3358778625954197
5216495412175,8.284816456,1,0.20231004028320312,1.7286135986328124,-11.13423482055664,-0.8015267175572519,0.6030534351145038,-1.3435114503816794
5216505412123,8.294816404,1,0.26216508178710934,1.70467158203125,-11.19169566040039,-0.8015267175572519,0.5725190839694656,-1.3053435114503817
5216515412904,8.304817185,1,0.2262520568847656,1.6771382629394531,-11.184513055419922,-0.8320610687022901,0.5648854961832062,-1.3435114503816794
5216525413477,8.314817758,1,0.20231004028320312,1.707065783691406,-11.201272467041015,-0.8320610687022901,0.5801526717557252,-1.2900763358778626
5216535412852,8.324817133,1,0.2214636535644531,1.7369933044433592,-11.158176837158203,-0.7404580152671756,0.6335877862595419,-1.3435114503816794
5216545413737,8.334818018,1,0.239420166015625,1.7525556152343749,-11.19887826538086,-0.8244274809160306,0.5725190839694656,-1.2900763358778626
5216555412956,8.344817237,1,0.2753331909179687,1.696291876220703,-11.177330450439452,-0.7480916030534351,0.5648854961832062,-1.297709923664122
