timestamp_ns,t_s,sensor_id,ax,ay,az
5990783306879,0.057053073,1,-1.0917559570312498,5.764040496826172,4.614823699951172
5990785478025,0.059224219,1,-0.9911994873046874,5.823895538330078,4.519055633544921
5990787695838,0.061442032,1,-0.97683427734375,5.718550665283203,4.408922357177734
5990789922869,0.063669063,1,-0.9876081848144531,5.664681127929687,4.410119458007812
5990792139483,0.065885677,1,-0.7745242370605468,5.594052178955078,4.4005426513671875
5990794361567,0.068107761,1,-0.7793126403808593,5.494692810058593,4.364629626464843
5990796585786,0.07033198,1,-0.8104372619628906,5.394136340332031,4.475960003662109
5990798805733,0.072551927,1,-0.7721300354003906,5.304353778076171,4.57771357421875
5990801030473,0.074776667,1,-0.7398083129882812,5.2073886108398435,4.80755693359375
5990803250161,0.076996355,1,-0.6452373474121094,5.166687182617188,5.066130712890625
5990805472296,0.07921849,1,-0.5578489868164063,5.210979913330078,5.455188482666015
5990807693806,0.08144,1,-0.3184288208007812,5.42047255859375,5.641936212158202
5990809916827,0.083663021,1,-0.1292868896484375,5.528211633300781,5.768828900146484
5990812139848,0.085886042,1,0.20949264526367187,5.626373901367187,5.949591125488281
5990814361358,0.088107552,1,0.033518823242187495,5.692214447021484,6.167463476562499
5990816586202,0.090332396,1,0.11731588134765625,5.633556506347656,6.318298181152343
5990818804588,0.092550782,1,-0.1149216796875,5.6395420104980465,6.5948284729003905
5990821030317,0.094776511,1,-0.2753331909179687,5.538985540771484,6.603208178710937
5990823249483,0.096995677,1,-0.5183446594238281,5.585672473144531,6.749254479980468
5990825471306,0.0992175,1,-0.6811503723144531,5.596446380615234,6.964732629394531
5990827693963,0.101440157,1,-0.8104372619628906,5.7508723876953125,7.01620796508789
5990829916358,0.103662552,1,-0.8738836059570312,5.7891796142578125,7.157465863037109
5990832140265,0.105886459,1,-0.8295908752441405,5.791573815917968,7.176619476318359
5990834360265,0.108106459,1,-0.7517793212890624,5.635950708007812,7.234080316162109
5990836584536,0.11033073,1,-0.7841010437011718,5.591657977294922,7.310694769287109
5990838805525,0.112551719,1,-0.8559270935058593,5.634753607177734,7.264007836914062
5990841027869,0.114774063,1,-0.7888894470214843,5.708973858642578,7.2532339294433585
5990843249900,0.116996094,1,-0.6931213806152343,5.741295581054687,7.056909393310547
5990845471879,0.119218073,1,-0.7445967163085937,5.8262897399902345,7.141903552246093
5990847694119,0.121440313,1,-0.8020575561523438,5.84185205078125,7.179013677978515
5990849916827,0.123663021,1,-0.8846575134277344,5.900509991455078,7.138312249755859
5990852140733,0.125886927,1,-0.9002198242187499,5.953182427978516,6.898892083740234
5990854361046,0.12810724,1,-0.9792284790039062,6.010643267822266,6.80551821899414
5990856585265,0.130331459,1,-1.0199299072265624,5.992686755371094,6.669048724365234
5990858805265,0.132551459,1,-1.1360486877441405,6.008249066162109,6.496666204833984
5990861029483,0.134775677,1,-1.2485761657714842,5.96275923461914,6.37815322265625
5990863249379,0.136995573,1,-1.180341418457031,5.917269403076172,6.245275030517578
5990865471775,0.139217969,1,-1.2904746948242187,5.91846650390625,5.931634613037109
5990867693963,0.141440157,1,-1.313219610595703,5.932831713867187,5.68862314453125
5990869917348,0.143663542,1,-1.2797007873535156,5.993883856201172,5.495889910888671
5990872141150,0.145887344,1,-1.2473790649414063,6.02022007446289,5.343858105468749
5990874361098,0.148107292,1,-1.1827356201171875,6.0154316711425775,5.200206005859375
5990876585056,0.15033125,1,-1.1791443176269532,6.1279591491699215,5.027823486328125
5990878805369,0.152551563,1,-1.1468225952148436,6.112396838378906,4.734533782958984
5990881029848,0.154776042,1,-1.1875240234375,6.137535955810547,4.632780212402343
5990883249067,0.156995261,1,-1.255758770751953,6.081272216796875,4.568136767578125
5990885471411,0.159217605,1,-1.274912384033203,6.168660577392577,4.177881896972656
5990887694223,0.161440417,1,-1.3443442321777344,6.2021794006347655,4.116829754638672
5990889916879,0.163663073,1,-1.274912384033203,6.2201359130859375,4.029441394042968
5990892141098,0.165887292,1,-1.4640543151855467,6.3147068786621094,4.046200805664062
5990894360890,0.168107084,1,-1.3551181396484375,6.385335827636719,3.995922570800781
5990896584900,0.170331094,1,-1.3275848205566405,6.4475850708007805,3.9923312683105467
5990898805265,0.172551459,1,-1.2832920898437499,6.536170532226562,3.954024041748047
5990901029067,0.174775261,1,-1.2689268798828124,6.641515405273437,4.061763116455078
5990903249900,0.176996094,1,-1.2808978881835937,6.687005236816406,4.151545678710937
5990905472504,0.179218698,1,-1.1947066284179686,6.775590698242187,4.413710760498047
5990907694431,0.181440625,1,-1.1611878051757811,6.983886242675781,4.6064439941406246
5990909916411,0.183662605,1,-1.006761798095703,7.070077502441406,4.818330841064453
5990912141098,0.185887292,1,-0.9804255798339843,7.059303594970703,4.98592495727539
5990914361463,0.188107657,1,-0.9229647399902343,7.113173132324218,5.236119030761718
5990916585213,0.190331407,1,-0.9744400756835937,7.143100653076171,5.491101507568359
5990918805265,0.192551459,1,-1.0031704956054688,7.151480358886718,5.734112976074218
5990921029692,0.194775886,1,-0.9457096557617187,7.101202124023437,5.807136126708984
5990923249223,0.196995417,1,-0.9085995300292968,7.086836914062499,6.013037469482422
5990925471619,0.199217813,1,-0.8583212951660156,7.141903552246093,6.205770703124999
5990927694796,0.20144099,1,-0.8463502868652343,6.849810949707031,6.277596752929687
5990929916983,0.203663177,1,-0.9062053283691406,6.812700823974609,6.388927130126953
5990932141150,0.205887344,1,-0.9062053283691406,6.681019732666015,6.400898138427734
5990934360265,0.208106459,1,-0.9253589416503906,6.590040069580078,6.38413872680664
5990936584952,0.210331146,1,-0.9181763366699218,6.496666204833984,6.381744525146484
5990938803858,0.212550052,1,-0.9145850341796874,6.448782171630859,6.426037255859375
5990941027713,0.214773907,1,-0.9265560424804687,6.329072088623047,6.313509777832031
5990943249483,0.216995677,1,-0.9708487731933593,6.209362005615234,6.156689569091797
5990945472088,0.219218282,1,-0.9181763366699218,6.196193896484375,6.0345852844238275
5990947693181,0.221439375,1,-0.9002198242187499,5.973533142089844,6.02022007446289
5990949916619,0.223662813,1,-0.9217676391601562,5.968744738769531,5.922057806396484
5990952140942,0.225887136,1,-0.8882488159179687,5.893327386474609,5.748478186035156
5990954360525,0.228106719,1,-0.7817068420410156,5.907692596435546,5.659892724609374
5990956585369,0.230331563,1,-0.7972691528320313,5.923254907226562,5.613205792236328
5990958804535,0.232550729,1,-0.7757213378906249,5.869385369873046,5.580884069824219
5990961029588,0.234775782,1,-0.7829039428710937,5.947196923828125,5.492298608398437
5990963249744,0.236995938,1,-0.9469067565917968,5.930437512207031,5.413289953613281
5990965471410,0.239217604,1,-0.9564835632324218,5.851428857421874,5.227739324951171
5990967694171,0.241440365,1,-0.8283937744140625,6.036979486083984,5.1714755859374995
5990969916410,0.243662604,1,-0.9576806640625,6.021417175292968,5.250484240722656
5990972138494,0.245884688,1,-1.045069024658203,5.944802722167968,5.312733483886719
5990974361671,0.248107865,1,-1.0570400329589844,5.883750579833984,5.251681341552734
5990976585890,0.250332084,1,-1.024718310546875,5.907692596435546,5.232527728271484
5990978805681,0.252551875,1,-0.9804255798339843,5.955576629638672,5.148730670166016
5990981028754,0.254774948,1,-1.0031704956054688,5.965153436279296,5.142745166015625
5990983248858,0.256995052,1,-0.9552864624023437,5.9974751586914055,5.27322915649414
5990985471515,0.259217709,1,-0.9935936889648437,6.1267620483398435,5.310339282226562
5990987693338,0.261439532,1,-0.9469067565917968,5.993883856201172,5.334281298828125
5990989916671,0.263662865,1,-0.8714894042968749,5.888538983154296,5.391742138671875
5990992140994,0.265887188,1,-0.833182177734375,5.922057806396484,5.5461681457519525
5990994358390,0.268104584,1,-0.8559270935058593,5.947196923828125,5.576095666503906
5990996581410,0.270327604,1,-0.9181763366699218,5.872976672363281,5.741295581054687
5990998814119,0.272560313,1,-0.9253589416503906,5.900509991455078,5.755660791015624
5991001032765,0.274778959,1,-0.9744400756835937,5.761646295166015,5.947196923828125
5991003248858,0.276995052,1,-1.083376251220703,5.730521673583984,6.1830257873535155
5991005471046,0.27921724,1,-1.1133037719726562,5.674257934570313,6.375759020996093
5991007693494,0.281439688,1,-1.1264718811035155,5.651513018798828,6.461950280761719
5991009916463,0.283662657,1,-1.0869675537109373,5.6012347839355465,6.64630380859375
5991012140785,0.285886979,1,-1.0115502014160156,5.5461681457519525,6.79953271484375
5991014360890,0.288107084,1,-0.978031378173828,5.519831927490234,6.883329772949218
5991016585160,0.290331354,1,-1.0690110412597655,5.462371087646484,7.05451519165039
5991018804796,0.29255099,1,-1.0654197387695312,5.427655163574219,7.095216619873047
5991021029275,0.294775469,1,-1.1228805786132812,5.413289953613281,7.091625317382812
5991023249275,0.296995469,1,-1.2437877624511717,5.355829113769531,7.382520819091797
5991025471515,0.299217709,1,-1.3239935180664062,5.29238276977539,7.463923675537109
5991027693598,0.301439792,1,-1.3766659545898436,5.256469744873047,7.501033801269531
5991029916827,0.303663021,1,-1.3168109130859373,5.193023400878906,7.690175732421874
5991032140160,0.305886354,1,-1.3826514587402343,5.123591552734375,7.799111907958984
5991034361671,0.308107865,1,-1.3946224670410154,5.149927770996094,7.846995941162109
5991036584535,0.310330729,1,-1.2785036865234374,5.073313317871094,7.97388862915039
5991038804275,0.312550469,1,-1.2521674682617188,4.924872814941406,8.001421948242188
5991041029015,0.314775209,1,-1.3658920471191405,4.96677134399414,7.9846625366210935
5991043249327,0.316995521,1,-1.199495031738281,5.0385973937988275,7.99304224243164
5991045470785,0.319216979,1,-1.218648645019531,5.040991595458984,7.957129217529296
5991047694015,0.321440209,1,-1.159990704345703,5.015852478027344,7.882908966064453
5991049915890,0.323662084,1,-1.4496891052246093,5.011064074707031,7.848193041992187
5991052140056,0.32588625,1,-1.5921441040039062,4.994304663085937,7.777564093017578
5991054360890,0.328107084,1,-1.772906329345703,4.991910461425781,7.6997525390625
5991056585056,0.33033125,1,-1.7238251953125,4.98592495727539,7.5908163635253905
5991058804379,0.332550573,1,-1.7094599853515624,4.894945294189453,7.472303381347656
5991061029119,0.334775313,1,-1.7202338928222656,4.910507604980468,7.566874346923828
5991063249327,0.336995521,1,-1.7202338928222656,4.942829327392578,7.311891870117187
5991065471775,0.339217969,1,-1.678335363769531,5.157110375976562,7.086836914062499
5991067693806,0.34144,1,-1.6831237670898436,5.328295794677734,6.998251452636718
5991069916098,0.343662292,1,-1.5574281799316405,5.373785626220703,6.938396411132812
5991072139796,0.34588599,1,-1.5693991882324219,5.4013189453125,7.031770275878906
5991074360108,0.348106302,1,-1.6364368347167968,5.430049365234375,6.9156514953613275
5991076585108,0.350331302,1,-1.6795324645996093,5.498284112548828,7.031770275878906
5991078805160,0.352551354,1,-1.6843208679199217,5.6215854980468745,6.938396411132812
5991081029588,0.354775782,1,-1.7513585144042967,5.700594152832031,6.979097839355468
5991083248806,0.356995,1,-1.801636749267578,5.730521673583984,7.165845568847656
5991085471098,0.359217292,1,-1.9069816223144531,5.779602807617187,7.325059979248047
5991087693806,0.36144,1,-1.8914193115234375,5.762843395996094,7.444770062255859
5991089917192,0.363663386,1,-1.9716250671386717,5.827486840820312,7.592013464355468
5991092140160,0.365886354,1,-1.8195932617187498,5.892130285644531,7.602787371826172
5991094360525,0.368106719,1,-1.8447323791503905,5.893327386474609,7.876923461914062
5991096584588,0.370330782,1,-1.89620771484375,5.9017070922851556,8.03134946899414
5991098805421,0.372551615,1,-1.8435352783203125,5.92445200805664,8.198943585205077
5991101029640,0.374775834,1,-1.7956512451171873,5.889736083984375,8.341398583984375
5991103249640,0.376995834,1,-1.8124106567382812,5.849034655761718,8.651447698974609
5991105471410,0.379217604,1,-1.8279729675292968,5.7843912109375,8.74601866455078
5991107693285,0.381439479,1,-1.7238251953125,5.7137622619628905,8.872911352539061
5991109916723,0.383662917,1,-1.6352397338867186,5.590460876464843,8.921992486572265
5991112140056,0.38588625,1,-1.5981296081542968,5.529408734130859,8.945934503173827
5991114360108,0.388106302,1,-1.485602130126953,5.444414575195312,8.889670764160156
5991116585056,0.39033125,1,-1.4125789794921875,5.364208819580078,8.80347950439453
5991118805160,0.392551354,1,-1.3575123413085937,5.2444987365722655,8.766369378662109
5991121029379,0.394775573,1,-1.3970166687011718,5.155913275146484,8.743624462890624
5991123249223,0.396995417,1,-1.3144167114257812,5.072116217041016,8.425195642089843
5991125471515,0.399217709,1,-1.2808978881835937,4.85184966430664,8.349778289794921
5991127693129,0.401439323,1,-1.1719617126464843,4.760870001220703,8.166621862792969
5991129916567,0.403662761,1,-1.149216796875,4.631583111572265,8.030152368164062
5991132140942,0.405887136,1,-1.073799444580078,4.527435339355469,7.861361151123046
5991134360577,0.408106771,1,-1.0199299072265624,4.41131655883789,7.7033438415527336
5991136584327,0.410330521,1,-0.9816226806640624,4.329913702392578,7.64229169921875
5991138804535,0.412550729,1,-0.9552864624023437,4.271255761718749,7.522581616210937
5991141028963,0.414775157,1,-0.9600748657226562,4.25808765258789,7.362170104980469
5991143248546,0.41699474,1,-0.9660603698730468,4.273649963378906,7.320271575927734
5991145471410,0.419217604,1,-0.9097966308593749,4.199429711914062,7.274781744384765
5991147693390,0.421439584,1,-0.9014169250488281,4.220977526855468,7.236474517822265
5991149915785,0.423661979,1,-0.852335791015625,4.2700586608886715,7.252036828613281
5991152139327,0.425885521,1,-0.8810662109374999,4.370615130615234,7.15028325805664
5991154360629,0.428106823,1,-0.8667010009765624,4.491522314453125,7.13112964477539
5991156584587,0.430330781,1,-0.6548141540527344,4.6076410949707025,7.072471704101562
5991158804327,0.432550521,1,-0.5889736083984375,4.729745379638672,6.9910688476562495
5991161028910,0.434775104,1,-0.6488286499023437,4.8494554626464845,6.93959351196289
5991163249067,0.436995261,1,-0.6332663391113281,4.939238024902344,6.880935571289062
5991165471462,0.439217656,1,-0.7541735229492187,5.240907434082031,6.8785413696289055
5991167693806,0.44144,1,-0.6021417175292968,5.36899722290039,6.822277630615234
5991169915577,0.443661771,1,-0.5506663818359374,5.5090580200195305,6.8402341430664055
5991172141515,0.445887709,1,-0.5458779785156249,5.646724615478515,6.839037042236328
5991174360473,0.448106667,1,-0.5770026000976562,5.746083984375,6.775590698242187
5991176584483,0.450330677,1,-0.5099649536132812,5.835866546630859,6.715735656738281
5991178804327,0.452550521,1,-0.44891281127929683,5.974730242919922,6.76122548828125
5991181029327,0.454775521,1,-0.5339069702148437,6.046556292724609,6.858190655517578
5991183248806,0.456995,1,-0.47884033203125,6.029796881103516,6.8402341430664055
5991185471306,0.4592175,1,-0.5374982727050781,6.197390997314453,6.8593877563476555
5991187693390,0.461439584,1,-0.5386953735351562,6.19260259399414,6.926425402832031
5991189916410,0.463662604,1,-0.6560112548828124,6.226121417236328,7.003039855957031
5991192141046,0.46588724,1,-0.737414111328125,6.187814190673827,7.076063006591797
5991194360681,0.468106875,1,-0.7721300354003906,6.175843182373047,7.163451367187499
5991196585160,0.470331354,1,-0.8667010009765624,6.148309863281249,7.24605132446289
5991198805369,0.472551563,1,-0.9026140258789062,6.196193896484375,7.340622290039062
5991201028650,0.474774844,1,-0.8786720092773437,6.100425830078125,7.411251239013671
5991203249952,0.476996146,1,-0.9516951599121093,6.099228729248047,7.438784558105469
5991205471150,0.479217344,1,-0.9959878906249999,5.8262897399902345,7.456741070556641
5991207693650,0.481439844,1,-1.0761936462402344,5.767631799316406,7.456741070556641
5991209916983,0.483663177,1,-1.083376251220703,5.7125651611328125,7.44357296142578
5991212141046,0.48588724,1,-1.1528080993652343,5.626373901367187,7.362170104980469
5991214366567,0.488112761,1,-1.189918225097656,5.542576843261719,7.274781744384765
5991216588858,0.490335052,1,-1.1348515869140625,5.524620330810547,7.213729602050781
5991218804952,0.492551146,1,-1.0474632263183594,5.394136340332031,7.180210778808593
5991221028962,0.494775156,1,-1.024718310546875,5.404910247802734,6.9719152343749995
5991223248858,0.496995052,1,-0.8942343200683593,5.4013189453125,6.907271789550781
5991225469483,0.499215677,1,-0.8726865051269531,5.346252307128906,6.725312463378906
5991227691098,0.501437292,1,-0.5638344909667968,5.3378726013183595,6.624755993652343
5991229916619,0.503662813,1,-0.4740519287109375,5.328295794677734,6.414066247558593
5991232140629,0.505886823,1,-0.3555389465332031,5.361814617919921,6.274005450439453
5991234360733,0.508106927,1,-0.34117373657226563,5.392939239501953,6.19260259399414
5991236585108,0.510331302,1,-0.26695348510742184,5.439626171875,5.966350537109375
5991238805369,0.512551563,1,-0.23223756103515625,5.440823272705078,5.747281085205078
5991241029171,0.514775365,1,-0.2454056701660156,5.491101507568359,5.5090580200195305
5991243249015,0.516995209,1,-0.28012159423828126,5.559336254882812,5.413289953613281
5991245471046,0.51921724,1,-0.5398924743652344,5.6215854980468745,5.266046551513671
5991247694431,0.521440625,1,-0.18315642700195311,5.747281085205078,5.0960582336425775
5991249916202,0.523662396,1,-0.07062894897460938,5.816712933349609,5.036203192138672
5991252140265,0.525886459,1,0.040701428222656245,5.857414361572265,5.0206408813476555
5991254361202,0.528107396,1,0.13407529296874998,5.892130285644531,5.00507857055664
5991256584744,0.530330938,1,0.1292868896484375,5.97592734375,5.142745166015625
5991258802712,0.532548906,1,0.23582886352539062,6.036979486083984,5.1152118469238275
5991261027140,0.534773334,1,0.15322890625,6.2021794006347655,5.285200164794921
5991263248910,0.536995104,1,0.09696516723632811,6.366182214355469,5.415684155273437
5991265471567,0.539217761,1,-0.143652099609375,6.411672045898437,5.570110162353515
5991267694015,0.541440209,1,-0.35314474487304687,6.497863305664062,5.686228942871093
5991269915785,0.543661979,1,-0.27293898925781246,6.530185028076171,5.877765075683594
5991272140473,0.545886667,1,-0.3711012573242187,6.551732843017578,5.992686755371094
5991274360525,0.548106719,1,-0.5207388610839844,6.499060406494141,6.276399652099609
5991276584535,0.550330729,1,-0.7888894470214843,6.448782171630859,6.564900952148437
5991278805004,0.552551198,1,-0.9361328491210937,6.505045910644531,6.880935571289062
5991281028337,0.554774531,1,-1.052251629638672,6.543353137207031,7.50821640625
5991283248962,0.556995156,1,-1.1168950744628905,6.661866119384765,7.818265521240234
5991285471462,0.559217656,1,-1.0881646545410155,6.687005236816406,8.22288560180664
5991287693598,0.561439792,1,-1.4377180969238281,6.581660363769531,8.718485345458983
5991289915785,0.563661979,1,-1.2713210815429687,6.496666204833984,9.33379517211914
5991292140004,0.565886198,1,-1.6711527587890624,6.618770489501952,9.777919580078125
5991294359640,0.568105834,1,-1.3347674255371094,6.754042883300781,10.165780249023436
5991296585317,0.570331511,1,-1.3730746520996093,6.7839704040527335,10.560823522949217
5991298805421,0.572551615,1,-1.3539210388183593,6.828263134765624,11.00015952758789
5991301029900,0.574776094,1,-1.429338391113281,6.618770489501952,11.567585321044922
5991303249692,0.576995886,1,-1.4281412902832031,6.672640026855468,11.63222876586914
5991305471983,0.579218177,1,-1.350329736328125,6.701370446777343,11.631031665039062
5991307693077,0.581439271,1,-1.4472949035644531,6.70975015258789,11.52329259033203
5991309916202,0.583662396,1,-1.5346832641601562,6.704961749267578,11.391611499023437
5991312139692,0.585885886,1,-1.5418658691406248,6.733692169189453,11.137826123046874
5991314360525,0.588106719,1,-1.523909356689453,6.629544396972656,10.8409451171875
5991316584379,0.590330573,1,-1.5011644409179687,6.647500909423828,10.59194814453125
5991318804900,0.592551094,1,-1.5203180541992187,6.58884296875,10.340556970214843
5991321028546,0.59477474,1,-1.4329296936035156,6.706158850097656,9.528922607421874
5991323250473,0.596996667,1,-1.2737152832031249,6.570886456298828,9.129090930175781
5991325471098,0.599217292,1,-0.7996633544921875,6.617573388671874,8.641870892333984
5991327692817,0.601439011,1,-0.4656722229003906,6.579266162109374,8.200140686035155
5991329915890,0.603662084,1,-0.2154781494140625,6.581660363769531,7.7979148071289055
5991332140369,0.605886563,1,-0.044292730712890624,6.566098052978515,7.315483172607421
5991334360160,0.608106354,1,0.2693476867675781,6.459556079101562,6.957550024414062
5991336583077,0.610329271,1,0.3890577697753906,6.457161877441406,6.591237170410156
5991338805369,0.612551563,1,0.5518634826660156,6.40329234008789,6.004657763671875
5991341029744,0.614775938,1,0.7230489013671875,6.362590911865234,5.4707507934570305
5991343249900,0.616996094,1,0.7852981445312499,6.320692382812499,5.066130712890625
5991345471150,0.619217344,1,1.0175357055664063,6.289567761230469,4.927267016601562
5991347693494,0.621439688,1,1.1252747802734375,6.254851837158203,4.685452648925781
5991349916671,0.623662865,1,1.2928688964843749,6.179434484863281,4.378994836425781
5991352140212,0.625886406,1,1.3646949462890625,6.186617089843749,4.228160131835938
5991354360733,0.628106927,1,1.6232687255859375,6.011840368652344,4.082113830566406
5991356584119,0.630330313,1,1.571793389892578,5.969941839599609,3.9983167724609374
5991358805004,0.632551198,1,1.5322890624999999,5.894524487304687,3.83072265625
5991361029431,0.634775625,1,1.5562310791015623,5.846640454101562,3.8103719421386715
5991363248806,0.636995,1,1.6148890197753905,5.651513018798828,3.7816415222167965
5991365470837,0.639217031,1,1.5442600708007812,5.591657977294922,3.805583538818359
5991367693129,0.641439323,1,1.458068811035156,5.4707507934570305,3.9085342102050777
5991369915994,0.643662188,1,1.4437036010742186,5.397727642822265,4.035426898193359
5991372139900,0.645886094,1,1.4963760375976562,5.29238276977539,4.155136981201172
5991374360681,0.648106875,1,1.4532804077148436,5.173869787597656,4.291606475830078
5991376584587,0.650330781,1,1.3766659545898436,5.099649536132812,4.6255976074218745
5991378804900,0.652551094,1,1.3024457031249999,5.1128176452636716,5.173869787597656
5991381029379,0.654775573,1,1.2485761657714842,4.969165545654296,5.528211633300781
5991383248442,0.656994636,1,1.294065997314453,4.917690209960937,6.025008477783203
5991385471098,0.659217292,1,0.9241618408203125,4.814739538574218,6.440402465820312
5991387692921,0.661439115,1,0.8643067993164062,4.784812017822265,6.8593877563476555
5991389916150,0.663662344,1,0.6967126831054687,4.716577270507813,7.24605132446289
5991392139900,0.665886094,1,0.41539398803710936,4.723759875488281,7.800309008789062
5991394360160,0.668106354,1,0.3387795349121094,4.732139581298828,8.170213165283203
5991396585212,0.670331406,1,0.10893617553710937,4.774038110351563,8.614337573242187
5991398804952,0.672551146,1,-0.013168109130859374,4.910507604980468,9.460687860107422
5991401028858,0.674775052,1,0.0383072265625,5.014655377197266,9.815029705810547
5991403249483,0.676995677,1,-0.051475335693359374,5.064933612060546,10.139444030761718
5991405471098,0.679217292,1,0.09696516723632811,5.154716174316406,10.296264239501953
5991407694067,0.681440261,1,0.1640028137207031,5.202600207519531,10.443507641601562
5991409915889,0.683662083,1,0.21428104858398436,5.191826300048827,10.565611926269531
5991412140629,0.685886823,1,0.239420166015625,5.145139367675781,10.599130749511717
5991414360160,0.688106354,1,0.24301146850585936,5.085284326171875,10.601524951171875
5991416584692,0.690330886,1,0.15203180541992187,4.984727856445312,10.392032305908202
5991418804431,0.692550625,1,0.06823474731445311,4.950011932373046,9.68454571533203
5991421027504,0.694773698,1,0.034715924072265626,4.704606262207031,9.334992272949219
5991423249014,0.696995208,1,-0.005985504150390624,4.554968658447265,8.907627276611327
5991425470942,0.699217136,1,0.03232172241210937,4.428075970458984,8.462305767822265
5991427698077,0.701444271,1,0.13407529296874998,4.3610383239746096,7.9463553100585935
5991429918598,0.703664792,1,0.28730419921875,4.350264416503906,7.368155609130859
5991432140525,0.705886719,1,0.35793314819335936,4.327519500732421,6.874950067138672
5991434359952,0.708106146,1,0.47644613037109373,4.228160131835938,6.330269189453125
5991436584379,0.710330573,1,0.4369418029785156,4.216189123535156,5.9579708312988275
5991438804483,0.712550677,1,0.604535919189453,4.21978042602539,4.848258361816406
5991441028285,0.714774479,1,0.5985504150390625,4.358644122314453,4.357447021484375
5991443250056,0.71699625,1,0.5961562133789062,4.358644122314453,3.949235638427734
5991445471306,0.7192175,1,0.7146691955566405,4.3622354248046875,3.536235852050781
5991447693650,0.721439844,1,0.82360537109375,4.497507818603515,3.361459130859375
5991449916046,0.72366224,1,1.035492218017578,4.580107775878906,3.1088708557128903
5991452140629,0.725886823,1,1.2030863342285156,4.641159918212891,2.8658593872070313
5991454360317,0.728106511,1,1.2605471740722656,4.7884033203125,2.7569232116699216
5991456584379,0.730330573,1,1.4161702819824218,4.905719201660156,2.722207287597656
5991458804796,0.73255099,1,1.5598223815917969,5.079298822021484,2.4660277099609376
5991461028389,0.734774583,1,1.6436194396972654,5.328295794677734,2.452859600830078
5991463249171,0.736995365,1,1.6220716247558593,5.340266802978515,2.446874096679687
5991465471514,0.739217708,1,1.5502455749511719,5.425260961914062,2.4959552307128905
5991467692817,0.741439011,1,1.4975731384277342,5.499481213378906,2.480392919921875
5991469915942,0.743662136,1,1.6400281372070311,5.610811590576172,2.3139959045410157
5991472140264,0.745886458,1,1.3850456604003905,5.456385583496093,2.5354595581054684
5991474359744,0.748105938,1,1.8614917907714843,5.190629199218749,2.6491841369628903
5991476583910,0.750330104,1,1.629254229736328,5.2061915100097655,2.895786907958984
5991478804431,0.752550625,1,2.0638018310546875,5.221753820800781,2.912546319580078
5991481028285,0.754774479,1,2.2768857788085937,5.821501336669922,2.991554974365234
5991483249535,0.756995729,1,2.0566192260742184,6.064512805175781,2.93050283203125
5991485471931,0.759218125,1,2.1248539733886718,6.123170745849609,2.986766571044922
5991487693650,0.761439844,1,2.023100402832031,6.008249066162109,3.0166940917968748
5991489916150,0.763662344,1,1.7417817077636717,5.820304235839844,3.161543292236328
5991492140369,0.765886563,1,1.581370196533203,5.692214447021484,3.19865341796875
5991494360160,0.768106354,1,1.4472949035644531,5.616797094726562,3.047818713378906
5991496584275,0.770330469,1,1.380257257080078,5.628768103027343,3.034650604248047
5991498804483,0.772550677,1,1.2725181823730467,5.661089825439452,3.116053460693359
5991501029744,0.774775938,1,1.5155296508789062,5.580884069824219,3.2740707702636715
5991503248858,0.776995052,1,1.2892775939941405,5.543773944091797,3.4871547180175777
5991505471046,0.77921724,1,1.3910311645507811,5.543773944091797,3.6439749267578123
5991507693650,0.781439844,1,1.763329522705078,5.3390697021484375,3.764882110595703
5991509916671,0.783662865,1,1.7896657409667969,5.106832141113281,3.8845921936035155
5991512140004,0.785886198,1,1.7693150268554687,4.893748193359374,4.010287780761718
5991514360837,0.788107031,1,1.8734627990722654,4.760870001220703,4.116829754638672
5991516584535,0.790330729,1,1.8375497741699218,4.611232397460937,4.284423870849609
5991518805056,0.79255125,1,1.6938976745605467,4.744110589599609,4.303577484130859
5991521028806,0.794775,1,1.7274164978027342,4.331110803222656,4.3993455505371095
5991523248962,0.796995156,1,1.5502455749511719,4.283226770019531,4.4819455078125
5991525471931,0.799218125,1,1.4113818786621093,4.29639487915039,4.4819455078125
5991527693754,0.801439948,1,1.389834063720703,4.218583325195312,4.53940634765625
5991529916879,0.803663073,1,1.3251906188964844,4.169502191162109,4.566939666748047
5991532140942,0.805887136,1,1.2497732666015624,4.271255761718749,4.630386010742187
5991534360629,0.808106823,1,1.3024457031249999,4.247313745117188,4.6064439941406246
5991536585056,0.81033125,1,1.1671733093261718,4.35385571899414,4.690241052246093
5991538804952,0.812551146,1,1.2378022583007813,4.359841223144531,4.690241052246093
5991541029119,0.814775313,1,1.1695675109863282,4.593275885009765,4.643554119873047
5991543249431,0.816995625,1,1.2665326782226562,4.630386010742187,4.548983154296875
5991545472556,0.81921875,1,1.2880804931640624,4.729745379638672,4.489128112792969
5991547694014,0.821440208,1,1.2677297790527342,4.805162731933594,4.350264416503906
5991549916358,0.823662552,1,1.2808978881835937,4.938040924072265,4.302380383300781
5991552140004,0.825886198,1,1.3742717529296875,5.084087225341796,4.120421057128906
5991554360317,0.828106511,1,1.47482822265625,5.2061915100097655,4.00310517578125
5991556584327,0.830330521,1,1.5346832641601562,5.2828059631347655,3.9612066467285154
5991558805160,0.832551354,1,1.5167267517089842,5.396530541992187,3.8654385803222655
5991561029327,0.834775521,1,1.5705962890624998,5.413289953613281,3.774458917236328
5991563249327,0.836995521,1,1.6208745239257811,5.547365246582031,3.659537237548828
5991565471775,0.839217969,1,1.7800889343261719,5.635950708007812,3.5709517761230467
5991567693910,0.841440104,1,1.839943975830078,5.6012347839355465,3.526659045410156
5991569916098,0.843662292,1,1.8219874633789062,5.5545478515625,3.535038751220703
5991572140004,0.845886198,1,1.7884686401367187,5.537788439941406,3.6284126159667967
5991574360212,0.848106406,1,1.8171990600585937,5.610811590576172,3.5242648437499997
5991576584796,0.85033099,1,1.8411410766601561,5.646724615478515,3.5901053894042967
5991578804327,0.852550521,1,1.8231845642089843,5.683834741210937,3.6475662292480466
5991581028389,0.854774583,1,1.8531120849609375,5.5078609191894525,3.890577697753906
5991583249014,0.856995208,1,1.629254229736328,5.45877978515625,4.048595007324218
5991585471723,0.859217917,1,1.533486163330078,5.464765289306641,4.182670300292968
5991587693494,0.861439688,1,1.495178936767578,5.419275457763671,4.398148449707031
5991589916098,0.863662292,1,1.4353238952636718,5.409698651123047,4.509478826904297
5991592140108,0.865886302,1,1.322796417236328,5.272032055664062,4.789600421142578
5991594360212,0.868106406,1,1.1947066284179686,5.127182855224609,5.12000025024414
5991596584483,0.870330677,1,1.0785878479003905,5.1343654602050774,5.571307263183593
5991598804796,0.87255099,1,1.112106671142578,5.203797308349609,5.815515832519531
5991601029900,0.874776094,1,1.0378864196777342,5.074510418701172,6.02022007446289
5991603249431,0.876995625,1,0.9002198242187499,5.055356805419922,6.240486627197265
5991605470994,0.879217188,1,0.8104372619628906,5.009866973876953,6.537367633056641
5991607693285,0.881439479,1,0.6452373474121094,4.92247861328125,6.789955908203124
5991609916514,0.883662708,1,0.5602431884765625,4.910507604980468,6.961141326904296
5991612140941,0.885887135,1,0.3950432739257812,4.855440966796874,7.193378887939453
5991614359587,0.888105781,1,0.2765302917480469,4.789600421142578,7.34181939086914
5991616585473,0.890331667,1,0.15322890625,4.765658404541015,7.671022119140624
5991618804483,0.892550677,1,-0.07302315063476562,4.691438153076172,7.799111907958984
5991621029171,0.894775365,1,-0.28730419921875,4.687846850585937,7.957129217529296
5991623248389,0.896994583,1,-0.38666356811523434,4.704606262207031,8.119934930419921
5991625471410,0.899217604,1,-0.44532150878906246,4.7201685729980465,8.32463917236328
5991627693494,0.901439688,1,-0.5183446594238281,4.695029455566406,8.396465222167969
5991629916775,0.903662969,1,-0.5243301635742187,4.784812017822265,8.503007196044921
5991632140212,0.905886406,1,-0.29448680419921874,4.759672900390624,8.614337573242187
5991634360264,0.908106458,1,-0.33758243408203126,4.709394665527343,8.865728747558594
5991636584014,0.910330208,1,-0.30885201416015623,4.803965631103515,8.810662109374999
5991638808754,0.912554948,1,-0.1867477294921875,5.033808990478516,8.827421520996094
5991641075889,0.914822083,1,-0.17956512451171874,5.000290167236328,8.802282403564453
5991643274744,0.917020938,1,-0.17357962036132812,4.9069163024902345,8.898050469970702
5991645495369,0.919241563,1,-0.05626373901367187,4.940435125732422,8.82383021850586
5991647697764,0.921443958,1,-0.22385785522460935,4.955997436523437,8.781931689453124
5991649917973,0.923664167,1,-0.2741360900878906,4.951209033203125,8.834604125976561
5991652139639,0.925885833,1,-0.3495534423828125,5.032611889648437,8.833407025146483
5991654362139,0.928108333,1,-0.3950432739257812,5.092466931152344,8.866925848388671
5991656584639,0.930330833,1,-0.4955997436523437,5.160701678466797,8.80347950439453
5991658806202,0.932552396,1,-0.48722003784179685,5.1714755859374995,8.792705596923827
5991661028702,0.934774896,1,-0.3507505432128906,5.1882349975585935,8.773551983642578
5991663249952,0.936996146,1,-0.33399113159179683,5.195417602539062,8.831012823486327
5991665473650,0.939219844,1,-0.3387795349121094,5.2265422241210935,8.814253411865234
5991667694848,0.941441042,1,-0.36750995483398435,5.278017559814453,8.838195428466797
5991669918546,0.94366474,1,-0.4656722229003906,5.288791467285156,8.851363537597656
5991672142348,0.945888542,1,-0.5817910034179687,5.284003063964843,8.82263311767578
5991674359327,0.948105521,1,-0.7038952880859375,5.333084197998047,8.820238916015624
5991676583546,0.95032974,1,-0.7242460021972655,5.49708701171875,8.665812908935546
5991678806983,0.952553177,1,-0.9085995300292968,5.25407554321289,8.704120135498046
5991681032087,0.954778281,1,-0.968454571533203,5.222950921630859,8.66940421142578
5991683250941,0.956997135,1,-1.2581529724121092,5.203797308349609,8.668207110595702
5991685473441,0.959219635,1,-1.4616601135253906,5.201403106689453,8.613140472412109
5991687695629,0.961441823,1,-1.5406687683105469,5.167884283447266,8.65623610229492
5991689917244,0.963663438,1,-1.6927005737304686,5.184643695068359,8.652644799804687
5991692139900,0.965886094,1,-1.7310078002929687,5.163095880126953,8.718485345458983
5991694362608,0.968108802,1,-1.8183961608886718,5.136759661865234,8.595183959960938
5991696586723,0.970332917,1,-1.7705121276855467,5.069722015380859,8.80347950439453
5991698806514,0.972552708,1,-1.8183961608886718,5.087678527832031,8.989030133056641
5991701031462,0.974777656,1,-1.8602946899414061,5.046977099609375,9.149441644287108
5991703251514,0.976997708,1,-1.974019268798828,5.103240838623047,9.16859525756836
5991705473441,0.979219635,1,-1.9764134704589842,5.219359619140625,9.273940130615234
5991707695473,0.981441667,1,-2.0087351928710935,5.377376928710937,9.39843861694336
5991709918546,0.98366474,1,-1.946485949707031,5.365405920410156,9.400832818603515
5991712141671,0.985887865,1,-2.104503259277344,5.309142181396484,9.485826977539062
5991714362556,0.98810875,1,-2.1212626708984375,5.2624552490234375,9.549273321533203
5991716586983,0.990333177,1,-2.205059729003906,5.228936425781249,9.459490759277344
5991718806671,0.992552865,1,-2.2876596862792966,5.1702784851074215,9.481038574218749
5991721031098,0.994777292,1,-2.445676995849609,5.15830747680664,9.435548742675781
5991723251306,0.9969975,1,-2.472013214111328,5.068524914550781,9.399635717773437
5991725473025,0.999219219,1,-2.522291448974609,5.072116217041016,9.405621221923827
5991727696098,1.001442292,1,-2.5043349365234375,5.061342309570312,9.259574920654297
5991729917504,1.003663698,1,-2.300827795410156,5.073313317871094,9.063250384521483
5991732142504,1.005888698,1,-2.1595698974609374,4.975151049804687,8.954314208984375
5991734362191,1.008108385,1,-2.185906115722656,4.969165545654296,8.719682446289061
5991736586723,1.010332917,1,-2.0171148986816405,4.833893151855468,8.571241943359375
5991738803494,1.012549688,1,-1.8567033874511718,4.836287353515624,8.237250811767577
5991741028337,1.014774531,1,-1.838746875,4.830301849365234,8.068459594726562
5991743250577,1.016996771,1,-1.7908628417968748,4.789600421142578,7.754819177246094
5991745473546,1.01921974,1,-1.8076222534179687,4.751293194580078,7.551312036132812
5991747691983,1.021438177,1,-1.6651672546386718,4.693832354736328,7.195773089599609
5991749918441,1.023664635,1,-1.648407843017578,4.653130926513672,6.9515645202636716
5991752141983,1.025888177,1,-1.6508020446777343,4.669890338134765,6.758831286621094
5991754362139,1.028108333,1,-1.6400281372070311,4.641159918212891,6.259640240478515
5991756586410,1.030332604,1,-1.659181750488281,4.741716387939453,6.112396838378906
5991758807035,1.032553229,1,-1.5562310791015623,4.760870001220703,5.993883856201172
5991761031046,1.03477724,1,-1.6412252380371093,4.780023614501953,5.936423016357422
5991763250837,1.036997031,1,-1.707065783691406,4.88417138671875,5.916072302246094
5991765473129,1.039219323,1,-1.7034744812011717,4.972756848144531,5.844246252441406
5991767695525,1.041441719,1,-1.7549498168945312,5.066130712890625,5.925649108886718
5991769917400,1.043663594,1,-1.7489643127441405,5.116408947753906,5.936423016357422
5991772142139,1.045888333,1,-1.7405846069335937,5.116408947753906,6.005854864501953
5991774361723,1.048107917,1,-1.7956512451171873,5.249287139892578,6.353014105224609
5991776587087,1.050333281,1,-1.8914193115234375,5.467159490966797,6.564900952148437
5991778807400,1.052553594,1,-2.099714855957031,5.5461681457519525,6.80551821899414
5991781030941,1.054777135,1,-1.9321207397460936,5.645527514648437,7.023390570068359
5991783250837,1.056997031,1,-2.0554221252441405,5.697002850341796,7.335833886718749
5991785473389,1.059219583,1,-2.139219183349609,5.710170959472656,7.641094598388672
5991787695212,1.061441406,1,-2.2182278381347653,5.741295581054687,7.93558140258789
5991789918441,1.063664635,1,-2.3127988037109373,5.807136126708984,8.263587030029296
5991792142764,1.065888958,1,-2.402581365966797,5.810727429199218,8.61792887573242
5991794362400,1.068108594,1,-2.559401574707031,5.811924530029296,9.356540087890625
5991796586046,1.07033224,1,-2.521094348144531,5.910086798095703,9.708487731933593
5991798806879,1.072553073,1,-2.7425580017089843,6.0525417968749995,9.911994873046874
5991801030473,1.074776667,1,-2.8754361938476563,6.099228729248047,10.14542953491211
5991803251098,1.076997292,1,-2.9448680419921875,6.094440325927734,10.506953985595702
5991805473025,1.079219219,1,-3.095702746582031,6.062118603515625,10.733206042480468
5991807695264,1.081441458,1,-3.2225954345703123,6.021417175292968,10.881646545410156
5991809917973,1.083664167,1,-3.3123779968261715,6.036979486083984,10.991779821777342
5991812142816,1.08588901,1,-3.4835634155273434,6.060921502685546,11.171344946289063
5991814362296,1.08810849,1,-3.4811692138671875,5.9591679321289055,11.305420239257812
5991816586827,1.090333021,1,-3.5601778686523438,5.942408520507812,11.323376751708985
5991818806202,1.092552396,1,-3.547009759521484,5.869385369873046,11.298237634277344
5991821031931,1.094778125,1,-3.6451720275878903,5.798756420898437,11.253944903564452
5991823251254,1.096997448,1,-3.718195178222656,5.8262897399902345,11.13423482055664
5991825474014,1.099220208,1,-3.6523546325683593,5.774814404296874,11.00734213256836
5991827695212,1.101441406,1,-3.5697546752929687,5.768828900146484,10.858901629638671
5991829915316,1.10366151,1,-3.4536358947753905,5.807136126708984,10.588356842041016
5991832137816,1.10588401,1,-3.361459130859375,5.777208605957031,10.380061297607421
5991834363493,1.108109687,1,-3.1387983764648437,5.741295581054687,9.610325463867188
5991836586983,1.110333177,1,-2.9843723693847655,5.634753607177734,9.318232861328125
5991838806618,1.112552812,1,-2.7856536315917966,5.617994195556641,8.890867864990234
5991841031775,1.114777969,1,-2.7054478759765623,5.567715960693359,8.61792887573242
5991843250733,1.116996927,1,-2.5570073730468748,5.498284112548828,8.208520391845703
5991845473129,1.119219323,1,-2.3918074584960936,5.519831927490234,7.862558251953125
5991847695681,1.121441875,1,-2.146401788330078,5.448005877685547,7.45075556640625
5991849919379,1.123665573,1,-2.053027923583984,5.367800122070312,7.077260107421875
5991852142452,1.125888646,1,-1.8997990173339843,5.284003063964843,6.666654522705078
5991854362504,1.128108698,1,-1.8064251525878905,5.210979913330078,6.095637426757812
5991856595473,1.130341667,1,-1.7286135986328124,5.143942266845703,5.7077767578125
5991858808598,1.132554792,1,-1.5789759948730469,5.187037896728516,5.402516046142578
5991861031618,1.134777812,1,-1.5179238525390624,5.110423443603516,5.123591552734375
5991863250316,1.13699651,1,-1.4173673828125,5.080495922851562,4.824316345214844
5991865473546,1.13921974,1,-1.3850456604003905,5.080495922851562,4.551377355957031
5991867695733,1.141441927,1,-1.3634978454589843,5.1511248718261715,4.396951348876953
5991869917556,1.14366375,1,-1.3634978454589843,5.228936425781249,4.13718046875
5991872142504,1.145888698,1,-1.2820949890136717,5.204994409179688,3.954024041748047
5991874362243,1.148108437,1,-1.3383587280273437,5.360617517089843,3.8103719421386715
5991876586410,1.150332604,1,-1.2581529724121092,5.2073886108398435,3.755305303955078
5991878806723,1.152552917,1,-1.3072341064453123,5.275623358154297,3.806780639648437
5991881030577,1.154776771,1,-1.43652099609375,5.347449407958984,3.8857892944335934
5991883251723,1.156997917,1,-1.5873557006835937,5.44561167602539,4.107252947998047
5991885472868,1.159219062,1,-1.6340426330566404,5.436034869384765,4.3263223999023435
5991887695264,1.161441458,1,-1.7657237243652342,5.541379742431641,4.599261389160156
5991889918962,1.163665156,1,-1.9512743530273435,5.653907220458984,4.882974285888672
5991892142504,1.165888698,1,-1.9955670837402342,5.736507177734374,5.239710333251953
5991894362348,1.168108542,1,-2.1416133850097654,5.819107135009765,6.084863519287109
5991896586358,1.170332552,1,-2.2290017456054687,6.131550451660156,6.461950280761719
5991898806410,1.172552604,1,-2.407369769287109,6.226121417236328,6.890512377929687
5991901031671,1.174777865,1,-2.346317626953125,6.368576416015625,7.256825231933593
5991903251202,1.176997396,1,-2.422932080078125,6.458358978271484,7.64827720336914
5991905474431,1.179220625,1,-2.442085693359375,6.5038488098144525,8.074445098876952
5991907695160,1.181441354,1,-2.463633508300781,6.603208178710937,8.390479718017577
5991909917764,1.183663958,1,-2.4253262817382812,6.645106707763672,8.748412866210938
5991912142816,1.18588901,1,-2.412158172607422,6.678625531005859,9.108740216064453
5991914362296,1.18810849,1,-2.450465399169922,6.635529901123046,9.543287817382812
5991916587296,1.19033349,1,-2.464830609130859,6.617573388671874,9.76116016845703
5991918806098,1.192552292,1,-2.5941174987792968,6.618770489501952,9.866505041503906
5991921031306,1.1947775,1,-2.8095956481933593,6.587645867919922,10.091559997558592
5991923251775,1.196997969,1,-2.938882537841797,6.5505357421875,10.334571466064453
5991925473546,1.19921974,1,-3.076549133300781,6.472724188232421,10.414777221679687
5991927696098,1.201442292,1,-3.1783027038574216,6.459556079101562,10.496180078124999
5991929918493,1.203664687,1,-3.3578678283691406,6.40329234008789,10.460267053222656
5991932143441,1.205889635,1,-3.427299676513672,6.406883642578125,10.676942303466797
5991934362556,1.20810875,1,-3.470395306396484,6.380547424316406,10.62307276611328
5991936587087,1.210333281,1,-3.4548329956054684,6.360196710205078,10.570400329589843
5991938807035,1.212553229,1,-3.447650390625,6.349422802734375,10.53329020385742
5991941031827,1.214778021,1,-3.3638533325195312,6.358999609374999,10.484209069824217
5991943250941,1.216997135,1,-3.2932243835449215,6.347028601074219,10.287884533691406
5991945473598,1.219219792,1,-3.1866824096679687,6.329072088623047,10.104728106689452
5991947695525,1.221441719,1,-3.1088708557128903,6.339845996093749,9.90840357055664
5991949918181,1.223664375,1,-2.925714428710937,6.311115576171875,9.622296472167967
5991952141931,1.225888125,1,-2.8467057739257813,6.218938812255859,8.980650427246093
5991954362400,1.228108594,1,-2.6886884643554687,6.229712719726562,8.531737615966797
5991956586618,1.230332812,1,-2.493561029052734,6.0321910827636716,8.137891442871092
5991958806827,1.232553021,1,-2.3439234252929686,5.922057806396484,7.681796026611328
5991961031098,1.234777292,1,-2.262520568847656,5.833472344970703,7.225700610351562
5991963248806,1.236995,1,-2.096123553466797,5.702988354492187,6.891709478759765
5991965475421,1.239221615,1,-1.9967641845703124,5.627571002197265,6.343437298583984
5991967696306,1.2414425,1,-1.8914193115234375,5.510255120849609,5.968744738769531
5991969918546,1.24366474,1,-1.7717092285156248,5.452794281005859,5.588066674804687
5991972142087,1.245888281,1,-1.610100616455078,5.323507391357421,4.622006304931641
5991974362608,1.248108802,1,-1.4640543151855467,5.10084663696289,4.244919543457031
5991976587087,1.250333281,1,-1.4006079711914061,5.000290167236328,3.88818349609375
5991978807087,1.252553281,1,-1.0594342346191405,4.910507604980468,3.5206735412597654
5991981031358,1.254777552,1,-0.9433154541015625,4.8494554626464845,3.1603461914062496
5991983250733,1.256996927,1,-0.7805097412109374,4.765658404541015,2.863465185546875
5991985474379,1.259220573,1,-0.5183446594238281,4.6818613464355465,2.498349432373047
5991987695577,1.261441771,1,-0.4177881896972656,4.624400506591797,2.1978771240234374
5991989917868,1.263664062,1,-0.229843359375,4.584896179199219,1.8602946899414061
5991992142191,1.265888385,1,-0.17597382202148437,4.460397692871093,1.533486163330078
5991994359743,1.268105937,1,-0.16519991455078123,4.405331054687499,1.255758770751953
5991996582712,1.270328906,1,-0.03950432739257812,4.197035510253906,1.1336544860839843
5991998807452,1.272553646,1,0.08140285644531249,4.152742779541016,0.9888052856445312
5992001032139,1.274778333,1,0.24660277099609373,4.220977526855468,0.8690952026367187
5992003263389,1.277009583,1,0.3794809631347656,4.282029669189453,0.7266402038574218
5992005484379,1.279230573,1,0.4572925170898437,4.338293408203125,0.5901707092285156
5992007710629,1.281456823,1,0.622492431640625,4.420893365478515,0.5877765075683593
5992009918702,1.283664896,1,0.6500257507324219,4.485536810302734,0.6260837341308594
5992012140525,1.285886719,1,0.5674257934570313,4.576516473388671,0.8511386901855468
5992014360733,1.288106927,1,0.6440402465820312,4.7931917236328125,0.9504980590820312
5992016584275,1.290330469,1,0.5147533569335937,4.862623571777344,1.189918225097656
5992018805160,1.292551354,1,0.34117373657226563,4.915296008300781,1.465251416015625
5992021027816,1.29477401,1,0.2765302917480469,5.013458276367187,1.753752716064453
5992023249066,1.29699526,1,0.1484405029296875,5.127182855224609,2.031480108642578
5992025470785,1.299216979,1,0.008379705810546874,5.297171173095703,2.269703173828125
5992027693702,1.301439896,1,-0.13287819213867186,5.321113189697265,2.6527754394531247
5992029916358,1.303662552,1,-0.14604630126953125,5.419275457763671,2.9664158569335934
5992032140941,1.305887135,1,-0.1304839904785156,5.512649322509765,3.731363287353515
5992034360316,1.30810651,1,-0.037110125732421874,5.699397052001952,4.037821099853516
5992036583650,1.310329844,1,0.34117373657226563,5.72693037109375,4.521449835205078
5992038806150,1.312552344,1,0.025139117431640625,5.728127471923828,4.836287353515624
5992041029535,1.314775729,1,0.12808978881835936,5.6958057495117185,5.111620544433594
5992043248858,1.316995052,1,0.04548983154296875,5.590460876464843,5.415684155273437
5992045471202,1.319217396,1,-0.20829554443359374,5.436034869384765,5.849034655761718
5992047694118,1.321440312,1,-0.3136404174804687,5.3007624755859375,6.119579443359375
5992049917035,1.323663229,1,-0.2885013000488281,5.238513232421875,6.1842228881835934
5992052138181,1.325884375,1,-0.5231330627441406,5.159504577636718,6.458358978271484
5992054360733,1.328106927,1,-0.5422866760253906,5.00507857055664,6.490680700683593
5992056584952,1.330331146,1,-0.5051765502929687,4.900930798339844,6.555324145507812
5992058804483,1.332550677,1,-0.7062894897460937,4.802768530273437,6.526593725585937
5992061029223,1.334775417,1,-0.6165069274902344,4.693832354736328,6.523002423095702
5992063250785,1.336996979,1,-0.8092401611328125,4.586093280029297,6.37815322265625
5992065471514,1.339217708,1,-0.6464344482421874,4.523844036865234,6.236895324707031
5992067693337,1.341439531,1,-0.5446808776855468,4.4819455078125,6.029796881103516
5992069924639,1.343670833,1,-0.4285620971679687,4.407725256347656,5.92445200805664
5992072143754,1.345889948,1,-0.38786066894531246,4.244919543457031,5.646724615478515
5992074360368,1.348106562,1,-0.258573779296875,4.278438366699218,5.367800122070312
5992076585420,1.350331614,1,-0.27293898925781246,4.364629626464843,5.1331683593749995
5992078804431,1.352550625,1,0.0047884033203125,4.426878869628906,4.905719201660156
5992081027400,1.354773594,1,0.11372457885742186,4.387374542236328,4.672284539794922
5992083249275,1.356995469,1,0.17956512451171874,4.368220928955078,4.496310717773437
5992085471723,1.359217917,1,0.18555062866210936,4.369418029785156,4.2305543334960936
5992087694014,1.361440208,1,0.22385785522460935,4.428075970458984,4.024652990722656
5992089916150,1.363662344,1,0.17238251953125,4.466383197021484,3.860650177001953
5992092141098,1.365887292,1,0.18315642700195311,4.535815045166015,3.489548919677734
5992094360941,1.368107135,1,0.17357962036132812,4.584896179199219,3.393780853271484
5992096584848,1.370331042,1,0.1352723937988281,4.647145422363281,3.3782185424804685
5992098804483,1.372550677,1,0.23343466186523437,4.689043951416015,3.266888165283203
5992101029066,1.37477526,1,0.24181436767578124,4.8135424377441405,3.2728736694335936
5992103249014,1.376995208,1,0.23702596435546874,4.911704705810546,3.2154128295898436
5992105471514,1.379217708,1,0.29448680419921874,5.052962603759766,3.1878795104980466
5992107693754,1.381439948,1,0.3591302490234375,5.123591552734375,3.229778039550781
5992109915889,1.383662083,1,0.3495534423828125,5.224148022460938,3.306392492675781
5992112139848,1.385886042,1,0.2346317626953125,5.327098693847656,3.6906618591308593
5992114360160,1.388106354,1,0.2262520568847656,5.419275457763671,3.825934252929687
5992116584379,1.390330573,1,0.03950432739257812,5.512649322509765,4.039018200683594
5992118804066,1.39255026,1,-0.12330138549804687,5.592855078125,4.295197778320312
5992121028545,1.394774739,1,-0.19991583862304688,5.5641246582031245,4.667496136474609
5992123249275,1.396995469,1,-0.34117373657226563,5.627571002197265,4.984727856445312
5992125471879,1.399218073,1,-0.35194764404296874,5.65031591796875,5.175066888427734
5992127693493,1.401439687,1,-0.46806642456054687,5.723339068603515,5.538985540771484
5992129916827,1.403663021,1,-0.47644613037109373,5.682637640380859,5.819107135009765
5992132140004,1.405886198,1,-0.49200844116210934,5.755660791015624,6.494272003173828
5992134360368,1.408106562,1,-0.5602431884765625,5.795165118408203,6.818686328125
5992136584327,1.410330521,1,-0.5027823486328125,5.799953521728515,7.147889056396484
5992138804848,1.412551042,1,-0.6153098266601562,5.817910034179687,7.451952667236328
5992141029587,1.414775781,1,-0.6667851623535156,5.855020159912109,7.729680059814453
5992143249483,1.416995677,1,-0.7015010864257812,5.925649108886718,7.981071234130859
5992145471670,1.419217864,1,-0.699106884765625,5.90529839477539,8.17141026611328
5992147693129,1.421439323,1,-0.8858546142578124,5.898115789794922,8.525752111816406
5992149916775,1.423662969,1,-1.0474632263183594,5.767631799316406,9.115922821044922
5992152140368,1.425886562,1,-1.5322890624999999,5.691017346191406,9.13627353515625
5992154360420,1.428106614,1,-1.159990704345703,5.533000036621093,9.214085089111327
5992156584639,1.430330833,1,-1.3814543579101561,5.494692810058593,9.331400970458985
5992158805681,1.432551875,1,-1.4903905334472656,5.493495709228515,9.5001921875
5992161029639,1.434775833,1,-1.4508862060546874,5.491101507568359,9.568426934814452
5992163249223,1.436995417,1,-1.4915876342773438,5.500678314208984,9.730035546875
5992165471202,1.439217396,1,-1.227028350830078,5.321113189697265,9.95987890625
5992167693389,1.441439583,1,-1.4604630126953124,5.3570262145996095,10.092757098388672
5992169916879,1.443663073,1,-1.3814543579101561,5.5832782714843745,10.058041174316406
5992172141254,1.445887448,1,-1.3263877197265623,5.815515832519531,10.0748005859375
5992174361045,1.448107239,1,-1.1228805786132812,4.923675714111328,10.380061297607421
5992176584795,1.450330989,1,-1.7334020019531249,5.00507857055664,10.510545288085936
5992178804483,1.452550677,1,-0.9062053283691406,5.268440753173828,9.986215124511718
5992181029431,1.454775625,1,-0.9576806640625,5.515043524169921,9.692925421142577
5992183248650,1.456994844,1,-1.369483349609375,5.3378726013183595,9.50617769165039
5992185471775,1.459217969,1,-1.897404815673828,5.127182855224609,9.550470422363281
5992187693389,1.461439583,1,-2.2062568298339844,4.933252520751953,9.418789331054686
5992189915733,1.463661927,1,-2.424129180908203,5.027823486328125,9.266757525634764
5992192140368,1.465886562,1,-2.481590020751953,5.29238276977539,9.227253198242186
5992194360577,1.468106771,1,-2.310404602050781,5.610811590576172,9.194931475830078
5992196585212,1.470331406,1,-1.8650830932617186,5.66946953125,9.348160382080078
5992198804795,1.472550989,1,-1.599326708984375,5.659892724609374,9.507374792480467
5992201029118,1.474775312,1,-1.4233528869628906,5.632359405517578,9.746794958496093
5992203249275,1.476995469,1,-1.1671733093261718,5.717353564453124,9.843760125732421
5992205470889,1.479217083,1,-1.1192892761230469,5.82868394165039,9.85094273071289
5992207693337,1.481439531,1,-1.1719617126464843,5.887341882324218,9.787496386718749
5992209915889,1.483662083,1,-1.3168109130859373,5.888538983154296,9.56962403564453
5992212140160,1.485886354,1,-1.4628572143554686,5.7700260009765625,9.421183532714844
5992214359691,1.488105885,1,-1.6412252380371093,5.66946953125,9.323021264648437
5992216584848,1.490331042,1,-1.600523809814453,5.697002850341796,9.17458076171875
5992218804535,1.492550729,1,-1.6112977172851561,5.649118817138672,9.014169250488282
5992221029327,1.494775521,1,-1.4915876342773438,5.662286926269531,8.774749084472656
5992223249223,1.496995417,1,-1.3335703247070312,5.683834741210937,8.583212951660157
5992225471202,1.499217396,1,-1.2689268798828124,5.6395420104980465,8.416815936279296
5992227693233,1.501439427,1,-1.1276689819335937,5.6203883972167965,8.262389929199218
5992229916045,1.503662239,1,-1.0917559570312498,5.506663818359375,7.846995941162109
5992232140473,1.505886667,1,-0.9540893615722655,5.459976885986328,7.621940985107422
5992234360629,1.508106823,1,-0.9792284790039062,5.434837768554687,7.4040686340332025
5992236585733,1.510331927,1,-0.9600748657226562,5.323507391357421,7.283161450195312
5992238804743,1.512550937,1,-1.0486603271484374,5.331887097167969,7.094019519042968
5992241029587,1.514775781,1,-1.0043675964355467,5.239710333251953,6.870161663818359
5992243249170,1.516995364,1,-0.9840168823242187,5.176263989257812,6.726509564208984
5992245470941,1.519217135,1,-0.9133879333496093,5.175066888427734,6.591237170410156
5992247693597,1.521439791,1,-0.8463502868652343,5.124788653564453,6.556521246337891
5992249914118,1.523660312,1,-0.7912836486816406,5.0757075195312495,6.394912634277343
5992252137191,1.525883385,1,-0.7589619262695312,5.051765502929687,6.335057592773437
5992254360577,1.528106771,1,-0.6584054565429687,5.015852478027344,6.353014105224609
5992256585108,1.530331302,1,-0.6835445739746093,5.05655390625,6.4284314575195305
5992258804327,1.532550521,1,-0.7565677246093749,5.090072729492187,6.424840155029297
5992261029535,1.534775729,1,-0.8116343627929687,5.046977099609375,6.472724188232421
5992263248754,1.536994948,1,-0.9121908325195311,5.086481427001953,6.506243011474609
5992265471254,1.539217448,1,-1.0330980163574217,5.091269830322266,6.5397618347167965
5992267693806,1.54144,1,-1.1647791076660157,5.108029241943359,6.665457421875
5992269915733,1.543661927,1,-1.1635820068359375,5.137956762695312,6.928819604492187
5992272140525,1.545886719,1,-1.1097124694824219,5.185840795898438,7.152677459716797
5992274360420,1.548106614,1,-1.1827356201171875,5.268440753173828,7.283161450195312
5992276583858,1.550330052,1,-1.2210428466796874,5.305550878906249,7.503428002929687
5992278804431,1.552550625,1,-1.2569558715820313,5.307945080566406,7.684190228271484
5992281029014,1.554775208,1,-1.2150573425292968,5.342661004638671,7.887697369384765
5992283251462,1.556997656,1,-1.2641384765625,5.348646508789062,8.079233502197265
5992285473962,1.559220156,1,-1.294065997314453,5.383362432861328,8.227674005126953
5992287694014,1.561440208,1,-1.235408056640625,5.342661004638671,8.249221820068358
5992289916410,1.563662604,1,-1.2030863342285156,5.386953735351562,8.429984045410155
5992292140472,1.565886666,1,-1.1540052001953125,5.397727642822265,8.465897070312499
5992294360212,1.568106406,1,-1.1049240661621094,5.359420416259765,8.536526019287109
5992296584587,1.570330781,1,-1.0558429321289062,5.364208819580078,8.51617530517578
5992298804535,1.572550729,1,-0.9840168823242187,5.313930584716797,8.492233288574218
5992301029170,1.574775364,1,-0.9935936889648437,5.343858105468749,8.450334759521484
5992303248910,1.576995104,1,-0.9971849914550781,5.295974072265625,8.361749298095702
5992305471514,1.579217708,1,-0.9756371765136718,5.2648494506835934,8.305485559082031
5992307692920,1.581439114,1,-0.7697358337402344,5.1523219726562495,8.213308795166014
5992309915733,1.583661927,1,-1.1528080993652343,5.058948107910156,8.13310303955078
5992312140212,1.585886406,1,-1.0223241088867188,5.032611889648437,7.903259680175781
5992314359795,1.588105989,1,-0.7733271362304687,4.94761773071289,7.747636572265624
5992316585108,1.590331302,1,-0.7745242370605468,4.847061260986328,7.717709051513672
5992318805264,1.592551458,1,-0.7948749511718749,4.783614916992187,7.505822204589843
5992321028337,1.594774531,1,-0.6548141540527344,4.760870001220703,7.396886029052734
5992323249275,1.596995469,1,-0.5506663818359374,4.75009609375,7.09282241821289
5992325471514,1.599217708,1,-0.729034405517578,4.689043951416015,6.998251452636718
5992327693858,1.601440052,1,-0.6955155822753906,4.574122271728515,6.688202337646484
5992329915785,1.603661979,1,-0.5722141967773438,4.572925170898437,6.526593725585937
5992332140264,1.605886458,1,-0.3435679382324219,4.741716387939453,6.372167718505859
5992334359431,1.608105625,1,-0.11252747802734374,4.784812017822265,6.319495281982421
5992336584431,1.610330625,1,-0.010773907470703125,4.808754034423828,6.342240197753906
5992338804170,1.612550364,1,0.07422025146484375,4.796783026123046,6.312312677001953
5992341029743,1.614775937,1,0.15442600708007811,4.7369279846191406,6.275202551269531
5992343249118,1.616995312,1,0.08858546142578125,4.7931917236328125,6.150704064941406
5992345471618,1.619217812,1,0.20829554443359374,4.886565588378906,6.022614276123046
5992347693545,1.621439739,1,0.1592144104003906,4.921281512451172,5.832275244140624
5992349916462,1.623662656,1,0.11851298217773437,4.902127899169922,5.777208605957031
5992352140004,1.625886198,1,-0.04548983154296875,4.781220715332031,5.622782598876952
5992354360212,1.628106406,1,0.10893617553710937,4.802768530273437,5.516240625
5992356585160,1.630331354,1,0.0718260498046875,4.7955859252929685,5.450400079345703
5992358804431,1.632550625,1,0.034715924072265626,4.752490295410156,5.499481213378906
5992361028493,1.634774687,1,0.040701428222656245,4.740519287109374,5.45877978515625
5992363248806,1.636995,1,0.05386953735351562,4.674678741455078,5.359420416259765
5992365471097,1.639217291,1,0.031124621582031248,4.695029455566406,5.335478399658203
5992367693493,1.641439687,1,-0.09935936889648436,4.817133740234374,5.29238276977539
5992369915316,1.64366151,1,-0.10295067138671875,4.859032269287109,5.321113189697265
5992372140472,1.645886666,1,-0.27892449340820313,4.861426470947265,5.2828059631347655
5992374360160,1.648106354,1,-0.27293898925781246,4.881777185058594,5.459976885986328
5992376584743,1.650330937,1,-0.49679684448242184,4.9069163024902345,5.566518859863281
5992378804587,1.652550781,1,-0.5434837768554687,4.9823336547851556,5.645527514648437
5992381029327,1.654775521,1,-0.5542576843261718,4.989516259765625,5.767631799316406
5992383250160,1.656996354,1,-0.6057330200195312,5.008669873046875,5.930437512207031
5992385471410,1.659217604,1,-0.6548141540527344,5.073313317871094,6.066907006835937
5992387693702,1.661439896,1,-0.5662286926269531,5.125985754394531,6.3901242309570305
5992389916410,1.663662604,1,-0.4584896179199218,5.108029241943359,6.655880615234374
5992392140993,1.665887187,1,-0.9085995300292968,5.250484240722656,6.661866119384765
5992394360472,1.668106666,1,-0.6584054565429687,5.384559533691406,6.768408093261718
5992396584587,1.670330781,1,-0.6584054565429687,5.323507391357421,6.947973217773437
5992398804743,1.672550937,1,-1.0893617553710937,5.161898779296875,7.326257080078125
5992401028597,1.674774791,1,-0.8882488159179687,4.859032269287109,7.819462622070312
5992403248962,1.676995156,1,-1.2234370483398436,5.003881469726562,8.005013250732421
5992405470941,1.679217135,1,-0.7326257080078125,5.267243652343749,8.099584216308592
5992407693650,1.681439844,1,-0.5422866760253906,5.462371087646484,8.311471063232421
5992409916045,1.683662239,1,-0.3495534423828125,5.404910247802734,8.43357534790039
5992412139952,1.685886146,1,-0.3758896606445312,5.310339282226562,8.524555010986328
5992414360472,1.688106666,1,-0.258573779296875,5.323507391357421,8.432378247070313
5992416584952,1.690331146,1,-0.32441432495117184,5.267243652343749,8.415618835449218
5992418804587,1.692550781,1,-0.6141127258300781,5.190629199218749,8.28034644165039
5992421029222,1.694775416,1,-0.6607996582031249,5.067327813720703,8.173804467773436
5992423249795,1.696995989,1,-0.8068459594726562,5.031414788818359,8.01818135986328
5992425470993,1.699217187,1,-0.8415618835449218,5.086481427001953,7.771578588867187
5992427693597,1.701439791,1,-0.70868369140625,5.017049578857422,7.472303381347656
5992429915941,1.703662135,1,-0.7410054138183594,4.978742352294922,7.320271575927734
5992432140368,1.705886562,1,-0.6835445739746093,4.923675714111328,7.204152795410156
5992434360368,1.708106562,1,-0.7230489013671875,4.917690209960937,7.100005023193359
5992436584691,1.710330885,1,-0.5099649536132812,5.000290167236328,6.90128628540039
5992438804952,1.712551146,1,-0.3842693664550781,5.239710333251953,6.654683514404296
5992441029639,1.714775833,1,-0.46806642456054687,5.342661004638671,6.543353137207031
5992443249222,1.716995416,1,-0.7505822204589844,5.2624552490234375,6.745663177490234
5992445472035,1.719218229,1,-0.8020575561523438,5.23492192993164,6.866570361328125
5992447694431,1.721440625,1,-0.7517793212890624,5.218162518310547,6.867767462158203
5992449915837,1.723662031,1,-0.9002198242187499,5.453991381835937,6.909665991210937
5992452141150,1.725887344,1,-1.1863269226074218,5.540182641601562,6.95874712524414
5992454360577,1.728106771,1,-1.4975731384277342,5.691017346191406,7.001842755126953
5992456584587,1.730330781,1,-1.3718775512695311,5.735310076904296,7.041347082519531
5992458805368,1.732551562,1,-1.1575965026855468,5.617994195556641,7.2532339294433585
5992461029222,1.734775416,1,-1.1061211669921875,5.4515971801757805,7.5525091369628905
5992463249014,1.736995208,1,-0.949300958251953,5.359420416259765,7.766790185546874
5992465471827,1.739218021,1,-0.6248866333007812,5.366603021240234,7.794323504638672
5992467693806,1.74144,1,-0.5446808776855468,5.471947894287109,7.6231380859375
5992469916566,1.74366276,1,-0.5638344909667968,5.38815083618164,7.551312036132812
5992472140889,1.745887083,1,-0.6679822631835937,5.260061047363281,7.511807708740234
5992474360420,1.748106614,1,-1.1085153686523437,5.079298822021484,7.451952667236328
5992476585264,1.750331458,1,-1.255758770751953,4.951209033203125,7.358578802490234
5992478805056,1.75255125,1,-1.2773065856933592,4.853046765136718,7.189787585449218
5992481029483,1.754775677,1,-1.3180080139160155,4.844667059326172,7.068880401611327
5992483249327,1.756995521,1,-1.4532804077148436,4.705803363037109,6.961141326904296
5992485471306,1.7592175,1,-1.4137760803222656,4.599261389160156,6.830657336425781
5992487694431,1.761440625,1,-1.3682862487792968,4.550180255126953,6.788758807373046
5992489916254,1.763662448,1,-1.2677297790527342,4.533420843505859,6.774393597412109
5992492140577,1.765886771,1,-1.0378864196777342,4.471171600341797,6.762422589111328
5992494360785,1.768106979,1,-1.112106671142578,4.369418029785156,6.769605194091796
5992496590524,1.770336718,1,-0.9373299499511718,4.35385571899414,6.758831286621094
5992498807816,1.77255401,1,-0.0718260498046875,4.3825861389160155,6.636727001953124
5992501030004,1.774776198,1,-1.1827356201171875,4.680664245605469,6.776787799072265
5992503248493,1.776994687,1,-1.0390835205078124,4.742913488769531,6.884526873779296
5992505471202,1.779217396,1,-0.8499415893554687,4.649539624023437,6.766013891601562
5992507693181,1.781439375,1,-0.8020575561523438,4.37300933227539,7.079654309082031
5992509916983,1.783663177,1,-1.0702081420898437,4.121618157958984,7.052120989990234
5992512141254,1.785887448,1,-1.1839327209472656,4.20062681274414,6.947973217773437
5992514360316,1.78810651,1,-1.2114660400390624,4.328716601562499,7.023390570068359
5992516584795,1.790330989,1,-1.1360486877441405,4.29639487915039,7.098807922363281
5992518804379,1.792550573,1,-0.9995791931152344,4.279635467529297,7.231686114501953
5992521029118,1.794775312,1,-0.9732429748535155,4.1946413085937495,7.372944012451171
5992523249014,1.796995208,1,-0.853532891845703,4.217386224365234,7.4962453979492185
5992525471358,1.799217552,1,-0.8990227233886718,4.337096307373047,7.636306195068359
5992527693077,1.801439271,1,-0.8008604553222656,4.367023828124999,7.821856823730468
5992529915472,1.803661666,1,-0.7829039428710937,4.498704919433593,7.8924857727050775
5992532140837,1.805887031,1,-0.7661445312499999,4.525041137695312,8.034940771484374
5992534361045,1.808107239,1,-0.6883329772949218,4.477157104492187,8.139088543701172
5992536584379,1.810330573,1,-0.7314286071777343,4.398148449707031,8.244433416748047
5992538804899,1.812551093,1,-0.853532891845703,4.374206433105469,8.249221820068358
5992541029014,1.814775208,1,-0.8487444885253905,4.35385571899414,8.350975390624999
5992543249118,1.816995312,1,-0.8295908752441405,4.317942694091797,8.327033374023436
5992545471358,1.819217552,1,-0.8283937744140625,4.256890551757812,8.22288560180664
5992547693077,1.821439271,1,-0.8164227661132812,4.284423870849609,8.190563879394531
5992549916097,1.823662291,1,-0.9121908325195311,4.454412188720703,8.068459594726562
5992552140264,1.825886458,1,-0.7457938171386719,4.57771357421875,7.961917620849609
5992554360264,1.828106458,1,-0.603338818359375,4.531026641845703,7.869740856933594
5992556584170,1.830330364,1,-0.5913678100585937,4.480748406982421,7.940369805908203
5992558804639,1.832550833,1,-0.5614402893066406,4.369418029785156,7.846995941162109
5992561028754,1.834774948,1,-0.5746083984375,4.44363828125,7.636306195068359
5992563249222,1.836995416,1,-0.5267243652343749,4.572925170898437,7.517793212890624
5992565471306,1.8392175,1,-0.5159504577636719,4.685452648925781,7.264007836914062
5992567692920,1.841439114,1,-0.5865794067382812,4.898536596679687,7.115567333984375
5992569916410,1.843662604,1,-0.39264907226562495,4.964377142333984,7.080851409912109
5992572140941,1.845887135,1,-0.2561795776367187,5.02423218383789,7.082048510742187
5992574359847,1.848106041,1,-0.20350714111328125,5.102043737792968,7.01620796508789
5992576582295,1.850328489,1,-0.2262520568847656,5.13915386352539,6.974309436035155
5992578804587,1.852550781,1,-0.21428104858398436,5.195417602539062,6.988674645996094
5992581029274,1.854775468,1,-0.2214636535644531,5.194220501708984,6.873752966308594
5992583248702,1.856994896,1,-0.23822306518554687,5.27322915649414,6.836642840576172
5992585471722,1.859217916,1,-0.33758243408203126,5.29238276977539,6.817489227294922
5992587693910,1.861440104,1,-0.3902548706054687,5.372588525390625,6.771999395751953
5992589916774,1.863662968,1,-0.48722003784179685,5.3761798278808595,6.813897924804687
5992592140004,1.865886198,1,-0.4955997436523437,5.404910247802734,6.886921075439453
5992594360785,1.868106979,1,-0.4525041137695312,5.396530541992187,6.902483386230468
5992596584587,1.870330781,1,-0.4465186096191406,5.40730444946289,6.9707181335449215
5992598804899,1.872551093,1,-0.4704606262207031,5.412092852783203,6.980294940185546
5992601029431,1.874775625,1,-0.45010991210937495,5.374982727050781,7.0078282592773435
5992603249014,1.876995208,1,-0.39145197143554683,5.334281298828125,6.976703637695312
5992605472087,1.879218281,1,-0.4165910888671875,5.307945080566406,7.175422375488281
5992607693910,1.881440104,1,-0.38786066894531246,5.127182855224609,7.278373046874999
5992609916254,1.883662448,1,-0.2765302917480469,5.017049578857422,7.337030987548828
5992612140368,1.885886562,1,-0.16519991455078123,4.900930798339844,7.538143927001952
5992614360785,1.888106979,1,-0.20470424194335937,4.827907647705078,7.637503295898437
5992616585212,1.890331406,1,-0.14604630126953125,4.90931050415039,7.708132244873046
5992618805056,1.89255125,1,-0.14125789794921875,4.8698061767578125,7.793126403808594
5992621029118,1.894775312,1,-0.05985504150390625,4.705803363037109,7.861361151123046
5992623249639,1.896995833,1,-0.10893617553710937,4.6076410949707025,7.850587243652344
5992625471306,1.8992175,1,-0.17836802368164062,4.463988995361328,8.05648858642578
5992627693858,1.901440052,1,-0.2920926025390625,4.467580297851562,8.064868292236328
5992629916045,1.903662239,1,-0.20470424194335937,4.491522314453125,8.188169677734374
5992632140368,1.905886562,1,-0.4285620971679687,4.453215087890625,8.238447912597655
5992634360004,1.908106198,1,-0.5135562561035156,4.3622354248046875,8.482656481933594
5992636584274,1.910330468,1,-0.49679684448242184,4.311957189941406,8.534131817626953
5992638805056,1.91255125,1,-0.5686228942871093,4.387374542236328,8.614337573242187
5992641028962,1.914775156,1,-0.7457938171386719,4.459200592041015,8.70771143798828
5992643249170,1.916995364,1,-0.9050082275390624,4.595670086669921,8.850166436767578
5992645471514,1.919217708,1,-1.01514150390625,4.672284539794922,8.939948999023438
5992647693597,1.921439791,1,-1.2832920898437499,5.054159704589844,8.92438668823242
5992649916566,1.92366276,1,-1.274912384033203,5.117606048583984,8.908824377441405
5992652140004,1.925886198,1,-1.1743559143066407,5.155913275146484,8.93755479736328
5992654359795,1.928105989,1,-1.1420341918945311,5.256469744873047,8.957905511474609
5992656585160,1.930331354,1,-1.3910311645507811,5.354632012939453,8.919598284912109
5992658804222,1.932550416,1,-1.1156979736328125,5.483918902587891,8.677783917236328
5992661029118,1.934775312,1,-1.4041992736816404,5.479130499267578,8.608352069091797
5992663249431,1.936995625,1,-0.9911994873046874,5.485116003417969,8.473079675292968
5992665471462,1.939217656,1,-1.102529864501953,5.408501550292969,8.285134844970703
5992667693493,1.941439687,1,-0.9050082275390624,5.6203883972167965,8.160636358642577
5992669916254,1.943662448,1,-0.689530078125,5.664681127929687,8.179789971923828
5992672140420,1.945886614,1,-0.5973533142089843,5.729324572753906,8.104372619628906
5992674360004,1.948106198,1,-0.6081272216796875,5.754463690185546,8.087613208007811
5992676585004,1.950331198,1,-0.6596025573730468,5.7520694885253905,8.074445098876952
5992678804847,1.952551041,1,-0.7637503295898437,5.778405706787109,8.016984259033203
5992681029222,1.954775416,1,-0.8571241943359375,5.730521673583984,7.894879974365234
5992683249379,1.956995573,1,-0.9648632690429687,5.66946953125,7.729680059814453
5992685470785,1.959216979,1,-1.0678139404296874,5.559336254882812,7.631517791748046
5992687693545,1.961439739,1,-1.0295067138671874,5.406107348632812,7.510610607910156
5992689915681,1.963661875,1,-0.9337386474609375,5.334281298828125,7.435193255615234
5992692140160,1.965886354,1,-0.9708487731933593,5.327098693847656,7.34181939086914
5992694359743,1.968105937,1,-0.8499415893554687,5.2085857116699215,7.425616448974609
5992696584691,1.970330885,1,-0.9337386474609375,5.213374114990234,7.352593298339843
5992698804483,1.972550677,1,-0.8655039001464844,5.111620544433594,7.224503509521484
5992701028754,1.974774948,1,-0.8954314208984374,5.111620544433594,7.129932543945312
5992703249326,1.97699552,1,-0.8607154968261719,5.02423218383789,7.167042669677734
5992705471201,1.979217395,1,-0.9720458740234375,4.984727856445312,7.193378887939453
5992707692712,1.981438906,1,-1.350329736328125,4.787206219482422,7.141903552246093
5992709919951,1.983666145,1,-0.9660603698730468,4.764461303710937,6.955155822753905
5992712144431,1.985890625,1,-1.0235212097167967,4.89015689086914,6.918045697021484
5992714360420,1.988106614,1,-0.9696516723632812,4.880580084228515,7.03536157836914
5992716585160,1.990331354,1,-0.9038111267089843,4.914098907470703,7.067683300781249
5992718805108,1.992551302,1,-0.8870517150878906,4.978742352294922,7.091625317382812
5992721028806,1.994775,1,-0.958877764892578,4.98592495727539,7.040149981689453
5992723249379,1.996995573,1,-0.9181763366699218,4.991910461425781,6.885723974609375
5992725470681,1.999216875,1,-1.0438719238281249,5.127182855224609,6.587645867919922
5992727692816,2.00143901,1,-1.1671733093261718,5.1319712585449215,6.549338641357421
5992729916149,2.003662343,1,-1.2581529724121092,5.201403106689453,6.373364819335937
5992732140004,2.005886198,1,-1.2533645690917967,5.29238276977539,6.330269189453125
5992734360316,2.00810651,1,-1.2078747375488281,5.386953735351562,6.169857678222656
5992736585316,2.01033151,1,-1.20667763671875,5.404910247802734,6.066907006835937
5992738804639,2.012550833,1,-1.1528080993652343,5.481524700927734,5.9208607055664055
5992741029066,2.01477526,1,-1.189918225097656,5.528211633300781,5.856217260742187
5992743248493,2.016994687,1,-1.0893617553710937,5.571307263183593,5.579686968994141
5992745471201,2.019217395,1,-1.1168950744628905,5.516240625,5.495889910888671
5992747693233,2.021439427,1,-0.9253589416503906,5.6574985229492185,5.274426257324219
5992749916149,2.023662343,1,-1.0474632263183594,5.710170959472656,5.2253451232910155
5992752140368,2.025886562,1,-0.9133879333496093,5.783194110107422,5.148730670166016
5992754360056,2.02810625,1,-0.9229647399902343,5.730521673583984,5.0757075195312495
5992756584899,2.030331093,1,-0.8870517150878906,5.646724615478515,5.026626385498046
5992758804795,2.032550989,1,-0.7948749511718749,5.671863732910156,5.0014872680664055
5992761028910,2.034775104,1,-0.843956085205078,5.665878228759765,4.983530755615234
5992763246410,2.036992604,1,-0.8894459167480468,5.68862314453125,4.783614916992187
5992765471618,2.039217812,1,-0.948103857421875,5.702988354492187,4.748898992919922
5992767693337,2.041439531,1,-1.0630255371093749,5.491101507568359,4.684255548095702
5992769915837,2.043662031,1,-1.073799444580078,5.382165332031249,4.65432802734375
5992772139691,2.045885885,1,-1.0330980163574217,5.42645806274414,4.666299035644531
5992774360368,2.048106562,1,-1.0630255371093749,5.329492895507812,4.566939666748047
5992776584431,2.050330625,1,-1.0654197387695312,5.266046551513671,4.422090466308593
5992778804014,2.052550208,1,-1.0845733520507812,5.1690813842773435,4.483142608642578
5992781031983,2.054778177,1,-1.0342951171875,5.1140147460937495,4.486733911132812
5992783249743,2.056995937,1,-0.9457096557617187,5.074510418701172,4.513070129394531
5992785471306,2.0592175,1,-0.8643067993164062,4.946420629882812,4.375403533935547
5992787693701,2.061439895,1,-0.8415618835449218,4.894945294189453,4.327519500732421
5992789916879,2.063663073,1,-0.8607154968261719,4.914098907470703,4.248510845947266
5992792140212,2.065886406,1,-0.8415618835449218,4.914098907470703,4.294000677490234
5992794359691,2.068105885,1,0.01915361328125,4.92247861328125,3.9983167724609374
5992796584066,2.07033026,1,0.02633621826171875,5.04338579711914,4.127603662109375
5992798804118,2.072550312,1,-0.15083470458984374,5.165490081787109,4.2688615600585935
5992801029014,2.074775208,1,-0.29927520751953124,5.276820458984375,4.283226770019531
5992803249587,2.076995781,1,-0.34715924072265625,5.285200164794921,4.128800762939453
5992805470889,2.079217083,1,-0.5518634826660156,5.1343654602050774,4.092887738037109
5992807693545,2.081439739,1,-0.7601590270996094,5.098452435302734,4.010287780761718
5992809915524,2.083661718,1,-1.035492218017578,5.0385973937988275,3.995922570800781
5992812140733,2.085886927,1,-1.2114660400390624,4.977545251464844,4.053383410644531
5992814360629,2.088106823,1,-1.4221557861328125,4.908113403320312,4.078522528076172
5992816584431,2.090330625,1,-1.5155296508789062,4.838681555175781,4.090493536376953
5992818805056,2.09255125,1,-1.180341418457031,4.891353991699218,3.901351605224609
5992821029326,2.09477552,1,-0.9157821350097656,4.9416322265625,4.086902233886718
5992823248910,2.096995104,1,-0.6105214233398437,5.035006091308594,4.309562988281249
5992825471410,2.099217604,1,-0.34715924072265625,5.167884283447266,4.527435339355469
5992827693806,2.10144,1,0.06464344482421874,5.2265422241210935,4.806359832763672
5992829917295,2.103663489,1,0.5829881042480468,5.268440753173828,5.026626385498046
5992832140785,2.105886979,1,0.7146691955566405,5.361814617919921,5.222950921630859
5992834360420,2.108106614,1,0.8882488159179687,5.431246466064453,5.465962390136719
5992836584118,2.110330312,1,0.719457598876953,5.436034869384765,5.552153649902343
5992838804587,2.112550781,1,0.29448680419921874,5.367800122070312,5.833472344970703
5992841029483,2.114775677,1,0.10175357055664062,5.33068999633789,5.983109948730468
5992843249379,2.116995573,1,-0.20949264526367187,5.295974072265625,6.281188055419921
5992845471566,2.11921776,1,-0.5793968017578125,5.210979913330078,6.361393811035156
5992847693701,2.121439895,1,-0.7924807495117187,5.23492192993164,6.546944439697265
5992849916722,2.123662916,1,-1.1791443176269532,5.343858105468749,6.60799658203125
5992852140212,2.125886406,1,-1.1336544860839843,5.464765289306641,6.5972226745605465
5992854359795,2.128105989,1,-1.1180921752929687,5.540182641601562,6.692990740966796
5992856584899,2.130331093,1,-1.1049240661621094,5.6012347839355465,6.861781958007812
5992858804222,2.132550416,1,-0.9876081848144531,5.6191912963867185,7.030573175048827
5992861029014,2.134775208,1,-0.9911994873046874,5.536591339111328,7.353790399169921
5992863249743,2.136995937,1,-1.0630255371093749,5.627571002197265,7.210138299560547
5992865470420,2.139216614,1,-0.8547299926757812,5.494692810058593,7.364564306640625
5992867694014,2.141440208,1,-1.2246341491699217,5.442020373535156,7.4040686340332025
5992869916670,2.143662864,1,-1.332373223876953,5.437231970214843,7.358578802490234
5992872139899,2.145886093,1,-1.4257470886230468,5.415684155273437,7.323862878417969
5992874360681,2.148106875,1,-1.3682862487792968,5.413289953613281,7.382520819091797
5992876584743,2.150330937,1,-1.5705962890624998,5.475539196777343,7.372944012451171
5992878804587,2.152550781,1,-1.5670049865722655,5.524620330810547,7.46272657470703
5992881029066,2.15477526,1,-1.3623007446289062,5.6203883972167965,7.425616448974609
5992883248962,2.156995156,1,-1.4053963745117186,5.725733270263672,7.4232222473144525
5992885471774,2.159217968,1,-1.3718775512695311,5.705382556152343,7.4782888854980465
5992887693701,2.161439895,1,-1.2677297790527342,5.711368060302734,7.507019305419921
5992889915733,2.163661927,1,-1.3108254089355469,5.7125651611328125,7.541735229492187
5992892140420,2.165886614,1,-1.313219610595703,5.719747766113281,7.52737001953125
5992894360524,2.168106718,1,-1.350329736328125,5.820304235839844,7.507019305419921
5992896584483,2.170330677,1,-1.4281412902832031,5.895721588134765,7.542932330322265
5992898804639,2.172550833,1,-1.322796417236328,5.984307049560546,7.539341027832031
5992901029326,2.17477552,1,-0.5626373901367188,6.021417175292968,7.426813549804687
5992903248389,2.176994583,1,-0.3603273498535156,5.983109948730468,7.595604766845702
5992905471826,2.17921802,1,-0.6715735656738281,5.9017070922851556,7.681796026611328
5992907693493,2.181439687,1,-0.9277531433105468,5.999869360351562,7.631517791748046
5992909916149,2.183662343,1,-1.1839327209472656,6.062118603515625,7.456741070556641
5992912139951,2.185886145,1,-1.4808137268066406,6.093243225097656,7.3657614074707025
5992914360576,2.18810677,1,-1.9189526306152342,6.083666418457031,7.2532339294433585
5992916584691,2.190330885,1,-2.085349645996094,5.963956335449218,7.280767248535156
5992918804326,2.19255052,1,-2.081758343505859,5.855020159912109,7.359775903320312
5992921029743,2.194775937,1,-1.897404815673828,5.8083332275390624,7.486668591308593
5992923249587,2.196995781,1,-1.6843208679199217,5.749675286865234,7.593210565185546
5992925472139,2.199218333,1,-1.4006079711914061,5.852625958251953,7.599196069335937
5992927693701,2.201439895,1,-1.235408056640625,5.871779571533203,7.685387329101562
5992929915941,2.203662135,1,-1.3335703247070312,5.8454433532714845,7.785943798828124
5992932140576,2.20588677,1,-1.3874398620605468,5.916072302246094,7.75721337890625
5992934359691,2.208105885,1,-1.62805712890625,5.92445200805664,7.832630731201172
5992936585160,2.210331354,1,-2.012326495361328,5.907692596435546,7.8170684204101555
5992938804431,2.212550625,1,-2.522291448974609,5.767631799316406,7.881711865234375
5992941029691,2.214775885,1,-2.731784094238281,5.5461681457519525,7.8541785461425775
5992943249795,2.216995989,1,-2.8227637573242186,5.462371087646484,7.879317663574218
5992945471306,2.2192175,1,-2.7138275817871094,5.361814617919921,7.937975604248046
5992947692972,2.221439166,1,-2.4779987182617185,5.389347937011719,8.157045056152343
5992949916253,2.223662447,1,-2.147598889160156,5.373785626220703,8.368931903076172
5992952140785,2.225886979,1,-1.7645266235351562,5.352237811279297,8.495824591064453
5992954360472,2.228106666,1,-1.189918225097656,5.323507391357421,8.580818749999999
5992956584899,2.230331093,1,-0.7805097412109374,5.355829113769531,8.577227447509765
5992958805628,2.232551822,1,-0.5925649108886718,5.3570262145996095,8.734047656249999
5992961029014,2.234775208,1,-0.7110778930664062,5.354632012939453,8.872911352539061
5992963249587,2.236995781,1,-0.7996633544921875,5.218162518310547,8.825027319335938
5992965471253,2.239217447,1,-0.8559270935058593,5.10084663696289,8.769960681152343
5992967693389,2.241439583,1,-1.5107412475585937,4.944026428222656,8.635885388183594
5992969915837,2.243662031,1,-1.848323681640625,4.790797521972656,8.366537701416014
5992972141306,2.2458875,1,-2.0745757385253905,4.732139581298828,8.257601525878906
5992974360733,2.248106927,1,-2.1631611999511717,4.690241052246093,8.040926275634765
5992976584743,2.250330937,1,-2.120065570068359,4.69263525390625,7.899668377685546
5992978805264,2.252551458,1,-2.079364141845703,4.570530969238281,7.756016278076172
5992981029066,2.25477526,1,-1.8195932617187498,4.6651019348144525,7.5153990112304685
5992983249066,2.25699526,1,-1.7405846069335937,4.697423657226563,7.268796240234375
5992985469222,2.259215416,1,-1.6124948181152343,4.728548278808593,7.022193469238281
5992987690733,2.261436927,1,-1.3646949462890625,4.770446807861328,6.835445739746094
5992989917503,2.263663697,1,-1.3587094421386718,4.873397479248046,6.623558892822265
5992992141149,2.265887343,1,-1.3455413330078123,4.873397479248046,6.4655415832519525
5992994360212,2.268106406,1,-1.4137760803222656,4.911704705810546,6.224924316406249
5992996591410,2.270337604,1,-1.3527239379882812,4.912901806640625,6.139930157470703
5992998806670,2.272552864,1,-1.3838485595703125,4.990713360595703,6.087257720947266
5993001029847,2.274776041,1,-1.3048399047851562,4.959588739013672,5.781997009277344
5993003249222,2.276995416,1,-1.3395558288574219,5.069722015380859,5.755660791015624
5993005470889,2.279217083,1,-1.1540052001953125,5.117606048583984,5.875370874023437
5993007693337,2.281439531,1,-1.0606313354492187,5.165490081787109,5.846640454101562
5993009915420,2.283661614,1,-1.054645831298828,5.258863946533203,5.855020159912109
5993012140212,2.285886406,1,-0.97683427734375,5.309142181396484,6.027402679443359
5993014360524,2.288106718,1,-0.978031378173828,5.371391424560547,6.068104107666016
5993016584170,2.290330364,1,-1.0366893188476562,5.416881256103515,6.21175620727539
5993018805108,2.292551302,1,-1.0977414611816405,5.457582684326171,6.433219860839843
5993021027608,2.294773802,1,-1.2042834350585936,5.4779333984375,6.672640026855468
5993023249326,2.29699552,1,-1.3311761230468748,5.482721801757812,6.8210805297851556
5993025471045,2.299217239,1,-1.446097802734375,5.483918902587891,7.017405065917968
5993027692660,2.301438854,1,-1.659181750488281,5.432443566894531,7.16943687133789
5993029916462,2.303662656,1,-1.7465701110839842,5.425260961914062,7.280767248535156
5993032140316,2.30588651,1,-1.89620771484375,5.378574029541015,7.448361364746093
5993034359691,2.308105885,1,-2.518700146484375,5.404910247802734,7.6087728759765625
5993036584378,2.310330572,1,-2.480392919921875,5.462371087646484,7.624335186767578
5993038804431,2.312550625,1,-2.29843359375,5.522226129150391,7.606378674316406
5993041029639,2.314775833,1,-2.310404602050781,5.547365246582031,7.742848168945312
5993043249795,2.316995989,1,-2.2481553588867187,5.493495709228515,7.945158209228516
5993045470785,2.319216979,1,-1.898601916503906,5.475539196777343,8.092401611328125
5993047693337,2.321439531,1,-1.7681179260253905,5.567715960693359,8.2360537109375
5993049915316,2.32366151,1,-1.8088193542480469,5.542576843261719,8.451531860351562
5993052140056,2.32588625,1,-2.012326495361328,5.576095666503906,8.546102825927735
5993054360472,2.328106666,1,-2.1511901916503904,5.646724615478515,8.706514337158202
5993056585420,2.330331614,1,-2.346317626953125,5.735310076904296,8.789114294433594
5993058804274,2.332550468,1,-2.3726538452148436,5.801150622558594,8.78432589111328
5993061028806,2.334775,1,-2.472013214111328,5.944802722167968,9.076418493652342
5993063248858,2.336995052,1,-2.3977929626464842,5.9208607055664055,9.193734375
5993065472035,2.339218229,1,-2.233790148925781,5.951985327148437,9.143456140136719
5993067693389,2.341439583,1,-1.2677297790527342,6.054935998535156,9.113528619384764
5993069916201,2.343662395,1,-1.5670049865722655,6.229712719726562,9.367313995361327
5993072139222,2.345885416,1,-1.6927005737304686,6.253654736328125,9.4618849609375
5993074360837,2.348107031,1,-1.8028338500976562,6.315903979492187,9.530119708251952
5993076584535,2.350330729,1,-2.0075380920410155,6.351817004394531,9.334992272949219
5993078804535,2.352550729,1,-2.3223756103515623,6.309918475341797,9.133879333496093
5993081029014,2.354775208,1,-2.6396073303222654,6.171054779052734,8.836998327636719
5993083249118,2.356995312,1,-3.326743206787109,5.734112976074218,8.549694128417968
5993085471045,2.359217239,1,-3.450044592285156,5.591657977294922,8.155847955322265
5993087693181,2.361439375,1,-3.0992940490722654,5.501875415039062,7.7763669921875
5993089916253,2.363662447,1,-2.808398547363281,5.487510205078125,7.461529473876952
5993092141097,2.365887291,1,-2.440888592529297,5.540182641601562,7.296329559326171
5993094360576,2.36810677,1,-2.0159177978515626,5.506663818359375,7.09282241821289
5993096584378,2.370330572,1,-1.571793389892578,5.471947894287109,7.020996368408203
5993098804170,2.372550364,1,-1.4233528869628906,5.492298608398437,6.871358764648437
5993101029066,2.37477526,1,-1.7753005310058592,5.4013189453125,6.585251666259765
5993103249118,2.376995312,1,-2.3439234252929686,5.321113189697265,6.285976458740234
5993105471410,2.379217604,1,-1.936909143066406,5.382165332031249,5.904101293945312
5993107693181,2.381439375,1,-1.9416975463867185,5.3761798278808595,5.76523759765625
5993109916097,2.383662291,1,-1.5849614990234373,5.3378726013183595,5.6574985229492185
5993112140524,2.385886718,1,-1.3096283081054687,5.328295794677734,5.646724615478515
5993114359743,2.388105937,1,-1.0342951171875,5.278017559814453,5.6024318847656245
5993116583858,2.390330052,1,-0.9109937316894531,5.239710333251953,5.531802935791015
5993118804951,2.392551145,1,-0.7972691528320313,5.33068999633789,5.448005877685547
5993121028493,2.394774687,1,-0.8355763793945312,5.499481213378906,5.397727642822265
5993123249430,2.396995624,1,-1.0127473022460938,5.5090580200195305,5.345055206298828
5993125471514,2.399217708,1,-1.2030863342285156,5.513846423339843,5.268440753173828
5993127692972,2.401439166,1,-1.37906015625,5.457582684326171,5.237316131591797
5993129915264,2.403661458,1,-1.5382745666503905,5.440823272705078,5.2253451232910155
5993132140055,2.405886249,1,-1.5095441467285156,5.416881256103515,5.167884283447266
5993134359274,2.408105468,1,-1.5358803649902344,5.416881256103515,5.183446594238281
5993136584014,2.410330208,1,-1.5466542724609373,5.4707507934570305,5.3007624755859375
5993138804066,2.41255026,1,-1.3922282653808593,5.483918902587891,5.385756634521484
5993141028753,2.414774947,1,-1.408987677001953,5.493495709228515,5.421669659423828
5993143248753,2.416994947,1,-1.2378022583007813,5.576095666503906,5.400121844482421
5993145471826,2.41921802,1,-1.0857704528808594,5.594052178955078,5.500678314208984
5993147693753,2.421439947,1,-1.1288660827636718,5.600037683105469,5.45877978515625
5993149917451,2.423663645,1,-1.0019733947753906,5.647921716308593,5.428852264404297
5993152139951,2.425886145,1,-1.005564697265625,5.595249279785156,5.468356591796875
5993154360524,2.428106718,1,-0.958877764892578,5.530605834960937,5.374982727050781
5993156584691,2.430330885,1,-0.9313444458007812,5.536591339111328,5.293579870605469
5993158804899,2.432551093,1,-0.9995791931152344,5.4779333984375,5.199008905029297
5993161028858,2.434775052,1,-1.2138602416992186,5.499481213378906,5.088875628662109
5993163249118,2.436995312,1,-1.6519991455078125,4.614823699951172,4.940435125732422
5993165471201,2.439217395,1,-1.9213468322753906,4.375403533935547,4.651933825683593
5993167693389,2.441439583,1,-1.9117700256347656,4.2305543334960936,4.295197778320312
5993169916930,2.443663124,1,-1.7585411193847655,4.203021014404297,4.06655151977539
5993172140576,2.44588677,1,-1.6148890197753905,4.248510845947266,3.815160345458984
5993174359691,2.448105885,1,-1.5119383483886717,4.242525341796875,3.6715082458496093
5993176584743,2.450330937,1,-1.3120225097656248,4.211400720214844,3.7984009338378906
5993178804535,2.452550729,1,-1.064222637939453,4.14316597290039,3.9803602600097654
5993181030055,2.454776249,1,-0.8511386901855468,4.021061688232422,3.9995138732910154
5993183249691,2.456995885,1,-0.5805939025878906,4.256890551757812,3.886986395263672
5993185472139,2.459218333,1,-0.4513070129394531,4.235342736816406,3.796006732177734
5993187693233,2.461439427,1,-0.48722003784179685,4.206612316894531,3.6571430358886716
5993189916618,2.463662812,1,-0.5770026000976562,4.139574670410156,3.5517981628417967
5993192138493,2.465884687,1,-0.6979097839355468,4.095281939697266,3.4620156005859375
5993194360055,2.468106249,1,-0.7673416320800781,4.135983367919922,3.3315316101074215
5993196583337,2.470329531,1,-0.7314286071777343,4.129997863769531,3.333925811767578
5993198805108,2.472551302,1,-0.6703764648437499,4.189852905273438,3.1112650573730467
5993201028337,2.474774531,1,-0.5758054992675781,4.505887524414062,3.0502129150390624
5993203248597,2.476994791,1,-0.4285620971679687,4.649539624023437,3.106476654052734
5993205470993,2.479217187,1,-0.5159504577636719,4.765658404541015,3.227383837890625
5993207692816,2.48143901,1,-0.47285482788085936,4.872200378417968,3.1759085021972653
5993209915680,2.483661874,1,-0.5422866760253906,5.050568402099609,3.2249896362304686
5993212141826,2.48588802,1,-0.5303156677246094,5.165490081787109,3.3602620300292965
5993214362087,2.488108281,1,-0.6512228515624999,5.284003063964843,3.381809844970703
5993216586462,2.490332656,1,-0.7649474304199219,5.440823272705078,3.394977954101562
5993218804222,2.492550416,1,-0.8571241943359375,5.617994195556641,3.5218706420898434
5993221029274,2.494775468,1,-0.9002198242187499,6.062118603515625,3.621230010986328
5993223249587,2.496995781,1,-0.9648632690429687,6.217741711425781,3.77326181640625
5993225471566,2.49921776,1,-1.3239935180664062,6.323086584472656,4.011484881591796
5993227693128,2.501439322,1,-1.291671795654297,6.489483599853515,4.064157318115234
5993229915785,2.503661979,1,-1.265335577392578,6.7277066650390625,4.235342736816406
5993232139899,2.505886093,1,-1.0881646545410155,6.969521032714844,4.347870214843749
5993234360108,2.508106302,1,-1.0809820495605469,7.2915411560058585,4.514267230224609
5993236584743,2.510330937,1,-0.9576806640625,7.554903338623046,4.8877626892089845
5993238804743,2.512550937,1,-1.0031704956054688,7.788338000488281,5.327098693847656
5993241028753,2.514774947,1,-1.2952630981445312,8.100781317138672,5.740098480224609
5993243248962,2.516995156,1,-1.7393875061035156,8.145074047851562,5.922057806396484
5993245471149,2.519217343,1,-2.6192566162109374,8.149862451171874,6.155492468261718
5993247693545,2.521439739,1,-3.0430303100585934,8.122329132080077,6.301538769531249
5993249916201,2.523662395,1,-3.2728736694335936,8.02416686401367,6.460753179931641
5993252139847,2.525886041,1,-3.4859576171874997,8.07683930053711,6.585251666259765
5993254357555,2.528103749,1,-3.507505432128906,8.080430603027343,6.834248638916015
5993256582660,2.530328854,1,-3.451241693115234,8.046911779785155,7.024587670898437
5993258804743,2.532550937,1,-3.324349005126953,8.103175518798828,7.252036828613281
5993261029639,2.534775833,1,-3.1639374938964844,7.867346655273437,7.2903440551757805
5993263248441,2.536994635,1,-2.9281086303710935,7.76319888305664,7.466317877197265
5993265471045,2.539217239,1,-2.674323254394531,7.659051110839843,7.426813549804687
5993267692868,2.541439062,1,-2.5845406921386718,7.484274389648437,7.518990313720702
5993269915472,2.543661666,1,-2.530671154785156,7.24605132446289,7.4040686340332025
5993272140108,2.545886302,1,-2.6013001037597654,6.99705435180664,7.283161450195312
5993274357868,2.548104062,1,-2.6372131286621094,6.742071875,7.224503509521484
5993276582399,2.550328593,1,-2.615665313720703,6.4655415832519525,7.100005023193359
5993278804691,2.552550885,1,-2.6958710693359373,6.129156249999999,6.743268975830078
5993281028701,2.554774895,1,-2.8036101440429686,5.7520694885253905,6.6271501953125
5993283249430,2.556995624,1,-2.6372131286621094,5.5545478515625,6.363788012695312
5993285470628,2.559216822,1,-2.521094348144531,5.436034869384765,6.25006343383789
5993287693597,2.561439791,1,-2.3810335510253906,5.343858105468749,6.0537388977050774
5993289916514,2.563662708,1,-2.290053887939453,5.203797308349609,5.930437512207031
5993292140212,2.565886406,1,-2.2110452331542967,5.1343654602050774,5.843049151611328
5993294360264,2.568106458,1,-2.2098481323242187,5.063736511230468,5.749675286865234
5993296584639,2.570330833,1,-2.1990742248535153,5.007472772216796,5.577292767333984
5993298804535,2.572550729,1,-2.2158336364746094,5.052962603759766,5.511452221679687
5993301029274,2.574775468,1,-2.2182278381347653,4.963180041503906,5.409698651123047
5993303248858,2.576995052,1,-2.076969940185547,5.017049578857422,5.386953735351562
5993305469066,2.57921526,1,-2.1930887207031247,5.060145208740234,5.44561167602539
5993307690733,2.581436927,1,-2.2685060729980466,5.1140147460937495,5.505466717529297
5993309916670,2.583662864,1,-2.2577321655273437,5.246892938232421,5.5461681457519525
5993312140264,2.585886458,1,-2.3834277526855465,5.366603021240234,5.767631799316406
5993314360108,2.588106302,1,-2.445676995849609,5.450400079345703,5.889736083984375
5993316584847,2.590331041,1,-2.616862414550781,5.568913061523437,6.044162091064453
5993318804743,2.592550937,1,-2.767697119140625,5.7329158752441405,6.405686541748047
5993321026566,2.59477276,1,-2.942473840332031,6.040570788574218,6.629544396972656
5993323249118,2.596995312,1,-3.268085266113281,6.083666418457031,6.806715319824218
5993325470785,2.599216979,1,-3.507505432128906,6.2213330139160155,6.998251452636718
5993327693389,2.601439583,1,-3.6846763549804686,6.363788012695312,7.222109307861328
5993329916149,2.603662343,1,-3.725377783203125,6.488286499023437,7.3274541809082026
5993332139587,2.605885781,1,-3.7816415222167965,6.58884296875,7.472303381347656
5993334360420,2.608106614,1,-3.763685009765625,6.724115362548828,7.644685900878906
5993336584743,2.610330937,1,-3.632003918457031,6.827066033935546,8.051700183105469
5993338804222,2.612550416,1,-3.525461944580078,6.822277630615234,8.202534887695313
5993341029639,2.614775833,1,-3.489548919677734,6.831854437255859,8.312668164062499
5993343248753,2.616994947,1,-3.238157745361328,6.868964562988281,8.292317449951172
5993345471357,2.619217551,1,-3.105279553222656,6.8964978820800775,8.311471063232421
5993347693493,2.621439687,1,-2.987963671875,6.763619689941406,8.259995727539062
5993349916097,2.623662291,1,-2.8754361938476563,6.669048724365234,8.259995727539062
5993352140628,2.625886822,1,-2.6563667419433594,6.5014546081542965,8.135497241210937
5993354360889,2.628107083,1,-2.817975354003906,6.331466290283203,8.070853796386718
5993356584691,2.630330885,1,-2.8502970764160156,5.969941839599609,7.687781530761718
5993358805264,2.632551458,1,-2.7629087158203123,5.553350750732421,7.304709265136719
5993361029170,2.634775364,1,-2.3247698120117186,5.255272644042968,7.094019519042968
5993363248545,2.636994739,1,-2.203862628173828,5.104437939453125,6.9156514953613275
5993365470316,2.63921651,1,-2.1212626708984375,4.92247861328125,6.839037042236328
5993367693076,2.64143927,1,-1.8567033874511718,4.7010149597167965,6.750451580810546
5993369915941,2.643662135,1,-1.581370196533203,4.557362860107421,6.695384942626953
5993372140785,2.645886979,1,-1.4640543151855467,4.528632440185547,6.70975015258789
5993374360264,2.648106458,1,-1.3347674255371094,4.493916516113281,6.696582043457031
5993376584014,2.650330208,1,-1.20667763671875,4.384980340576171,6.736086370849609
5993378804691,2.652550885,1,-1.1611878051757811,4.3610383239746096,6.774393597412109
5993381028962,2.654775156,1,-1.2509703674316406,4.41131655883789,7.032967376708984
5993383248701,2.656994895,1,-1.5885528015136718,4.4376527770996095,7.066486199951171
5993385470524,2.659216718,1,-1.8842367065429686,4.540603448486328,7.223306408691406
5993387693285,2.661439479,1,-1.9812018737792967,4.6830584472656245,7.298723760986328
5993389916878,2.663663072,1,-2.291250988769531,4.790797521972656,7.4770917846679685
5993392140785,2.665886979,1,-2.4660277099609376,4.942829327392578,7.633911993408202
5993394360264,2.668106458,1,-2.7952304382324216,5.080495922851562,7.875726361083984
5993396584430,2.670330624,1,-2.929305731201172,5.304353778076171,8.307879760742187
5993398804118,2.672550312,1,-3.077746234130859,5.82868394165039,8.537723120117187
5993401028805,2.674774999,1,-2.768894219970703,6.137535955810547,8.832209924316405
5993403248962,2.676995156,1,-3.3877953491210935,6.367379315185547,9.143456140136719
5993405471462,2.679217656,1,-3.4440590881347655,6.584054565429687,9.526528405761718
5993407693701,2.681439895,1,-3.6475662292480466,6.792350109863281,9.72285294189453
5993409915889,2.683662083,1,-3.812766143798828,7.05451519165039,9.87727894897461
5993412140941,2.685887135,1,-3.9755718566894527,7.238868719482421,10.108319409179687
5993414360160,2.688106354,1,-4.0066964782714845,7.369352709960937,10.172962854003906
5993416584951,2.690331145,1,-4.092887738037109,7.456741070556641,10.352527978515624
5993418804326,2.69255052,1,-4.050989208984375,7.596801867675781,10.352527978515624
5993421028805,2.694774999,1,-3.8474820678710935,7.650671405029296,10.471040960693358
5993423249222,2.696995416,1,-3.6750995483398436,7.714117749023437,10.488997473144531
5993425477607,2.699223801,1,-3.456030096435547,7.671022119140624,10.381258398437499
5993427694743,2.701440937,1,-3.418919970703125,7.618349682617187,10.32978306274414
5993429916045,2.703662239,1,-3.258508459472656,7.435193255615234,10.350133776855468
5993432140212,2.705886406,1,-3.257311358642578,7.304709265136719,10.204087475585936
5993434360107,2.708106301,1,-3.1591490905761717,7.074865905761718,9.9981861328125
5993436584535,2.710330729,1,-3.0047230834960934,6.86297905883789,9.567229833984374
5993438804639,2.712550833,1,-2.9281086303710935,6.524199523925781,9.319429962158203
5993441029378,2.714775572,1,-2.893392706298828,6.274005450439453,9.132682232666015
5993443249118,2.716995312,1,-2.4684219116210935,6.005854864501953,8.877699755859375
5993445471618,2.719217812,1,-2.262520568847656,5.779602807617187,8.588001354980468
5993447693753,2.721439947,1,-2.1631611999511717,5.540182641601562,8.330624676513672
5993449916097,2.723662291,1,-1.936909143066406,5.34984360961914,8.134300140380859
5993452140472,2.725886666,1,-1.8830396057128904,5.08169302368164,7.9463553100585935
5993454360472,2.728106666,1,-1.7776947326660155,4.898536596679687,7.605181573486328
5993456585055,2.730331249,1,-1.659181750488281,4.84586416015625,7.1215528381347655
5993458804274,2.732550468,1,-1.562216583251953,4.376600634765625,6.9731123352050774
5993461029014,2.734775208,1,-1.4628572143554686,4.262876055908203,6.78636460571289
5993463249587,2.736995781,1,-1.608903515625,4.076128326416016,6.606799481201172
5993465471462,2.739217656,1,-1.4101847778320311,4.0222587890625,6.3901242309570305
5993467693232,2.741439426,1,-1.3000515014648437,4.016273284912109,6.19260259399414
5993469916514,2.743662708,1,-1.2425906616210938,4.034229797363281,6.153098266601562
5993472139951,2.745886145,1,-1.1635820068359375,3.9899370666503904,6.080075115966797
5993474359587,2.748105781,1,-1.0486603271484374,3.9264907226562498,6.118382342529297
5993476583545,2.750329739,1,-0.8655039001464844,3.84987626953125,6.112396838378906
5993478803910,2.752550104,1,-0.7769184387207031,4.097676141357422,6.175843182373047
5993481029014,2.754775208,1,-0.8080430603027343,4.133589166259766,6.275202551269531
5993483249430,2.756995624,1,-0.8822633117675781,4.259284753417968,6.229712719726562
5993485470993,2.759217187,1,-0.9109937316894531,4.398148449707031,6.318298181152343
5993487693285,2.761439479,1,-0.9792284790039062,4.578910675048828,6.387730029296875
5993489914951,2.763661145,1,-1.0594342346191405,4.7201685729980465,6.4655415832519525
5993492140212,2.765886406,1,-1.149216796875,4.855440966796874,6.590040069580078
5993494359951,2.768106145,1,-1.2210428466796874,5.008669873046875,6.740874774169922
5993496584639,2.770330833,1,-1.3000515014648437,5.1882349975585935,6.89530078125
5993498803753,2.772549947,1,-1.4449007019042968,5.493495709228515,7.006631158447266
5993501029899,2.774776093,1,-1.5298948608398437,5.670666632080078,7.049726788330077
5993503249899,2.776996093,1,-1.5705962890624998,5.755660791015624,7.094019519042968
5993505470524,2.779216718,1,-1.5598223815917969,5.869385369873046,7.146691955566406
5993507693076,2.78143927,1,-1.6124948181152343,5.983109948730468,7.186196282958984
5993509915680,2.783661874,1,-1.6136919189453125,6.119579443359375,7.199364392089843
5993512139951,2.785886145,1,-1.6711527587890624,6.137535955810547,7.147889056396484
5993514360055,2.788106249,1,-1.7956512451171873,6.175843182373047,7.149086157226562
5993516584014,2.790330208,1,-1.7908628417968748,6.136338854980468,6.665457421875
5993518804170,2.792550364,1,-1.8459294799804686,6.318298181152343,6.433219860839843
5993521028597,2.794774791,1,-1.9752163696289062,6.300341668701171,6.203376501464843
5993523249170,2.796995364,1,-2.033874310302734,6.265625744628906,5.990292553710937
5993525470941,2.799217135,1,-2.014720697021484,6.224924316406249,5.759252093505859
5993527693805,2.801439999,1,-2.005143890380859,6.110002636718749,5.513846423339843
5993529915941,2.803662135,1,-1.8231845642089843,6.082469317626953,5.274426257324219
5993532138441,2.805884635,1,-1.7884686401367187,6.035782385253906,5.0014872680664055
5993534361357,2.808107551,1,-1.7645266235351562,6.0513446960449215,4.535815045166015
5993536585368,2.810331562,1,-1.8195932617187498,5.894524487304687,4.282029669189453
5993538805055,2.812551249,1,-1.8363526733398436,5.950788226318359,4.06655151977539
5993541029743,2.814775937,1,-1.1911153259277343,5.972336041259766,3.786429925537109
5993543248128,2.816994322,1,-1.0390835205078124,6.0908490234374995,3.699041564941406
5993545470576,2.81921677,1,-1.0187328063964842,6.132747552490234,3.6188358093261717
5993547692712,2.821438906,1,-1.083376251220703,6.081272216796875,3.602076397705078
5993549915993,2.823662187,1,-1.1240776794433593,6.0345852844238275,3.5697546752929687
5993552139795,2.825885989,1,-1.1923124267578125,6.0321910827636716,3.465606903076172
5993554359847,2.828106041,1,-1.3730746520996093,6.057330200195312,3.219004132080078
5993556584482,2.830330676,1,-1.426944189453125,5.984307049560546,3.1196447631835937
5993558804691,2.832550885,1,-1.514332550048828,6.00106646118164,3.1268273681640624
5993561029118,2.834775312,1,-1.3850456604003905,5.887341882324218,3.106476654052734
5993563249118,2.836995312,1,-1.3251906188964844,5.8610056640625,3.2525229553222657
5993565471670,2.839217864,1,-1.2988544006347655,5.844246252441406,3.2166099304199216
5993567693545,2.841439739,1,-1.150413897705078,5.8454433532714845,3.199850518798828
5993569916462,2.843662656,1,-1.0857704528808594,5.8262897399902345,3.3303345092773435
5993572140784,2.845886978,1,-0.9337386474609375,5.823895538330078,3.388992449951172
5993574359743,2.848105937,1,-0.9062053283691406,5.889736083984375,3.564966271972656
5993576585628,2.850331822,1,-0.7769184387207031,5.84783755493164,3.6571430358886716
5993578804743,2.852550937,1,-0.7422025146484375,5.88614478149414,3.7708676147460936
5993581028597,2.854774791,1,-0.8092401611328125,5.853823059082031,3.9600095458984375
5993583249430,2.856995624,1,-0.8690952026367187,5.754463690185546,4.090493536376953
5993585471045,2.859217239,1,-0.8571241943359375,5.704185455322265,4.236539837646484
5993587692920,2.861439114,1,-0.8559270935058593,5.682637640380859,4.314351391601562
5993589915368,2.863661562,1,-0.8415618835449218,5.68862314453125,4.408922357177734
5993592140003,2.865886197,1,-0.8667010009765624,5.7125651611328125,4.551377355957031
5993594360368,2.868106562,1,-0.949300958251953,5.768828900146484,4.799177227783203
5993596584899,2.870331093,1,-1.0319009155273438,5.706579656982422,4.8494554626464845
5993598805003,2.872551197,1,-1.1097124694824219,5.685031842041015,4.88417138671875
5993601028857,2.874775051,1,-1.3275848205566405,5.680243438720702,4.839878656005859
5993603249118,2.876995312,1,-1.2497732666015624,5.724536169433593,4.723759875488281
5993605471253,2.879217447,1,-1.265335577392578,5.7520694885253905,4.655525128173828
5993607692712,2.881438906,1,-1.1959037292480468,5.77122310180664,4.580107775878906
5993609915524,2.883661718,1,-1.1085153686523437,5.766434698486328,4.490325213623047
5993612140159,2.885886353,1,-0.9361328491210937,5.674257934570313,4.246116644287109
5993614360420,2.888106614,1,-0.853532891845703,5.655104321289063,3.9827544616699218
5993616584118,2.890330312,1,-0.8571241943359375,5.689820245361328,3.841496563720703
5993618804430,2.892550624,1,-0.968454571533203,5.6778492370605465,3.707421270751953
5993621028701,2.894774895,1,-0.9636661682128905,5.649118817138672,3.5134909362792968
5993623249066,2.89699526,1,-0.9959878906249999,5.566518859863281,3.347093920898437
5993625471409,2.899217603,1,-0.9923965881347656,5.578489868164062,3.2237925354003902
5993627693024,2.901439218,1,-1.209071838378906,5.516240625,3.0980969482421874
5993629915576,2.90366177,1,-1.2761094848632812,5.516240625,2.9735984619140625
5993632140628,2.905886822,1,-1.39821376953125,5.533000036621093,2.7760768249511716
5993634360107,2.908106301,1,-1.4999673400878906,5.5461681457519525,2.6767174560546874
5993636584743,2.910330937,1,-1.5586252807617187,5.473144995117187,2.5534160705566404
5993638809847,2.912556041,1,-1.4640543151855467,5.432443566894531,2.521094348144531
5993641032607,2.914778801,1,-1.2222399475097656,5.430049365234375,2.393004559326172
5993643248493,2.916994687,1,-1.0785878479003905,5.492298608398437,2.39420166015625
5993645470472,2.919216666,1,-1.0307038146972656,5.543773944091797,2.492363928222656
5993647693701,2.921439895,1,-0.9062053283691406,5.646724615478515,2.5546131713867184
5993649916774,2.923662968,1,-0.9277531433105468,5.760449194335937,2.6372131286621094
5993652140837,2.925887031,1,-0.9445125549316405,5.872976672363281,2.6479870361328124
5993654359743,2.928105937,1,-0.9253589416503906,5.869385369873046,2.70065947265625
5993656584482,2.930330676,1,-1.0366893188476562,5.917269403076172,2.7736826232910157
5993658804170,2.932550364,1,-1.2018892333984375,5.934028814697265,2.9041666137695312
5993661028649,2.934774843,1,-1.5011644409179687,5.979518646240234,2.9664158569335934
5993663248805,2.936994999,1,-1.7130512878417967,5.973533142089844,3.0729578308105467
5993665471409,2.939217603,1,-1.7717092285156248,5.98191284790039,3.2166099304199216
5993667692555,2.941438749,1,-1.9476830505371092,5.973533142089844,3.3099837951660156
5993669915576,2.94366177,1,-1.9788076721191405,6.008249066162109,3.450044592285156
5993672139378,2.945885572,1,-2.0566192260742184,5.95677373046875,3.7014357666015623
5993674359795,2.948105989,1,-2.085349645996094,6.1088055358886715,4.159925384521484
5993676583857,2.950330051,1,-2.0841525451660154,5.968744738769531,4.349067315673828
5993678804534,2.952550728,1,-2.079364141845703,5.9974751586914055,4.574122271728515
5993681028909,2.954775103,1,-2.139219183349609,6.021417175292968,4.764461303710937
5993683249326,2.95699552,1,-2.1703438049316404,5.950788226318359,4.860229370117187
5993685470420,2.959216614,1,-2.213439434814453,5.870582470703124,5.090072729492187
5993687693545,2.961439739,1,-2.493561029052734,5.855020159912109,5.157110375976562
5993689916409,2.963662603,1,-2.370259643554687,5.77122310180664,5.220556719970703
5993692140784,2.965886978,1,-2.1775264099121094,5.705382556152343,5.275623358154297
5993694360524,2.968106718,1,-2.009932293701172,5.7317187744140625,5.408501550292969
5993696584743,2.970330937,1,-1.7597382202148437,5.760449194335937,5.463568188476562
5993698804274,2.972550468,1,-1.2401964599609374,5.807136126708984,5.538985540771484
5993701029222,2.974775416,1,-1.0905588562011719,5.8610056640625,5.549759448242187
5993703248805,2.976994999,1,-0.7410054138183594,5.90529839477539,5.49708701171875
5993705471514,2.979217708,1,-0.6560112548828124,5.878962176513672,5.512649322509765
5993707693389,2.981439583,1,-1.0845733520507812,5.919663604736328,5.6311623046875
5993709916357,2.983662551,1,-1.2198457458496093,5.856217260742187,5.651513018798828
5993712140159,2.985886353,1,-1.4508862060546874,5.742492681884765,5.613205792236328
5993714359639,2.988105833,1,-1.6998831787109374,5.568913061523437,5.646724615478515
5993716584639,2.990330833,1,-1.8567033874511718,5.222950921630859,5.719747766113281
5993718804326,2.99255052,1,-2.2014684265136717,4.988319158935546,5.773617303466796
5993721028805,2.994774999,1,-2.300827795410156,4.898536596679687,5.884947680664062
5993723248597,2.996994791,1,-2.3020248962402343,4.995501763916016,6.005854864501953
5993725471774,2.999217968,1,-2.2685060729980466,5.05655390625,6.0884548217773435
5993727694482,3.001440676,1,-2.2074539306640624,5.125985754394531,6.320692382812499
5993729916149,3.003662343,1,-2.270900274658203,5.185840795898438,6.537367633056641
5993732139899,3.005886093,1,-2.2206220397949217,5.298368273925781,7.023390570068359
5993734359587,3.008105781,1,-2.2110452331542967,5.396530541992187,7.340622290039062
5993736585003,3.010331197,1,-2.232593048095703,5.646724615478515,7.605181573486328
5993738805055,3.012551249,1,-2.003946789550781,5.594052178955078,7.8900915710449215
5993741029430,3.014775624,1,-2.39420166015625,5.523423229980469,8.304288458251953
5993743249066,3.01699526,1,-2.0638018310546875,5.5545478515625,8.465897070312499
5993745471618,3.019217812,1,-2.0470424194335934,5.749675286865234,8.747215765380858
5993747693389,3.021439583,1,-1.993172882080078,5.889736083984375,8.967482318115234
5993749915316,3.02366151,1,-1.85790048828125,5.913678100585937,9.344569079589844
5993752140107,3.025886301,1,-1.8076222534179687,5.947196923828125,10.084377392578125
5993754359430,3.028105624,1,-1.811213555908203,5.877765075683594,10.31661495361328
5993756584482,3.030330676,1,-1.5466542724609373,6.102820031738281,10.47702646484375
5993758805159,3.032551353,1,-1.408987677001953,6.003460662841796,10.765527764892578
5993761029326,3.03477552,1,-0.8511386901855468,5.530605834960937,10.996568225097656
5993763248649,3.036994843,1,-1.5885528015136718,5.839457849121094,11.152191333007812
5993765471149,3.039217343,1,-0.8702923034667969,6.03937368774414,10.934318981933593
5993767693649,3.041439843,1,-1.3658920471191405,6.21175620727539,10.977414611816405
5993769915889,3.043662083,1,-1.8100164550781248,6.047753393554687,10.98699141845703
5993772140628,3.045886822,1,-2.2960393920898436,5.796362219238281,11.12226381225586
5993774360264,3.048106458,1,-2.7377695983886716,5.568913061523437,11.112687005615234
5993776584899,3.050331093,1,-3.2130186279296873,5.626373901367187,11.111489904785156
5993778804222,3.052550416,1,-3.6750995483398436,5.734112976074218,11.109095703125
5993781029951,3.054776145,1,-3.5673604736328124,5.979518646240234,11.139023223876952
5993783249639,3.056995833,1,-3.248931652832031,6.114791040039062,11.148600030517578
5993785468441,3.059214635,1,-3.0621839233398433,6.198588098144531,11.203666668701171
5993787691566,3.06143776,1,-2.579752288818359,6.206967803955078,11.00734213256836
5993789916201,3.063662395,1,-2.1871032165527344,6.238092425537109,10.787075579833983
5993792140107,3.065886301,1,-2.2278046447753903,6.203376501464843,10.77749877319336
5993794360576,3.06810677,1,-2.529474053955078,6.022614276123046,10.74517705078125
5993796584326,3.07033052,1,-2.9891607727050777,5.895721588134765,10.769119067382812
5993798804586,3.07255078,1,-3.594893792724609,5.7891796142578125,10.682927807617187
5993801030107,3.074776301,1,-3.727771984863281,5.706579656982422,10.59793364868164
5993803248493,3.076994687,1,-3.859453076171875,5.719747766113281,10.536881506347656
5993805471045,3.079217239,1,-3.824737152099609,5.682637640380859,10.412383020019531
5993807693389,3.081439583,1,-3.727771984863281,5.744886883544922,10.199299072265624
5993809915420,3.083661614,1,-3.475183709716797,5.741295581054687,9.983820922851562
5993812140003,3.085886197,1,-3.2800562744140622,5.682637640380859,9.643844287109374
5993814360628,3.088106822,1,-2.9987375793457027,5.838260748291015,9.332598071289063
5993816583649,3.090329843,1,-2.7054478759765623,5.805939025878906,9.166201055908203
5993818804534,3.092550728,1,-2.570175482177734,5.785588311767578,8.842983831787109
5993821029222,3.094775416,1,-2.5378537597656248,5.778405706787109,8.622717279052734
5993823249691,3.096995885,1,-2.6312276245117188,5.643133312988281,8.283937744140625
5993825471409,3.099217603,1,-2.6240450195312497,5.530605834960937,7.937975604248046
5993827692920,3.101439114,1,-2.740163800048828,5.390545037841797,7.659051110839843
5993829918024,3.103664218,1,-2.8191724548339843,5.291185668945312,7.454346868896484
5993832140889,3.105887083,1,-2.89219560546875,5.248090039062499,6.677428430175781
5993834360211,3.108106405,1,-2.808398547363281,5.202600207519531,6.357802508544921
5993836584951,3.110331145,1,-2.7150246826171873,5.1152118469238275,6.129156249999999
5993838804534,3.112550728,1,-2.5151088439941405,5.104437939453125,5.967547637939453
5993841029482,3.114775676,1,-2.3726538452148436,5.039794494628906,5.931634613037109
5993843248857,3.116995051,1,-2.139219183349609,5.092466931152344,5.870582470703124
5993845471253,3.119217447,1,-1.8471265808105468,5.079298822021484,5.88015927734375
5993847692972,3.121439166,1,-1.707065783691406,5.167884283447266,5.938817218017578
5993849915732,3.123661926,1,-1.638831036376953,5.179855291748047,6.05852730102539
5993852146670,3.125892864,1,-1.4257470886230468,5.237316131591797,6.095637426757812
5993854362034,3.128108228,1,-1.4065934753417968,5.203797308349609,6.206967803955078
5993856584899,3.130331093,1,-1.2808978881835937,5.201403106689453,6.40329234008789
5993858804222,3.132550416,1,-1.5167267517089842,5.093664031982422,6.639121203613281
5993861029691,3.134775885,1,-1.619677423095703,5.0960582336425775,6.785167504882812
5993863249534,3.136995728,1,-1.6915034729003906,5.093664031982422,6.847416748046874
5993865471514,3.139217708,1,-1.7034744812011717,5.110423443603516,6.9348051086425775
5993867692659,3.141438853,1,-1.6160861206054686,5.1511248718261715,6.968323931884766
5993869915889,3.143662083,1,-1.6986860778808592,5.109226342773437,7.052120989990234
5993872140055,3.145886249,1,-1.6819266662597656,4.983530755615234,7.4399816589355465
5993874360368,3.148106562,1,-1.6927005737304686,5.032611889648437,7.39928023071289
5993876584639,3.150330833,1,-1.6651672546386718,5.050568402099609,7.389703424072265
5993878804222,3.152550416,1,-1.7741034301757812,5.092466931152344,7.4603323730468745
5993881028493,3.154774687,1,-1.9105729248046874,5.025429284667968,7.484274389648437
5993883249274,3.156995468,1,-2.1835119140624997,4.915296008300781,7.540538128662109
5993885471566,3.15921776,1,-2.328361114501953,4.873397479248046,7.532158422851562
5993887693805,3.161439999,1,-2.4444798950195312,4.945223529052734,7.45075556640625
5993889915680,3.163661874,1,-2.5151088439941405,5.049371301269531,7.454346868896484
5993892140472,3.165886666,1,-2.6982652709960937,5.051765502929687,7.208941198730468
5993894359795,3.168105989,1,-2.7449522033691403,5.124788653564453,7.074865905761718
5993896584951,3.170331145,1,-2.7066449768066403,5.175066888427734,6.9336080078124995
5993898803180,3.172549374,1,-2.6719290527343746,5.1319712585449215,6.789955908203124
5993901028805,3.174774999,1,-2.565387078857422,5.2085857116699215,6.545747338867187
5993903248857,3.176995051,1,-2.370259643554687,5.342661004638671,6.284779357910156
5993905471409,3.179217603,1,-2.2254104431152344,5.474342095947265,6.007051965332031
5993907693284,3.181439478,1,-2.2301988464355467,5.5641246582031245,5.914875201416015
5993909915993,3.183662187,1,-2.2828712829589843,5.6012347839355465,5.529408734130859
5993912140055,3.185886249,1,-2.3235727111816407,5.740098480224609,5.284003063964843
5993914360159,3.188106353,1,-2.2194249389648437,5.872976672363281,5.014655377197266
5993916584586,3.19033078,1,-2.1966800231933594,5.941211419677734,4.88417138671875
5993918805264,3.192551458,1,-2.195482922363281,5.935225915527344,4.7022120605468745
5993921029430,3.194775624,1,-1.9979612854003905,5.94360562133789,4.50109912109375
5993923248753,3.196994947,1,-1.8291700683593748,6.021417175292968,4.364629626464843
5993925471149,3.199217343,1,-1.8602946899414061,6.119579443359375,4.311957189941406
5993927693336,3.20143953,1,-1.7884686401367187,6.191405493164062,4.144363073730468
5993929915941,3.203662135,1,-1.7896657409667969,6.189011291503906,3.9659950500488277
5993932140576,3.20588677,1,-1.9823989746093749,6.373364819335937,3.8007951354980465
5993934359639,3.208105833,1,-1.849520782470703,6.1830257873535155,3.604470599365234
5993936584899,3.210331093,1,-2.1499930908203124,6.148309863281249,3.517082238769531
5993938804326,3.21255052,1,-2.2397756530761717,6.065709906005859,3.4775779113769527
5993941029326,3.21477552,1,-2.2254104431152344,6.050147595214844,3.3578678283691406
5993943248649,3.216994843,1,-2.39420166015625,5.9591679321289055,3.3542765258789062
5993945468961,3.219215155,1,-2.3439234252929686,5.849034655761718,3.347093920898437
5993947690316,3.22143651,1,-2.3511060302734372,5.753266589355468,3.2225954345703123
5993949917086,3.22366328,1,-2.2685060729980466,5.744886883544922,3.566163372802734
5993952140576,3.22588677,1,-2.2577321655273437,5.7891796142578125,3.6810850524902343
5993954359586,3.22810578,1,-2.2673089721679687,5.778405706787109,3.9408559326171875
5993956584170,3.230330364,1,-2.4061726684570313,5.749675286865234,4.1192239562988275
5993958804222,3.232550416,1,-2.408566870117187,5.734112976074218,4.422090466308593
5993961028805,3.234774999,1,-2.5725696838378904,5.723339068603515,4.630386010742187
5993963249066,3.23699526,1,-2.626439221191406,5.6958057495117185,4.815936639404296
5993965470889,3.239217083,1,-2.5725696838378904,5.645527514648437,5.060145208740234
5993967693180,3.241439374,1,-2.592920397949219,5.610811590576172,5.216965417480468
5993969916514,3.243662708,1,-2.5342624572753905,5.595249279785156,5.626373901367187
