timestamp_ns,t_s,sensor_id,ax,ay,az,gx,gy,gz
3826129074528,0.061494479,1,0.23343466186523437,1.7465701110839842,-11.167753643798827,-1.0916030534351144,0.7633587786259542,-1.8015267175572518
3826135702497,0.068122448,1,0.22864625854492185,1.725022296142578,-11.179724652099608,-0.8549618320610687,0.6106870229007634,-1.3587786259541985
3826142371872,0.074791823,1,0.22505495605468748,1.7238251953125,-11.215637677001952,-0.7938931297709924,0.5877862595419847,-1.3206106870229009
3826149039580,0.081459531,1,0.258573779296875,1.7645266235351562,-11.170147845458983,-0.8015267175572519,0.5267175572519084,-1.3129770992366412
3826155702028,0.088121979,1,0.22385785522460935,1.7322049011230467,-11.215637677001952,-0.9007633587786259,0.6106870229007634,-1.297709923664122
3826162366663,0.094786614,1,0.22864625854492185,1.7298106994628906,-11.173739147949219,-0.7938931297709924,0.5648854961832062,-1.3587786259541985
3826169031820,0.101451771,1,0.22744915771484372,1.7417817077636717,-11.16057103881836,-0.7938931297709924,0.5801526717557252,-1.3129770992366412
3826175698486,0.108118437,1,0.2059013427734375,1.7513585144042967,-11.202469567871093,-0.8320610687022901,0.5648854961832062,-1.3358778625954197
3826182365986,0.114785937,1,0.2059013427734375,1.7226280944824217,-11.184513055419922,-0.7786259541984732,0.5114503816793893,-1.3129770992366412
3826189032236,0.121452187,1,0.25258827514648435,1.7226280944824217,-11.17254204711914,-0.7862595419847328,0.5572519083969466,-1.2900763358778626
3826195697340,0.128117291,1,0.24899697265624998,1.7238251953125,-11.17254204711914,-0.8320610687022901,0.6183206106870229,-1.2900763358778626
3826202364945,0.134784896,1,0.22505495605468748,1.7202338928222656,-11.19887826538086,-0.8320610687022901,0.5038167938931297,-1.3282442748091603
3826209032965,0.141452916,1,0.1927332336425781,1.7561469177246092,-11.207257971191405,-0.7251908396946565,0.5038167938931297,-1.3587786259541985
3826215698070,0.148118021,1,0.2154781494140625,1.7381904052734374,-11.167753643798827,-0.7862595419847328,0.5190839694656488,-1.3587786259541985
3826222365153,0.154785104,1,0.23582886352539062,1.7477672119140624,-11.184513055419922,-0.8320610687022901,0.648854961832061,-1.3435114503816794
3826229030726,0.161450677,1,0.21787235107421873,1.7334020019531249,-11.179724652099608,-0.8015267175572519,0.5801526717557252,-1.3511450381679388
3826235697497,0.168117448,1,0.23223756103515625,1.734599102783203,-11.214440576171874,-0.8854961832061069,0.48854961832061067,-1.3206106870229009
3826242365778,0.174785729,1,0.2346317626953125,1.7286135986328124,-11.200075366210937,-0.8549618320610687,0.5419847328244275,-1.3587786259541985
3826249143643,0.181563594,1,0.229843359375,1.725022296142578,-11.168950744628905,-0.8473282442748091,0.5114503816793893,-1.3511450381679388
3826255699893,0.188119844,1,0.20829554443359374,1.7369933044433592,-11.156979736328124,-0.9236641221374046,0.5648854961832062,-1.2900763358778626
3826262364111,0.194784062,1,0.2262520568847656,1.744175909423828,-11.2240173828125,-0.8625954198473282,0.5954198473282443,-1.3129770992366412
3826269031247,0.201451198,1,0.19871873779296872,1.715445489501953,-11.200075366210937,-0.816793893129771,0.6335877862595419,-1.3129770992366412
3826275697184,0.208117135,1,0.22266075439453123,1.715445489501953,-11.186907257080078,-0.8625954198473282,0.5725190839694656,-1.3129770992366412
3826282365622,0.214785573,1,0.21308394775390624,1.7274164978027342,-11.202469567871093,-0.8244274809160306,0.5648854961832062,-1.3282442748091603
3826289030934,0.221450885,1,0.19632453613281248,1.7202338928222656,-11.177330450439452,-0.8091603053435115,0.5419847328244275,-1.297709923664122
3826295697705,0.228117656,1,0.22864625854492185,1.7238251953125,-11.226411584472656,-0.816793893129771,0.6106870229007634,-1.2900763358778626
3826302366038,0.234785989,1,0.23582886352539062,1.7501614135742187,-11.200075366210937,-0.8702290076335878,0.5954198473282443,-1.3358778625954197
3826309030517,0.241450468,1,0.229843359375,1.7166425903320313,-11.184513055419922,-0.8015267175572519,0.6259541984732825,-1.282442748091603
3826315698486,0.248118437,1,0.23104046020507812,1.7214309936523438,-11.186907257080078,-0.8702290076335878,0.5572519083969466,-1.3206106870229009
3826322364840,0.254784791,1,0.23104046020507812,1.70467158203125,-11.227608685302734,-0.8625954198473282,0.5801526717557252,-1.282442748091603
3826329030830,0.261450781,1,0.2166752502441406,1.70467158203125,-11.176133349609374,-0.8320610687022901,0.5572519083969466,-1.282442748091603
3826335696820,0.268116771,1,0.229843359375,1.70467158203125,-11.176133349609374,-0.8625954198473282,0.6183206106870229,-1.3129770992366412
3826342364476,0.274784427,1,0.22385785522460935,1.7274164978027342,-11.18571015625,-0.8625954198473282,0.6335877862595419,-1.282442748091603
3826349031195,0.281451146,1,0.22505495605468748,1.7130512878417967,-11.173739147949219,-0.8091603053435115,0.6335877862595419,-1.3282442748091603
3826355697288,0.288117239,1,0.20949264526367187,1.7106570861816406,-11.201272467041015,-0.816793893129771,0.5343511450381679,-1.3282442748091603
3826362364632,0.294784583,1,0.22266075439453123,1.7034744812011717,-11.180921752929686,-0.8854961832061069,0.5954198473282443,-1.3740458015267176
3826369030830,0.301450781,1,0.2059013427734375,1.7298106994628906,-11.176133349609374,-0.816793893129771,0.5877862595419847,-1.381679389312977
3826375697913,0.308117864,1,0.2262520568847656,1.7525556152343749,-11.167753643798827,-0.7786259541984732,0.5419847328244275,-1.282442748091603
3826382365882,0.314785833,1,0.20350714111328125,1.7585411193847655,-11.188104357910156,-0.8549618320610687,0.6183206106870229,-1.3053435114503817
3826389031142,0.321451093,1,0.19153613281249998,1.7645266235351562,-11.19887826538086,-0.8473282442748091,0.6106870229007634,-1.3358778625954197
3826395697392,0.328117343,1,0.22026655273437498,1.7525556152343749,-11.21084927368164,-0.8396946564885496,0.48854961832061067,-1.3206106870229009
3826402366663,0.334786614,1,0.22266075439453123,1.7226280944824217,-11.124658013916015,-0.8625954198473282,0.5648854961832062,-1.3282442748091603
3826409031195,0.341451146,1,0.23702596435546874,1.734599102783203,-11.173739147949219,-0.8396946564885496,0.5343511450381679,-1.3282442748091603
3826415697288,0.348117239,1,0.23104046020507812,1.725022296142578,-11.170147845458983,-0.8396946564885496,0.5267175572519084,-1.3053435114503817
3826422364424,0.354784375,1,0.21906945190429686,1.7585411193847655,-11.16057103881836,-0.8778625954198473,0.5725190839694656,-1.3282442748091603
3826429030153,0.361450104,1,0.2154781494140625,1.7334020019531249,-11.194089862060546,-0.8320610687022901,0.5114503816793893,-1.3053435114503817
3826435696299,0.36811625,1,0.23104046020507812,1.7405846069335937,-11.16057103881836,-0.8778625954198473,0.5267175572519084,-1.3129770992366412
3826442365049,0.374785,1,0.2214636535644531,1.7322049011230467,-11.180921752929686,-0.8625954198473282,0.5877862595419847,-1.3435114503816794
3826449030413,0.381450364,1,0.23223756103515625,1.7369933044433592,-11.173739147949219,-0.8396946564885496,0.549618320610687,-1.297709923664122
3826455697861,0.388117812,1,0.21428104858398436,1.7214309936523438,-11.207257971191405,-0.8396946564885496,0.5343511450381679,-1.3206106870229009
3826462363955,0.394783906,1,0.21068974609375,1.7417817077636717,-11.183315954589844,-0.9007633587786259,0.5954198473282443,-1.3053435114503817
3826469030465,0.401450416,1,0.21068974609375,1.7334020019531249,-11.176133349609374,-0.816793893129771,0.5572519083969466,-1.3053435114503817
3826475699267,0.408119218,1,0.2346317626953125,1.7334020019531249,-11.043255157470702,-0.816793893129771,0.5801526717557252,-1.3053435114503817
3826482364372,0.414784323,1,0.22026655273437498,1.7357962036132812,-11.196484063720703,-0.8396946564885496,0.5954198473282443,-1.3129770992366412
3826489029997,0.421449948,1,0.2214636535644531,1.7310078002929687,-11.208455072021483,-0.8396946564885496,0.5954198473282443,-1.3053435114503817
3826495695622,0.428115573,1,0.2442085693359375,1.7573440185546874,-11.176133349609374,-0.8320610687022901,0.5572519083969466,-1.3206106870229009
3826502365986,0.434785937,1,0.21428104858398436,1.7334020019531249,-11.186907257080078,-0.9083969465648855,0.6030534351145038,-1.3206106870229009
3826509038799,0.44145875,1,0.21428104858398436,1.7286135986328124,-11.184513055419922,-0.9389312977099237,0.5954198473282443,-1.3358778625954197
3826515699892,0.448119843,1,0.22864625854492185,1.7262193969726563,-11.149797131347656,-0.816793893129771,0.549618320610687,-1.3358778625954197
3826522363955,0.454783906,1,0.23582886352539062,1.7322049011230467,-11.17852755126953,-0.9007633587786259,0.6030534351145038,-1.3129770992366412
3826529033278,0.461453229,1,0.21428104858398436,1.725022296142578,-11.201272467041015,-0.8244274809160306,0.5648854961832062,-1.3206106870229009
3826535698434,0.468118385,1,0.22026655273437498,1.7202338928222656,-11.206060870361327,-0.7709923664122137,0.5648854961832062,-1.282442748091603
3826542364580,0.474784531,1,0.24181436767578124,1.753752716064453,-11.16057103881836,-0.8015267175572519,0.6106870229007634,-1.2748091603053435
3826549031559,0.48145151,1,0.21906945190429686,1.7190367919921874,-11.174936248779296,-0.8244274809160306,0.5648854961832062,-1.297709923664122
3826555697705,0.488117656,1,0.2454056701660156,1.7202338928222656,-11.18571015625,-0.8396946564885496,0.5267175572519084,-1.3129770992366412
3826562365049,0.494785,1,0.24660277099609373,1.7489643127441405,-11.162965240478515,-0.9312977099236641,0.5801526717557252,-1.297709923664122
3826569030309,0.50145026,1,0.24301146850585936,1.7657237243652342,-11.152191333007812,-0.8091603053435115,0.5725190839694656,-1.2900763358778626
3826575697809,0.50811776,1,0.22026655273437498,1.7262193969726563,-11.203666668701171,-0.8320610687022901,0.5267175572519084,-1.3129770992366412
3826582364111,0.514784062,1,0.24181436767578124,1.7489643127441405,-11.19169566040039,-0.8931297709923665,0.5954198473282443,-1.3129770992366412
3826589031351,0.521451302,1,0.21308394775390624,1.7465701110839842,-11.189301458740234,-0.8473282442748091,0.6030534351145038,-1.2748091603053435
3826595697340,0.528117291,1,0.22744915771484372,1.7298106994628906,-11.176133349609374,-0.8396946564885496,0.5343511450381679,-1.2900763358778626
3826602364944,0.534784895,1,0.21428104858398436,1.7429788085937499,-11.133037719726563,-0.8549618320610687,0.5190839694656488,-1.3129770992366412
3826609031090,0.541451041,1,0.21428104858398436,1.7501614135742187,-11.139023223876952,-0.8473282442748091,0.6106870229007634,-1.3282442748091603
3826615697861,0.548117812,1,0.22385785522460935,1.7501614135742187,-11.21084927368164,-0.8091603053435115,0.5801526717557252,-1.3358778625954197
3826622363955,0.554783906,1,0.2214636535644531,1.725022296142578,-11.21084927368164,-0.8549618320610687,0.5725190839694656,-1.3129770992366412
3826629030674,0.561450625,1,0.22026655273437498,1.7226280944824217,-11.190498559570312,-0.8549618320610687,0.5725190839694656,-1.3435114503816794
3826635697861,0.568117812,1,0.20829554443359374,1.7381904052734374,-11.177330450439452,-0.7862595419847328,0.5725190839694656,-1.3511450381679388
3826642364944,0.574784895,1,0.24899697265624998,1.7381904052734374,-11.186907257080078,-0.7862595419847328,0.5572519083969466,-1.3511450381679388
3826649030517,0.581450468,1,0.2501940734863281,1.7334020019531249,-11.17852755126953,-0.8473282442748091,0.5801526717557252,-1.3129770992366412
3826655696559,0.58811651,1,0.22744915771484372,1.7238251953125,-11.159373937988281,-0.8244274809160306,0.6412213740458015,-1.3206106870229009
3826662364476,0.594784427,1,0.21428104858398436,1.7178396911621092,-11.179724652099608,-0.8396946564885496,0.5648854961832062,-1.297709923664122
3826669031872,0.601451823,1,0.2346317626953125,1.7178396911621092,-11.204863769531249,-0.8702290076335878,0.5343511450381679,-1.2595419847328244
3826675695934,0.608115885,1,0.21906945190429686,1.7405846069335937,-11.215637677001952,-0.7786259541984732,0.4961832061068702,-1.297709923664122
3826682365361,0.614785312,1,0.22385785522460935,1.734599102783203,-11.174936248779296,-0.7786259541984732,0.549618320610687,-1.3053435114503817
3826689030153,0.621450104,1,0.21308394775390624,1.7310078002929687,-11.196484063720703,-0.8549618320610687,0.6335877862595419,-1.3282442748091603
3826695696351,0.628116302,1,0.22385785522460935,1.7238251953125,-11.195286962890624,-0.8091603053435115,0.5267175572519084,-1.3206106870229009
3826702364736,0.634784687,1,0.21068974609375,1.7369933044433592,-11.188104357910156,-0.8396946564885496,0.5038167938931297,-1.3740458015267176
3826709031194,0.641451145,1,0.2166752502441406,1.7381904052734374,-11.234791290283203,-0.8473282442748091,0.6030534351145038,-1.366412213740458
3826715696819,0.64811677,1,0.24061726684570311,1.7262193969726563,-11.208455072021483,-0.7938931297709924,0.5572519083969466,-1.3053435114503817
3826722364163,0.654784114,1,0.20350714111328125,1.7465701110839842,-11.176133349609374,-0.8778625954198473,0.5954198473282443,-1.3435114503816794
3826729030517,0.661450468,1,0.2059013427734375,1.7513585144042967,-11.182118853759764,-0.8244274809160306,0.6564885496183206,-1.3129770992366412
3826735696976,0.668116927,1,0.239420166015625,1.7310078002929687,-11.206060870361327,-0.7938931297709924,0.5954198473282443,-1.3053435114503817
3826742364007,0.674783958,1,0.22744915771484372,1.7226280944824217,-11.184513055419922,-0.7862595419847328,0.5648854961832062,-1.3358778625954197
3826749028955,0.681448906,1,0.22864625854492185,1.714248388671875,-11.164162341308593,-0.8625954198473282,0.6259541984732825,-1.3053435114503817
3826755698434,0.688118385,1,0.22864625854492185,1.7130512878417967,-11.183315954589844,-0.8473282442748091,0.5954198473282443,-1.297709923664122
3826762366038,0.694785989,1,0.22266075439453123,1.7130512878417967,-11.039663854980468,-0.9083969465648855,0.549618320610687,-1.297709923664122
3826769029632,0.701449583,1,0.22744915771484372,1.714248388671875,-11.192892761230468,-0.8625954198473282,0.549618320610687,-1.2748091603053435
3826775697549,0.7081175,1,0.21906945190429686,1.7597382202148437,-11.222820281982422,-0.8625954198473282,0.5725190839694656,-1.282442748091603
3826782364007,0.714783958,1,0.22744915771484372,1.7597382202148437,-11.195286962890624,-0.8702290076335878,0.5725190839694656,-1.282442748091603
3826789030361,0.721450312,1,0.21906945190429686,1.7130512878417967,-11.179724652099608,-0.8473282442748091,0.648854961832061,-1.3053435114503817
3826795694996,0.728114947,1,0.22744915771484372,1.7298106994628906,-11.203666668701171,-0.8320610687022901,0.648854961832061,-1.282442748091603
3826802363955,0.734783906,1,0.24660277099609373,1.7381904052734374,-11.228805786132812,-0.7786259541984732,0.5801526717557252,-1.3358778625954197
3826809030986,0.741450937,1,0.2262520568847656,1.7166425903320313,-11.235988391113281,-0.8396946564885496,0.5801526717557252,-1.3511450381679388
3826815697444,0.748117395,1,0.21428104858398436,1.7262193969726563,-11.174936248779296,-0.816793893129771,0.6030534351145038,-1.3358778625954197
3826822365517,0.754785468,1,0.24301146850585936,1.7453730102539062,-11.165359442138671,-0.816793893129771,0.5267175572519084,-1.2900763358778626
3826829031194,0.761451145,1,0.2346317626953125,1.7369933044433592,-11.183315954589844,-0.8778625954198473,0.48854961832061067,-1.251908396946565
3826835696142,0.768116093,1,0.22744915771484372,1.7501614135742187,-11.228805786132812,-0.816793893129771,0.5419847328244275,-1.3206106870229009
3826842363799,0.77478375,1,0.24899697265624998,1.7357962036132812,-11.202469567871093,-0.8091603053435115,0.5114503816793893,-1.3511450381679388
3826849030517,0.781450468,1,0.23822306518554687,1.7429788085937499,-11.209652172851563,-0.8625954198473282,0.5801526717557252,-1.3358778625954197
3826855696819,0.78811677,1,0.18315642700195311,1.734599102783203,-11.161768139648437,-0.7862595419847328,0.5801526717557252,-1.3435114503816794
3826862365049,0.794785,1,0.2214636535644531,1.7214309936523438,-11.203666668701171,-0.8320610687022901,0.5572519083969466,-1.3587786259541985
3826869029996,0.801449947,1,0.2214636535644531,1.7262193969726563,-11.167753643798827,-0.8549618320610687,0.6106870229007634,-1.3435114503816794
3826875695257,0.808115208,1,0.2166752502441406,1.697488977050781,-11.233594189453123,-0.7709923664122137,0.6183206106870229,-1.3435114503816794
3826882372653,0.814792604,1,0.21428104858398436,1.7226280944824217,-11.234791290283203,-0.7862595419847328,0.4961832061068702,-1.3053435114503817
3826889031767,0.821451718,1,0.19153613281249998,1.7238251953125,-11.234791290283203,-0.8473282442748091,0.6106870229007634,-1.3206106870229009
3826895696663,0.828116614,1,0.19153613281249998,1.7226280944824217,-11.221623181152344,-0.7786259541984732,0.5419847328244275,-1.3358778625954197
3826902363903,0.834783854,1,0.21787235107421873,1.7226280944824217,-11.17852755126953,-0.8320610687022901,0.48854961832061067,-1.3282442748091603
3826909029944,0.841449895,1,0.2214636535644531,1.7106570861816406,-11.17852755126953,-0.8854961832061069,0.5572519083969466,-1.4427480916030535
3826915696611,0.848116562,1,0.23702596435546874,1.715445489501953,-11.214440576171874,-0.8854961832061069,0.5572519083969466,-1.3358778625954197
3826922365309,0.85478526,1,0.21188684692382811,1.7298106994628906,-11.202469567871093,-0.8244274809160306,0.5572519083969466,-1.3129770992366412
3826929029684,0.861449635,1,0.2262520568847656,1.734599102783203,-11.215637677001952,-0.7786259541984732,0.5801526717557252,-1.3129770992366412
3826935696871,0.868116822,1,0.22385785522460935,1.7310078002929687,-11.180921752929686,-0.8015267175572519,0.5648854961832062,-1.3206106870229009
3826942365361,0.874785312,1,0.21906945190429686,1.7082628845214842,-11.17254204711914,-0.7709923664122137,0.6106870229007634,-1.3282442748091603
3826949031923,0.881451874,1,0.21188684692382811,1.7010802795410156,-11.171344946289063,-0.7709923664122137,0.5954198473282443,-1.297709923664122
3826955699163,0.888119114,1,0.22505495605468748,1.7298106994628906,-11.167753643798827,-0.8702290076335878,0.6183206106870229,-1.3435114503816794
3826962364996,0.894784947,1,0.21787235107421873,1.7214309936523438,-11.194089862060546,-0.8320610687022901,0.6259541984732825,-1.3282442748091603
3826969030778,0.901450729,1,0.21787235107421873,1.7334020019531249,-11.228805786132812,-0.8778625954198473,0.6183206106870229,-1.3435114503816794
3826975696090,0.908116041,1,0.23343466186523437,1.744175909423828,-11.206060870361327,-0.8396946564885496,0.6335877862595419,-1.3511450381679388
3826982364267,0.914784218,1,0.22026655273437498,1.7262193969726563,-11.215637677001952,-0.7786259541984732,0.5954198473282443,-1.3282442748091603
3826989031403,0.921451354,1,0.22505495605468748,1.7334020019531249,-11.17254204711914,-0.9007633587786259,0.5954198473282443,-1.3358778625954197
3826995696715,0.928116666,1,0.23582886352539062,1.7393875061035156,-11.203666668701171,-0.8778625954198473,0.5877862595419847,-1.3511450381679388
3827002364528,0.934784479,1,0.23223756103515625,1.7405846069335937,-11.180921752929686,-0.8625954198473282,0.5114503816793893,-1.297709923664122
3827009031767,0.941451718,1,0.25258827514648435,1.7381904052734374,-11.1474029296875,-0.8320610687022901,0.5877862595419847,-1.3511450381679388
3827015697236,0.948117187,1,0.22266075439453123,1.7429788085937499,-11.202469567871093,-0.8702290076335878,0.6793893129770993,-1.3740458015267176
3827022364840,0.954784791,1,0.22266075439453123,1.7334020019531249,-11.222820281982422,-0.7862595419847328,0.648854961832061,-1.366412213740458
3827029029684,0.961449635,1,0.22266075439453123,1.7489643127441405,-11.194089862060546,-0.8396946564885496,0.5801526717557252,-1.3435114503816794
3827035697653,0.968117604,1,0.1879448303222656,1.7405846069335937,-11.200075366210937,-0.8091603053435115,0.5419847328244275,-1.3282442748091603
3827042362132,0.974782083,1,0.1879448303222656,1.7106570861816406,-11.18571015625,-0.8091603053435115,0.5267175572519084,-1.3129770992366412
3827049030934,0.981450885,1,0.21188684692382811,1.7106570861816406,-11.180921752929686,-0.8854961832061069,0.6106870229007634,-1.3740458015267176
3827055698017,0.988117968,1,0.21188684692382811,1.7274164978027342,-11.180921752929686,-0.8473282442748091,0.5725190839694656,-1.3358778625954197
3827062365413,0.994785364,1,0.2262520568847656,1.7357962036132812,-11.16057103881836,-0.8473282442748091,0.5572519083969466,-1.3435114503816794
3827069030153,1.001450104,1,0.22744915771484372,1.7298106994628906,-11.14022032470703,-0.8625954198473282,0.5572519083969466,-1.3435114503816794
3827075696611,1.008116562,1,0.21787235107421873,1.7393875061035156,-11.184513055419922,-0.8244274809160306,0.5801526717557252,-1.3511450381679388
3827082364371,1.014784322,1,0.24301146850585936,1.7334020019531249,-11.167753643798827,-0.8320610687022901,0.5954198473282443,-1.3053435114503817
3827089029371,1.021449322,1,0.2537853759765625,1.7178396911621092,-11.203666668701171,-0.816793893129771,0.6030534351145038,-1.2671755725190839
3827095696767,1.028116718,1,0.21068974609375,1.725022296142578,-11.167753643798827,-0.9083969465648855,0.6335877862595419,-1.2442748091603053
3827102364892,1.034784843,1,0.2154781494140625,1.7429788085937499,-11.192892761230468,-0.8320610687022901,0.5725190839694656,-1.3053435114503817
3827109030465,1.041450416,1,0.20949264526367187,1.7202338928222656,-11.171344946289063,-0.8854961832061069,0.5419847328244275,-1.3129770992366412
3827115698278,1.048118229,1,0.2154781494140625,1.7381904052734374,-11.204863769531249,-0.8854961832061069,0.5954198473282443,-1.3206106870229009
3827122364788,1.054784739,1,0.22266075439453123,1.715445489501953,-11.18571015625,-0.7938931297709924,0.5419847328244275,-1.3206106870229009
3827129030934,1.061450885,1,0.20470424194335937,1.7178396911621092,-11.215637677001952,-0.8549618320610687,0.5954198473282443,-1.3053435114503817
3827135697653,1.068117604,1,0.21308394775390624,1.7381904052734374,-11.183315954589844,-0.8244274809160306,0.6183206106870229,-1.297709923664122
3827142364423,1.074784374,1,0.2262520568847656,1.7310078002929687,-11.176133349609374,-0.7709923664122137,0.5725190839694656,-1.3206106870229009
3827149031663,1.081451614,1,0.23343466186523437,1.7262193969726563,-11.170147845458983,-0.8396946564885496,0.5725190839694656,-1.3282442748091603
3827155696975,1.088116926,1,0.2214636535644531,1.7369933044433592,-11.227608685302734,-0.8473282442748091,0.6870229007633588,-1.3587786259541985
3827162363850,1.094783801,1,0.2059013427734375,1.7286135986328124,-11.209652172851563,-0.7786259541984732,0.6259541984732825,-1.3282442748091603
3827169030413,1.101450364,1,0.201112939453125,1.714248388671875,-11.196484063720703,-0.8320610687022901,0.5801526717557252,-1.3206106870229009
3827175697184,1.108117135,1,0.22026655273437498,1.7334020019531249,-11.206060870361327,-0.8549618320610687,0.5954198473282443,-1.3435114503816794
3827182364215,1.114784166,1,0.22026655273437498,1.7357962036132812,-11.204863769531249,-0.8244274809160306,0.5954198473282443,-1.381679389312977
3827189029840,1.121449791,1,0.23702596435546874,1.7357962036132812,-11.174936248779296,-0.816793893129771,0.5725190839694656,-1.3587786259541985
3827195696507,1.128116458,1,0.24181436767578124,1.7525556152343749,-11.174936248779296,-0.8625954198473282,0.5954198473282443,-1.3282442748091603
3827202363955,1.134783906,1,0.24181436767578124,1.7381904052734374,-11.203666668701171,-0.8625954198473282,0.549618320610687,-1.3129770992366412
3827209030569,1.14145052,1,0.21188684692382811,1.7405846069335937,-11.17852755126953,-0.8091603053435115,0.549618320610687,-1.3358778625954197
3827215697600,1.148117551,1,0.21308394775390624,1.7369933044433592,-11.177330450439452,-0.8091603053435115,0.5190839694656488,-1.3358778625954197
3827222364371,1.154784322,1,0.23223756103515625,1.7214309936523438,-11.2240173828125,-0.8625954198473282,0.5801526717557252,-1.3511450381679388
3827229029788,1.161449739,1,0.22864625854492185,1.7238251953125,-11.190498559570312,-0.8091603053435115,0.5572519083969466,-1.3129770992366412
3827235696767,1.168116718,1,0.24061726684570311,1.7429788085937499,-11.186907257080078,-0.8320610687022901,0.6183206106870229,-1.3206106870229009
3827242365569,1.17478552,1,0.20949264526367187,1.7477672119140624,-11.207257971191405,-0.8931297709923665,0.6183206106870229,-1.2900763358778626
3827249030986,1.181450937,1,0.2059013427734375,1.725022296142578,-11.17852755126953,-0.7938931297709924,0.5419847328244275,-1.2900763358778626
3827255703903,1.188123854,1,0.23223756103515625,1.7322049011230467,-11.23718549194336,-0.8473282442748091,0.5572519083969466,-1.3206106870229009
3827262364111,1.194784062,1,0.23343466186523437,1.7274164978027342,-11.227608685302734,-0.8396946564885496,0.6183206106870229,-1.2748091603053435
3827269032444,1.201452395,1,0.2262520568847656,1.7262193969726563,-11.220426080322264,-0.8702290076335878,0.6183206106870229,-1.3358778625954197
3827275697809,1.20811776,1,0.22026655273437498,1.7202338928222656,-11.154585534667968,-0.8854961832061069,0.6564885496183206,-1.282442748091603
3827282364528,1.214784479,1,0.19033903198242186,1.7501614135742187,-11.173739147949219,-0.816793893129771,0.6259541984732825,-1.282442748091603
3827289027913,1.221447864,1,0.2214636535644531,1.7166425903320313,-11.200075366210937,-0.8625954198473282,0.5572519083969466,-1.297709923664122
3827295697757,1.228117708,1,0.26216508178710934,1.7429788085937499,-11.240776794433593,-0.9389312977099237,0.5954198473282443,-1.3282442748091603
3827302363382,1.234783333,1,0.23702596435546874,1.7429788085937499,-11.234791290283203,-0.8473282442748091,0.6106870229007634,-1.3129770992366412
3827309030153,1.241450104,1,0.21787235107421873,1.7405846069335937,-11.196484063720703,-0.8320610687022901,0.5572519083969466,-1.297709923664122
3827315697288,1.248117239,1,0.24301146850585936,1.7369933044433592,-11.179724652099608,-0.8854961832061069,0.6030534351145038,-1.3282442748091603
3827322364840,1.254784791,1,0.23822306518554687,1.7322049011230467,-11.196484063720703,-0.8625954198473282,0.5801526717557252,-1.3053435114503817
3827329030100,1.261450051,1,0.23822306518554687,1.7573440185546874,-11.214440576171874,-0.8396946564885496,0.6030534351145038,-1.381679389312977
3827335696819,1.26811677,1,0.23702596435546874,1.7573440185546874,-11.324573852539062,-0.816793893129771,0.5419847328244275,-1.3511450381679388
3827342364892,1.274784843,1,0.20470424194335937,1.7334020019531249,-11.171344946289063,-0.7709923664122137,0.5343511450381679,-1.3969465648854962
3827349030361,1.281450312,1,0.229843359375,1.7106570861816406,-11.176133349609374,-0.7709923664122137,0.5343511450381679,-1.3129770992366412
3827355696715,1.288116666,1,0.23223756103515625,1.7130512878417967,-11.180921752929686,-0.8854961832061069,0.5190839694656488,-1.3129770992366412
3827362364840,1.294784791,1,0.23702596435546874,1.7130512878417967,-11.21683477783203,-0.8702290076335878,0.6412213740458015,-1.3053435114503817
3827369030152,1.301450103,1,0.229843359375,1.7477672119140624,-11.177330450439452,-0.7786259541984732,0.549618320610687,-1.297709923664122
3827375697392,1.308117343,1,0.24061726684570311,1.7214309936523438,-11.177330450439452,-0.8244274809160306,0.5419847328244275,-1.3053435114503817
3827382363902,1.314783853,1,0.2262520568847656,1.7334020019531249,-11.192892761230468,-0.8320610687022901,0.5877862595419847,-1.3511450381679388
3827389030934,1.321450885,1,0.22266075439453123,1.7274164978027342,-11.17852755126953,-0.7786259541984732,0.5419847328244275,-1.3129770992366412
3827395696507,1.328116458,1,0.21787235107421873,1.7322049011230467,-11.226411584472656,-0.7786259541984732,0.5801526717557252,-1.3282442748091603
3827402365205,1.334785156,1,0.25737667846679685,1.7082628845214842,-11.179724652099608,-0.8396946564885496,0.6183206106870229,-1.3511450381679388
3827409030830,1.341450781,1,0.239420166015625,1.7178396911621092,-11.177330450439452,-0.8320610687022901,0.5725190839694656,-1.3511450381679388
3827415698173,1.348118124,1,0.2214636535644531,1.7417817077636717,-11.170147845458983,-0.8854961832061069,0.549618320610687,-1.3053435114503817
3827422364163,1.354784114,1,0.23702596435546874,1.7501614135742187,-11.174936248779296,-0.8702290076335878,0.5725190839694656,-1.3053435114503817
3827429031715,1.361451666,1,0.22864625854492185,1.7274164978027342,-11.238382592773437,-0.7862595419847328,0.5114503816793893,-1.2900763358778626
3827435698017,1.368117968,1,0.2166752502441406,1.7238251953125,-11.202469567871093,-0.8702290076335878,0.5954198473282443,-1.282442748091603
3827442364267,1.374784218,1,0.23702596435546874,1.744175909423828,-11.221623181152344,-0.816793893129771,0.5877862595419847,-1.297709923664122
3827449030100,1.381450051,1,0.2059013427734375,1.744175909423828,-11.21084927368164,-0.8015267175572519,0.5343511450381679,-1.2748091603053435
3827455696715,1.388116666,1,0.20350714111328125,1.734599102783203,-11.176133349609374,-0.8625954198473282,0.5725190839694656,-1.297709923664122
3827462364163,1.394784114,1,0.21906945190429686,1.7369933044433592,-11.195286962890624,-0.8396946564885496,0.549618320610687,-1.251908396946565
3827469030673,1.401450624,1,0.21906945190429686,1.7298106994628906,-11.21084927368164,-0.8320610687022901,0.549618320610687,-1.3358778625954197
3827475697340,1.408117291,1,0.22864625854492185,1.7298106994628906,-11.190498559570312,-0.8931297709923665,0.6030534351145038,-1.3358778625954197
3827482364580,1.414784531,1,0.21188684692382811,1.7453730102539062,-11.190498559570312,-0.8931297709923665,0.6106870229007634,-1.366412213740458
3827489030725,1.421450676,1,0.20709844360351562,1.7357962036132812,-11.176133349609374,-0.8931297709923665,0.5343511450381679,-1.3435114503816794
3827495696871,1.428116822,1,0.23582886352539062,1.7238251953125,-11.166556542968749,-0.8931297709923665,0.5343511450381679,-1.3206106870229009
3827502365413,1.434785364,1,0.22864625854492185,1.7322049011230467,-11.165359442138671,-0.8702290076335878,0.5801526717557252,-1.3206106870229009
3827509030621,1.441450572,1,0.21906945190429686,1.7310078002929687,-11.17254204711914,-0.8091603053435115,0.549618320610687,-1.2748091603053435
3827515696559,1.44811651,1,0.21428104858398436,1.7465701110839842,-11.188104357910156,-0.8396946564885496,0.5114503816793893,-1.282442748091603
3827522367184,1.454787135,1,0.22026655273437498,1.7465701110839842,-11.190498559570312,-0.8625954198473282,0.5343511450381679,-1.2671755725190839
3827529030673,1.461450624,1,0.229843359375,1.7322049011230467,-11.195286962890624,-0.8702290076335878,0.549618320610687,-1.297709923664122
3827535697340,1.468117291,1,0.25737667846679685,1.7286135986328124,-11.183315954589844,-0.8396946564885496,0.5343511450381679,-1.3206106870229009
3827542365569,1.47478552,1,0.2166752502441406,1.7334020019531249,-11.17852755126953,-0.8320610687022901,0.5648854961832062,-1.366412213740458
3827549028225,1.481448176,1,0.2346317626953125,1.7381904052734374,-11.174936248779296,-0.8091603053435115,0.5267175572519084,-1.381679389312977
3827555697444,1.488117395,1,0.21906945190429686,1.714248388671875,-11.203666668701171,-0.8015267175572519,0.6259541984732825,-1.3511450381679388
3827562364996,1.494784947,1,0.20231004028320312,1.705868682861328,-11.186907257080078,-0.8473282442748091,0.5954198473282443,-1.3587786259541985
3827569030309,1.50145026,1,0.2262520568847656,1.744175909423828,-11.213243475341796,-0.8320610687022901,0.6030534351145038,-1.3129770992366412
3827575697184,1.508117135,1,0.2214636535644531,1.7322049011230467,-11.192892761230468,-0.8015267175572519,0.5343511450381679,-1.3206106870229009
3827582364944,1.514784895,1,0.2166752502441406,1.7357962036132812,-11.17852755126953,-0.8320610687022901,0.5114503816793893,-1.3282442748091603
3827589030673,1.521450624,1,0.2059013427734375,1.725022296142578,-11.162965240478515,-0.8625954198473282,0.5267175572519084,-1.3435114503816794
3827595697444,1.528117395,1,0.22385785522460935,1.7381904052734374,-11.189301458740234,-0.8549618320610687,0.6335877862595419,-1.3282442748091603
3827602364632,1.534784583,1,0.20231004028320312,1.753752716064453,-11.176133349609374,-0.9007633587786259,0.6030534351145038,-1.3129770992366412
3827609030517,1.541450468,1,0.23702596435546874,1.7357962036132812,-11.189301458740234,-0.7786259541984732,0.5572519083969466,-1.2748091603053435
3827615696715,1.548116666,1,0.23702596435546874,1.7238251953125,-11.21683477783203,-0.8015267175572519,0.5954198473282443,-1.3206106870229009
3827622364059,1.55478401,1,0.20709844360351562,1.7238251953125,-11.204863769531249,-0.8244274809160306,0.5419847328244275,-1.3511450381679388
3827629037496,1.561457447,1,0.2166752502441406,1.7369933044433592,-11.204863769531249,-0.8015267175572519,0.5572519083969466,-1.3206106870229009
3827635699059,1.56811901,1,0.22266075439453123,1.7298106994628906,-11.213243475341796,-0.8015267175572519,0.6106870229007634,-1.366412213740458
3827642364840,1.574784791,1,0.24061726684570311,1.7453730102539062,-11.214440576171874,-0.8244274809160306,0.6106870229007634,-1.366412213740458
3827649031923,1.581451874,1,0.229843359375,1.7429788085937499,-11.204863769531249,-0.8931297709923665,0.6030534351145038,-1.3435114503816794
3827655698329,1.58811828,1,0.2059013427734375,1.7369933044433592,-11.213243475341796,-0.8396946564885496,0.5419847328244275,-1.3435114503816794
3827662363902,1.594783853,1,0.24061726684570311,1.7226280944824217,-11.158176837158203,-0.8396946564885496,0.5801526717557252,-1.282442748091603
3827669031038,1.601450989,1,0.21787235107421873,1.714248388671875,-11.146205828857422,-0.8702290076335878,0.6030534351145038,-1.3282442748091603
3827675697652,1.608117603,1,0.22864625854492185,1.7322049011230467,-11.239579693603515,-0.816793893129771,0.5572519083969466,-1.3282442748091603
3827682364163,1.614784114,1,0.23223756103515625,1.7357962036132812,-11.196484063720703,-0.9236641221374046,0.6106870229007634,-1.3282442748091603
3827689031507,1.621451458,1,0.239420166015625,1.7118541870117185,-11.2240173828125,-0.8396946564885496,0.6641221374045801,-1.3358778625954197
3827695697340,1.628117291,1,0.21906945190429686,1.7214309936523438,-11.150994232177734,-0.8702290076335878,0.5419847328244275,-1.3358778625954197
3827702363954,1.634783905,1,0.22744915771484372,1.7369933044433592,-11.149797131347656,-0.9312977099236641,0.6030534351145038,-1.3282442748091603
3827709030777,1.641450728,1,0.2262520568847656,1.7178396911621092,-11.164162341308593,-0.9083969465648855,0.5954198473282443,-1.3282442748091603
3827715697496,1.648117447,1,0.24899697265624998,1.7238251953125,-11.161768139648437,-0.8244274809160306,0.5343511450381679,-1.3358778625954197
3827722365309,1.65478526,1,0.2154781494140625,1.7298106994628906,-11.213243475341796,-0.8015267175572519,0.5038167938931297,-1.3358778625954197
3827729030465,1.661450416,1,0.239420166015625,1.705868682861328,-11.206060870361327,-0.8778625954198473,0.5801526717557252,-1.3129770992366412
3827735697184,1.668117135,1,0.18315642700195311,1.7130512878417967,-11.183315954589844,-0.8244274809160306,0.5648854961832062,-1.3206106870229009
3827742364059,1.67478401,1,0.20350714111328125,1.7322049011230467,-11.152191333007812,-0.8244274809160306,0.6106870229007634,-1.3053435114503817
3827749029736,1.681449687,1,0.21068974609375,1.7477672119140624,-11.173739147949219,-0.816793893129771,0.5877862595419847,-1.3358778625954197
3827755697340,1.688117291,1,0.21068974609375,1.7130512878417967,-11.194089862060546,-0.8778625954198473,0.6259541984732825,-1.3053435114503817
3827762365257,1.694785208,1,0.258573779296875,1.7130512878417967,-11.204863769531249,-0.8702290076335878,0.5954198473282443,-1.2900763358778626
3827769031090,1.701451041,1,0.22026655273437498,1.725022296142578,-11.204863769531249,-0.816793893129771,0.5877862595419847,-1.2900763358778626
3827775696507,1.708116458,1,0.2549824768066406,1.7381904052734374,-11.201272467041015,-0.816793893129771,0.5877862595419847,-1.297709923664122
3827782364996,1.714784947,1,0.2262520568847656,1.7357962036132812,-11.194089862060546,-0.7938931297709924,0.5877862595419847,-1.3435114503816794
3827789031767,1.721451718,1,0.23223756103515625,1.7106570861816406,-11.180921752929686,-0.8549618320610687,0.6259541984732825,-1.3435114503816794
3827795697340,1.728117291,1,0.24181436767578124,1.707065783691406,-11.201272467041015,-0.816793893129771,0.5801526717557252,-1.3511450381679388
3827802364996,1.734784947,1,0.2214636535644531,1.725022296142578,-11.174936248779296,-0.8473282442748091,0.5801526717557252,-1.366412213740458
3827809030309,1.74145026,1,0.2262520568847656,1.7393875061035156,-11.183315954589844,-0.9083969465648855,0.6183206106870229,-1.3358778625954197
3827815696559,1.74811651,1,0.21188684692382811,1.7322049011230467,-11.192892761230468,-0.8931297709923665,0.5114503816793893,-1.297709923664122
3827822366350,1.754786301,1,0.22026655273437498,1.7597382202148437,-11.215637677001952,-0.8091603053435115,0.5725190839694656,-1.2671755725190839
3827829031142,1.761451093,1,0.22026655273437498,1.7226280944824217,-11.167753643798827,-0.8549618320610687,0.6030534351145038,-1.3587786259541985
3827835697496,1.768117447,1,0.2442085693359375,1.7118541870117185,-11.200075366210937,-0.8320610687022901,0.5648854961832062,-1.3206106870229009
3827842364527,1.774784478,1,0.25258827514648435,1.7214309936523438,-11.19887826538086,-0.8473282442748091,0.5877862595419847,-1.3511450381679388
3827849031090,1.781451041,1,0.21068974609375,1.7573440185546874,-11.206060870361327,-0.8015267175572519,0.5725190839694656,-1.3282442748091603
3827855697600,1.788117551,1,0.22744915771484372,1.7286135986328124,-11.208455072021483,-0.7786259541984732,0.5877862595419847,-1.2900763358778626
3827862364267,1.794784218,1,0.23104046020507812,1.714248388671875,-11.17852755126953,-0.816793893129771,0.5419847328244275,-1.2900763358778626
3827869030204,1.801450155,1,0.23822306518554687,1.7202338928222656,-11.166556542968749,-0.8320610687022901,0.5725190839694656,-1.3129770992366412
3827875697496,1.808117447,1,0.22266075439453123,1.7298106994628906,-11.17852755126953,-0.7786259541984732,0.6259541984732825,-1.3206106870229009
3827882365309,1.81478526,1,0.20709844360351562,1.714248388671875,-11.17852755126953,-0.7862595419847328,0.5801526717557252,-1.3282442748091603
3827889031871,1.821451822,1,0.23702596435546874,1.715445489501953,-11.19887826538086,-0.8396946564885496,0.5572519083969466,-1.366412213740458
3827895698277,1.828118228,1,0.2346317626953125,1.7501614135742187,-11.180921752929686,-0.8778625954198473,0.549618320610687,-1.3129770992366412
3827902363798,1.834783749,1,0.2346317626953125,1.7585411193847655,-11.162965240478515,-0.8931297709923665,0.5801526717557252,-1.3435114503816794
3827909030309,1.84145026,1,0.21428104858398436,1.7585411193847655,-11.0707884765625,-0.816793893129771,0.5648854961832062,-1.2900763358778626
3827915697444,1.848117395,1,0.21787235107421873,1.744175909423828,-11.2240173828125,-0.8091603053435115,0.5267175572519084,-1.2748091603053435
3827922364371,1.854784322,1,0.23223756103515625,1.7357962036132812,-11.200075366210937,-0.8091603053435115,0.5267175572519084,-1.2900763358778626
3827929030100,1.861450051,1,0.229843359375,1.7405846069335937,-11.204863769531249,-0.8396946564885496,0.5725190839694656,-1.2900763358778626
3827935697444,1.868117395,1,0.19871873779296872,1.7226280944824217,-11.194089862060546,-0.8549618320610687,0.5572519083969466,-1.297709923664122
3827942364163,1.874784114,1,0.22266075439453123,1.7393875061035156,-11.17852755126953,-0.8702290076335878,0.5038167938931297,-1.3129770992366412
3827949030881,1.881450832,1,0.23822306518554687,1.7166425903320313,-11.220426080322264,-0.8778625954198473,0.5267175572519084,-1.297709923664122
3827955696611,1.888116562,1,0.23702596435546874,1.7357962036132812,-11.194089862060546,-0.8778625954198473,0.5343511450381679,-1.3053435114503817
3827962364631,1.894784582,1,0.21906945190429686,1.725022296142578,-11.17852755126953,-0.8473282442748091,0.5648854961832062,-1.3969465648854962
3827969030465,1.901450416,1,0.20709844360351562,1.7310078002929687,-11.195286962890624,-0.8931297709923665,0.5648854961832062,-1.3511450381679388
3827975697600,1.908117551,1,0.20709844360351562,1.7178396911621092,-11.192892761230468,-0.8549618320610687,0.6259541984732825,-1.3358778625954197
3827982364111,1.914784062,1,0.19393033447265623,1.7286135986328124,-11.17852755126953,-0.8549618320610687,0.5648854961832062,-1.3206106870229009
3827989030256,1.921450207,1,0.201112939453125,1.7322049011230467,-11.188104357910156,-0.8549618320610687,0.549618320610687,-1.2900763358778626
3827995697548,1.928117499,1,0.21787235107421873,1.7369933044433592,-11.171344946289063,-0.8473282442748091,0.6030534351145038,-1.282442748091603
3828002370621,1.934790572,1,0.2166752502441406,1.7393875061035156,-11.152191333007812,-0.7786259541984732,0.6030534351145038,-1.282442748091603
3828009033642,1.941453593,1,0.21068974609375,1.7178396911621092,-11.186907257080078,-0.8015267175572519,0.6259541984732825,-1.3053435114503817
3828015697652,1.948117603,1,0.2154781494140625,1.744175909423828,-11.190498559570312,-0.7862595419847328,0.5419847328244275,-1.297709923664122
3828022364527,1.954784478,1,0.21787235107421873,1.7130512878417967,-11.183315954589844,-0.8244274809160306,0.5877862595419847,-1.3511450381679388
3828029028850,1.961448801,1,0.23343466186523437,1.7369933044433592,-11.19169566040039,-0.8244274809160306,0.5801526717557252,-1.297709923664122
3828035694996,1.968114947,1,0.2442085693359375,1.7190367919921874,-11.204863769531249,-0.8091603053435115,0.5572519083969466,-1.3358778625954197
3828042364892,1.974784843,1,0.2442085693359375,1.7178396911621092,-11.261127508544922,-0.8091603053435115,0.5801526717557252,-1.3206106870229009
3828049030569,1.98145052,1,0.2166752502441406,1.7178396911621092,-11.192892761230468,-0.8396946564885496,0.5877862595419847,-1.3358778625954197
3828055697027,1.988116978,1,0.22864625854492185,1.7525556152343749,-11.192892761230468,-0.8549618320610687,0.5190839694656488,-1.3358778625954197
3828062364371,1.994784322,1,0.229843359375,1.7334020019531249,-11.19887826538086,-0.8549618320610687,0.5725190839694656,-1.3511450381679388
3828069030725,2.001450676,1,0.23702596435546874,1.7310078002929687,-11.246762298583985,-0.8702290076335878,0.5725190839694656,-1.3206106870229009
3828075698277,2.008118228,1,0.2166752502441406,1.734599102783203,-11.195286962890624,-0.9007633587786259,0.5572519083969466,-1.3206106870229009
3828082365048,2.014784999,1,0.24301146850585936,1.7226280944824217,-11.220426080322264,-0.8244274809160306,0.5419847328244275,-1.366412213740458
3828089030100,2.021450051,1,0.24181436767578124,1.7202338928222656,-11.212046374511718,-0.8549618320610687,0.6106870229007634,-1.3587786259541985
3828095697392,2.028117343,1,0.23822306518554687,1.7465701110839842,-11.212046374511718,-0.8549618320610687,0.5725190839694656,-1.3206106870229009
3828102364631,2.034784582,1,0.22026655273437498,1.715445489501953,-11.15338843383789,-0.7786259541984732,0.5267175572519084,-1.3282442748091603
3828109031819,2.04145177,1,0.2154781494140625,1.7190367919921874,-11.180921752929686,-0.8015267175572519,0.6030534351145038,-1.3282442748091603
3828115696506,2.048116457,1,0.23223756103515625,1.7202338928222656,-11.203666668701171,-0.8625954198473282,0.5877862595419847,-1.3587786259541985
3828122364163,2.054784114,1,0.2262520568847656,1.7357962036132812,-11.174936248779296,-0.8702290076335878,0.5343511450381679,-1.3587786259541985
3828129036350,2.061456301,1,0.229843359375,1.7381904052734374,-11.18571015625,-0.9007633587786259,0.5801526717557252,-1.366412213740458
3828135699058,2.068119009,1,0.22744915771484372,1.7178396911621092,-11.18571015625,-0.8625954198473282,0.6335877862595419,-1.3358778625954197
3828142365465,2.074785416,1,0.22864625854492185,1.7178396911621092,-11.200075366210937,-0.8396946564885496,0.5954198473282443,-1.2748091603053435
3828149029944,2.081449895,1,0.2262520568847656,1.714248388671875,-11.152191333007812,-0.8320610687022901,0.5267175572519084,-1.3129770992366412
3828155698017,2.088117968,1,0.25737667846679685,1.7238251953125,-11.179724652099608,-0.8091603053435115,0.6259541984732825,-1.3206106870229009
3828162364423,2.094784374,1,0.23582886352539062,1.7226280944824217,-11.192892761230468,-0.8778625954198473,0.5648854961832062,-1.3129770992366412
3828169030308,2.101450259,1,0.21068974609375,1.725022296142578,-11.203666668701171,-0.8702290076335878,0.5190839694656488,-1.2748091603053435
3828175697652,2.108117603,1,0.20709844360351562,1.7286135986328124,-11.212046374511718,-0.8625954198473282,0.5343511450381679,-1.2671755725190839
3828182364527,2.114784478,1,0.2059013427734375,1.7034744812011717,-11.196484063720703,-0.8320610687022901,0.5267175572519084,-1.3129770992366412
3828189030465,2.121450416,1,0.2059013427734375,1.695094775390625,-11.176133349609374,-0.8244274809160306,0.6030534351145038,-1.3740458015267176
3828195696767,2.128116718,1,0.258573779296875,1.695094775390625,-11.034875451660156,-0.8091603053435115,0.6641221374045801,-1.3969465648854962
3828202365465,2.134785416,1,0.21428104858398436,1.7166425903320313,-11.188104357910156,-0.8091603053435115,0.5954198473282443,-1.3435114503816794
3828209030465,2.141450416,1,0.22505495605468748,1.7369933044433592,-11.183315954589844,-0.8396946564885496,0.5954198473282443,-1.3053435114503817
3828215697600,2.148117551,1,0.21787235107421873,1.7274164978027342,-11.209652172851563,-0.8778625954198473,0.6412213740458015,-1.3053435114503817
3828222363746,2.154783697,1,0.24061726684570311,1.7453730102539062,-11.195286962890624,-0.8473282442748091,0.6259541984732825,-1.3587786259541985
3828229030725,2.161450676,1,0.23104046020507812,1.7298106994628906,-11.170147845458983,-0.8473282442748091,0.5801526717557252,-1.297709923664122
3828235697548,2.168117499,1,0.24301146850585936,1.7369933044433592,-11.173739147949219,-0.8702290076335878,0.6335877862595419,-1.3129770992366412
3828242364944,2.174784895,1,0.2154781494140625,1.7238251953125,-11.214440576171874,-0.8396946564885496,0.6030534351145038,-1.3358778625954197
3828249030413,2.181450364,1,0.24061726684570311,1.7238251953125,-11.166556542968749,-0.8244274809160306,0.6030534351145038,-1.3282442748091603
3828255696663,2.188116614,1,0.22266075439453123,1.7262193969726563,-11.17254204711914,-0.8702290076335878,0.6183206106870229,-1.3358778625954197
3828262364058,2.194784009,1,0.2154781494140625,1.7322049011230467,-11.228805786132812,-0.7938931297709924,0.5954198473282443,-1.3206106870229009
3828269030308,2.201450259,1,0.21308394775390624,1.7106570861816406,-11.19169566040039,-0.8015267175572519,0.5572519083969466,-1.3358778625954197
3828275697288,2.208117239,1,0.21308394775390624,1.7238251953125,-11.196484063720703,-0.8549618320610687,0.5572519083969466,-1.3206106870229009
3828282359579,2.21477953,1,0.23343466186523437,1.734599102783203,-11.180921752929686,-0.7557251908396947,0.5877862595419847,-1.3511450381679388
3828289032548,2.221452499,1,0.229843359375,1.7561469177246092,-11.192892761230468,-0.8015267175572519,0.5801526717557252,-1.3358778625954197
3828295697913,2.228117864,1,0.20949264526367187,1.714248388671875,-11.184513055419922,-0.8473282442748091,0.6335877862595419,-1.3511450381679388
3828302364319,2.23478427,1,0.22026655273437498,1.7190367919921874,-11.200075366210937,-0.8320610687022901,0.549618320610687,-1.3511450381679388
3828309030933,2.241450884,1,0.2166752502441406,1.7753005310058592,-11.164162341308593,-0.8702290076335878,0.5648854961832062,-1.3282442748091603
3828315696819,2.24811677,1,0.2262520568847656,1.7453730102539062,-11.155782635498046,-0.8549618320610687,0.5572519083969466,-1.3206106870229009
3828322364423,2.254784374,1,0.22026655273437498,1.7274164978027342,-11.155782635498046,-0.8091603053435115,0.5877862595419847,-1.3282442748091603
3828329031194,2.261451145,1,0.22026655273437498,1.7357962036132812,-11.180921752929686,-0.8702290076335878,0.5725190839694656,-1.3358778625954197
3828335696663,2.268116614,1,0.22864625854492185,1.7357962036132812,-11.166556542968749,-0.9007633587786259,0.6259541984732825,-1.3282442748091603
3828342364371,2.274784322,1,0.21308394775390624,1.7238251953125,-11.166556542968749,-0.8473282442748091,0.5648854961832062,-1.3358778625954197
3828349030621,2.281450572,1,0.2442085693359375,1.7322049011230467,-11.202469567871093,-0.8473282442748091,0.5801526717557252,-1.3435114503816794
3828355697131,2.288117082,1,0.24061726684570311,1.7286135986328124,-11.197681164550781,-0.8549618320610687,0.5801526717557252,-1.3587786259541985
3828362364996,2.294784947,1,0.22026655273437498,1.7561469177246092,-11.212046374511718,-0.8320610687022901,0.5725190839694656,-1.3587786259541985
3828369029579,2.30144953,1,0.23582886352539062,1.7489643127441405,-11.21084927368164,-0.8091603053435115,0.5801526717557252,-1.366412213740458
3828375696610,2.308116561,1,0.229843359375,1.7417817077636717,-11.194089862060546,-0.8244274809160306,0.6335877862595419,-1.3587786259541985
3828382364215,2.314784166,1,0.21188684692382811,1.7334020019531249,-11.162965240478515,-0.7709923664122137,0.6412213740458015,-1.2900763358778626
3828389030256,2.321450207,1,0.20470424194335937,1.715445489501953,-11.15338843383789,-0.8320610687022901,0.6259541984732825,-1.2900763358778626
3828395697131,2.328117082,1,0.21787235107421873,1.7453730102539062,-11.158176837158203,-0.9007633587786259,0.5801526717557252,-1.297709923664122
3828402364788,2.334784739,1,0.22505495605468748,1.734599102783203,-11.212046374511718,-0.8778625954198473,0.6412213740458015,-1.2900763358778626
3828409030152,2.341450103,1,0.20829554443359374,1.7238251953125,-11.150994232177734,-0.8396946564885496,0.5801526717557252,-1.2748091603053435
3828415697496,2.348117447,1,0.23104046020507812,1.7262193969726563,-11.177330450439452,-0.8625954198473282,0.6030534351145038,-1.3129770992366412
3828422364371,2.354784322,1,0.22864625854492185,1.715445489501953,-11.173739147949219,-0.8320610687022901,0.5648854961832062,-1.3587786259541985
3828429030152,2.361450103,1,0.24899697265624998,1.734599102783203,-11.18571015625,-0.8625954198473282,0.5572519083969466,-1.3206106870229009
3828435697340,2.368117291,1,0.2501940734863281,1.7334020019531249,-11.204863769531249,-0.8702290076335878,0.5267175572519084,-1.3435114503816794
3828442364423,2.374784374,1,0.21906945190429686,1.70467158203125,-11.222820281982422,-0.7786259541984732,0.549618320610687,-1.3053435114503817
3828449030048,2.381449999,1,0.22385785522460935,1.7130512878417967,-11.167753643798827,-0.8244274809160306,0.5648854961832062,-1.2900763358778626
3828455697288,2.388117239,1,0.22864625854492185,1.7274164978027342,-11.177330450439452,-0.8320610687022901,0.6030534351145038,-1.2900763358778626
3828462364944,2.394784895,1,0.23343466186523437,1.7465701110839842,-11.168950744628905,-0.8015267175572519,0.5877862595419847,-1.3511450381679388
3828469029840,2.401449791,1,0.23223756103515625,1.7357962036132812,-11.182118853759764,-0.8702290076335878,0.6106870229007634,-1.3206106870229009
3828475696715,2.408116666,1,0.23223756103515625,1.7214309936523438,-11.173739147949219,-0.8854961832061069,0.5954198473282443,-1.2900763358778626
3828482364267,2.414784218,1,0.23104046020507812,1.7214309936523438,-11.173739147949219,-0.8244274809160306,0.5648854961832062,-1.297709923664122
3828489031350,2.421451301,1,0.22385785522460935,1.7310078002929687,-11.167753643798827,-0.8244274809160306,0.5648854961832062,-1.3282442748091603
3828495697496,2.428117447,1,0.23822306518554687,1.7178396911621092,-11.15338843383789,-0.8473282442748091,0.5648854961832062,-1.282442748091603
3828502364423,2.434784374,1,0.2154781494140625,1.7166425903320313,-11.200075366210937,-0.8625954198473282,0.5419847328244275,-1.282442748091603
3828509038642,2.441458593,1,0.20709844360351562,1.7238251953125,-11.180921752929686,-0.816793893129771,0.5267175572519084,-1.3206106870229009
3828515699527,2.448119478,1,0.2154781494140625,1.734599102783203,-11.17254204711914,-0.9312977099236641,0.5725190839694656,-1.2900763358778626
3828522364058,2.454784009,1,0.21906945190429686,1.7298106994628906,-11.228805786132812,-0.8396946564885496,0.6030534351145038,-1.282442748091603
3828529027496,2.461447447,1,0.20231004028320312,1.7525556152343749,-11.173739147949219,-0.7938931297709924,0.5801526717557252,-1.3282442748091603
3828535698590,2.468118541,1,0.23702596435546874,1.7298106994628906,-11.182118853759764,-0.8015267175572519,0.6106870229007634,-1.2900763358778626
3828542362704,2.474782655,1,0.239420166015625,1.7357962036132812,-11.197681164550781,-0.7709923664122137,0.6106870229007634,-1.3435114503816794
3828549030985,2.481450936,1,0.21787235107421873,1.714248388671875,-11.195286962890624,-0.8091603053435115,0.5648854961832062,-1.3435114503816794
3828555698069,2.48811802,1,0.19632453613281248,1.7202338928222656,-11.209652172851563,-0.8473282442748091,0.5572519083969466,-1.3282442748091603
3828562365308,2.494785259,1,0.2214636535644531,1.7178396911621092,-11.190498559570312,-0.8396946564885496,0.6106870229007634,-1.3893129770992367
3828569030256,2.501450207,1,0.20350714111328125,1.7298106994628906,-11.167753643798827,-0.7862595419847328,0.549618320610687,-1.3893129770992367
3828575695048,2.508114999,1,0.20231004028320312,1.7334020019531249,-11.177330450439452,-0.8091603053435115,0.5267175572519084,-1.3435114503816794
3828582364267,2.514784218,1,0.20829554443359374,1.7417817077636717,-11.183315954589844,-0.8473282442748091,0.5954198473282443,-1.3435114503816794
3828589031246,2.521451197,1,0.2214636535644531,1.7226280944824217,-11.190498559570312,-0.8244274809160306,0.5267175572519084,-1.3053435114503817
3828595696350,2.528116301,1,0.21906945190429686,1.7082628845214842,-11.225214483642578,-0.9007633587786259,0.6183206106870229,-1.3511450381679388
3828602364058,2.534784009,1,0.2166752502441406,1.7226280944824217,-11.220426080322264,-0.8473282442748091,0.5801526717557252,-1.3511450381679388
3828609030308,2.541450259,1,0.22266075439453123,1.7190367919921874,-11.252747802734374,-0.8320610687022901,0.5801526717557252,-1.3740458015267176
3828615697131,2.548117082,1,0.22266075439453123,1.7118541870117185,-11.219228979492186,-0.9236641221374046,0.5801526717557252,-1.3358778625954197
3828622364787,2.554784738,1,0.24301146850585936,1.7118541870117185,-11.196484063720703,-0.8244274809160306,0.5801526717557252,-1.282442748091603
3828629029683,2.561449634,1,0.24660277099609373,1.7310078002929687,-11.196484063720703,-0.8854961832061069,0.5419847328244275,-1.297709923664122
3828635697287,2.568117238,1,0.22505495605468748,1.7238251953125,-11.202469567871093,-0.8854961832061069,0.6412213740458015,-1.3282442748091603
3828642364162,2.574784113,1,0.21428104858398436,1.7549498168945312,-11.168950744628905,-0.9389312977099237,0.6412213740458015,-1.3129770992366412
3828649030256,2.581450207,1,0.2059013427734375,1.7214309936523438,-11.197681164550781,-0.8702290076335878,0.648854961832061,-1.3129770992366412
3828655697965,2.588117916,1,0.2454056701660156,1.7274164978027342,-11.168950744628905,-0.8396946564885496,0.6183206106870229,-1.3282442748091603
3828662363485,2.594783436,1,0.24301146850585936,1.7298106994628906,-11.18571015625,-0.9007633587786259,0.6030534351145038,-1.3435114503816794
3828669030360,2.601450311,1,0.229843359375,1.7322049011230467,-11.213243475341796,-0.8396946564885496,0.6030534351145038,-1.3511450381679388
3828675696246,2.608116197,1,0.2346317626953125,1.7238251953125,-11.180921752929686,-0.816793893129771,0.5725190839694656,-1.3282442748091603
3828682364683,2.614784634,1,0.22864625854492185,1.7334020019531249,-11.189301458740234,-0.8473282442748091,0.6106870229007634,-1.381679389312977
3828689030152,2.621450103,1,0.2166752502441406,1.7094599853515624,-11.177330450439452,-0.8015267175572519,0.6183206106870229,-1.3587786259541985
3828695697496,2.628117447,1,0.23343466186523437,1.7393875061035156,-11.170147845458983,-0.8320610687022901,0.6259541984732825,-1.381679389312977
3828702364058,2.634784009,1,0.22505495605468748,1.7393875061035156,-11.16057103881836,-0.816793893129771,0.6183206106870229,-1.2671755725190839
3828709030048,2.641449999,1,0.24061726684570311,1.7178396911621092,-11.177330450439452,-0.7480916030534351,0.5572519083969466,-1.3129770992366412
3828715697131,2.648117082,1,0.21906945190429686,1.7453730102539062,-11.190498559570312,-0.8091603053435115,0.5725190839694656,-1.3206106870229009
3828722365933,2.654785884,1,0.24660277099609373,1.7334020019531249,-11.184513055419922,-0.8320610687022901,0.5801526717557252,-1.3282442748091603
3828729029944,2.661449895,1,0.23702596435546874,1.7489643127441405,-11.184513055419922,-0.8091603053435115,0.549618320610687,-1.3129770992366412
3828735697079,2.66811703,1,0.22744915771484372,1.725022296142578,-11.206060870361327,-0.9389312977099237,0.5801526717557252,-1.2900763358778626
3828742364006,2.674783957,1,0.22744915771484372,1.7657237243652342,-11.179724652099608,-0.8473282442748091,0.6030534351145038,-1.3053435114503817
3828749030777,2.681450728,1,0.229843359375,1.7573440185546874,-11.18571015625,-0.8244274809160306,0.5343511450381679,-1.2595419847328244
3828755696610,2.688116561,1,0.22026655273437498,1.7417817077636717,-11.186907257080078,-0.816793893129771,0.549618320610687,-1.3282442748091603
3828762363954,2.694783905,1,0.22026655273437498,1.7190367919921874,-11.170147845458983,-0.8778625954198473,0.6106870229007634,-1.3206106870229009
3828769030517,2.701450468,1,0.21308394775390624,1.7190367919921874,-11.170147845458983,-0.7786259541984732,0.5267175572519084,-1.3129770992366412
3828775697444,2.708117395,1,0.2059013427734375,1.7226280944824217,-11.209652172851563,-0.7786259541984732,0.549618320610687,-1.297709923664122
3828782366194,2.714786145,1,0.23104046020507812,1.7405846069335937,-11.201272467041015,-0.8473282442748091,0.549618320610687,-1.3282442748091603
3828789031298,2.721451249,1,0.21906945190429686,1.7202338928222656,-11.220426080322264,-0.8396946564885496,0.5877862595419847,-1.3282442748091603
3828795696454,2.728116405,1,0.21787235107421873,1.7178396911621092,-11.23000288696289,-0.8015267175572519,0.549618320610687,-1.3587786259541985
3828802366975,2.734786926,1,0.18435352783203124,1.7334020019531249,-11.190498559570312,-0.8778625954198473,0.5725190839694656,-1.2900763358778626
3828809030933,2.741450884,1,0.20949264526367187,1.7429788085937499,-11.194089862060546,-0.8091603053435115,0.5954198473282443,-1.282442748091603
3828815696558,2.748116509,1,0.2537853759765625,1.7405846069335937,-11.182118853759764,-0.8015267175572519,0.5419847328244275,-1.3435114503816794
3828822363433,2.754783384,1,0.20350714111328125,1.734599102783203,-11.170147845458983,-0.8854961832061069,0.5648854961832062,-1.3053435114503817
3828829030829,2.76145078,1,0.2657563842773437,1.734599102783203,-11.179724652099608,-0.8625954198473282,0.5648854961832062,-1.3435114503816794
3828835696662,2.768116613,1,0.21068974609375,1.6938976745605467,-11.196484063720703,-0.8549618320610687,0.6183206106870229,-1.297709923664122
3828842365152,2.774785103,1,0.2154781494140625,1.734599102783203,-11.165359442138671,-0.8473282442748091,0.6030534351145038,-1.2900763358778626
3828849030152,2.781450103,1,0.239420166015625,1.7501614135742187,-11.16057103881836,-0.816793893129771,0.5648854961832062,-1.282442748091603
3828855697079,2.78811703,1,0.23582886352539062,1.7357962036132812,-11.156979736328124,-0.8091603053435115,0.5801526717557252,-1.3129770992366412
3828862363746,2.794783697,1,0.22864625854492185,1.725022296142578,-11.17852755126953,-0.8320610687022901,0.6106870229007634,-1.3129770992366412
3828869030412,2.801450363,1,0.23702596435546874,1.7202338928222656,-11.166556542968749,-0.8244274809160306,0.5954198473282443,-1.2900763358778626
3828875697756,2.808117707,1,0.2166752502441406,1.7334020019531249,-11.18571015625,-0.7709923664122137,0.5114503816793893,-1.3129770992366412
3828882372652,2.814792603,1,0.21787235107421873,1.7381904052734374,-11.183315954589844,-0.8015267175572519,0.6564885496183206,-1.3053435114503817
3828889030881,2.821450832,1,0.229843359375,1.734599102783203,-11.206060870361327,-0.7862595419847328,0.5572519083969466,-1.366412213740458
3828895698746,2.828118697,1,0.2346317626953125,1.7190367919921874,-11.182118853759764,-0.7786259541984732,0.5954198473282443,-1.3511450381679388
3828902365569,2.83478552,1,0.2346317626953125,1.734599102783203,-11.219228979492186,-0.8396946564885496,0.5954198473282443,-1.3435114503816794
3828909031194,2.841451145,1,0.2262520568847656,1.734599102783203,-11.221623181152344,-0.7862595419847328,0.5343511450381679,-1.3129770992366412
3828915696714,2.848116665,1,0.2059013427734375,1.7238251953125,-11.221623181152344,-0.7557251908396947,0.5343511450381679,-1.3129770992366412
3828922364944,2.854784895,1,0.21308394775390624,1.7310078002929687,-11.183315954589844,-0.7557251908396947,0.6183206106870229,-1.3129770992366412
3828929030360,2.861450311,1,0.22505495605468748,1.7393875061035156,-11.235988391113281,-0.8091603053435115,0.6183206106870229,-1.3282442748091603
3828935697027,2.868116978,1,0.23343466186523437,1.744175909423828,-11.200075366210937,-0.8015267175572519,0.549618320610687,-1.3282442748091603
3828942364527,2.874784478,1,0.22864625854492185,1.734599102783203,-11.204863769531249,-0.7938931297709924,0.5038167938931297,-1.3358778625954197
3828949029839,2.88144979,1,0.21906945190429686,1.7381904052734374,-11.184513055419922,-0.8320610687022901,0.5801526717557252,-1.3435114503816794
3828955697079,2.88811703,1,0.2214636535644531,1.753752716064453,-11.186907257080078,-0.7709923664122137,0.5801526717557252,-1.3282442748091603
3828962364527,2.894784478,1,0.20231004028320312,1.7178396911621092,-11.173739147949219,-0.8625954198473282,0.5801526717557252,-1.3129770992366412
3828969030725,2.901450676,1,0.2262520568847656,1.7489643127441405,-11.156979736328124,-0.8473282442748091,0.6183206106870229,-1.3511450381679388
3828975695985,2.908115936,1,0.23343466186523437,1.7274164978027342,-11.188104357910156,-0.816793893129771,0.4961832061068702,-1.3129770992366412
3828982364891,2.914784842,1,0.2262520568847656,1.7657237243652342,-11.16057103881836,-0.8396946564885496,0.6106870229007634,-1.3053435114503817
3828989029891,2.921449842,1,0.2262520568847656,1.7549498168945312,-11.165359442138671,-0.8320610687022901,0.5725190839694656,-1.297709923664122
3828995696662,2.928116613,1,0.22266075439453123,1.7286135986328124,-11.152191333007812,-0.7404580152671756,0.5572519083969466,-1.3435114503816794
3829002364891,2.934784842,1,0.21906945190429686,1.7214309936523438,-11.158176837158203,-0.8396946564885496,0.5725190839694656,-1.297709923664122
3829009029787,2.941449738,1,0.23343466186523437,1.7166425903320313,-11.200075366210937,-0.8549618320610687,0.5648854961832062,-1.2595419847328244
3829015697756,2.948117707,1,0.24181436767578124,1.7094599853515624,-11.170147845458983,-0.8473282442748091,0.5954198473282443,-1.3511450381679388
3829022364579,2.95478453,1,0.20231004028320312,1.7334020019531249,-11.183315954589844,-0.8702290076335878,0.6030534351145038,-1.3206106870229009
3829029031558,2.961451509,1,0.22026655273437498,1.734599102783203,-11.182118853759764,-0.8702290076335878,0.6564885496183206,-1.3206106870229009
3829035697600,2.968117551,1,0.2214636535644531,1.7369933044433592,-11.176133349609374,-0.8702290076335878,0.6183206106870229,-1.282442748091603
3829042363537,2.974783488,1,0.22864625854492185,1.7381904052734374,-11.220426080322264,-0.916030534351145,0.5954198473282443,-1.3053435114503817
3829049030829,2.98145078,1,0.22864625854492185,1.7381904052734374,-11.227608685302734,-0.8473282442748091,0.6335877862595419,-1.282442748091603
3829055695621,2.988115572,1,0.2454056701660156,1.725022296142578,-11.227608685302734,-0.816793893129771,0.5114503816793893,-1.3206106870229009
3829062365204,2.994785155,1,0.22864625854492185,1.7298106994628906,-11.174936248779296,-0.816793893129771,0.5877862595419847,-1.3435114503816794
3829069031194,3.001451145,1,0.2262520568847656,1.7226280944824217,-11.19169566040039,-0.8625954198473282,0.5877862595419847,-1.3587786259541985
3829075696819,3.00811677,1,0.22026655273437498,1.734599102783203,-11.2240173828125,-0.7633587786259542,0.5343511450381679,-1.3587786259541985
3829082364475,3.014784426,1,0.2454056701660156,1.7190367919921874,-11.195286962890624,-0.7633587786259542,0.5419847328244275,-1.297709923664122
3829089030048,3.021449999,1,0.24660277099609373,1.7369933044433592,-11.177330450439452,-0.8396946564885496,0.5954198473282443,-1.2748091603053435
3829095696819,3.02811677,1,0.26216508178710934,1.7238251953125,-11.206060870361327,-0.8549618320610687,0.6183206106870229,-1.3206106870229009
3829102364319,3.03478427,1,0.24181436767578124,1.7202338928222656,-11.186907257080078,-0.8320610687022901,0.648854961832061,-1.3587786259541985
3829109029735,3.041449686,1,0.22864625854492185,1.7166425903320313,-11.192892761230468,-0.8778625954198473,0.5801526717557252,-1.3435114503816794
3829115696662,3.048116613,1,0.23702596435546874,1.7525556152343749,-11.189301458740234,-0.8625954198473282,0.5038167938931297,-1.3435114503816794
3829122365048,3.054784999,1,0.23104046020507812,1.7262193969726563,-11.194089862060546,-0.8091603053435115,0.5267175572519084,-1.3282442748091603
3829129031558,3.061451509,1,0.2454056701660156,1.734599102783203,-11.189301458740234,-0.8396946564885496,0.5877862595419847,-1.2900763358778626
3829135697548,3.068117499,1,0.21787235107421873,1.7286135986328124,-11.197681164550781,-0.8091603053435115,0.5572519083969466,-1.3358778625954197
3829142365673,3.074785624,1,0.24899697265624998,1.7094599853515624,-11.189301458740234,-0.7938931297709924,0.5648854961832062,-1.3358778625954197
3829149030829,3.08145078,1,0.23822306518554687,1.7357962036132812,-11.204863769531249,-0.8091603053435115,0.5877862595419847,-1.3206106870229009
3829155696923,3.088116874,1,0.2442085693359375,1.725022296142578,-11.176133349609374,-0.816793893129771,0.5801526717557252,-1.3282442748091603
3829162364891,3.094784842,1,0.22026655273437498,1.7274164978027342,-11.219228979492186,-0.8320610687022901,0.5801526717557252,-1.3206106870229009
3829169030412,3.101450363,1,0.21787235107421873,1.7357962036132812,-11.194089862060546,-0.8396946564885496,0.5954198473282443,-1.3206106870229009
3829175697027,3.108116978,1,0.21428104858398436,1.7190367919921874,-11.196484063720703,-0.8091603053435115,0.5725190839694656,-1.297709923664122
3829182364527,3.114784478,1,0.21308394775390624,1.7310078002929687,-11.166556542968749,-0.8244274809160306,0.5572519083969466,-1.2900763358778626
3829189030725,3.121450676,1,0.21308394775390624,1.7405846069335937,-11.219228979492186,-0.8778625954198473,0.5419847328244275,-1.2900763358778626
3829195697548,3.128117499,1,0.23702596435546874,1.7405846069335937,-11.200075366210937,-0.8320610687022901,0.5343511450381679,-1.2748091603053435
3829202363902,3.134783853,1,0.22385785522460935,1.7274164978027342,-11.200075366210937,-0.7938931297709924,0.5954198473282443,-1.2900763358778626
3829209029943,3.141449894,1,0.20949264526367187,1.715445489501953,-11.207257971191405,-0.7938931297709924,0.6335877862595419,-1.3053435114503817
3829215697548,3.148117499,1,0.21428104858398436,1.734599102783203,-11.200075366210937,-0.8473282442748091,0.6335877862595419,-1.3358778625954197
3829222363589,3.15478354,1,0.25258827514648435,1.7262193969726563,-11.244368096923827,-0.8320610687022901,0.5038167938931297,-1.3358778625954197
3829229031037,3.161450988,1,0.23104046020507812,1.7381904052734374,-11.200075366210937,-0.8320610687022901,0.5190839694656488,-1.297709923664122
3829235698277,3.168118228,1,0.2059013427734375,1.7190367919921874,-11.194089862060546,-0.8625954198473282,0.5190839694656488,-1.3358778625954197
3829242363902,3.174783853,1,0.24181436767578124,1.7322049011230467,-11.17254204711914,-0.8091603053435115,0.5267175572519084,-1.3358778625954197
3829249029371,3.181449322,1,0.21308394775390624,1.7190367919921874,-11.184513055419922,-0.8625954198473282,0.5419847328244275,-1.3282442748091603
3829255703381,3.188123332,1,0.21787235107421873,1.7274164978027342,-11.201272467041015,-0.8473282442748091,0.5343511450381679,-1.3358778625954197
3829262365621,3.194785572,1,0.2346317626953125,1.7310078002929687,-11.200075366210937,-0.7557251908396947,0.48854961832061067,-1.3511450381679388
3829269030985,3.201450936,1,0.22864625854492185,1.7202338928222656,-11.18571015625,-0.7862595419847328,0.5114503816793893,-1.3206106870229009
3829275691298,3.208111249,1,0.21188684692382811,1.7214309936523438,-11.17254204711914,-0.8320610687022901,0.5572519083969466,-1.2748091603053435
3829282366923,3.214786874,1,0.22026655273437498,1.7106570861816406,-11.161768139648437,-0.8396946564885496,0.549618320610687,-1.366412213740458
3829289031141,3.221451092,1,0.2501940734863281,1.7609353210449217,-11.182118853759764,-0.8625954198473282,0.5572519083969466,-1.3740458015267176
3829295697027,3.228116978,1,0.19033903198242186,1.7298106994628906,-11.165359442138671,-0.8244274809160306,0.6335877862595419,-1.3358778625954197
3829302363902,3.234783853,1,0.2262520568847656,1.7322049011230467,-11.190498559570312,-0.8320610687022901,0.5801526717557252,-1.3358778625954197
3829309028329,3.24144828,1,0.23343466186523437,1.7214309936523438,-11.17852755126953,-0.8702290076335878,0.5572519083969466,-1.3435114503816794
3829315698798,3.248118749,1,0.23702596435546874,1.7393875061035156,-11.18571015625,-0.8778625954198473,0.5954198473282443,-1.366412213740458
3829322363798,3.254783749,1,0.2166752502441406,1.7262193969726563,-11.19887826538086,-0.8473282442748091,0.5267175572519084,-1.3053435114503817
3829329030464,3.261450415,1,0.21308394775390624,1.7130512878417967,-11.168950744628905,-0.9236641221374046,0.549618320610687,-1.251908396946565
3829335697183,3.268117134,1,0.21308394775390624,1.7310078002929687,-11.174936248779296,-0.8473282442748091,0.5954198473282443,-1.3053435114503817
3829342363954,3.274783905,1,0.2059013427734375,1.7310078002929687,-11.174936248779296,-0.7709923664122137,0.6106870229007634,-1.3358778625954197
3829349029943,3.281449894,1,0.22385785522460935,1.753752716064453,-11.173739147949219,-0.7709923664122137,0.5572519083969466,-1.381679389312977
3829355697131,3.288117082,1,0.21787235107421873,1.734599102783203,-11.166556542968749,-0.8625954198473282,0.5572519083969466,-1.3206106870229009
3829362364058,3.294784009,1,0.24061726684570311,1.7322049011230467,-11.222820281982422,-0.8091603053435115,0.6259541984732825,-1.3206106870229009
3829369030308,3.301450259,1,0.21906945190429686,1.7322049011230467,-11.139023223876952,-0.816793893129771,0.5725190839694656,-1.3282442748091603
3829375696975,3.308116926,1,0.22864625854492185,1.7094599853515624,-11.204863769531249,-0.8625954198473282,0.6335877862595419,-1.297709923664122
3829382364370,3.314784321,1,0.2154781494140625,1.7453730102539062,-11.194089862060546,-0.8396946564885496,0.6412213740458015,-1.3435114503816794
3829389031558,3.321451509,1,0.21787235107421873,1.7381904052734374,-11.23000288696289,-0.7862595419847328,0.549618320610687,-1.381679389312977
3829395696037,3.328115988,1,0.23702596435546874,1.7417817077636717,-11.188104357910156,-0.8778625954198473,0.5725190839694656,-1.3282442748091603
3829402363902,3.334783853,1,0.20949264526367187,1.7286135986328124,-11.234791290283203,-0.7938931297709924,0.549618320610687,-1.3206106870229009
3829409030777,3.341450728,1,0.22864625854492185,1.7106570861816406,-11.204863769531249,-0.8320610687022901,0.5190839694656488,-1.3206106870229009
3829415697287,3.348117238,1,0.22266075439453123,1.744175909423828,-11.141417425537108,-0.8778625954198473,0.5954198473282443,-1.297709923664122
3829422363902,3.354783853,1,0.20709844360351562,1.7549498168945312,-11.179724652099608,-0.8244274809160306,0.5725190839694656,-1.282442748091603
3829429030464,3.361450415,1,0.239420166015625,1.7501614135742187,-11.192892761230468,-0.8549618320610687,0.5572519083969466,-1.2900763358778626
3829435696610,3.368116561,1,0.22385785522460935,1.7465701110839842,-11.156979736328124,-0.9083969465648855,0.6106870229007634,-1.3511450381679388
3829442364683,3.374784634,1,0.20709844360351562,1.7417817077636717,-11.225214483642578,-0.8320610687022901,0.5877862595419847,-1.3282442748091603
3829449030412,3.381450363,1,0.20709844360351562,1.7286135986328124,-11.202469567871093,-0.8549618320610687,0.5190839694656488,-1.2748091603053435
3829455696714,3.388116665,1,0.21308394775390624,1.7190367919921874,-11.215637677001952,-0.8549618320610687,0.5038167938931297,-1.297709923664122
3829462364423,3.394784374,1,0.21188684692382811,1.7094599853515624,-11.167753643798827,-0.8244274809160306,0.5267175572519084,-1.3358778625954197
3829469031298,3.401451249,1,0.2262520568847656,1.7286135986328124,-11.161768139648437,-0.8778625954198473,0.5572519083969466,-1.2595419847328244
3829475697443,3.408117394,1,0.2262520568847656,1.7393875061035156,-11.206060870361327,-0.8396946564885496,0.6030534351145038,-1.3129770992366412
3829482363641,3.414783592,1,0.2609679809570312,1.7393875061035156,-11.21683477783203,-0.7862595419847328,0.549618320610687,-1.3129770992366412
3829489030048,3.421449999,1,0.258573779296875,1.70467158203125,-11.21683477783203,-0.8473282442748091,0.5725190839694656,-1.3129770992366412
3829495697860,3.428117811,1,0.24061726684570311,1.7322049011230467,-11.233594189453123,-0.8473282442748091,0.6259541984732825,-1.3435114503816794
3829502364943,3.434784894,1,0.23822306518554687,1.7274164978027342,-11.203666668701171,-0.8931297709923665,0.6259541984732825,-1.3282442748091603
3829509030152,3.441450103,1,0.22266075439453123,1.7357962036132812,-11.188104357910156,-0.8625954198473282,0.5038167938931297,-1.3282442748091603
3829515698016,3.448117967,1,0.2154781494140625,1.7106570861816406,-11.180921752929686,-0.8396946564885496,0.6106870229007634,-1.3282442748091603
3829522361141,3.454781092,1,0.239420166015625,1.7190367919921874,-11.192892761230468,-0.8244274809160306,0.6183206106870229,-1.3435114503816794
3829529190725,3.461610676,1,0.21428104858398436,1.7262193969726563,-11.189301458740234,-0.7709923664122137,0.5725190839694656,-1.3129770992366412
3829535700516,3.468120467,1,0.19871873779296872,1.7274164978027342,-11.195286962890624,-0.8473282442748091,0.6030534351145038,-1.282442748091603
3829542364423,3.474784374,1,0.2346317626953125,1.7465701110839842,-11.194089862060546,-0.9083969465648855,0.5801526717557252,-1.3358778625954197
3829549030412,3.481450363,1,0.21188684692382811,1.725022296142578,-11.209652172851563,-0.8320610687022901,0.5725190839694656,-1.3282442748091603
3829555696402,3.488116353,1,0.2346317626953125,1.715445489501953,-11.182118853759764,-0.9236641221374046,0.6030534351145038,-1.282442748091603
3829562363902,3.494783853,1,0.20829554443359374,1.7310078002929687,-11.180921752929686,-0.8320610687022901,0.5419847328244275,-1.3206106870229009
3829569032027,3.501451978,1,0.18914193115234373,1.7298106994628906,-11.18571015625,-0.8091603053435115,0.5343511450381679,-1.3129770992366412
3829575696454,3.508116405,1,0.20709844360351562,1.7238251953125,-11.17852755126953,-0.8549618320610687,0.5801526717557252,-1.3206106870229009
3829582364162,3.514784113,1,0.22385785522460935,1.7298106994628906,-11.149797131347656,-0.8396946564885496,0.5877862595419847,-1.3435114503816794
3829589030672,3.521450623,1,0.2442085693359375,1.6938976745605467,-11.19169566040039,-0.7862595419847328,0.5877862595419847,-1.282442748091603
3829595697652,3.528117603,1,0.24779987182617186,1.744175909423828,-11.239579693603515,-0.8854961832061069,0.6106870229007634,-1.3206106870229009
3829602366454,3.534786405,1,0.22266075439453123,1.7393875061035156,-11.250353601074218,-0.8473282442748091,0.5725190839694656,-1.3358778625954197
3829609101245,3.541521196,1,0.20709844360351562,1.7286135986328124,-11.207257971191405,-0.816793893129771,0.5572519083969466,-1.3129770992366412
3829615714527,3.548134478,1,0.2166752502441406,1.7190367919921874,-11.208455072021483,-0.8625954198473282,0.5801526717557252,-1.2748091603053435
3829622377600,3.554797551,1,0.2166752502441406,1.7286135986328124,-11.243170996093749,-0.8625954198473282,0.5877862595419847,-1.251908396946565
3829629052131,3.561472082,1,0.22026655273437498,1.7286135986328124,-11.207257971191405,-0.8549618320610687,0.5648854961832062,-1.282442748091603
3829635715308,3.568135259,1,0.25737667846679685,1.7334020019531249,-11.207257971191405,-0.9465648854961832,0.6106870229007634,-1.3129770992366412
3829642379683,3.574799634,1,0.21188684692382811,1.7525556152343749,-11.197681164550781,-0.8625954198473282,0.5877862595419847,-1.297709923664122
3829649044787,3.581464738,1,0.20350714111328125,1.7178396911621092,-11.171344946289063,-0.8625954198473282,0.5190839694656488,-1.297709923664122
3829655711245,3.588131196,1,0.22026655273437498,1.7453730102539062,-11.158176837158203,-0.8931297709923665,0.5190839694656488,-1.2900763358778626
3829662377652,3.594797603,1,0.2262520568847656,1.7262193969726563,-11.186907257080078,-0.8854961832061069,0.549618320610687,-1.2900763358778626
3829669044787,3.601464738,1,0.22864625854492185,1.7465701110839842,-11.190498559570312,-0.816793893129771,0.5343511450381679,-1.2900763358778626
3829675710881,3.608130832,1,0.2549824768066406,1.7381904052734374,-11.177330450439452,-0.8244274809160306,0.549618320610687,-1.2900763358778626
3829682378329,3.61479828,1,0.2214636535644531,1.7202338928222656,-11.177330450439452,-0.8625954198473282,0.5877862595419847,-1.3206106870229009
3829689044787,3.621464738,1,0.20231004028320312,1.7477672119140624,-11.21683477783203,-0.8244274809160306,0.6335877862595419,-1.381679389312977
3829695710464,3.628130415,1,0.22026655273437498,1.734599102783203,-11.176133349609374,-0.8702290076335878,0.5648854961832062,-1.3282442748091603
3829702376402,3.634796353,1,0.21906945190429686,1.7489643127441405,-11.212046374511718,-0.8320610687022901,0.5114503816793893,-1.3587786259541985
3829709086245,3.641506196,1,0.23223756103515625,1.734599102783203,-11.203666668701171,-0.8549618320610687,0.5648854961832062,-1.366412213740458
3829715712756,3.648132707,1,0.21787235107421873,1.7022773803710936,-11.251550701904296,-0.8473282442748091,0.5419847328244275,-1.3282442748091603
3829722376922,3.654796873,1,0.229843359375,1.7298106994628906,-11.196484063720703,-0.8320610687022901,0.5267175572519084,-1.3053435114503817
3829729051558,3.661471509,1,0.2346317626953125,1.7417817077636717,-11.189301458740234,-0.8091603053435115,0.5419847328244275,-1.3358778625954197
3829735713225,3.668133176,1,0.2561795776367187,1.7334020019531249,-11.195286962890624,-0.8702290076335878,0.5648854961832062,-1.3435114503816794
3829742380412,3.674800363,1,0.2262520568847656,1.725022296142578,-11.196484063720703,-0.8091603053435115,0.6335877862595419,-1.3511450381679388
3829749043693,3.681463644,1,0.2166752502441406,1.7453730102539062,-11.189301458740234,-0.7404580152671756,0.5954198473282443,-1.3358778625954197
3829755710360,3.688130311,1,0.23822306518554687,1.7381904052734374,-11.207257971191405,-0.8244274809160306,0.5877862595419847,-1.3511450381679388
3829762377652,3.694797603,1,0.23822306518554687,1.7429788085937499,-11.214440576171874,-0.816793893129771,0.6106870229007634,-1.3511450381679388
3829769042652,3.701462603,1,0.24181436767578124,1.7369933044433592,-11.18571015625,-0.7557251908396947,0.5343511450381679,-1.2671755725190839
3829775710985,3.708130936,1,0.20949264526367187,1.7369933044433592,-11.161768139648437,-0.7938931297709924,0.5572519083969466,-1.3206106870229009
3829782377131,3.714797082,1,0.2166752502441406,1.7322049011230467,-11.161768139648437,-0.8244274809160306,0.5648854961832062,-1.3587786259541985
3829789044110,3.721464061,1,0.19153613281249998,1.734599102783203,-11.167753643798827,-0.8244274809160306,0.5801526717557252,-1.3206106870229009
3829795710777,3.728130728,1,0.20350714111328125,1.734599102783203,-11.212046374511718,-0.8091603053435115,0.6030534351145038,-1.3282442748091603
3829802379214,3.734799165,1,0.23223756103515625,1.7094599853515624,-11.222820281982422,-0.8778625954198473,0.6030534351145038,-1.3893129770992367
3829809085047,3.741504998,1,0.2214636535644531,1.744175909423828,-11.184513055419922,-0.8244274809160306,0.5648854961832062,-1.3893129770992367
3829815712704,3.748132655,1,0.23582886352539062,1.714248388671875,-11.195286962890624,-0.7938931297709924,0.5648854961832062,-1.3206106870229009
3829822375672,3.754795623,1,0.23223756103515625,1.7286135986328124,-11.226411584472656,-0.8396946564885496,0.6564885496183206,-1.297709923664122
3829829046506,3.761466457,1,0.2346317626953125,1.7417817077636717,-11.226411584472656,-0.816793893129771,0.5725190839694656,-1.3129770992366412
3829835712287,3.768132238,1,0.24660277099609373,1.725022296142578,-11.221623181152344,-0.8015267175572519,0.5190839694656488,-1.3282442748091603
3829842377860,3.774797811,1,0.2346317626953125,1.7274164978027342,-11.188104357910156,-0.9007633587786259,0.5877862595419847,-1.282442748091603
3829849044006,3.781463957,1,0.23343466186523437,1.725022296142578,-11.225214483642578,-0.8320610687022901,0.5801526717557252,-1.3358778625954197
3829855712964,3.788132915,1,0.22864625854492185,1.7130512878417967,-11.200075366210937,-0.816793893129771,0.5419847328244275,-1.3587786259541985
3829862379110,3.794799061,1,0.23582886352539062,1.7310078002929687,-11.189301458740234,-0.8702290076335878,0.5954198473282443,-1.3053435114503817
3829869045568,3.801465519,1,0.22744915771484372,1.725022296142578,-11.161768139648437,-0.8320610687022901,0.5954198473282443,-1.3282442748091603
3829875711610,3.808131561,1,0.21787235107421873,1.7190367919921874,-11.177330450439452,-0.8015267175572519,0.5954198473282443,-1.3206106870229009
3829882378537,3.814798488,1,0.20350714111328125,1.7274164978027342,-11.207257971191405,-0.8854961832061069,0.5954198473282443,-1.3129770992366412
3829889043641,3.821463592,1,0.2442085693359375,1.7322049011230467,-11.219228979492186,-0.8091603053435115,0.5419847328244275,-1.3282442748091603
3829895711974,3.828131925,1,0.22026655273437498,1.7369933044433592,-11.170147845458983,-0.7786259541984732,0.549618320610687,-1.297709923664122
3829902379735,3.834799686,1,0.23343466186523437,1.7262193969726563,-11.227608685302734,-0.8702290076335878,0.549618320610687,-1.3358778625954197
3829909080672,3.841500623,1,0.23343466186523437,1.7381904052734374,-11.192892761230468,-0.7786259541984732,0.5190839694656488,-1.3358778625954197
3829915712183,3.848132134,1,0.23822306518554687,1.7381904052734374,-11.184513055419922,-0.7938931297709924,0.5572519083969466,-1.3511450381679388
3829922378485,3.854798436,1,0.21428104858398436,1.7214309936523438,-11.184513055419922,-0.8625954198473282,0.6335877862595419,-1.366412213740458
3829929044943,3.861464894,1,0.22385785522460935,1.7322049011230467,-11.207257971191405,-0.7709923664122137,0.5725190839694656,-1.3511450381679388
3829935713172,3.868133123,1,0.23343466186523437,1.725022296142578,-11.188104357910156,-0.7709923664122137,0.5801526717557252,-1.3129770992366412
3829942377756,3.874797707,1,0.23822306518554687,1.7310078002929687,-11.150994232177734,-0.8244274809160306,0.5801526717557252,-1.3587786259541985
3829949044631,3.881464582,1,0.20829554443359374,1.7178396911621092,-11.174936248779296,-0.7786259541984732,0.5954198473282443,-1.3587786259541985
3829955710881,3.888130832,1,0.21308394775390624,1.734599102783203,-11.196484063720703,-0.816793893129771,0.5419847328244275,-1.3587786259541985
3829962378589,3.89479854,1,0.24899697265624998,1.7238251953125,-11.212046374511718,-0.8091603053435115,0.5725190839694656,-1.3206106870229009
3829969045360,3.901465311,1,0.23582886352539062,1.714248388671875,-11.173739147949219,-0.8473282442748091,0.5725190839694656,-1.366412213740458
3829975712391,3.908132342,1,0.20949264526367187,1.7178396911621092,-11.184513055419922,-0.7709923664122137,0.5954198473282443,-1.366412213740458
3829982378537,3.914798488,1,0.21906945190429686,1.7214309936523438,-11.195286962890624,-0.8778625954198473,0.6412213740458015,-1.3129770992366412
3829989044995,3.921464946,1,0.22266075439453123,1.7286135986328124,-11.162965240478515,-0.9007633587786259,0.6335877862595419,-1.3358778625954197
3829995711610,3.928131561,1,0.23104046020507812,1.715445489501953,-11.195286962890624,-0.816793893129771,0.5725190839694656,-1.366412213740458
3830002384839,3.93480479,1,0.21906945190429686,1.7190367919921874,-11.159373937988281,-0.8702290076335878,0.6717557251908397,-1.3511450381679388
3830009047183,3.941467134,1,0.2442085693359375,1.7453730102539062,-11.19169566040039,-0.8091603053435115,0.6412213740458015,-1.297709923664122
3830015709370,3.948129321,1,0.23822306518554687,1.7178396911621092,-11.190498559570312,-0.8396946564885496,0.5343511450381679,-1.3053435114503817
3830022375829,3.95479578,1,0.24660277099609373,1.7094599853515624,-11.209652172851563,-0.9236641221374046,0.5954198473282443,-1.282442748091603
3830029041974,3.961461925,1,0.229843359375,1.7369933044433592,-11.192892761230468,-0.8549618320610687,0.5725190839694656,-1.381679389312977
3830035711870,3.968131821,1,0.21787235107421873,1.7118541870117185,-11.221623181152344,-0.8396946564885496,0.6259541984732825,-1.3282442748091603
3830042377026,3.974796977,1,0.229843359375,1.7226280944824217,-11.196484063720703,-0.8854961832061069,0.6870229007633588,-1.282442748091603
3830049043901,3.981463852,1,0.229843359375,1.7369933044433592,-11.192892761230468,-0.8320610687022901,0.6030534351145038,-1.2748091603053435
3830055710568,3.988130519,1,0.22505495605468748,1.7453730102539062,-11.220426080322264,-0.7938931297709924,0.6183206106870229,-1.297709923664122
3830062379683,3.994799634,1,0.22385785522460935,1.7453730102539062,-11.19169566040039,-0.9083969465648855,0.6106870229007634,-1.3435114503816794
3830069043589,4.00146354,1,0.21068974609375,1.725022296142578,-11.19169566040039,-0.8015267175572519,0.6106870229007634,-1.3282442748091603
3830075710047,4.008129998,1,0.21787235107421873,1.725022296142578,-11.220426080322264,-0.8015267175572519,0.5801526717557252,-1.3358778625954197
3830082379735,4.014799686,1,0.20709844360351562,1.7298106994628906,-11.184513055419922,-0.7175572519083969,0.5648854961832062,-1.3129770992366412
3830089044891,4.021464842,1,0.19991583862304688,1.7513585144042967,-11.18571015625,-0.8549618320610687,0.5648854961832062,-1.366412213740458
3830095710204,4.028130155,1,0.23822306518554687,1.7274164978027342,-11.192892761230468,-0.8473282442748091,0.5877862595419847,-1.366412213740458
3830102378120,4.034798071,1,0.23104046020507812,1.715445489501953,-11.167753643798827,-0.7938931297709924,0.5114503816793893,-1.282442748091603
3830109044526,4.041464477,1,0.24181436767578124,1.7082628845214842,-11.196484063720703,-0.7786259541984732,0.6183206106870229,-1.282442748091603
3830115712339,4.04813229,1,0.22864625854492185,1.7298106994628906,-11.21084927368164,-0.7709923664122137,0.5648854961832062,-1.381679389312977
3830122379006,4.054798957,1,0.24181436767578124,1.7178396911621092,-11.196484063720703,-0.7557251908396947,0.5954198473282443,-1.2900763358778626
3830129049526,4.061469477,1,0.22026655273437498,1.7214309936523438,-11.158176837158203,-0.8473282442748091,0.6259541984732825,-1.3435114503816794
3830135712651,4.068132602,1,0.2262520568847656,1.7286135986328124,-11.19169566040039,-0.8396946564885496,0.6106870229007634,-1.3206106870229009
3830142377808,4.074797759,1,0.2549824768066406,1.7286135986328124,-11.202469567871093,-0.8778625954198473,0.48854961832061067,-1.282442748091603
3830149043016,4.081462967,1,0.25258827514648435,1.725022296142578,-11.168950744628905,-0.8854961832061069,0.549618320610687,-1.3129770992366412
3830155712026,4.088131977,1,0.2154781494140625,1.7118541870117185,-11.18571015625,-0.8015267175572519,0.5267175572519084,-1.3206106870229009
3830162375776,4.094795727,1,0.23223756103515625,1.7369933044433592,-11.176133349609374,-0.8625954198473282,0.5572519083969466,-1.3435114503816794
3830169043797,4.101463748,1,0.19871873779296872,1.744175909423828,-11.19887826538086,-0.8778625954198473,0.5725190839694656,-1.3435114503816794
3830175710412,4.108130363,1,0.22385785522460935,1.7525556152343749,-11.17852755126953,-0.8015267175572519,0.5419847328244275,-1.3358778625954197
3830182377339,4.11479729,1,0.21787235107421873,1.7286135986328124,-11.152191333007812,-0.8625954198473282,0.5801526717557252,-1.3206106870229009
3830189044474,4.121464425,1,0.22864625854492185,1.7202338928222656,-11.238382592773437,-0.8625954198473282,0.6106870229007634,-1.3129770992366412
3830195710047,4.128129998,1,0.22864625854492185,1.725022296142578,-11.167753643798827,-0.7938931297709924,0.48854961832061067,-1.2900763358778626
3830202376714,4.134796665,1,0.1975216369628906,1.725022296142578,-11.203666668701171,-0.8320610687022901,0.48854961832061067,-1.297709923664122
3830209044006,4.141463957,1,0.20709844360351562,1.7369933044433592,-11.203666668701171,-0.8778625954198473,0.5419847328244275,-1.282442748091603
3830215712703,4.148132654,1,0.22266075439453123,1.734599102783203,-11.189301458740234,-0.8244274809160306,0.48091603053435117,-1.3129770992366412
3830222377391,4.154797342,1,0.22505495605468748,1.7357962036132812,-11.21084927368164,-0.8244274809160306,0.5801526717557252,-1.3511450381679388
3830229044891,4.161464842,1,0.22266075439453123,1.7310078002929687,-11.190498559570312,-0.8091603053435115,0.5801526717557252,-1.3358778625954197
3830235710568,4.168130519,1,0.23223756103515625,1.7393875061035156,-11.228805786132812,-0.8473282442748091,0.5954198473282443,-1.3358778625954197
3830242376662,4.174796613,1,0.23223756103515625,1.7357962036132812,-11.182118853759764,-0.8931297709923665,0.5648854961832062,-1.3435114503816794
3830249044787,4.181464738,1,0.2346317626953125,1.7238251953125,-11.206060870361327,-0.916030534351145,0.6030534351145038,-1.3358778625954197
3830255710203,4.188130154,1,0.24181436767578124,1.7238251953125,-11.235988391113281,-0.8625954198473282,0.6030534351145038,-1.366412213740458
3830262376818,4.194796769,1,0.239420166015625,1.7034744812011717,-11.183315954589844,-0.8320610687022901,0.5572519083969466,-1.3587786259541985
3830269045620,4.201465571,1,0.229843359375,1.7214309936523438,-11.17254204711914,-0.8778625954198473,0.5572519083969466,-1.3893129770992367
3830275710985,4.208130936,1,0.20350714111328125,1.7274164978027342,-11.167753643798827,-0.8091603053435115,0.549618320610687,-1.3969465648854962
3830282379578,4.214799529,1,0.20231004028320312,1.7381904052734374,-11.214440576171874,-0.8320610687022901,0.5801526717557252,-1.381679389312977
3830289043745,4.221463696,1,0.22744915771484372,1.7549498168945312,-11.204863769531249,-0.816793893129771,0.5725190839694656,-1.3358778625954197
3830295710568,4.228130519,1,0.22385785522460935,1.725022296142578,-11.196484063720703,-0.8625954198473282,0.5725190839694656,-1.2900763358778626
3830302376818,4.234796769,1,0.2262520568847656,1.7034744812011717,-11.218031878662108,-0.8091603053435115,0.5572519083969466,-1.297709923664122
3830309045360,4.241465311,1,0.25139117431640623,1.725022296142578,-11.232397088623046,-0.816793893129771,0.6106870229007634,-1.2595419847328244
3830315712391,4.248132342,1,0.23104046020507812,1.7238251953125,-11.19887826538086,-0.8778625954198473,0.6106870229007634,-1.2748091603053435
3830322377131,4.254797082,1,0.20231004028320312,1.707065783691406,-11.21084927368164,-0.8015267175572519,0.5648854961832062,-1.3587786259541985
3830329044162,4.261464113,1,0.2154781494140625,1.725022296142578,-11.188104357910156,-0.816793893129771,0.6030534351145038,-1.3511450381679388
3830335709266,4.268129217,1,0.2154781494140625,1.7693150268554687,-11.196484063720703,-0.7404580152671756,0.5877862595419847,-1.2900763358778626
3830342379006,4.274798957,1,0.19393033447265623,1.7477672119140624,-11.17254204711914,-0.7862595419847328,0.5572519083969466,-1.3587786259541985
3830349044266,4.281464217,1,0.19512743530273435,1.7477672119140624,-11.058817468261719,-0.8091603053435115,0.5954198473282443,-1.297709923664122
3830355711193,4.288131144,1,0.22266075439453123,1.7130512878417967,-11.212046374511718,-0.8015267175572519,0.5114503816793893,-1.2595419847328244
3830362378485,4.294798436,1,0.22385785522460935,1.705868682861328,-11.215637677001952,-0.8015267175572519,0.5343511450381679,-1.2748091603053435
3830369044526,4.301464477,1,0.20829554443359374,1.7034744812011717,-11.17852755126953,-0.8091603053435115,0.5343511450381679,-1.3129770992366412
3830375711193,4.308131144,1,0.21428104858398436,1.7609353210449217,-11.213243475341796,-0.8320610687022901,0.5343511450381679,-1.3435114503816794
3830382377599,4.31479755,1,0.20949264526367187,1.734599102783203,-11.206060870361327,-0.8091603053435115,0.549618320610687,-1.3435114503816794
3830389043381,4.321463332,1,0.20829554443359374,1.734599102783203,-11.168950744628905,-0.8244274809160306,0.5954198473282443,-1.3053435114503817
3830395710881,4.328130832,1,0.2549824768066406,1.725022296142578,-11.21084927368164,-0.8091603053435115,0.6259541984732825,-1.3053435114503817
3830402379006,4.334798957,1,0.21428104858398436,1.7465701110839842,-11.194089862060546,-0.7480916030534351,0.5725190839694656,-1.282442748091603
3830409044578,4.341464529,1,0.2214636535644531,1.7118541870117185,-11.19169566040039,-0.8015267175572519,0.6030534351145038,-1.2748091603053435
3830415713433,4.348133384,1,0.22026655273437498,1.7214309936523438,-11.213243475341796,-0.7786259541984732,0.6183206106870229,-1.2748091603053435
3830422377391,4.354797342,1,0.24779987182617186,1.734599102783203,-11.190498559570312,-0.8091603053435115,0.5572519083969466,-1.3129770992366412
3830429044110,4.361464061,1,0.22864625854492185,1.7034744812011717,-11.220426080322264,-0.8396946564885496,0.6030534351145038,-1.3282442748091603
3830435710412,4.368130363,1,0.21906945190429686,1.7334020019531249,-11.208455072021483,-0.9007633587786259,0.6106870229007634,-1.3129770992366412
3830442379058,4.374799009,1,0.22744915771484372,1.7238251953125,-11.17254204711914,-0.7633587786259542,0.5954198473282443,-1.3053435114503817
3830449043433,4.381463384,1,0.22505495605468748,1.7214309936523438,-11.19887826538086,-0.816793893129771,0.5725190839694656,-1.3435114503816794
3830455710047,4.388129998,1,0.25737667846679685,1.7298106994628906,-11.204863769531249,-0.8625954198473282,0.5725190839694656,-1.3587786259541985
3830462377599,4.39479755,1,0.22864625854492185,1.725022296142578,-11.158176837158203,-0.8625954198473282,0.5725190839694656,-1.3435114503816794
3830469044787,4.401464738,1,0.23343466186523437,1.7298106994628906,-11.150994232177734,-0.8396946564885496,0.5954198473282443,-1.3511450381679388
3830475712130,4.408132081,1,0.2166752502441406,1.7214309936523438,-11.184513055419922,-0.8320610687022901,0.648854961832061,-1.3587786259541985
3830482377287,4.414797238,1,0.2166752502441406,1.7405846069335937,-11.177330450439452,-0.8015267175572519,0.5801526717557252,-1.366412213740458
3830489045047,4.421464998,1,0.229843359375,1.7405846069335937,-11.176133349609374,-0.8549618320610687,0.5877862595419847,-1.3435114503816794
3830495709735,4.428129686,1,0.21428104858398436,1.7501614135742187,-11.176133349609374,-0.8778625954198473,0.5725190839694656,-1.3435114503816794
3830502377964,4.434797915,1,0.22744915771484372,1.7429788085937499,-11.195286962890624,-0.8778625954198473,0.5801526717557252,-1.3053435114503817
3830509054005,4.441473956,1,0.22266075439453123,1.7238251953125,-11.202469567871093,-0.8778625954198473,0.5572519083969466,-1.2900763358778626
3830515710672,4.448130623,1,0.24061726684570311,1.7202338928222656,-11.225214483642578,-0.8854961832061069,0.5572519083969466,-1.297709923664122
3830522379787,4.454799738,1,0.21906945190429686,1.7381904052734374,-11.203666668701171,-0.8320610687022901,0.6335877862595419,-1.297709923664122
3830529045255,4.461465206,1,0.22744915771484372,1.7262193969726563,-11.19169566040039,-0.7938931297709924,0.6106870229007634,-1.2671755725190839
3830535711505,4.468131456,1,0.2214636535644531,1.7549498168945312,-11.161768139648437,-0.8396946564885496,0.5954198473282443,-1.2748091603053435
3830542378120,4.474798071,1,0.2262520568847656,1.7298106994628906,-11.206060870361327,-0.8091603053435115,0.5877862595419847,-1.3129770992366412
3830549046349,4.4814663,1,0.20231004028320312,1.7286135986328124,-11.167753643798827,-0.8244274809160306,0.5267175572519084,-1.3206106870229009
3830555711297,4.488131248,1,0.2346317626953125,1.7405846069335937,-11.15338843383789,-0.8702290076335878,0.549618320610687,-1.3358778625954197
3830562379162,4.494799113,1,0.22505495605468748,1.7214309936523438,-11.190498559570312,-0.8473282442748091,0.6030534351145038,-1.3893129770992367
3830569044943,4.501464894,1,0.22864625854492185,1.7226280944824217,-11.209652172851563,-0.8244274809160306,0.5725190839694656,-1.366412213740458
3830575711141,4.508131092,1,0.20709844360351562,1.7214309936523438,-11.214440576171874,-0.916030534351145,0.5648854961832062,-1.3358778625954197
3830582378224,4.514798175,1,0.201112939453125,1.7130512878417967,-11.21683477783203,-0.7557251908396947,0.5954198473282443,-1.3435114503816794
3830589042599,4.52146255,1,0.20949264526367187,1.7094599853515624,-11.208455072021483,-0.7709923664122137,0.5725190839694656,-1.2900763358778626
3830595713120,4.528133071,1,0.2214636535644531,1.7357962036132812,-11.154585534667968,-0.9007633587786259,0.5954198473282443,-1.3129770992366412
3830602378276,4.534798227,1,0.20231004028320312,1.7286135986328124,-11.201272467041015,-0.816793893129771,0.5725190839694656,-1.3129770992366412
3830609044266,4.541464217,1,0.25139117431640623,1.7286135986328124,-11.17852755126953,-0.8396946564885496,0.5343511450381679,-1.282442748091603
3830615712912,4.548132863,1,0.2346317626953125,1.734599102783203,-11.213243475341796,-0.9007633587786259,0.5801526717557252,-1.3053435114503817
3830622375412,4.554795363,1,0.2346317626953125,1.7238251953125,-11.179724652099608,-0.8473282442748091,0.5725190839694656,-1.366412213740458
3830629044318,4.561464269,1,0.20470424194335937,1.7178396911621092,-11.176133349609374,-0.8015267175572519,0.5572519083969466,-1.3740458015267176
3830635712235,4.568132186,1,0.2166752502441406,1.7178396911621092,-11.162965240478515,-0.8702290076335878,0.5725190839694656,-1.3358778625954197
3830642377703,4.574797654,1,0.19512743530273435,1.7465701110839842,-11.162965240478515,-0.8549618320610687,0.5572519083969466,-1.2900763358778626
3830649043953,4.581463904,1,0.22744915771484372,1.7310078002929687,-11.166556542968749,-0.8549618320610687,0.5877862595419847,-1.3435114503816794
3830655711662,4.588131613,1,0.20350714111328125,1.7214309936523438,-11.141417425537108,-0.8244274809160306,0.5877862595419847,-1.2900763358778626
3830662378224,4.594798175,1,0.22026655273437498,1.7369933044433592,-11.201272467041015,-0.8396946564885496,0.5648854961832062,-1.297709923664122
3830669044630,4.601464581,1,0.22864625854492185,1.7597382202148437,-11.227608685302734,-0.7862595419847328,0.5801526717557252,-1.297709923664122
3830675710985,4.608130936,1,0.22266075439453123,1.7130512878417967,-11.197681164550781,-0.8549618320610687,0.549618320610687,-1.2900763358778626
3830682378120,4.614798071,1,0.23822306518554687,1.7214309936523438,-11.161768139648437,-0.9083969465648855,0.5725190839694656,-1.3282442748091603
3830689044318,4.621464269,1,0.22266075439453123,1.734599102783203,-11.226411584472656,-0.8244274809160306,0.5648854961832062,-1.3358778625954197
3830695710516,4.628130467,1,0.21308394775390624,1.7214309936523438,-11.186907257080078,-0.8854961832061069,0.4732824427480916,-1.3282442748091603
3830702378172,4.634798123,1,0.23223756103515625,1.7357962036132812,-11.176133349609374,-0.8931297709923665,0.5801526717557252,-1.3053435114503817
3830709043745,4.641463696,1,0.229843359375,1.7190367919921874,-11.183315954589844,-0.7862595419847328,0.5877862595419847,-1.366412213740458
3830715746922,4.648166873,1,0.23582886352539062,1.7369933044433592,-11.177330450439452,-0.8549618320610687,0.6030534351145038,-1.282442748091603
3830722380724,4.654800675,1,0.23104046020507812,1.7118541870117185,-11.162965240478515,-0.7938931297709924,0.5801526717557252,-1.3053435114503817
3830729044995,4.661464946,1,0.22864625854492185,1.715445489501953,-11.183315954589844,-0.7709923664122137,0.5114503816793893,-1.3129770992366412
3830735710985,4.668130936,1,0.2059013427734375,1.7178396911621092,-11.19887826538086,-0.8625954198473282,0.5267175572519084,-1.3358778625954197
3830742376922,4.674796873,1,0.23822306518554687,1.7489643127441405,-11.189301458740234,-0.8244274809160306,0.6183206106870229,-1.3282442748091603
3830749043485,4.681463436,1,0.229843359375,1.7190367919921874,-11.203666668701171,-0.7709923664122137,0.5038167938931297,-1.3282442748091603
3830755712599,4.68813255,1,0.239420166015625,1.7513585144042967,-11.17852755126953,-0.9007633587786259,0.5648854961832062,-1.3206106870229009
3830762374370,4.694794321,1,0.2154781494140625,1.7262193969726563,-11.213243475341796,-0.8320610687022901,0.5572519083969466,-1.3129770992366412
3830769045203,4.701465154,1,0.2154781494140625,1.725022296142578,-11.180921752929686,-0.7938931297709924,0.48091603053435117,-1.2900763358778626
3830775710985,4.708130936,1,0.21188684692382811,1.725022296142578,-11.179724652099608,-0.8778625954198473,0.5725190839694656,-1.3282442748091603
3830782377391,4.714797342,1,0.20829554443359374,1.7226280944824217,-11.179724652099608,-0.8549618320610687,0.5954198473282443,-1.3358778625954197
3830789044110,4.721464061,1,0.229843359375,1.7166425903320313,-11.183315954589844,-0.8473282442748091,0.5877862595419847,-1.3206106870229009
3830795711610,4.728131561,1,0.22266075439453123,1.6927005737304686,-11.194089862060546,-0.8473282442748091,0.6183206106870229,-1.3511450381679388
3830802377287,4.734797238,1,0.21428104858398436,1.7166425903320313,-11.233594189453123,-0.9007633587786259,0.6183206106870229,-1.3587786259541985
3830809043276,4.741463227,1,0.229843359375,1.7322049011230467,-11.209652172851563,-0.8091603053435115,0.5877862595419847,-1.3587786259541985
3830815750203,4.748170154,1,0.21188684692382811,1.7022773803710936,-11.203666668701171,-0.8091603053435115,0.5801526717557252,-1.3358778625954197
3830822381453,4.754801404,1,0.20350714111328125,1.7226280944824217,-11.218031878662108,-0.816793893129771,0.6870229007633588,-1.3206106870229009
3830829045776,4.761465727,1,0.24899697265624998,1.7465701110839842,-11.203666668701171,-0.7862595419847328,0.6335877862595419,-1.3435114503816794
3830835711766,4.768131717,1,0.21068974609375,1.7465701110839842,-11.19169566040039,-0.8244274809160306,0.5648854961832062,-1.3587786259541985
3830842378432,4.774798383,1,0.2442085693359375,1.725022296142578,-11.182118853759764,-0.8778625954198473,0.6183206106870229,-1.3129770992366412
3830849046037,4.781465988,1,0.2154781494140625,1.7322049011230467,-11.17254204711914,-0.8320610687022901,0.5801526717557252,-1.3358778625954197
3830855711870,4.788131821,1,0.22505495605468748,1.7465701110839842,-11.170147845458983,-0.8015267175572519,0.5343511450381679,-1.3358778625954197
3830862378016,4.794797967,1,0.2214636535644531,1.7334020019531249,-11.245565197753905,-0.8549618320610687,0.6030534351145038,-1.3358778625954197
3830869045516,4.801465467,1,0.24181436767578124,1.7334020019531249,-11.189301458740234,-0.7480916030534351,0.5114503816793893,-1.3129770992366412
3830875713016,4.808132967,1,0.22744915771484372,1.7214309936523438,-11.209652172851563,-0.8473282442748091,0.5190839694656488,-1.2900763358778626
3830882429005,4.814848956,1,0.2166752502441406,1.7274164978027342,-11.184513055419922,-0.9236641221374046,0.6564885496183206,-1.3511450381679388
3830889051349,4.8214713,1,0.23343466186523437,1.7525556152343749,-11.17852755126953,-0.8091603053435115,0.6183206106870229,-1.2900763358778626
3830895712130,4.828132081,1,0.23104046020507812,1.7393875061035156,-11.189301458740234,-0.8244274809160306,0.5343511450381679,-1.3206106870229009
3830902376297,4.834796248,1,0.23343466186523437,1.744175909423828,-11.164162341308593,-0.8778625954198473,0.5877862595419847,-1.3587786259541985
3830909047026,4.841466977,1,0.23343466186523437,1.7453730102539062,-11.202469567871093,-0.8396946564885496,0.5190839694656488,-1.3053435114503817
3830915710464,4.848130415,1,0.23582886352539062,1.7202338928222656,-11.159373937988281,-0.8320610687022901,0.5648854961832062,-1.3358778625954197
3830922381401,4.854801352,1,0.22385785522460935,1.7202338928222656,-11.174936248779296,-0.8702290076335878,0.5877862595419847,-1.366412213740458
3830929045359,4.86146531,1,0.2262520568847656,1.714248388671875,-11.174936248779296,-0.7862595419847328,0.6106870229007634,-1.3053435114503817
3830935712130,4.868132081,1,0.2262520568847656,1.7405846069335937,-11.2240173828125,-0.7862595419847328,0.5572519083969466,-1.297709923664122
3830942378172,4.874798123,1,0.22385785522460935,1.7369933044433592,-11.195286962890624,-0.8702290076335878,0.5572519083969466,-1.3358778625954197
3830949044057,4.881464008,1,0.21906945190429686,1.7369933044433592,-11.24915650024414,-0.8854961832061069,0.6183206106870229,-1.3358778625954197
3830955712287,4.888132238,1,0.2442085693359375,1.7226280944824217,-11.183315954589844,-0.7786259541984732,0.5648854961832062,-1.3358778625954197
3830962378745,4.894798696,1,0.19033903198242186,1.70467158203125,-11.188104357910156,-0.8091603053435115,0.5648854961832062,-1.3358778625954197
3830969044682,4.901464633,1,0.22266075439453123,1.7202338928222656,-11.17852755126953,-0.9007633587786259,0.6412213740458015,-1.297709923664122
3830975712443,4.908132394,1,0.19512743530273435,1.7274164978027342,-11.200075366210937,-0.816793893129771,0.648854961832061,-1.3435114503816794
3830982378693,4.914798644,1,0.2059013427734375,1.7094599853515624,-11.161768139648437,-0.8473282442748091,0.5725190839694656,-1.3282442748091603
3830989045776,4.921465727,1,0.2214636535644531,1.7369933044433592,-11.170147845458983,-0.8320610687022901,0.5725190839694656,-1.3129770992366412
3830995710932,4.928130883,1,0.2262520568847656,1.7262193969726563,-11.192892761230468,-0.7709923664122137,0.549618320610687,-1.3435114503816794
3831002378797,4.934798748,1,0.23343466186523437,1.7357962036132812,-11.180921752929686,-0.8396946564885496,0.5648854961832062,-1.3053435114503817
3831009040828,4.941460779,1,0.19632453613281248,1.7202338928222656,-11.161768139648437,-0.8702290076335878,0.6106870229007634,-1.3206106870229009
3831015712130,4.948132081,1,0.1975216369628906,1.7369933044433592,-11.165359442138671,-0.8015267175572519,0.5419847328244275,-1.3282442748091603
3831022380932,4.954800883,1,0.2346317626953125,1.7357962036132812,-11.201272467041015,-0.9007633587786259,0.5648854961832062,-1.3206106870229009
3831029045203,4.961465154,1,0.229843359375,1.715445489501953,-11.219228979492186,-0.8244274809160306,0.5572519083969466,-1.3511450381679388
3831035711818,4.968131769,1,0.23223756103515625,1.7369933044433592,-11.192892761230468,-0.8320610687022901,0.5114503816793893,-1.3435114503816794
3831042376974,4.974796925,1,0.2059013427734375,1.744175909423828,-11.18571015625,-0.8320610687022901,0.5419847328244275,-1.3206106870229009
3831049043120,4.981463071,1,0.24181436767578124,1.7334020019531249,-11.207257971191405,-0.8015267175572519,0.5648854961832062,-1.4045801526717556
3831055710776,4.988130727,1,0.24181436767578124,1.744175909423828,-11.167753643798827,-0.8091603053435115,0.5954198473282443,-1.3740458015267176
3831062377026,4.994796977,1,0.22505495605468748,1.744175909423828,-11.174936248779296,-0.8625954198473282,0.6259541984732825,-1.3358778625954197
3831069044422,5.001464373,1,0.22505495605468748,1.7417817077636717,-11.174936248779296,-0.8625954198473282,0.549618320610687,-1.3053435114503817
3831075710620,5.008130571,1,0.23223756103515625,1.7417817077636717,-11.174936248779296,-0.8778625954198473,0.5267175572519084,-1.3053435114503817
3831082379370,5.014799321,1,0.22744915771484372,1.7453730102539062,-11.159373937988281,-0.8778625954198473,0.5877862595419847,-1.3587786259541985
3831089044630,5.021464581,1,0.2442085693359375,1.7465701110839842,-11.192892761230468,-0.8396946564885496,0.5877862595419847,-1.3282442748091603
3831095711609,5.02813156,1,0.23582886352539062,1.7274164978027342,-11.215637677001952,-0.8396946564885496,0.5572519083969466,-1.3282442748091603
3831102375880,5.034795831,1,0.22744915771484372,1.7429788085937499,-11.179724652099608,-0.8320610687022901,0.6259541984732825,-1.2671755725190839
3831109045151,5.041465102,1,0.2166752502441406,1.7549498168945312,-11.202469567871093,-0.8473282442748091,0.5954198473282443,-1.282442748091603
3831115711818,5.048131769,1,0.21787235107421873,1.7597382202148437,-11.206060870361327,-0.816793893129771,0.549618320610687,-1.297709923664122
3831122378432,5.054798383,1,0.22744915771484372,1.7525556152343749,-11.186907257080078,-0.8396946564885496,0.5572519083969466,-1.2748091603053435
3831129044266,5.061464217,1,0.2442085693359375,1.7322049011230467,-11.188104357910156,-0.8549618320610687,0.6335877862595419,-1.3282442748091603
3831135709057,5.068129008,1,0.20231004028320312,1.753752716064453,-11.23718549194336,-0.8091603053435115,0.5725190839694656,-1.3511450381679388
3831142376766,5.074796717,1,0.21906945190429686,1.725022296142578,-11.207257971191405,-0.8625954198473282,0.5114503816793893,-1.3358778625954197
3831149044891,5.081464842,1,0.2154781494140625,1.7298106994628906,-11.196484063720703,-0.8549618320610687,0.6259541984732825,-1.3206106870229009
3831155710776,5.088130727,1,0.22266075439453123,1.7357962036132812,-11.208455072021483,-0.8244274809160306,0.6030534351145038,-1.3740458015267176
3831162377130,5.094797081,1,0.2166752502441406,1.7274164978027342,-11.197681164550781,-0.816793893129771,0.6183206106870229,-1.3129770992366412
3831169043589,5.10146354,1,0.23104046020507812,1.7118541870117185,-11.1474029296875,-0.8854961832061069,0.6412213740458015,-1.2900763358778626
3831175710411,5.108130362,1,0.22026655273437498,1.7369933044433592,-11.188104357910156,-0.816793893129771,0.5419847328244275,-1.3282442748091603
3831182378276,5.114798227,1,0.22744915771484372,1.7429788085937499,-11.173739147949219,-0.8549618320610687,0.5572519083969466,-1.297709923664122
3831189044161,5.121464112,1,0.2166752502441406,1.7393875061035156,-11.170147845458983,-0.8702290076335878,0.5572519083969466,-1.3129770992366412
3831195710620,5.128130571,1,0.2166752502441406,1.7334020019531249,-11.174936248779296,-0.7786259541984732,0.5877862595419847,-1.2900763358778626
3831202378120,5.134798071,1,0.20949264526367187,1.7334020019531249,-11.159373937988281,-0.8015267175572519,0.6259541984732825,-1.2671755725190839
3831209044474,5.141464425,1,0.24779987182617186,1.7178396911621092,-11.044452258300781,-0.7938931297709924,0.5954198473282443,-1.3129770992366412
3831215710880,5.148130831,1,0.201112939453125,1.744175909423828,-11.197681164550781,-0.7938931297709924,0.5954198473282443,-1.3435114503816794
3831222379839,5.15479979,1,0.24899697265624998,1.7298106994628906,-11.179724652099608,-0.7938931297709924,0.6030534351145038,-1.282442748091603
3831229044005,5.161463956,1,0.2454056701660156,1.714248388671875,-11.164162341308593,-0.8778625954198473,0.6030534351145038,-1.3206106870229009
3831235710672,5.168130623,1,0.2214636535644531,1.7298106994628906,-11.204863769531249,-0.8473282442748091,0.6183206106870229,-1.3740458015267176
3831242378589,5.17479854,1,0.229843359375,1.7166425903320313,-11.238382592773437,-0.7862595419847328,0.5725190839694656,-1.3740458015267176
3831249044005,5.181463956,1,0.2154781494140625,1.7298106994628906,-11.197681164550781,-0.8320610687022901,0.6030534351145038,-1.366412213740458
3831255728641,5.188148592,1,0.22026655273437498,1.744175909423828,-11.179724652099608,-0.8473282442748091,0.5877862595419847,-1.3587786259541985
3831262390620,5.194810571,1,0.22266075439453123,1.715445489501953,-11.2240173828125,-0.8320610687022901,0.5190839694656488,-1.366412213740458
3831269045099,5.20146505,1,0.22385785522460935,1.695094775390625,-11.190498559570312,-0.8625954198473282,0.5954198473282443,-1.3511450381679388
3831275711922,5.208131873,1,0.20829554443359374,1.7082628845214842,-11.180921752929686,-0.8625954198473282,0.549618320610687,-1.3740458015267176
3831282377964,5.214797915,1,0.22266075439453123,1.7393875061035156,-11.174936248779296,-0.7557251908396947,0.4961832061068702,-1.3129770992366412
3831289044266,5.221464217,1,0.23104046020507812,1.7238251953125,-11.183315954589844,-0.8549618320610687,0.5801526717557252,-1.3282442748091603
3831295711193,5.228131144,1,0.2214636535644531,1.7202338928222656,-11.183315954589844,-0.8396946564885496,0.6183206106870229,-1.297709923664122
3831302377286,5.234797237,1,0.21068974609375,1.7477672119140624,-11.14022032470703,-0.8396946564885496,0.5725190839694656,-1.2671755725190839
3831309044838,5.241464789,1,0.24899697265624998,1.7405846069335937,-11.215637677001952,-0.816793893129771,0.5190839694656488,-1.2900763358778626
3831315710359,5.24813031,1,0.23223756103515625,1.744175909423828,-11.21084927368164,-0.8854961832061069,0.6030534351145038,-1.3206106870229009
3831322383380,5.254803331,1,0.20949264526367187,1.7453730102539062,-11.200075366210937,-0.816793893129771,0.5954198473282443,-1.3282442748091603
3831329050411,5.261470362,1,0.2346317626953125,1.753752716064453,-11.152191333007812,-0.8778625954198473,0.6030534351145038,-1.297709923664122
3831335715203,5.268135154,1,0.22505495605468748,1.7322049011230467,-11.164162341308593,-0.7938931297709924,0.5877862595419847,-1.3206106870229009
3831342380359,5.27480031,1,0.22505495605468748,1.7286135986328124,-11.19887826538086,-0.816793893129771,0.5572519083969466,-1.3358778625954197
3831349047911,5.281467862,1,0.22385785522460935,1.7286135986328124,-11.194089862060546,-0.8396946564885496,0.5725190839694656,-1.3206106870229009
3831355712651,5.288132602,1,0.20829554443359374,1.7417817077636717,-11.194089862060546,-0.8396946564885496,0.5725190839694656,-1.297709923664122
3831362381245,5.294801196,1,0.22385785522460935,1.7369933044433592,-11.16057103881836,-0.816793893129771,0.5114503816793893,-1.2595419847328244
3831369043849,5.3014638,1,0.21188684692382811,1.7286135986328124,-11.204863769531249,-0.816793893129771,0.5419847328244275,-1.3053435114503817
3831375713484,5.308133435,1,0.2454056701660156,1.7381904052734374,-11.202469567871093,-0.8625954198473282,0.5419847328244275,-1.2748091603053435
3831382380724,5.314800675,1,0.20231004028320312,1.7369933044433592,-11.19887826538086,-0.8091603053435115,0.5648854961832062,-1.2748091603053435
3831389046870,5.321466821,1,0.22385785522460935,1.744175909423828,-11.180921752929686,-0.8549618320610687,0.5343511450381679,-1.3206106870229009
3831395713901,5.328133852,1,0.20949264526367187,1.725022296142578,-11.19169566040039,-0.8778625954198473,0.6335877862595419,-1.366412213740458
3831402380568,5.334800519,1,0.20231004028320312,1.70467158203125,-11.207257971191405,-0.8473282442748091,0.5877862595419847,-1.3358778625954197
3831409046661,5.341466612,1,0.23822306518554687,1.7238251953125,-11.189301458740234,-0.8244274809160306,0.5572519083969466,-1.282442748091603
3831415713120,5.348133071,1,0.229843359375,1.7286135986328124,-11.183315954589844,-0.8320610687022901,0.6183206106870229,-1.3435114503816794
3831422380516,5.354800467,1,0.22744915771484372,1.7334020019531249,-11.179724652099608,-0.7709923664122137,0.5801526717557252,-1.297709923664122
3831429047599,5.36146755,1,0.23822306518554687,1.744175909423828,-11.18571015625,-0.8396946564885496,0.6030534351145038,-1.3282442748091603
3831435713068,5.368133019,1,0.21906945190429686,1.7262193969726563,-11.202469567871093,-0.8473282442748091,0.5572519083969466,-1.3587786259541985
3831442380620,5.374800571,1,0.21308394775390624,1.7501614135742187,-11.222820281982422,-0.8625954198473282,0.5419847328244275,-1.297709923664122
3831449047547,5.381467498,1,0.21188684692382811,1.714248388671875,-11.209652172851563,-0.8778625954198473,0.5725190839694656,-1.297709923664122
3831455714318,5.388134269,1,0.2346317626953125,1.7489643127441405,-11.197681164550781,-0.8244274809160306,0.6335877862595419,-1.297709923664122
3831462379474,5.394799425,1,0.24660277099609373,1.744175909423828,-11.220426080322264,-0.7938931297709924,0.5343511450381679,-1.297709923664122
3831469047651,5.401467602,1,0.23223756103515625,1.7453730102539062,-11.200075366210937,-0.8931297709923665,0.5954198473282443,-1.3129770992366412
3831475714526,5.408134477,1,0.20231004028320312,1.7405846069335937,-11.186907257080078,-0.8549618320610687,0.6183206106870229,-1.297709923664122
3831482380620,5.414800571,1,0.20231004028320312,1.7106570861816406,-11.215637677001952,-0.8091603053435115,0.549618320610687,-1.2900763358778626
3831489047338,5.421467289,1,0.22864625854492185,1.7106570861816406,-11.206060870361327,-0.8091603053435115,0.5419847328244275,-1.3129770992366412
3831495714057,5.428134008,1,0.22385785522460935,1.7022773803710936,-11.202469567871093,-0.8396946564885496,0.5419847328244275,-1.3511450381679388
3831502379891,5.434799842,1,0.23702596435546874,1.7369933044433592,-11.202469567871093,-0.8625954198473282,0.5572519083969466,-1.3053435114503817
3831509048224,5.441468175,1,0.21787235107421873,1.7369933044433592,-11.184513055419922,-0.8625954198473282,0.5572519083969466,-1.2900763358778626
3831515713640,5.448133591,1,0.2214636535644531,1.7322049011230467,-11.197681164550781,-0.916030534351145,0.5572519083969466,-1.3358778625954197
3831522383484,5.454803435,1,0.21906945190429686,1.7202338928222656,-11.194089862060546,-0.8396946564885496,0.6030534351145038,-1.2671755725190839
3831529047859,5.46146781,1,0.22385785522460935,1.753752716064453,-11.182118853759764,-0.816793893129771,0.6412213740458015,-1.2671755725190839
3831535713484,5.468133435,1,0.2154781494140625,1.7310078002929687,-11.180921752929686,-0.8854961832061069,0.6335877862595419,-1.2442748091603053
3831542380203,5.474800154,1,0.20350714111328125,1.7405846069335937,-11.19887826538086,-0.7938931297709924,0.6335877862595419,-1.297709923664122
3831549047286,5.481467237,1,0.22864625854492185,1.7417817077636717,-11.174936248779296,-0.8015267175572519,0.5725190839694656,-1.297709923664122
3831555712755,5.488132706,1,0.20350714111328125,1.7525556152343749,-11.195286962890624,-0.8549618320610687,0.5419847328244275,-1.3053435114503817
3831562380672,5.494800623,1,0.21308394775390624,1.7202338928222656,-11.197681164550781,-0.8091603053435115,0.5648854961832062,-1.3511450381679388
3831569046609,5.50146656,1,0.229843359375,1.707065783691406,-11.212046374511718,-0.816793893129771,0.5954198473282443,-1.282442748091603
3831575713484,5.508133435,1,0.24301146850585936,1.7334020019531249,-11.180921752929686,-0.9236641221374046,0.6564885496183206,-1.3053435114503817
3831582380307,5.514800258,1,0.22026655273437498,1.7381904052734374,-11.190498559570312,-0.8396946564885496,0.6641221374045801,-1.3206106870229009
3831589047390,5.521467341,1,0.24181436767578124,1.7262193969726563,-11.204863769531249,-0.8244274809160306,0.6335877862595419,-1.3358778625954197
3831595714474,5.528134425,1,0.23702596435546874,1.7238251953125,-11.189301458740234,-0.8244274809160306,0.6946564885496184,-1.3358778625954197
3831602380255,5.534800206,1,0.24660277099609373,1.7525556152343749,-11.128249316406249,-0.7709923664122137,0.6030534351145038,-1.3206106870229009
3831609047130,5.541467081,1,0.21428104858398436,1.7094599853515624,-11.164162341308593,-0.7557251908396947,0.5648854961832062,-1.2900763358778626
3831615709890,5.548129841,1,0.21428104858398436,1.7274164978027342,-11.19887826538086,-0.8473282442748091,0.5877862595419847,-1.297709923664122
3831622395568,5.554815519,1,0.23104046020507812,1.7298106994628906,-11.2240173828125,-0.8625954198473282,0.6106870229007634,-1.2748091603053435
3831629058640,5.561478591,1,0.23104046020507812,1.7214309936523438,-11.18571015625,-0.8625954198473282,0.6183206106870229,-1.2900763358778626
3831635711505,5.568131456,1,0.22266075439453123,1.7214309936523438,-11.184513055419922,-0.8473282442748091,0.6183206106870229,-1.3358778625954197
3831642381609,5.57480156,1,0.22505495605468748,1.7298106994628906,-11.184513055419922,-0.8015267175572519,0.5801526717557252,-1.3587786259541985
3831649047859,5.58146781,1,0.23104046020507812,1.7226280944824217,-11.195286962890624,-0.8091603053435115,0.5343511450381679,-1.3358778625954197
