timestamp_ns,t_s,sensor_id,ax,ay,az
3593361846127,0.056938125,1,0.2214636535644531,1.7262193969726563,-11.197681164550781
3593364044148,0.059136146,1,0.20709844360351562,1.7202338928222656,-11.202469567871093
3593366245606,0.061337604,1,0.20829554443359374,1.7238251953125,-11.207257971191405
3593368470711,0.063562709,1,0.22864625854492185,1.7310078002929687,-11.183315954589844
3593370687481,0.065779479,1,0.2262520568847656,1.7178396911621092,-11.182118853759764
3593372911752,0.06800375,1,0.22266075439453123,1.7010802795410156,-11.168950744628905
3593375133158,0.070225156,1,0.2262520568847656,1.7034744812011717,-11.17852755126953
3593377356752,0.07244875,1,0.22744915771484372,1.70467158203125,-11.171344946289063
3593379577794,0.074669792,1,0.23343466186523437,1.7010802795410156,-11.173739147949219
3593381799200,0.076891198,1,0.21787235107421873,1.7226280944824217,-11.155782635498046
3593384024513,0.079116511,1,0.20949264526367187,1.7549498168945312,-11.167753643798827
3593386244461,0.081336459,1,0.2214636535644531,1.7501614135742187,-11.192892761230468
3593388468783,0.083560781,1,0.23822306518554687,1.7477672119140624,-11.189301458740234
3593390687690,0.085779688,1,0.2454056701660156,1.7369933044433592,-11.152191333007812
3593392912638,0.088004636,1,0.2454056701660156,1.7322049011230467,-11.143811627197264
3593395131700,0.090223698,1,0.24181436767578124,1.725022296142578,-11.183315954589844
3593397354200,0.092446198,1,0.239420166015625,1.7274164978027342,-11.184513055419922
3593399576596,0.094668594,1,0.24061726684570311,1.7322049011230467,-11.197681164550781
3593401798210,0.096890208,1,0.2442085693359375,1.7322049011230467,-11.176133349609374
3593404023783,0.099115781,1,0.2346317626953125,1.7429788085937499,-11.207257971191405
3593406242794,0.101334792,1,0.239420166015625,1.7357962036132812,-11.204863769531249
3593408468210,0.103560208,1,0.2346317626953125,1.7286135986328124,-11.200075366210937
3593410687169,0.105779167,1,0.23223756103515625,1.715445489501953,-11.19169566040039
3593412912690,0.108004688,1,0.23582886352539062,1.7166425903320313,-11.18571015625
3593415131908,0.110223906,1,0.22864625854492185,1.7130512878417967,-11.183315954589844
3593417354408,0.112446406,1,0.24779987182617186,1.7190367919921874,-11.19887826538086
3593419575710,0.114667708,1,0.24301146850585936,1.7166425903320313,-11.18571015625
3593421798731,0.116890729,1,0.2501940734863281,1.7166425903320313,-11.190498559570312
3593424022794,0.119114792,1,0.239420166015625,1.714248388671875,-11.194089862060546
3593426243158,0.121335156,1,0.2442085693359375,1.7106570861816406,-11.201272467041015
3593428469252,0.12356125,1,0.23702596435546874,1.7202338928222656,-11.203666668701171
3593430687794,0.125779792,1,0.22864625854492185,1.7166425903320313,-11.200075366210937
3593432912221,0.128004219,1,0.21906945190429686,1.725022296142578,-11.196484063720703
3593435132325,0.130224323,1,0.2154781494140625,1.7322049011230467,-11.183315954589844
3593437354200,0.132446198,1,0.20231004028320312,1.7118541870117185,-11.19887826538086
3593439576648,0.134668646,1,0.19512743530273435,1.7118541870117185,-11.192892761230468
3593441798471,0.136890469,1,0.1867477294921875,1.7274164978027342,-11.174936248779296
3593444024617,0.139116615,1,0.19393033447265623,1.7262193969726563,-11.19887826538086
3593446242690,0.141334688,1,0.2262520568847656,1.7214309936523438,-11.213243475341796
3593448468367,0.143560365,1,0.23582886352539062,1.7322049011230467,-11.227608685302734
3593450688054,0.145780052,1,0.23702596435546874,1.7178396911621092,-11.228805786132812
3593452912638,0.148004636,1,0.229843359375,1.70467158203125,-11.208455072021483
3593455131544,0.150223542,1,0.2346317626953125,1.7238251953125,-11.19887826538086
3593457355242,0.15244724,1,0.22864625854492185,1.725022296142578,-11.17852755126953
3593459576075,0.154668073,1,0.2262520568847656,1.7082628845214842,-11.218031878662108
3593461798679,0.156890677,1,0.23822306518554687,1.7106570861816406,-11.197681164550781
3593464024460,0.159116458,1,0.23343466186523437,1.714248388671875,-11.194089862060546
3593466243158,0.161335156,1,0.239420166015625,1.715445489501953,-11.195286962890624
3593468467950,0.163559948,1,0.23582886352539062,1.7082628845214842,-11.212046374511718
3593470687273,0.165779271,1,0.24779987182617186,1.7022773803710936,-11.214440576171874
3593472912013,0.168004011,1,0.24779987182617186,1.714248388671875,-11.197681164550781
3593475131804,0.170223802,1,0.25258827514648435,1.7178396911621092,-11.188104357910156
3593477354460,0.172446458,1,0.2537853759765625,1.7238251953125,-11.17254204711914
3593479576231,0.174668229,1,0.239420166015625,1.7178396911621092,-11.171344946289063
3593481799044,0.176891042,1,0.22744915771484372,1.7106570861816406,-11.190498559570312
3593484023731,0.179115729,1,0.21308394775390624,1.7393875061035156,-11.202469567871093
3593486243210,0.181335208,1,0.23223756103515625,1.7381904052734374,-11.184513055419922
3593488468419,0.183560417,1,0.2262520568847656,1.7489643127441405,-11.197681164550781
3593490687429,0.185779427,1,0.22026655273437498,1.753752716064453,-11.194089862060546
3593492912950,0.188004948,1,0.24660277099609373,1.7429788085937499,-11.19887826538086
3593495132429,0.190224427,1,0.2597708801269531,1.7357962036132812,-11.164162341308593
3593497354148,0.192446146,1,0.25737667846679685,1.7286135986328124,-11.168950744628905
3593499576283,0.194668281,1,0.23702596435546874,1.7334020019531249,-11.209652172851563
3593501798783,0.196890781,1,0.22385785522460935,1.734599102783203,-11.170147845458983
3593504023679,0.199115677,1,0.23822306518554687,1.7334020019531249,-11.15338843383789
3593506242898,0.201334896,1,0.2214636535644531,1.7357962036132812,-11.192892761230468
3593508468367,0.203560365,1,0.21787235107421873,1.7477672119140624,-11.200075366210937
3593510687638,0.205779636,1,0.22026655273437498,1.7357962036132812,-11.179724652099608
3593512912325,0.208004323,1,0.2154781494140625,1.7310078002929687,-11.197681164550781
3593515132325,0.210224323,1,0.22505495605468748,1.734599102783203,-11.179724652099608
3593517353888,0.212445886,1,0.2346317626953125,1.7489643127441405,-11.17852755126953
3593519576283,0.214668281,1,0.22864625854492185,1.7621324218749999,-11.192892761230468
3593521798627,0.216890625,1,0.21787235107421873,1.7405846069335937,-11.209652172851563
3593524024252,0.21911625,1,0.229843359375,1.734599102783203,-11.209652172851563
3593526242950,0.221334948,1,0.20949264526367187,1.7465701110839842,-11.19169566040039
3593528468158,0.223560156,1,0.21308394775390624,1.7513585144042967,-11.176133349609374
3593530686700,0.225778698,1,0.23582886352539062,1.7525556152343749,-11.177330450439452
3593532909825,0.228001823,1,0.22744915771484372,1.7417817077636717,-11.206060870361327
3593535131856,0.230223854,1,0.2262520568847656,1.7322049011230467,-11.219228979492186
3593537354200,0.232446198,1,0.239420166015625,1.7369933044433592,-11.21683477783203
3593539575971,0.234667969,1,0.24899697265624998,1.7310078002929687,-11.329362255859374
3593541798315,0.236890313,1,0.24181436767578124,1.7549498168945312,-11.177330450439452
3593544023627,0.239115625,1,0.22744915771484372,1.7477672119140624,-11.173739147949219
3593546243835,0.241335833,1,0.2166752502441406,1.7369933044433592,-11.183315954589844
3593548468835,0.243560833,1,0.20470424194335937,1.7238251953125,-11.190498559570312
3593550687690,0.245779688,1,0.20231004028320312,1.7298106994628906,-11.208455072021483
3593552913679,0.248005677,1,0.20231004028320312,1.7417817077636717,-11.194089862060546
3593555132638,0.250224636,1,0.21068974609375,1.7405846069335937,-11.203666668701171
3593557354096,0.252446094,1,0.21188684692382811,1.7274164978027342,-11.204863769531249
3593559576023,0.254668021,1,0.19991583862304688,1.7298106994628906,-11.18571015625
3593561798419,0.256890417,1,0.20829554443359374,1.7597382202148437,-11.179724652099608
3593564023210,0.259115208,1,0.23822306518554687,1.7453730102539062,-11.195286962890624
3593566240294,0.261332292,1,0.239420166015625,1.7453730102539062,-11.190498559570312
3593568465450,0.263557448,1,0.22505495605468748,1.7465701110839842,-11.188104357910156
3593570697377,0.265789375,1,0.20709844360351562,1.753752716064453,-11.179724652099608
3593572917169,0.268009167,1,0.2059013427734375,1.7298106994628906,-11.183315954589844
3593575132065,0.270224063,1,0.201112939453125,1.7190367919921874,-11.201272467041015
3593577355138,0.272447136,1,0.21188684692382811,1.7202338928222656,-11.183315954589844
3593579576492,0.27466849,1,0.2346317626953125,1.725022296142578,-11.15338843383789
3593581798419,0.276890417,1,0.2262520568847656,1.7298106994628906,-11.170147845458983
3593584023315,0.279115313,1,0.23582886352539062,1.7381904052734374,-11.176133349609374
3593586243106,0.281335104,1,0.24301146850585936,1.7357962036132812,-11.186907257080078
3593588468002,0.28356,1,0.2214636535644531,1.7274164978027342,-11.17852755126953
3593590687690,0.285779688,1,0.22505495605468748,1.7369933044433592,-11.215637677001952
3593592913315,0.288005313,1,0.2262520568847656,1.7453730102539062,-11.197681164550781
3593595132429,0.290224427,1,0.21906945190429686,1.7393875061035156,-11.190498559570312
3593597354096,0.292446094,1,0.23702596435546874,1.7310078002929687,-11.186907257080078
3593599576648,0.294668646,1,0.24301146850585936,1.7393875061035156,-11.186907257080078
3593601798731,0.296890729,1,0.24181436767578124,1.744175909423828,-11.171344946289063
3593604023783,0.299115781,1,0.2501940734863281,1.7393875061035156,-11.177330450439452
3593606242377,0.301334375,1,0.229843359375,1.734599102783203,-11.179724652099608
3593608467794,0.303559792,1,0.21906945190429686,1.7381904052734374,-11.196484063720703
3593610688106,0.305780104,1,0.2262520568847656,1.7429788085937499,-11.19169566040039
3593612911856,0.308003854,1,0.2346317626953125,1.7405846069335937,-11.19887826538086
3593615131179,0.310223177,1,0.23702596435546874,1.734599102783203,-11.214440576171874
3593617354200,0.312446198,1,0.24181436767578124,1.7298106994628906,-11.243170996093749
3593619575606,0.314667604,1,0.23702596435546874,1.7274164978027342,-11.215637677001952
3593621798887,0.316890885,1,0.23104046020507812,1.7214309936523438,-11.192892761230468
3593624023679,0.319115677,1,0.2214636535644531,1.7310078002929687,-11.188104357910156
3593626242898,0.321334896,1,0.23104046020507812,1.7214309936523438,-11.19887826538086
3593628467794,0.323559792,1,0.21906945190429686,1.7226280944824217,-11.2240173828125
3593630687898,0.325779896,1,0.21308394775390624,1.7417817077636717,-11.241973895263671
3593632912846,0.328004844,1,0.22026655273437498,1.7310078002929687,-11.251550701904296
3593635131648,0.330223646,1,0.22505495605468748,1.7178396911621092,-11.252747802734374
3593637353315,0.332445313,1,0.2346317626953125,1.7226280944824217,-11.221623181152344
3593639575815,0.334667813,1,0.23702596435546874,1.7334020019531249,-11.218031878662108
3593641799460,0.336891458,1,0.2346317626953125,1.7417817077636717,-11.241973895263671
3593644023315,0.339115313,1,0.21906945190429686,1.7286135986328124,-11.228805786132812
3593646242846,0.341334844,1,0.2214636535644531,1.714248388671875,-11.222820281982422
3593648467742,0.34355974,1,0.21068974609375,1.7202338928222656,-11.220426080322264
3593650687637,0.345779635,1,0.20949264526367187,1.7178396911621092,-11.233594189453123
3593652912429,0.348004427,1,0.20949264526367187,1.7357962036132812,-11.222820281982422
3593655131492,0.35022349,1,0.21308394775390624,1.7393875061035156,-11.21084927368164
3593657354617,0.352446615,1,0.21188684692382811,1.7202338928222656,-11.186907257080078
3593659576387,0.354668385,1,0.21906945190429686,1.7226280944824217,-11.17852755126953
3593661798992,0.35689099,1,0.2214636535644531,1.7453730102539062,-11.166556542968749
3593664023575,0.359115573,1,0.1975216369628906,1.7298106994628906,-11.188104357910156
3593666242637,0.361334635,1,0.201112939453125,1.7369933044433592,-11.184513055419922
3593668468262,0.36356026,1,0.21906945190429686,1.734599102783203,-11.189301458740234
3593670687273,0.365779271,1,0.21906945190429686,1.7238251953125,-11.190498559570312
3593672910294,0.368002292,1,0.21428104858398436,1.7262193969726563,-11.167753643798827
3593675132637,0.370224635,1,0.20231004028320312,1.7226280944824217,-11.180921752929686
3593677354304,0.372446302,1,0.20949264526367187,1.7226280944824217,-11.182118853759764
3593679575971,0.374667969,1,0.23822306518554687,1.7238251953125,-11.177330450439452
3593681798210,0.376890208,1,0.2346317626953125,1.7357962036132812,-11.190498559570312
3593684023471,0.379115469,1,0.23582886352539062,1.7357962036132812,-11.19887826538086
3593686242429,0.381334427,1,0.23702596435546874,1.7357962036132812,-11.21683477783203
3593688468002,0.38356,1,0.24181436767578124,1.734599102783203,-11.203666668701171
3593690687012,0.38577901,1,0.22026655273437498,1.7286135986328124,-11.207257971191405
3593692911596,0.388003594,1,0.2214636535644531,1.7286135986328124,-11.225214483642578
3593695131440,0.390223438,1,0.20949264526367187,1.7322049011230467,-11.202469567871093
3593697354512,0.39244651,1,0.21787235107421873,1.7298106994628906,-11.190498559570312
3593699576179,0.394668177,1,0.21787235107421873,1.7417817077636717,-11.202469567871093
3593701798002,0.39689,1,0.22864625854492185,1.7465701110839842,-11.201272467041015
3593704022846,0.399114844,1,0.2454056701660156,1.7322049011230467,-11.194089862060546
3593706242637,0.401334635,1,0.2454056701660156,1.7202338928222656,-11.218031878662108
3593708467690,0.403559688,1,0.2346317626953125,1.7118541870117185,-11.209652172851563
3593710686752,0.40577875,1,0.2214636535644531,1.714248388671875,-11.186907257080078
3593712912898,0.408004896,1,0.23104046020507812,1.7274164978027342,-11.17852755126953
3593715131492,0.41022349,1,0.24181436767578124,1.7178396911621092,-11.188104357910156
3593717353679,0.412445677,1,0.229843359375,1.7334020019531249,-11.334150659179686
3593719575919,0.414667917,1,0.23104046020507812,1.7465701110839842,-11.182118853759764
3593721797585,0.416889583,1,0.24899697265624998,1.7393875061035156,-11.189301458740234
3593724023419,0.419115417,1,0.2262520568847656,1.7405846069335937,-11.196484063720703
3593726242377,0.421334375,1,0.20709844360351562,1.7202338928222656,-11.209652172851563
3593728467429,0.423559427,1,0.22026655273437498,1.725022296142578,-11.214440576171874
3593730686908,0.425778906,1,0.2262520568847656,1.7298106994628906,-11.219228979492186
3593732911752,0.42800375,1,0.2166752502441406,1.7322049011230467,-11.209652172851563
3593735132065,0.430224063,1,0.22385785522460935,1.7429788085937499,-11.180921752929686
3593737354773,0.432446771,1,0.2214636535644531,1.7549498168945312,-11.19887826538086
3593739575919,0.434667917,1,0.229843359375,1.7405846069335937,-11.208455072021483
3593741798471,0.436890469,1,0.22864625854492185,1.7405846069335937,-11.17852755126953
3593744023106,0.439115104,1,0.2262520568847656,1.7513585144042967,-11.173739147949219
3593746242637,0.441334635,1,0.2346317626953125,1.7429788085937499,-11.194089862060546
3593748467898,0.443559896,1,0.22864625854492185,1.7381904052734374,-11.202469567871093
3593750687012,0.44577901,1,0.2262520568847656,1.7286135986328124,-11.208455072021483
3593752912169,0.448004167,1,0.2154781494140625,1.7334020019531249,-11.214440576171874
3593755129669,0.450221667,1,0.20949264526367187,1.7298106994628906,-11.201272467041015
3593757355450,0.452447448,1,0.19871873779296872,1.7274164978027342,-11.176133349609374
3593759577273,0.454669271,1,0.21906945190429686,1.7429788085937499,-11.197681164550781
3593761798262,0.45689026,1,0.23822306518554687,1.7298106994628906,-11.188104357910156
3593764023731,0.459115729,1,0.22385785522460935,1.725022296142578,-11.180921752929686
3593766242637,0.461334635,1,0.23582886352539062,1.7310078002929687,-11.171344946289063
3593768467429,0.463559427,1,0.24181436767578124,1.7393875061035156,-11.17852755126953
3593770688315,0.465780313,1,0.25139117431640623,1.7477672119140624,-11.171344946289063
3593772913992,0.46800599,1,0.2346317626953125,1.7501614135742187,-11.161768139648437
3593775131856,0.470223854,1,0.23104046020507812,1.734599102783203,-11.17254204711914
3593777354252,0.47244625,1,0.21188684692382811,1.725022296142578,-11.186907257080078
3593779583315,0.474675313,1,0.22266075439453123,1.6891092712402342,-11.201272467041015
3593781802117,0.476894115,1,0.22744915771484372,1.695094775390625,-11.184513055419922
3593784024512,0.47911651,1,0.22505495605468748,1.7130512878417967,-11.18571015625
3593786242950,0.481334948,1,0.2262520568847656,1.7357962036132812,-11.200075366210937
3593788466387,0.483558385,1,0.21428104858398436,1.7573440185546874,-11.209652172851563
3593790688575,0.485780573,1,0.22505495605468748,1.7405846069335937,-11.203666668701171
3593792914252,0.48800625,1,0.21428104858398436,1.7238251953125,-11.190498559570312
3593795132221,0.490224219,1,0.2059013427734375,1.725022296142578,-11.188104357910156
3593797354148,0.492446146,1,0.2154781494140625,1.7202338928222656,-11.19169566040039
3593799575867,0.494667865,1,0.2154781494140625,1.7322049011230467,-11.188104357910156
3593801798106,0.496890104,1,0.23702596435546874,1.7465701110839842,-11.18571015625
3593804024773,0.499116771,1,0.22505495605468748,1.7513585144042967,-11.183315954589844
3593806243054,0.501335052,1,0.22744915771484372,1.753752716064453,-11.183315954589844
3593808468575,0.503560573,1,0.23702596435546874,1.7561469177246092,-11.183315954589844
3593810687950,0.505779948,1,0.23702596435546874,1.7609353210449217,-11.190498559570312
3593812912481,0.508004479,1,0.23702596435546874,1.7609353210449217,-11.19887826538086
3593815132117,0.510224115,1,0.23104046020507812,1.7417817077636717,-11.330559356689452
3593817354252,0.51244625,1,0.239420166015625,1.7334020019531249,-11.16057103881836
3593819575242,0.51466724,1,0.22505495605468748,1.7489643127441405,-11.176133349609374
3593821798419,0.516890417,1,0.20949264526367187,1.7405846069335937,-11.186907257080078
3593824024044,0.519116042,1,0.22505495605468748,1.7429788085937499,-11.219228979492186
3593826243523,0.521335521,1,0.23822306518554687,1.7417817077636717,-11.206060870361327
3593828468471,0.523560469,1,0.22266075439453123,1.7214309936523438,-11.192892761230468
3593830687221,0.525779219,1,0.24181436767578124,1.7298106994628906,-11.194089862060546
3593832912221,0.528004219,1,0.24301146850585936,1.7393875061035156,-11.189301458740234
3593835132065,0.530224063,1,0.229843359375,1.734599102783203,-11.232397088623046
3593837353992,0.53244599,1,0.22864625854492185,1.7286135986328124,-11.240776794433593
3593839575554,0.534667552,1,0.22385785522460935,1.7513585144042967,-11.207257971191405
3593841798002,0.53689,1,0.21428104858398436,1.7549498168945312,-11.213243475341796
3593844023471,0.539115469,1,0.2154781494140625,1.7573440185546874,-11.228805786132812
3593846243158,0.541335156,1,0.2166752502441406,1.7657237243652342,-11.238382592773437
3593848468627,0.543560625,1,0.21068974609375,1.7621324218749999,-11.227608685302734
3593850686908,0.545778906,1,0.2214636535644531,1.7621324218749999,-11.218031878662108
3593852911804,0.548003802,1,0.2262520568847656,1.753752716064453,-11.233594189453123
3593855131283,0.550223281,1,0.2454056701660156,1.7298106994628906,-11.197681164550781
3593857353575,0.552445573,1,0.2346317626953125,1.7214309936523438,-11.209652172851563
3593859576283,0.554668281,1,0.2154781494140625,1.7022773803710936,-11.206060870361327
3593861798575,0.556890573,1,0.22864625854492185,1.6915034729003906,-11.177330450439452
3593864023835,0.559115833,1,0.21068974609375,1.7094599853515624,-11.180921752929686
3593866243523,0.561335521,1,0.1927332336425781,1.7238251953125,-11.174936248779296
3593868467637,0.563559635,1,0.19033903198242186,1.7298106994628906,-11.183315954589844
3593870687533,0.565779531,1,0.22505495605468748,1.7369933044433592,-11.186907257080078
3593872912377,0.568004375,1,0.2154781494140625,1.715445489501953,-11.176133349609374
3593875131700,0.570223698,1,0.21188684692382811,1.7034744812011717,-11.04564935913086
3593877353471,0.572445469,1,0.22266075439453123,1.7022773803710936,-11.215637677001952
3593879575971,0.574667969,1,0.22864625854492185,1.7094599853515624,-11.176133349609374
3593881797794,0.576889792,1,0.23343466186523437,1.7010802795410156,-11.170147845458983
3593884024148,0.579116146,1,0.239420166015625,1.7034744812011717,-11.189301458740234
3593886242846,0.581334844,1,0.24301146850585936,1.707065783691406,-11.182118853759764
3593888468002,0.58356,1,0.2166752502441406,1.7214309936523438,-11.183315954589844
3593890687325,0.585779323,1,0.19153613281249998,1.7405846069335937,-11.176133349609374
3593892913106,0.588005104,1,0.1927332336425781,1.7465701110839842,-11.174936248779296
3593895131335,0.590223333,1,0.19393033447265623,1.7513585144042967,-11.162965240478515
3593897354669,0.592446667,1,0.21428104858398436,1.7214309936523438,-11.171344946289063
3593899575346,0.594667344,1,0.201112939453125,1.7178396911621092,-11.189301458740234
3593901798835,0.596890833,1,0.22266075439453123,1.7274164978027342,-11.190498559570312
3593904023314,0.599115312,1,0.22505495605468748,1.7274164978027342,-11.164162341308593
3593906242742,0.60133474,1,0.23702596435546874,1.7334020019531249,-11.141417425537108
3593908467846,0.603559844,1,0.239420166015625,1.7417817077636717,-11.162965240478515
3593910687117,0.605779115,1,0.229843359375,1.7465701110839842,-11.16057103881836
3593912911908,0.608003906,1,0.23223756103515625,1.7429788085937499,-11.189301458740234
3593915131544,0.610223542,1,0.2166752502441406,1.7453730102539062,-11.170147845458983
3593917353575,0.612445573,1,0.22385785522460935,1.7357962036132812,-11.174936248779296
3593919576283,0.614668281,1,0.24660277099609373,1.744175909423828,-11.173739147949219
3593921801127,0.616893125,1,0.23104046020507812,1.753752716064453,-11.179724652099608
3593924024617,0.619116615,1,0.23104046020507812,1.7477672119140624,-11.207257971191405
3593926242533,0.621334531,1,0.2346317626953125,1.7501614135742187,-11.215637677001952
3593928468367,0.623560365,1,0.229843359375,1.7453730102539062,-11.192892761230468
3593930687742,0.62577974,1,0.22266075439453123,1.7357962036132812,-11.180921752929686
3593932912481,0.628004479,1,0.2346317626953125,1.7094599853515624,-11.19169566040039
3593935131648,0.630223646,1,0.23343466186523437,1.6903063720703124,-11.204863769531249
3593937353939,0.632445937,1,0.2346317626953125,1.7094599853515624,-11.194089862060546
3593939576439,0.634668437,1,0.24301146850585936,1.707065783691406,-11.190498559570312
3593941799044,0.636891042,1,0.23223756103515625,1.7106570861816406,-11.184513055419922
3593944023210,0.639115208,1,0.22864625854492185,1.7166425903320313,-11.182118853759764
3593946243158,0.641335156,1,0.22505495605468748,1.725022296142578,-11.15338843383789
3593948467533,0.643559531,1,0.20470424194335937,1.7238251953125,-11.165359442138671
3593950687325,0.645779323,1,0.23582886352539062,1.7357962036132812,-11.161768139648437
3593952912117,0.648004115,1,0.2262520568847656,1.7513585144042967,-11.168950744628905
3593955131439,0.650223437,1,0.229843359375,1.7417817077636717,-11.1474029296875
3593957354044,0.652446042,1,0.2262520568847656,1.7334020019531249,-11.158176837158203
3593959575971,0.654667969,1,0.24181436767578124,1.7465701110839842,-11.148600030517578
3593961798835,0.656890833,1,0.24779987182617186,1.7513585144042967,-11.141417425537108
3593964023471,0.659115469,1,0.239420166015625,1.7310078002929687,-11.145008728027342
3593966243002,0.661335,1,0.239420166015625,1.715445489501953,-11.177330450439452
3593968468054,0.663560052,1,0.23582886352539062,1.734599102783203,-11.18571015625
3593970687273,0.665779271,1,0.2346317626953125,1.7429788085937499,-11.168950744628905
3593972912064,0.668004062,1,0.2549824768066406,1.7286135986328124,-11.19169566040039
3593975131127,0.670223125,1,0.2454056701660156,1.7178396911621092,-11.186907257080078
3593977354929,0.672446927,1,0.22864625854492185,1.7393875061035156,-11.200075366210937
3593979576335,0.674668333,1,0.24660277099609373,1.7513585144042967,-11.213243475341796
3593981798575,0.676890573,1,0.23702596435546874,1.7489643127441405,-11.192892761230468
3593984023002,0.679115,1,0.23582886352539062,1.744175909423828,-11.202469567871093
3593986242950,0.681334948,1,0.2346317626953125,1.7393875061035156,-11.208455072021483
3593988473783,0.683565781,1,0.23223756103515625,1.7262193969726563,-11.200075366210937
3593990689773,0.685781771,1,0.2262520568847656,1.7322049011230467,-11.19169566040039
3593992912689,0.688004687,1,0.22266075439453123,1.7310078002929687,-11.203666668701171
3593995132429,0.690224427,1,0.23343466186523437,1.7286135986328124,-11.212046374511718
3593997354460,0.692446458,1,0.229843359375,1.7393875061035156,-11.200075366210937
3593999576335,0.694668333,1,0.22385785522460935,1.7405846069335937,-11.182118853759764
3594001798523,0.696890521,1,0.2059013427734375,1.725022296142578,-11.165359442138671
3594004023575,0.699115573,1,0.20949264526367187,1.7369933044433592,-11.150994232177734
3594006244460,0.701336458,1,0.229843359375,1.7202338928222656,-11.168950744628905
3594008465554,0.703557552,1,0.2442085693359375,1.725022296142578,-11.188104357910156
3594010687012,0.70577901,1,0.24301146850585936,1.7286135986328124,-11.176133349609374
3594012909825,0.708001823,1,0.2442085693359375,1.7226280944824217,-11.158176837158203
3594015131960,0.710223958,1,0.2166752502441406,1.7166425903320313,-11.17254204711914
3594017355033,0.712447031,1,0.23104046020507812,1.7322049011230467,-11.170147845458983
3594019576231,0.714668229,1,0.23223756103515625,1.7310078002929687,-11.19169566040039
3594021797585,0.716889583,1,0.2214636535644531,1.7453730102539062,-11.177330450439452
3594024022012,0.71911401,1,0.21906945190429686,1.734599102783203,-11.166556542968749
3594026242742,0.72133474,1,0.2059013427734375,1.7549498168945312,-11.146205828857422
3594028465033,0.723557031,1,0.19632453613281248,1.7609353210449217,-11.156979736328124
3594030686960,0.725778958,1,0.21068974609375,1.753752716064453,-11.174936248779296
3594032912325,0.728004323,1,0.21787235107421873,1.7501614135742187,-11.036072552490234
3594035132064,0.730224062,1,0.21308394775390624,1.7405846069335937,-11.197681164550781
3594037353835,0.732445833,1,0.21906945190429686,1.7369933044433592,-11.19887826538086
3594039575502,0.7346675,1,0.24061726684570311,1.7334020019531249,-11.176133349609374
3594041798419,0.736890417,1,0.2501940734863281,1.7310078002929687,-11.174936248779296
3594044022533,0.739114531,1,0.26695348510742184,1.7298106994628906,-11.18571015625
3594046243887,0.741335885,1,0.2537853759765625,1.714248388671875,-11.197681164550781
3594048468887,0.743560885,1,0.239420166015625,1.725022296142578,-11.19887826538086
3594050687064,0.745779062,1,0.22744915771484372,1.734599102783203,-11.201272467041015
3594052912064,0.748004062,1,0.23104046020507812,1.744175909423828,-11.222820281982422
3594055131387,0.750223385,1,0.2501940734863281,1.7501614135742187,-11.235988391113281
3594057353835,0.752445833,1,0.2346317626953125,1.7286135986328124,-11.214440576171874
3594059575919,0.754667917,1,0.23104046020507812,1.7262193969726563,-11.21084927368164
3594061798054,0.756890052,1,0.239420166015625,1.7130512878417967,-11.19887826538086
3594064022950,0.759114948,1,0.22864625854492185,1.7130512878417967,-11.203666668701171
3594066242741,0.761334739,1,0.22744915771484372,1.7178396911621092,-11.206060870361327
3594068467481,0.763559479,1,0.23223756103515625,1.715445489501953,-11.219228979492186
3594070687169,0.765779167,1,0.22864625854492185,1.7190367919921874,-11.19887826538086
3594072911700,0.768003698,1,0.23104046020507812,1.7190367919921874,-11.17254204711914
3594075129304,0.770221302,1,0.23104046020507812,1.7274164978027342,-11.177330450439452
3594077355814,0.772447812,1,0.24301146850585936,1.725022296142578,-11.195286962890624
3594079576908,0.774668906,1,0.229843359375,1.7166425903320313,-11.233594189453123
3594081798627,0.776890625,1,0.229843359375,1.7274164978027342,-11.21683477783203
3594084023366,0.779115364,1,0.22505495605468748,1.7381904052734374,-11.196484063720703
3594086242950,0.781334948,1,0.22026655273437498,1.7453730102539062,-11.194089862060546
3594088468523,0.783560521,1,0.21787235107421873,1.744175909423828,-11.188104357910156
3594090688419,0.785780417,1,0.23104046020507812,1.7334020019531249,-11.190498559570312
3594092913366,0.788005364,1,0.24181436767578124,1.7405846069335937,-11.203666668701171
3594095131700,0.790223698,1,0.2454056701660156,1.7202338928222656,-11.167753643798827
3594097353887,0.792445885,1,0.2537853759765625,1.7118541870117185,-11.176133349609374
3594099575450,0.794667448,1,0.23343466186523437,1.7238251953125,-11.177330450439452
3594101798731,0.796890729,1,0.229843359375,1.7286135986328124,-11.176133349609374
3594104023210,0.799115208,1,0.22266075439453123,1.70467158203125,-11.184513055419922
3594106242898,0.801334896,1,0.20949264526367187,1.7022773803710936,-11.196484063720703
3594108467637,0.803559635,1,0.22864625854492185,1.7130512878417967,-11.207257971191405
3594110687585,0.805779583,1,0.24061726684570311,1.7130512878417967,-11.190498559570312
3594112912325,0.808004323,1,0.23822306518554687,1.7286135986328124,-11.042058056640624
3594115132064,0.810224062,1,0.23822306518554687,1.7381904052734374,-11.194089862060546
3594117353835,0.812445833,1,0.22505495605468748,1.7417817077636717,-11.17254204711914
3594119576023,0.814668021,1,0.23223756103515625,1.7477672119140624,-11.190498559570312
3594121798783,0.816890781,1,0.22864625854492185,1.7357962036132812,-11.196484063720703
3594124023366,0.819115364,1,0.22864625854492185,1.7310078002929687,-11.201272467041015
3594126243158,0.821335156,1,0.2214636535644531,1.7178396911621092,-11.225214483642578
3594128468783,0.823560781,1,0.20949264526367187,1.7118541870117185,-11.196484063720703
3594130687169,0.825779167,1,0.20829554443359374,1.725022296142578,-11.18571015625
3594132912950,0.828004948,1,0.20949264526367187,1.7310078002929687,-11.182118853759764
3594135131127,0.830223125,1,0.21068974609375,1.7501614135742187,-11.17254204711914
3594137354200,0.832446198,1,0.22026655273437498,1.7585411193847655,-11.171344946289063
3594139575814,0.834667812,1,0.22505495605468748,1.744175909423828,-11.189301458740234
3594141798575,0.836890573,1,0.21787235107421873,1.7226280944824217,-11.176133349609374
3594144023366,0.839115364,1,0.22266075439453123,1.7118541870117185,-11.183315954589844
3594146243314,0.841335312,1,0.23223756103515625,1.7094599853515624,-11.190498559570312
3594148467169,0.843559167,1,0.23343466186523437,1.7322049011230467,-11.183315954589844
3594150687116,0.845779114,1,0.23223756103515625,1.7405846069335937,-11.18571015625
3594152912533,0.848004531,1,0.22744915771484372,1.7465701110839842,-11.222820281982422
3594155132429,0.850224427,1,0.20709844360351562,1.7322049011230467,-11.250353601074218
3594157353471,0.852445469,1,0.25139117431640623,1.7322049011230467,-11.263521710205078
3594159575919,0.854667917,1,0.2609679809570312,1.7405846069335937,-11.239579693603515
3594161798991,0.856890989,1,0.2346317626953125,1.7465701110839842,-11.232397088623046
3594164023210,0.859115208,1,0.2262520568847656,1.7417817077636717,-11.188104357910156
3594166242481,0.861334479,1,0.23702596435546874,1.7393875061035156,-11.195286962890624
3594168466960,0.863558958,1,0.23104046020507812,1.7477672119140624,-11.19887826538086
3594170687794,0.865779792,1,0.22385785522460935,1.7585411193847655,-11.188104357910156
3594172912533,0.868004531,1,0.22266075439453123,1.7525556152343749,-11.164162341308593
3594175131544,0.870223542,1,0.2262520568847656,1.7369933044433592,-11.152191333007812
3594177353887,0.872445885,1,0.2537853759765625,1.715445489501953,-11.167753643798827
3594179576231,0.874668229,1,0.24301146850585936,1.7094599853515624,-11.201272467041015
3594181798679,0.876890677,1,0.2442085693359375,1.7166425903320313,-11.214440576171874
3594184023262,0.87911526,1,0.23343466186523437,1.714248388671875,-11.214440576171874
3594186243002,0.881335,1,0.229843359375,1.725022296142578,-11.196484063720703
3594188467481,0.883559479,1,0.2214636535644531,1.7429788085937499,-11.177330450439452
3594190687169,0.885779167,1,0.21068974609375,1.744175909423828,-11.177330450439452
3594192911700,0.888003698,1,0.22864625854492185,1.7298106994628906,-11.17852755126953
3594195131648,0.890223646,1,0.22026655273437498,1.7334020019531249,-11.166556542968749
3594197360866,0.892452864,1,0.21428104858398436,1.7322049011230467,-11.188104357910156
3594199578419,0.894670417,1,0.20709844360351562,1.7369933044433592,-11.195286962890624
3594201795866,0.896887864,1,0.2154781494140625,1.7214309936523438,-11.212046374511718
3594204114825,0.899206823,1,0.23223756103515625,1.705868682861328,-11.221623181152344
3594206245606,0.901337604,1,0.23104046020507812,1.696291876220703,-11.192892761230468
3594208470554,0.903562552,1,0.2214636535644531,1.6938976745605467,-11.173739147949219
3594210687741,0.905779739,1,0.22266075439453123,1.7214309936523438,-11.170147845458983
3594212912273,0.908004271,1,0.22744915771484372,1.7322049011230467,-11.161768139648437
3594215131491,0.910223489,1,0.24061726684570311,1.7417817077636717,-11.170147845458983
3594217354460,0.912446458,1,0.22744915771484372,1.725022296142578,-11.190498559570312
3594219576700,0.914668698,1,0.23822306518554687,1.7130512878417967,-11.162965240478515
3594221799356,0.916891354,1,0.2501940734863281,1.7298106994628906,-11.162965240478515
3594224023314,0.919115312,1,0.229843359375,1.7274164978027342,-11.154585534667968
3594226242898,0.921334896,1,0.23702596435546874,1.7274164978027342,-11.155782635498046
3594228468731,0.923560729,1,0.23104046020507812,1.7286135986328124,-11.179724652099608
3594230687637,0.925779635,1,0.21308394775390624,1.7226280944824217,-11.218031878662108
3594232912325,0.928004323,1,0.19512743530273435,1.7357962036132812,-11.208455072021483
3594235131544,0.930223542,1,0.20470424194335937,1.7429788085937499,-11.197681164550781
3594237354200,0.932446198,1,0.2346317626953125,1.744175909423828,-11.190498559570312
3594239577012,0.93466901,1,0.229843359375,1.7310078002929687,-11.186907257080078
3594241798314,0.936890312,1,0.22505495605468748,1.714248388671875,-11.170147845458983
3594244023106,0.939115104,1,0.239420166015625,1.7118541870117185,-11.19887826538086
3594246242637,0.941334635,1,0.239420166015625,1.70467158203125,-11.182118853759764
3594248468731,0.943560729,1,0.22864625854492185,1.7022773803710936,-11.19169566040039
3594250687794,0.945779792,1,0.22026655273437498,1.7082628845214842,-11.202469567871093
3594252912533,0.948004531,1,0.21068974609375,1.7334020019531249,-11.190498559570312
3594255132012,0.95022401,1,0.21787235107421873,1.7405846069335937,-11.184513055419922
3594257354512,0.95244651,1,0.21068974609375,1.7453730102539062,-11.188104357910156
3594259575710,0.954667708,1,0.20829554443359374,1.734599102783203,-11.195286962890624
3594261798731,0.956890729,1,0.21068974609375,1.7190367919921874,-11.220426080322264
3594264024252,0.95911625,1,0.21308394775390624,1.7130512878417967,-11.197681164550781
3594266242429,0.961334427,1,0.2166752502441406,1.7238251953125,-11.194089862060546
3594268468575,0.963560573,1,0.21188684692382811,1.725022296142578,-11.164162341308593
3594270687221,0.965779219,1,0.2059013427734375,1.7214309936523438,-11.179724652099608
3594272911700,0.968003698,1,0.19871873779296872,1.7369933044433592,-11.176133349609374
3594275132585,0.970224583,1,0.20709844360351562,1.7417817077636717,-11.164162341308593
3594277354564,0.972446562,1,0.24181436767578124,1.7393875061035156,-11.159373937988281
3594279576127,0.974668125,1,0.23702596435546874,1.7286135986328124,-11.154585534667968
3594281798575,0.976890573,1,0.2537853759765625,1.7274164978027342,-11.176133349609374
3594284023679,0.979115677,1,0.24899697265624998,1.725022296142578,-11.192892761230468
3594286242689,0.981334687,1,0.23104046020507812,1.734599102783203,-11.184513055419922
3594288468054,0.983560052,1,0.2154781494140625,1.7357962036132812,-11.188104357910156
3594290687273,0.985779271,1,0.22744915771484372,1.7322049011230467,-11.051634863281249
3594292912793,0.988004791,1,0.2166752502441406,1.7262193969726563,-11.203666668701171
3594295132377,0.990224375,1,0.2059013427734375,1.7190367919921874,-11.176133349609374
3594297353887,0.992445885,1,0.2262520568847656,1.7178396911621092,-11.164162341308593
3594299576283,0.994668281,1,0.2346317626953125,1.7226280944824217,-11.201272467041015
3594301799408,0.996891406,1,0.23343466186523437,1.734599102783203,-11.207257971191405
3594304023939,0.999115937,1,0.23702596435546874,1.744175909423828,-11.226411584472656
3594306242533,1.001334531,1,0.22744915771484372,1.7298106994628906,-11.220426080322264
3594308467950,1.003559948,1,0.22385785522460935,1.7322049011230467,-11.222820281982422
3594310687064,1.005779062,1,0.23223756103515625,1.7310078002929687,-11.2240173828125
3594312912168,1.008004166,1,0.258573779296875,1.725022296142578,-11.201272467041015
3594315132168,1.010224166,1,0.2693476867675781,1.7274164978027342,-11.19169566040039
3594317354096,1.012446094,1,0.20350714111328125,1.7429788085937499,-11.194089862060546
3594319575658,1.014667656,1,0.21188684692382811,1.7310078002929687,-11.196484063720703
3594321798106,1.016890104,1,0.2346317626953125,1.715445489501953,-11.209652172851563
3594324023366,1.019115364,1,0.23343466186523437,1.7178396911621092,-11.220426080322264
3594326240189,1.021332187,1,0.22385785522460935,1.7202338928222656,-11.192892761230468
3594328464877,1.023556875,1,0.21787235107421873,1.7094599853515624,-11.18571015625
3594330688366,1.025780364,1,0.22026655273437498,1.7226280944824217,-11.183315954589844
3594332912793,1.028004791,1,0.23702596435546874,1.7298106994628906,-11.168950744628905
3594335131491,1.030223489,1,0.2262520568847656,1.7166425903320313,-11.183315954589844
3594337353314,1.032445312,1,0.2166752502441406,1.7178396911621092,-11.195286962890624
3594339576075,1.034668073,1,0.23223756103515625,1.7322049011230467,-11.161768139648437
3594341798262,1.03689026,1,0.22864625854492185,1.7489643127441405,-11.188104357910156
3594344022793,1.039114791,1,0.20709844360351562,1.7405846069335937,-11.2240173828125
3594346243158,1.041335156,1,0.20829554443359374,1.7357962036132812,-11.227608685302734
3594348469096,1.043561094,1,0.2346317626953125,1.7322049011230467,-11.226411584472656
3594350687741,1.045779739,1,0.23343466186523437,1.7298106994628906,-11.189301458740234
3594352912429,1.048004427,1,0.2262520568847656,1.7286135986328124,-11.168950744628905
3594355131387,1.050223385,1,0.21308394775390624,1.7298106994628906,-11.152191333007812
3594357353731,1.052445729,1,0.21787235107421873,1.7202338928222656,-11.155782635498046
3594359576283,1.054668281,1,0.20350714111328125,1.7322049011230467,-11.162965240478515
3594361798471,1.056890469,1,0.20470424194335937,1.7417817077636717,-11.180921752929686
3594364022950,1.059114948,1,0.21787235107421873,1.7381904052734374,-11.19887826538086
3594366242377,1.061334375,1,0.21906945190429686,1.7501614135742187,-11.222820281982422
3594368468887,1.063560885,1,0.22505495605468748,1.7561469177246092,-11.208455072021483
3594370687273,1.065779271,1,0.22744915771484372,1.7453730102539062,-11.167753643798827
3594372912012,1.06800401,1,0.229843359375,1.7477672119140624,-11.183315954589844
3594375131075,1.070223073,1,0.20470424194335937,1.7525556152343749,-11.161768139648437
3594377354929,1.072446927,1,0.21906945190429686,1.7477672119140624,-11.156979736328124
3594379575866,1.074667864,1,0.2346317626953125,1.7501614135742187,-11.170147845458983
3594381798471,1.076890469,1,0.23223756103515625,1.7477672119140624,-11.176133349609374
3594384022846,1.079114844,1,0.22505495605468748,1.7286135986328124,-11.142614526367186
3594386242741,1.081334739,1,0.2454056701660156,1.7238251953125,-11.137826123046874
3594388468262,1.08356026,1,0.23822306518554687,1.725022296142578,-11.159373937988281
3594390687221,1.085779219,1,0.23223756103515625,1.7417817077636717,-11.194089862060546
3594392913106,1.088005104,1,0.2346317626953125,1.7405846069335937,-11.196484063720703
3594395131648,1.090223646,1,0.21068974609375,1.7453730102539062,-11.189301458740234
3594397353887,1.092445885,1,0.20350714111328125,1.7429788085937499,-11.190498559570312
3594399575866,1.094667864,1,0.20470424194335937,1.7334020019531249,-11.197681164550781
3594401798002,1.09689,1,0.20470424194335937,1.7286135986328124,-11.203666668701171
3594404023418,1.099115416,1,0.2154781494140625,1.7166425903320313,-11.212046374511718
3594406248783,1.101340781,1,0.20350714111328125,1.7166425903320313,-11.21084927368164
3594408471700,1.103563698,1,0.19632453613281248,1.707065783691406,-11.161768139648437
3594410687689,1.105779687,1,0.19991583862304688,1.7130512878417967,-11.173739147949219
3594412912533,1.108004531,1,0.21188684692382811,1.7190367919921874,-11.170147845458983
3594415131335,1.110223333,1,0.20949264526367187,1.7190367919921874,-11.197681164550781
3594417353679,1.112445677,1,0.2214636535644531,1.7310078002929687,-11.212046374511718
3594419575971,1.114667969,1,0.2214636535644531,1.7334020019531249,-11.207257971191405
3594421798679,1.116890677,1,0.20470424194335937,1.7262193969726563,-11.213243475341796
3594424023418,1.119115416,1,0.20350714111328125,1.7166425903320313,-11.188104357910156
3594426242637,1.121334635,1,0.21068974609375,1.7118541870117185,-11.203666668701171
3594428468418,1.123560416,1,0.22026655273437498,1.7166425903320313,-11.208455072021483
3594430686335,1.125778333,1,0.22026655273437498,1.7286135986328124,-11.192892761230468
3594432912325,1.128004323,1,0.21308394775390624,1.7310078002929687,-11.183315954589844
3594435131648,1.130223646,1,0.2442085693359375,1.7322049011230467,-11.200075366210937
3594437353731,1.132445729,1,0.24899697265624998,1.7357962036132812,-11.194089862060546
3594439575971,1.134667969,1,0.25737667846679685,1.7393875061035156,-11.19169566040039
3594441799200,1.136891198,1,0.23702596435546874,1.753752716064453,-11.18571015625
3594444024512,1.13911651,1,0.2346317626953125,1.7417817077636717,-11.184513055419922
3594446242481,1.141334479,1,0.2262520568847656,1.7381904052734374,-11.219228979492186
3594448468731,1.143560729,1,0.2214636535644531,1.7274164978027342,-11.240776794433593
3594450688054,1.145780052,1,0.24061726684570311,1.7130512878417967,-11.220426080322264
3594452912064,1.148004062,1,0.2346317626953125,1.7274164978027342,-11.201272467041015
3594455131491,1.150223489,1,0.22026655273437498,1.725022296142578,-11.176133349609374
3594457353679,1.152445677,1,0.20709844360351562,1.7226280944824217,-11.176133349609374
3594459576283,1.154668281,1,0.21787235107421873,1.7357962036132812,-11.166556542968749
3594461798887,1.156890885,1,0.22505495605468748,1.7286135986328124,-11.15338843383789
3594464024721,1.159116719,1,0.23104046020507812,1.7477672119140624,-11.1474029296875
3594466242116,1.161334114,1,0.2214636535644531,1.7274164978027342,-11.155782635498046
3594468467741,1.163559739,1,0.2166752502441406,1.725022296142578,-11.176133349609374
3594470687481,1.165779479,1,0.23582886352539062,1.7298106994628906,-11.19887826538086
3594472911752,1.16800375,1,0.23343466186523437,1.7322049011230467,-11.227608685302734
3594475132481,1.170224479,1,0.229843359375,1.7286135986328124,-11.219228979492186
3594477354148,1.172446146,1,0.21906945190429686,1.7381904052734374,-11.19169566040039
3594479576335,1.174668333,1,0.22505495605468748,1.7310078002929687,-11.190498559570312
3594481798939,1.176890937,1,0.22266075439453123,1.7238251953125,-11.19887826538086
3594484023418,1.179115416,1,0.22744915771484372,1.7417817077636717,-11.190498559570312
3594486243210,1.181335208,1,0.23223756103515625,1.7477672119140624,-11.2240173828125
3594488469200,1.183561198,1,0.239420166015625,1.7525556152343749,-11.206060870361327
3594490687221,1.185779219,1,0.21906945190429686,1.7334020019531249,-11.17852755126953
3594492912898,1.188004896,1,0.2214636535644531,1.7262193969726563,-11.159373937988281
3594495131752,1.19022375,1,0.2262520568847656,1.7322049011230467,-11.182118853759764
3594497354512,1.19244651,1,0.24301146850585936,1.7310078002929687,-11.183315954589844
3594499576387,1.194668385,1,0.24181436767578124,1.7357962036132812,-11.208455072021483
3594501797793,1.196889791,1,0.21068974609375,1.7393875061035156,-11.18571015625
3594504022429,1.199114427,1,0.20829554443359374,1.7465701110839842,-11.171344946289063
3594506243054,1.201335052,1,0.2214636535644531,1.7334020019531249,-11.174936248779296
3594508467898,1.203559896,1,0.20350714111328125,1.7429788085937499,-11.19169566040039
3594510687429,1.205779427,1,0.2154781494140625,1.7477672119140624,-11.200075366210937
3594512911960,1.208003958,1,0.229843359375,1.7334020019531249,-11.19887826538086
3594515132116,1.210224114,1,0.2059013427734375,1.7465701110839842,-11.194089862060546
3594517354408,1.212446406,1,0.20829554443359374,1.7369933044433592,-11.204863769531249
3594519576595,1.214668593,1,0.21906945190429686,1.7286135986328124,-11.204863769531249
3594521798002,1.21689,1,0.21308394775390624,1.7453730102539062,-11.197681164550781
3594524023939,1.219115937,1,0.20470424194335937,1.7453730102539062,-11.208455072021483
3594526242220,1.221334218,1,0.1867477294921875,1.753752716064453,-11.221623181152344
3594528467793,1.223559791,1,0.17956512451171874,1.7477672119140624,-11.189301458740234
3594530687429,1.225779427,1,0.20350714111328125,1.7393875061035156,-11.195286962890624
3594532912168,1.228004166,1,0.22864625854492185,1.725022296142578,-11.192892761230468
3594535131648,1.230223646,1,0.2454056701660156,1.7214309936523438,-11.186907257080078
3594537354408,1.232446406,1,0.23104046020507812,1.7130512878417967,-11.17254204711914
3594539576075,1.234668073,1,0.2262520568847656,1.7094599853515624,-11.183315954589844
3594541798783,1.236890781,1,0.21906945190429686,1.705868682861328,-11.184513055419922
3594544022741,1.239114739,1,0.22266075439453123,1.734599102783203,-11.190498559570312
3594546242845,1.241334843,1,0.22385785522460935,1.7334020019531249,-11.192892761230468
3594548467793,1.243559791,1,0.25258827514648435,1.7322049011230467,-11.196484063720703
3594550687377,1.245779375,1,0.2501940734863281,1.7393875061035156,-11.190498559570312
3594552911856,1.248003854,1,0.21428104858398436,1.7417817077636717,-11.192892761230468
3594555132116,1.250224114,1,0.2166752502441406,1.7369933044433592,-11.204863769531249
3594557353887,1.252445885,1,0.23582886352539062,1.7238251953125,-11.213243475341796
3594559575658,1.254667656,1,0.23104046020507812,1.7190367919921874,-11.219228979492186
3594561797637,1.256889635,1,0.23104046020507812,1.7357962036132812,-11.206060870361327
3594564023470,1.259115468,1,0.23223756103515625,1.7453730102539062,-11.214440576171874
3594566242012,1.26133401,1,0.22505495605468748,1.734599102783203,-11.222820281982422
3594568467637,1.263559635,1,0.21906945190429686,1.7130512878417967,-11.179724652099608
3594570687793,1.265779791,1,0.2262520568847656,1.695094775390625,-11.183315954589844
3594572913210,1.268005208,1,0.23582886352539062,1.6843208679199217,-11.194089862060546
3594575132377,1.270224375,1,0.22864625854492185,1.695094775390625,-11.195286962890624
3594577353783,1.272445781,1,0.239420166015625,1.7130512878417967,-11.202469567871093
3594579576335,1.274668333,1,0.24779987182617186,1.7286135986328124,-11.182118853759764
3594581798314,1.276890312,1,0.2454056701660156,1.7298106994628906,-11.192892761230468
3594584023054,1.279115052,1,0.24181436767578124,1.744175909423828,-11.196484063720703
3594586242377,1.281334375,1,0.21308394775390624,1.7477672119140624,-11.200075366210937
3594588467585,1.283559583,1,0.22385785522460935,1.7274164978027342,-11.184513055419922
3594590687377,1.285779375,1,0.2346317626953125,1.7310078002929687,-11.149797131347656
3594592912220,1.288004218,1,0.22026655273437498,1.7238251953125,-11.145008728027342
3594595131648,1.290223646,1,0.1975216369628906,1.7322049011230467,-11.173739147949219
3594597353627,1.292445625,1,0.18914193115234373,1.7369933044433592,-11.200075366210937
3594599575710,1.294667708,1,0.19871873779296872,1.7286135986328124,-11.200075366210937
3594601798366,1.296890364,1,0.1975216369628906,1.7334020019531249,-11.201272467041015
3594604022845,1.299114843,1,0.19632453613281248,1.744175909423828,-11.188104357910156
3594606242585,1.301334583,1,0.19393033447265623,1.7298106994628906,-11.195286962890624
3594608467845,1.303559843,1,0.201112939453125,1.715445489501953,-11.194089862060546
3594610688262,1.30578026,1,0.21428104858398436,1.7274164978027342,-11.206060870361327
3594612913314,1.308005312,1,0.22385785522460935,1.7178396911621092,-11.219228979492186
3594615139773,1.310231771,1,0.2262520568847656,1.7334020019531249,-11.21084927368164
3594617356804,1.312448802,1,0.23223756103515625,1.7310078002929687,-11.189301458740234
3594619576804,1.314668802,1,0.2166752502441406,1.7238251953125,-11.184513055419922
3594621798210,1.316890208,1,0.23582886352539062,1.7202338928222656,-11.171344946289063
3594624023158,1.319115156,1,0.24301146850585936,1.7417817077636717,-11.171344946289063
3594626242950,1.321334948,1,0.23343466186523437,1.7357962036132812,-11.037269653320312
3594628468939,1.323560937,1,0.23104046020507812,1.7238251953125,-11.219228979492186
3594630687793,1.325779791,1,0.2442085693359375,1.734599102783203,-11.206060870361327
3594632911960,1.328003958,1,0.23104046020507812,1.7369933044433592,-11.218031878662108
3594635132481,1.330224479,1,0.2346317626953125,1.7369933044433592,-11.206060870361327
3594637354564,1.332446562,1,0.21188684692382811,1.7262193969726563,-11.176133349609374
3594639576387,1.334668385,1,0.21068974609375,1.7393875061035156,-11.182118853759764
3594641798106,1.336890104,1,0.2166752502441406,1.7298106994628906,-11.17852755126953
3594644023835,1.339115833,1,0.24301146850585936,1.7381904052734374,-11.158176837158203
3594646242950,1.341334948,1,0.2346317626953125,1.7417817077636717,-11.176133349609374
3594648471283,1.343563281,1,0.21906945190429686,1.7513585144042967,-11.177330450439452
3594650687429,1.345779427,1,0.21428104858398436,1.7453730102539062,-11.17852755126953
3594652912220,1.348004218,1,0.20949264526367187,1.7369933044433592,-11.190498559570312
3594655131700,1.350223698,1,0.21906945190429686,1.7369933044433592,-11.188104357910156
3594657354148,1.352446146,1,0.2214636535644531,1.7453730102539062,-11.188104357910156
3594659575345,1.354667343,1,0.229843359375,1.7178396911621092,-11.192892761230468
3594661798679,1.356890677,1,0.23822306518554687,1.70467158203125,-11.213243475341796
3594664020502,1.3591125,1,0.239420166015625,1.714248388671875,-11.206060870361327
3594666243887,1.361335885,1,0.23223756103515625,1.715445489501953,-11.170147845458983
3594668468991,1.363560989,1,0.2154781494140625,1.7190367919921874,-11.184513055419922
3594670687637,1.365779635,1,0.24181436767578124,1.725022296142578,-11.177330450439452
3594672912429,1.368004427,1,0.22864625854492185,1.7022773803710936,-11.186907257080078
3594675131752,1.37022375,1,0.21068974609375,1.7106570861816406,-11.19887826538086
3594677353679,1.372445677,1,0.21068974609375,1.714248388671875,-11.190498559570312
3594679575606,1.374667604,1,0.2166752502441406,1.7214309936523438,-11.17254204711914
3594681798418,1.376890416,1,0.20231004028320312,1.715445489501953,-11.184513055419922
3594684023835,1.379115833,1,0.20350714111328125,1.7190367919921874,-11.194089862060546
3594686243106,1.381335104,1,0.2262520568847656,1.7214309936523438,-11.034875451660156
3594688468002,1.38356,1,0.21787235107421873,1.7130512878417967,-11.190498559570312
3594690686648,1.385778646,1,0.21906945190429686,1.7118541870117185,-11.165359442138671
3594692912012,1.38800401,1,0.23343466186523437,1.7178396911621092,-11.168950744628905
3594695131335,1.390223333,1,0.23223756103515625,1.7214309936523438,-11.158176837158203
3594697354252,1.39244625,1,0.229843359375,1.725022296142578,-11.180921752929686
3594699575762,1.39466776,1,0.24181436767578124,1.7334020019531249,-11.204863769531249
3594701797898,1.396889896,1,0.24660277099609373,1.7310078002929687,-11.218031878662108
3594704023835,1.399115833,1,0.2346317626953125,1.7322049011230467,-11.214440576171874
3594706243106,1.401335104,1,0.21787235107421873,1.7465701110839842,-11.30661734008789
3594708467741,1.403559739,1,0.2214636535644531,1.7621324218749999,-11.135431921386719
3594710686595,1.405778593,1,0.23702596435546874,1.7561469177246092,-11.156979736328124
3594712912325,1.408004323,1,0.24061726684570311,1.7417817077636717,-11.180921752929686
3594715131908,1.410223906,1,0.2346317626953125,1.7238251953125,-11.18571015625
3594717354095,1.412446093,1,0.22385785522460935,1.7166425903320313,-11.192892761230468
3594719576439,1.414668437,1,0.21068974609375,1.7214309936523438,-11.202469567871093
3594721798887,1.416890885,1,0.23104046020507812,1.715445489501953,-11.21683477783203
3594724023679,1.419115677,1,0.24181436767578124,1.7118541870117185,-11.221623181152344
3594726242793,1.421334791,1,0.24779987182617186,1.7226280944824217,-11.179724652099608
3594728467741,1.423559739,1,0.23582886352539062,1.744175909423828,-11.183315954589844
3594730687429,1.425779427,1,0.2166752502441406,1.7417817077636717,-11.156979736328124
3594732913262,1.42800526,1,0.20709844360351562,1.7417817077636717,-11.156979736328124
3594735131647,1.430223645,1,0.20829554443359374,1.7286135986328124,-11.155782635498046
3594737354200,1.432446198,1,0.2214636535644531,1.725022296142578,-11.150994232177734
3594739576387,1.434668385,1,0.23822306518554687,1.7405846069335937,-11.16057103881836
3594741798522,1.43689052,1,0.23104046020507812,1.744175909423828,-11.209652172851563
3594744022689,1.439114687,1,0.229843359375,1.7369933044433592,-11.208455072021483
3594746243418,1.441335416,1,0.23343466186523437,1.7405846069335937,-11.189301458740234
3594748468575,1.443560573,1,0.22864625854492185,1.7010802795410156,-11.182118853759764
3594750688418,1.445780416,1,0.22505495605468748,1.695094775390625,-11.186907257080078
3594752912064,1.448004062,1,0.21428104858398436,1.696291876220703,-11.212046374511718
3594755131647,1.450223645,1,0.21308394775390624,1.714248388671875,-11.19887826538086
3594757354200,1.452446198,1,0.20470424194335937,1.7178396911621092,-11.21683477783203
3594759576387,1.454668385,1,0.19871873779296872,1.7214309936523438,-11.206060870361327
3594761798939,1.456890937,1,0.21068974609375,1.7178396911621092,-11.189301458740234
3594764024981,1.459116979,1,0.21906945190429686,1.7465701110839842,-11.182118853759764
3594766242741,1.461334739,1,0.20231004028320312,1.7465701110839842,-11.143811627197264
3594768468158,1.463560156,1,0.2059013427734375,1.7334020019531249,-11.156979736328124
3594770687116,1.465779114,1,0.2154781494140625,1.7381904052734374,-11.184513055419922
3594772912637,1.468004635,1,0.21188684692382811,1.7274164978027342,-11.21084927368164
3594775131179,1.470223177,1,0.20829554443359374,1.7286135986328124,-11.201272467041015
3594777351700,1.472443698,1,0.19632453613281248,1.7381904052734374,-11.188104357910156
3594779573210,1.474665208,1,0.1975216369628906,1.7298106994628906,-11.212046374511718
3594781800293,1.476892291,1,0.20709844360351562,1.7202338928222656,-11.225214483642578
3594784024304,1.479116302,1,0.21428104858398436,1.725022296142578,-11.226411584472656
3594786243054,1.481335052,1,0.2154781494140625,1.7357962036132812,-11.234791290283203
3594788468418,1.483560416,1,0.229843359375,1.7310078002929687,-11.225214483642578
3594790687481,1.485779479,1,0.21906945190429686,1.7202338928222656,-11.200075366210937
3594792912325,1.488004323,1,0.229843359375,1.7310078002929687,-11.184513055419922
3594795132377,1.490224375,1,0.2262520568847656,1.7274164978027342,-11.174936248779296
3594797354825,1.492446823,1,0.22744915771484372,1.7082628845214842,-11.161768139648437
3594799576179,1.494668177,1,0.21906945190429686,1.7298106994628906,-11.155782635498046
3594801798731,1.496890729,1,0.21428104858398436,1.7286135986328124,-11.190498559570312
3594804023522,1.49911552,1,0.2214636535644531,1.7357962036132812,-11.232397088623046
3594806242585,1.501334583,1,0.2214636535644531,1.725022296142578,-11.19887826538086
3594808468106,1.503560104,1,0.23582886352539062,1.7334020019531249,-11.21683477783203
3594810686804,1.505778802,1,0.19512743530273435,1.7130512878417967,-11.208455072021483
3594812910033,1.508002031,1,0.22026655273437498,1.7118541870117185,-11.182118853759764
3594815132637,1.510224635,1,0.2214636535644531,1.7214309936523438,-11.180921752929686
3594817354043,1.512446041,1,0.22026655273437498,1.7166425903320313,-11.189301458740234
3594819575345,1.514667343,1,0.23582886352539062,1.714248388671875,-11.182118853759764
3594821798106,1.516890104,1,0.239420166015625,1.7178396911621092,-11.184513055419922
3594824028522,1.51912052,1,0.23104046020507812,1.7166425903320313,-11.220426080322264
3594826245397,1.521337395,1,0.24181436767578124,1.7501614135742187,-11.189301458740234
3594828468470,1.523560468,1,0.24061726684570311,1.7597382202148437,-11.202469567871093
3594830686960,1.525778958,1,0.21308394775390624,1.7465701110839842,-11.204863769531249
3594832912429,1.528004427,1,0.21906945190429686,1.7453730102539062,-11.197681164550781
3594835131647,1.530223645,1,0.21188684692382811,1.7489643127441405,-11.18571015625
3594837353522,1.53244552,1,0.19512743530273435,1.7513585144042967,-11.17852755126953
3594839576283,1.534668281,1,0.21188684692382811,1.7525556152343749,-11.177330450439452
3594841798314,1.536890312,1,0.21787235107421873,1.7453730102539062,-11.197681164550781
3594844023522,1.53911552,1,0.2166752502441406,1.7369933044433592,-11.165359442138671
3594846242377,1.541334375,1,0.22864625854492185,1.7238251953125,-11.17852755126953
3594848467585,1.543559583,1,0.2346317626953125,1.7202338928222656,-11.203666668701171
3594850687429,1.545779427,1,0.20231004028320312,1.7238251953125,-11.19169566040039
3594852913679,1.548005677,1,0.1975216369628906,1.7226280944824217,-11.18571015625
3594855132377,1.550224375,1,0.23343466186523437,1.7322049011230467,-11.207257971191405
3594857354252,1.55244625,1,0.2262520568847656,1.7334020019531249,-11.221623181152344
3594859575554,1.554667552,1,0.239420166015625,1.7298106994628906,-11.209652172851563
3594861798835,1.556890833,1,0.2346317626953125,1.7262193969726563,-11.192892761230468
3594864022689,1.559114687,1,0.2214636535644531,1.7298106994628906,-11.243170996093749
3594866243002,1.561335,1,0.23702596435546874,1.7226280944824217,-11.218031878662108
3594868468054,1.563560052,1,0.23582886352539062,1.7357962036132812,-11.2240173828125
3594870688002,1.56578,1,0.22266075439453123,1.7357962036132812,-11.195286962890624
3594872912793,1.568004791,1,0.21428104858398436,1.7190367919921874,-11.180921752929686
3594875131804,1.570223802,1,0.22026655273437498,1.7178396911621092,-11.182118853759764
3594877353679,1.572445677,1,0.22026655273437498,1.7106570861816406,-11.21084927368164
3594879576283,1.574668281,1,0.2154781494140625,1.7190367919921874,-11.208455072021483
3594881798158,1.576890156,1,0.20470424194335937,1.7417817077636717,-11.194089862060546
3594884023783,1.579115781,1,0.21428104858398436,1.7202338928222656,-11.162965240478515
3594886242637,1.581334635,1,0.23702596435546874,1.7166425903320313,-11.180921752929686
3594888467377,1.583559375,1,0.23702596435546874,1.7238251953125,-11.17852755126953
3594890687168,1.585779166,1,0.26695348510742184,1.725022296142578,-11.180921752929686
3594892912689,1.588004687,1,0.2549824768066406,1.7381904052734374,-11.183315954589844
3594895132012,1.59022401,1,0.229843359375,1.7489643127441405,-11.189301458740234
3594897353835,1.592445833,1,0.24061726684570311,1.7334020019531249,-11.21084927368164
3594899575814,1.594667812,1,0.24181436767578124,1.7190367919921874,-11.215637677001952
3594901799200,1.596891198,1,0.24181436767578124,1.7334020019531249,-11.203666668701171
3594904023522,1.59911552,1,0.24301146850585936,1.7501614135742187,-11.208455072021483
3594906242481,1.601334479,1,0.22266075439453123,1.7238251953125,-11.204863769531249
3594908468366,1.603560364,1,0.21906945190429686,1.7393875061035156,-11.192892761230468
3594910687637,1.605779635,1,0.20709844360351562,1.7429788085937499,-11.202469567871093
3594912915397,1.608007395,1,0.23104046020507812,1.7489643127441405,-11.184513055419922
3594915133314,1.610225312,1,0.23582886352539062,1.7381904052734374,-11.156979736328124
3594917354512,1.61244651,1,0.23104046020507812,1.7393875061035156,-11.17254204711914
3594919575241,1.614667239,1,0.21906945190429686,1.7369933044433592,-11.165359442138671
3594921798731,1.616890729,1,0.2214636535644531,1.7310078002929687,-11.162965240478515
3594924023939,1.619115937,1,0.21428104858398436,1.7298106994628906,-11.161768139648437
3594926242845,1.621334843,1,0.2154781494140625,1.7334020019531249,-11.152191333007812
3594928467793,1.623559791,1,0.2166752502441406,1.7166425903320313,-11.168950744628905
3594930686543,1.625778541,1,0.22026655273437498,1.7118541870117185,-11.173739147949219
3594932913002,1.628005,1,0.23104046020507812,1.7226280944824217,-11.19169566040039
3594935131595,1.630223593,1,0.22505495605468748,1.7334020019531249,-11.207257971191405
3594937353731,1.632445729,1,0.2214636535644531,1.7238251953125,-11.218031878662108
3594939575658,1.634667656,1,0.23104046020507812,1.7178396911621092,-11.204863769531249
3594941798210,1.636890208,1,0.25139117431640623,1.7214309936523438,-11.218031878662108
3594944022897,1.639114895,1,0.25737667846679685,1.7166425903320313,-11.203666668701171
3594946242637,1.641334635,1,0.22864625854492185,1.7369933044433592,-11.214440576171874
3594948467741,1.643559739,1,0.25258827514648435,1.7561469177246092,-11.214440576171874
3594950687533,1.645779531,1,0.25258827514648435,1.7453730102539062,-11.207257971191405
3594952912897,1.648004895,1,0.24181436767578124,1.7357962036132812,-11.222820281982422
3594955132637,1.650224635,1,0.22505495605468748,1.7429788085937499,-11.200075366210937
3594957353627,1.652445625,1,0.21308394775390624,1.7274164978027342,-11.184513055419922
3594959575918,1.654667916,1,0.20949264526367187,1.7214309936523438,-11.186907257080078
3594961798314,1.656890312,1,0.21787235107421873,1.7118541870117185,-11.218031878662108
3594964023679,1.659115677,1,0.239420166015625,1.7094599853515624,-11.221623181152344
3594966242585,1.661334583,1,0.25139117431640623,1.725022296142578,-11.221623181152344
3594968467377,1.663559375,1,0.2262520568847656,1.734599102783203,-11.21084927368164
3594970687116,1.665779114,1,0.22864625854492185,1.7453730102539062,-11.219228979492186
3594972912220,1.668004218,1,0.21308394775390624,1.7298106994628906,-11.21683477783203
3594975131804,1.670223802,1,0.22744915771484372,1.7238251953125,-11.219228979492186
3594977353731,1.672445729,1,0.22026655273437498,1.7286135986328124,-11.23718549194336
3594979575658,1.674667656,1,0.2214636535644531,1.7214309936523438,-11.204863769531249
3594981798939,1.676890937,1,0.2346317626953125,1.7130512878417967,-11.21084927368164
3594984023679,1.679115677,1,0.22864625854492185,1.7178396911621092,-11.227608685302734
3594986243314,1.681335312,1,0.21906945190429686,1.7214309936523438,-11.19887826538086
3594988467793,1.683559791,1,0.21308394775390624,1.725022296142578,-11.179724652099608
3594990687064,1.685779062,1,0.22744915771484372,1.725022296142578,-11.190498559570312
3594992911699,1.688003697,1,0.23582886352539062,1.7190367919921874,-11.202469567871093
3594995131127,1.690223125,1,0.23702596435546874,1.7190367919921874,-11.195286962890624
3594997353158,1.692445156,1,0.23104046020507812,1.7214309936523438,-11.192892761230468
3594999575710,1.694667708,1,0.20949264526367187,1.7178396911621092,-11.188104357910156
3595001798262,1.69689026,1,0.19632453613281248,1.7202338928222656,-11.32577095336914
3595004023731,1.699115729,1,0.2262520568847656,1.7381904052734374,-11.168950744628905
3595006242272,1.70133427,1,0.22385785522460935,1.7286135986328124,-11.194089862060546
3595008468106,1.703560104,1,0.20709844360351562,1.7166425903320313,-11.184513055419922
3595010686752,1.70577875,1,0.21428104858398436,1.7393875061035156,-11.207257971191405
3595012911908,1.708003906,1,0.22026655273437498,1.7405846069335937,-11.174936248779296
3595015131387,1.710223385,1,0.2214636535644531,1.7322049011230467,-11.174936248779296
3595017353887,1.712445885,1,0.21188684692382811,1.7226280944824217,-11.19169566040039
3595019576074,1.714668072,1,0.20470424194335937,1.7226280944824217,-11.18571015625
3595021798679,1.716890677,1,0.21068974609375,1.7322049011230467,-11.201272467041015
3595024023054,1.719115052,1,0.21068974609375,1.7322049011230467,-11.194089862060546
3595026242897,1.721334895,1,0.23104046020507812,1.7381904052734374,-11.170147845458983
3595028467689,1.723559687,1,0.2705447875976562,1.7357962036132812,-11.166556542968749
3595030686908,1.725778906,1,0.24779987182617186,1.7405846069335937,-11.201272467041015
3595032918783,1.728010781,1,0.229843359375,1.7334020019531249,-11.215637677001952
3595035134043,1.730226041,1,0.23343466186523437,1.7334020019531249,-11.213243475341796
3595037354564,1.732446562,1,0.22744915771484372,1.734599102783203,-11.186907257080078
3595039576752,1.73466875,1,0.229843359375,1.7477672119140624,-11.192892761230468
3595041797897,1.736889895,1,0.24181436767578124,1.7369933044433592,-11.196484063720703
3595044023210,1.739115208,1,0.24181436767578124,1.7238251953125,-11.204863769531249
3595046242637,1.741334635,1,0.2154781494140625,1.7357962036132812,-11.202469567871093
3595048468418,1.743560416,1,0.2059013427734375,1.7405846069335937,-11.215637677001952
3595050687429,1.745779427,1,0.21428104858398436,1.7429788085937499,-11.221623181152344
3595052913054,1.748005052,1,0.20949264526367187,1.7549498168945312,-11.208455072021483
3595055131647,1.750223645,1,0.21428104858398436,1.7561469177246092,-11.202469567871093
3595057354772,1.75244677,1,0.21906945190429686,1.7393875061035156,-11.176133349609374
3595059576439,1.754668437,1,0.22744915771484372,1.7274164978027342,-11.188104357910156
3595061798418,1.756890416,1,0.23223756103515625,1.7381904052734374,-11.033678350830078
3595064023366,1.759115364,1,0.229843359375,1.7465701110839842,-11.201272467041015
3595066242481,1.761334479,1,0.22864625854492185,1.7357962036132812,-11.232397088623046
3595068465554,1.763557552,1,0.21906945190429686,1.7501614135742187,-11.23000288696289
3595070687741,1.765779739,1,0.22385785522460935,1.7417817077636717,-11.201272467041015
3595072912116,1.768004114,1,0.21906945190429686,1.7477672119140624,-11.204863769531249
3595075131699,1.770223697,1,0.23343466186523437,1.7453730102539062,-11.21084927368164
3595077354512,1.77244651,1,0.23104046020507812,1.7262193969726563,-11.208455072021483
3595079575710,1.774667708,1,0.21068974609375,1.7214309936523438,-11.2240173828125
3595081798418,1.776890416,1,0.21787235107421873,1.7274164978027342,-11.226411584472656
3595084023522,1.77911552,1,0.21428104858398436,1.7214309936523438,-11.208455072021483
3595086242533,1.781334531,1,0.2154781494140625,1.7226280944824217,-11.203666668701171
3595088465137,1.783557135,1,0.23223756103515625,1.7369933044433592,-11.204863769531249
3595090688314,1.785780312,1,0.24181436767578124,1.7357962036132812,-11.202469567871093
3595092912793,1.788004791,1,0.24061726684570311,1.7262193969726563,-11.186907257080078
3595095131856,1.790223854,1,0.22864625854492185,1.7381904052734374,-11.204863769531249
3595097352012,1.79244401,1,0.2454056701660156,1.734599102783203,-11.218031878662108
3595099573366,1.794665364,1,0.23223756103515625,1.7357962036132812,-11.201272467041015
3595101799512,1.79689151,1,0.239420166015625,1.7369933044433592,-11.207257971191405
3595104023314,1.799115312,1,0.2346317626953125,1.7262193969726563,-11.209652172851563
3595106243418,1.801335416,1,0.2166752502441406,1.7226280944824217,-11.19169566040039
3595108468522,1.80356052,1,0.2166752502441406,1.7429788085937499,-11.183315954589844
3595110686856,1.805778854,1,0.21787235107421873,1.7621324218749999,-11.167753643798827
3595112912220,1.808004218,1,0.201112939453125,1.763329522705078,-11.174936248779296
3595115132897,1.810224895,1,0.22385785522460935,1.763329522705078,-11.167753643798827
3595117353574,1.812445572,1,0.23223756103515625,1.7657237243652342,-11.182118853759764
3595119576491,1.814668489,1,0.20709844360351562,1.7621324218749999,-11.183315954589844
3595121797585,1.816889583,1,0.21308394775390624,1.7489643127441405,-11.188104357910156
3595124023106,1.819115104,1,0.2154781494140625,1.7286135986328124,-11.180921752929686
3595126242533,1.821334531,1,0.23343466186523437,1.7214309936523438,-11.166556542968749
3595128467897,1.823559895,1,0.23343466186523437,1.7298106994628906,-11.17852755126953
3595130687064,1.825779062,1,0.2262520568847656,1.7298106994628906,-11.214440576171874
3595132912845,1.828004843,1,0.2346317626953125,1.7334020019531249,-11.19887826538086
3595135131439,1.830223437,1,0.229843359375,1.7298106994628906,-11.189301458740234
3595137353679,1.832445677,1,0.2262520568847656,1.7369933044433592,-11.200075366210937
3595139575710,1.834667708,1,0.2262520568847656,1.7489643127441405,-11.180921752929686
3595141798106,1.836890104,1,0.23223756103515625,1.7573440185546874,-11.188104357910156
3595144022429,1.839114427,1,0.24181436767578124,1.7465701110839842,-11.201272467041015
3595146242585,1.841334583,1,0.229843359375,1.7525556152343749,-11.19169566040039
3595148467481,1.843559479,1,0.2214636535644531,1.7405846069335937,-11.192892761230468
3595150687429,1.845779427,1,0.2154781494140625,1.7286135986328124,-11.174936248779296
3595152913366,1.848005364,1,0.23582886352539062,1.7274164978027342,-11.177330450439452
3595155132012,1.85022401,1,0.239420166015625,1.7286135986328124,-11.17852755126953
3595157353991,1.852445989,1,0.23582886352539062,1.7429788085937499,-11.19169566040039
3595159575449,1.854667447,1,0.24181436767578124,1.7369933044433592,-11.202469567871093
3595161797897,1.856889895,1,0.23343466186523437,1.7322049011230467,-11.197681164550781
3595164023939,1.859115937,1,0.22026655273437498,1.7262193969726563,-11.186907257080078
3595166242376,1.861334374,1,0.21068974609375,1.707065783691406,-11.18571015625
3595168468470,1.863560468,1,0.20829554443359374,1.7094599853515624,-11.15338843383789
3595170686960,1.865778958,1,0.22026655273437498,1.707065783691406,-11.180921752929686
3595172912585,1.868004583,1,0.22744915771484372,1.7262193969726563,-11.186907257080078
3595175131960,1.870223958,1,0.22744915771484372,1.7369933044433592,-11.189301458740234
3595177354408,1.872446406,1,0.20231004028320312,1.7214309936523438,-11.190498559570312
3595179576126,1.874668124,1,0.181959326171875,1.7202338928222656,-11.32577095336914
3595181797793,1.876889791,1,0.20350714111328125,1.7334020019531249,-11.161768139648437
3595184023054,1.879115052,1,0.2154781494140625,1.734599102783203,-11.165359442138671
3595186242585,1.881334583,1,0.23343466186523437,1.7381904052734374,-11.173739147949219
3595188467689,1.883559687,1,0.2262520568847656,1.7357962036132812,-11.166556542968749
3595190687585,1.885779583,1,0.21068974609375,1.7178396911621092,-11.18571015625
3595192912116,1.888004114,1,0.20829554443359374,1.7034744812011717,-11.201272467041015
3595195132116,1.890224114,1,0.20470424194335937,1.70467158203125,-11.204863769531249
3595197353262,1.89244526,1,0.21428104858398436,1.7082628845214842,-11.18571015625
3595199576283,1.894668281,1,0.20829554443359374,1.7214309936523438,-11.332953558349608
3595201798262,1.89689026,1,0.21068974609375,1.7298106994628906,-11.184513055419922
3595204022637,1.899114635,1,0.22385785522460935,1.7357962036132812,-11.182118853759764
3595206243262,1.90133526,1,0.2262520568847656,1.7226280944824217,-11.17254204711914
3595208468522,1.90356052,1,0.23343466186523437,1.7226280944824217,-11.189301458740234
3595210687949,1.905779947,1,0.23343466186523437,1.7118541870117185,-11.195286962890624
3595212913262,1.90800526,1,0.23343466186523437,1.7130512878417967,-11.202469567871093
3595215131335,1.910223333,1,0.22864625854492185,1.7214309936523438,-11.214440576171874
3595217353418,1.912445416,1,0.2214636535644531,1.7130512878417967,-11.190498559570312
3595219575501,1.914667499,1,0.21906945190429686,1.714248388671875,-11.179724652099608
3595221797793,1.916889791,1,0.2154781494140625,1.705868682861328,-11.190498559570312
3595224023054,1.919115052,1,0.20350714111328125,1.7106570861816406,-11.183315954589844
3595226243262,1.92133526,1,0.2154781494140625,1.7034744812011717,-11.166556542968749
3595228464981,1.923556979,1,0.21428104858398436,1.7106570861816406,-11.180921752929686
3595230686856,1.925778854,1,0.22385785522460935,1.7238251953125,-11.189301458740234
3595232912637,1.928004635,1,0.21906945190429686,1.7298106994628906,-11.168950744628905
3595235131595,1.930223593,1,0.19153613281249998,1.7238251953125,-11.189301458740234
3595237353835,1.932445833,1,0.19153613281249998,1.7369933044433592,-11.200075366210937
3595239575449,1.934667447,1,0.18914193115234373,1.7393875061035156,-11.19169566040039
3595241806179,1.936898177,1,0.20470424194335937,1.7525556152343749,-11.19887826538086
3595244027064,1.939119062,1,0.22385785522460935,1.7465701110839842,-11.202469567871093
3595246242533,1.941334531,1,0.21068974609375,1.7417817077636717,-11.208455072021483
3595248468054,1.943560052,1,0.22505495605468748,1.7298106994628906,-11.202469567871093
3595250686699,1.945778697,1,0.23104046020507812,1.7417817077636717,-11.18571015625
3595253071595,1.948163593,1,0.23343466186523437,1.725022296142578,-11.16057103881836
3595255272481,1.950364479,1,0.23104046020507812,1.7226280944824217,-11.182118853759764
3595257363939,1.952455937,1,0.22864625854492185,1.7226280944824217,-11.18571015625
3595259591022,1.95468302,1,0.23702596435546874,1.7094599853515624,-11.179724652099608
3595261810658,1.956902656,1,0.23702596435546874,1.7106570861816406,-11.195286962890624
3595264047324,1.959139322,1,0.23343466186523437,1.7130512878417967,-11.17852755126953
3595266241543,1.961333541,1,0.23702596435546874,1.7322049011230467,-11.17852755126953
3595268460501,1.963552499,1,0.23582886352539062,1.7262193969726563,-11.180921752929686
3595270684876,1.965776874,1,0.24779987182617186,1.7178396911621092,-11.194089862060546
3595272910970,1.968002968,1,0.24181436767578124,1.7405846069335937,-11.197681164550781
3595275132220,1.970224218,1,0.25139117431640623,1.7369933044433592,-11.194089862060546
3595277354720,1.972446718,1,0.2561795776367187,1.7525556152343749,-11.186907257080078
3595279576126,1.974668124,1,0.2693476867675781,1.7525556152343749,-11.192892761230468
3595281799251,1.976891249,1,0.2693476867675781,1.7334020019531249,-11.201272467041015
3595284023418,1.979115416,1,0.24779987182617186,1.7226280944824217,-11.18571015625
3595286242533,1.981334531,1,0.21906945190429686,1.7178396911621092,-11.176133349609374
3595288467897,1.983559895,1,0.21188684692382811,1.7178396911621092,-11.168950744628905
3595290687429,1.985779427,1,0.22385785522460935,1.714248388671875,-11.162965240478515
3595292911231,1.988003229,1,0.22385785522460935,1.715445489501953,-11.161768139648437
3595295132168,1.990224166,1,0.21428104858398436,1.7214309936523438,-11.190498559570312
3595297353418,1.992445416,1,0.20829554443359374,1.725022296142578,-11.195286962890624
3595299575762,1.99466776,1,0.23702596435546874,1.734599102783203,-11.218031878662108
3595301798314,1.996890312,1,0.23822306518554687,1.7310078002929687,-11.21084927368164
3595304023835,1.999115833,1,0.23702596435546874,1.7226280944824217,-11.214440576171874
3595306242376,2.001334374,1,0.24899697265624998,1.7357962036132812,-11.204863769531249
3595308467220,2.003559218,1,0.24899697265624998,1.7453730102539062,-11.225214483642578
3595310686543,2.005778541,1,0.25139117431640623,1.7429788085937499,-11.204863769531249
3595312912689,2.008004687,1,0.24301146850585936,1.7465701110839842,-11.209652172851563
3595315132168,2.010224166,1,0.239420166015625,1.7417817077636717,-11.221623181152344
3595317353835,2.012445833,1,0.23822306518554687,1.7214309936523438,-11.19169566040039
3595319575918,2.014667916,1,0.23822306518554687,1.714248388671875,-11.194089862060546
3595321797793,2.016889791,1,0.25258827514648435,1.7202338928222656,-11.195286962890624
3595324022949,2.019114947,1,0.24061726684570311,1.7178396911621092,-11.208455072021483
3595326243262,2.02133526,1,0.2501940734863281,1.7130512878417967,-11.204863769531249
3595328468001,2.023559999,1,0.2549824768066406,1.7238251953125,-11.19169566040039
3595330687064,2.025779062,1,0.24061726684570311,1.7238251953125,-11.186907257080078
3595332912168,2.028004166,1,0.23582886352539062,1.7238251953125,-11.176133349609374
3595335131491,2.030223489,1,0.22505495605468748,1.7274164978027342,-11.177330450439452
3595337354251,2.032446249,1,0.21787235107421873,1.7214309936523438,-11.183315954589844
3595339576647,2.034668645,1,0.2059013427734375,1.7178396911621092,-11.17852755126953
3595341798574,2.036890572,1,0.19153613281249998,1.7166425903320313,-11.18571015625
3595344023210,2.039115208,1,0.2537853759765625,1.7214309936523438,-11.19169566040039
3595346242793,2.041334791,1,0.23702596435546874,1.7465701110839842,-11.190498559570312
3595348466856,2.043558854,1,0.23104046020507812,1.7501614135742187,-11.183315954589844
3595350687272,2.04577927,1,0.239420166015625,1.7417817077636717,-11.182118853759764
3595352912064,2.048004062,1,0.23582886352539062,1.7286135986328124,-11.189301458740234
3595355131804,2.050223802,1,0.23343466186523437,1.7082628845214842,-11.17852755126953
3595357354043,2.052446041,1,0.2262520568847656,1.715445489501953,-11.190498559570312
3595359582897,2.054674895,1,0.22385785522460935,1.7238251953125,-11.174936248779296
3595361799981,2.056891979,1,0.2346317626953125,1.715445489501953,-11.19169566040039
3595364024095,2.059116093,1,0.24061726684570311,1.725022296142578,-11.186907257080078
3595366243054,2.061335052,1,0.22744915771484372,1.7274164978027342,-11.180921752929686
3595368468158,2.063560156,1,0.2346317626953125,1.7178396911621092,-11.200075366210937
3595370687116,2.065779114,1,0.22385785522460935,1.7214309936523438,-11.218031878662108
3595372912793,2.068004791,1,0.21428104858398436,1.7106570861816406,-11.227608685302734
3595375131803,2.070223801,1,0.22744915771484372,1.70467158203125,-11.215637677001952
3595377353522,2.07244552,1,0.20949264526367187,1.7178396911621092,-11.201272467041015
3595379576178,2.074668176,1,0.22385785522460935,1.7286135986328124,-11.220426080322264
3595381798574,2.076890572,1,0.23582886352539062,1.7202338928222656,-11.239579693603515
3595384023418,2.079115416,1,0.22505495605468748,1.7178396911621092,-11.194089862060546
3595386242376,2.081334374,1,0.20470424194335937,1.7178396911621092,-11.174936248779296
3595388467324,2.083559322,1,0.19632453613281248,1.7238251953125,-11.183315954589844
3595390687428,2.085779426,1,0.19991583862304688,1.7429788085937499,-11.19169566040039
3595392912845,2.088004843,1,0.21308394775390624,1.7369933044433592,-11.207257971191405
3595395131699,2.090223697,1,0.21308394775390624,1.7405846069335937,-11.186907257080078
3595397354043,2.092446041,1,0.20829554443359374,1.7525556152343749,-11.332953558349608
3595399576231,2.094668229,1,0.21906945190429686,1.7405846069335937,-11.173739147949219
3595401797845,2.096889843,1,0.23582886352539062,1.7166425903320313,-11.184513055419922
3595404022585,2.099114583,1,0.22385785522460935,1.7094599853515624,-11.201272467041015
3595406242116,2.101334114,1,0.23223756103515625,1.7190367919921874,-11.227608685302734
3595408465658,2.103557656,1,0.2442085693359375,1.7369933044433592,-11.206060870361327
3595410687897,2.105779895,1,0.23582886352539062,1.7477672119140624,-11.207257971191405
3595412911595,2.108003593,1,0.22266075439453123,1.7489643127441405,-11.188104357910156
3595415131595,2.110223593,1,0.2214636535644531,1.7477672119140624,-11.190498559570312
3595417353887,2.112445885,1,0.22505495605468748,1.7334020019531249,-11.197681164550781
3595419575189,2.114667187,1,0.24660277099609373,1.7190367919921874,-11.201272467041015
3595421798522,2.11689052,1,0.2442085693359375,1.7178396911621092,-11.190498559570312
3595424022845,2.119114843,1,0.23104046020507812,1.7238251953125,-11.182118853759764
3595426242741,2.121334739,1,0.22864625854492185,1.725022296142578,-11.209652172851563
3595428467272,2.12355927,1,0.23822306518554687,1.7238251953125,-11.170147845458983
3595430687012,2.12577901,1,0.23104046020507812,1.7381904052734374,-11.15338843383789
3595432912428,2.128004426,1,0.24061726684570311,1.7286135986328124,-11.156979736328124
3595435131387,2.130223385,1,0.22744915771484372,1.7429788085937499,-11.162965240478515
3595437354147,2.132446145,1,0.23223756103515625,1.7417817077636717,-11.196484063720703
3595439576126,2.134668124,1,0.22385785522460935,1.7369933044433592,-11.202469567871093
3595441798470,2.136890468,1,0.22385785522460935,1.7549498168945312,-11.176133349609374
3595444023574,2.139115572,1,0.22864625854492185,1.7429788085937499,-11.162965240478515
3595446242585,2.141334583,1,0.23223756103515625,1.7561469177246092,-11.179724652099608
3595448467324,2.143559322,1,0.23343466186523437,1.7453730102539062,-11.184513055419922
3595450686960,2.145778958,1,0.22744915771484372,1.7453730102539062,-11.19169566040039
3595452912376,2.148004374,1,0.21906945190429686,1.7405846069335937,-11.183315954589844
3595455131439,2.150223437,1,0.21188684692382811,1.7489643127441405,-11.171344946289063
3595457354356,2.152446354,1,0.2262520568847656,1.744175909423828,-11.17254204711914
3595459575553,2.154667551,1,0.24061726684570311,1.7322049011230467,-11.176133349609374
3595461798314,2.156890312,1,0.24660277099609373,1.7322049011230467,-11.173739147949219
3595464024408,2.159116406,1,0.23343466186523437,1.7489643127441405,-11.215637677001952
3595466242481,2.161334479,1,0.2166752502441406,1.7501614135742187,-11.240776794433593
3595468467324,2.163559322,1,0.22744915771484372,1.7405846069335937,-11.228805786132812
3595470687116,2.165779114,1,0.23343466186523437,1.734599102783203,-11.184513055419922
3595472911803,2.168003801,1,0.22864625854492185,1.7334020019531249,-11.170147845458983
3595475131178,2.170223176,1,0.21428104858398436,1.7310078002929687,-11.182118853759764
3595477353626,2.172445624,1,0.20470424194335937,1.734599102783203,-11.046846459960937
3595479575293,2.174667291,1,0.229843359375,1.7393875061035156,-11.204863769531249
3595481797845,2.176889843,1,0.22385785522460935,1.7310078002929687,-11.204863769531249
3595484024095,2.179116093,1,0.21308394775390624,1.7357962036132812,-11.239579693603515
3595486243210,2.181335208,1,0.2262520568847656,1.7393875061035156,-11.23718549194336
3595488468626,2.183560624,1,0.2262520568847656,1.734599102783203,-11.228805786132812
3595490687168,2.185779166,1,0.21308394775390624,1.7322049011230467,-11.188104357910156
3595492912012,2.18800401,1,0.19871873779296872,1.7417817077636717,-11.154585534667968
3595495131647,2.190223645,1,0.2154781494140625,1.7393875061035156,-11.174936248779296
3595497354095,2.192446093,1,0.21428104858398436,1.744175909423828,-11.206060870361327
3595499575501,2.194667499,1,0.22505495605468748,1.7513585144042967,-11.201272467041015
3595501798262,2.19689026,1,0.2166752502441406,1.7393875061035156,-11.206060870361327
3595504023158,2.199115156,1,0.2059013427734375,1.734599102783203,-11.194089862060546
3595506242168,2.201334166,1,0.20709844360351562,1.714248388671875,-11.195286962890624
3595508466856,2.203558854,1,0.21068974609375,1.7034744812011717,-11.170147845458983
3595510686803,2.205778801,1,0.22864625854492185,1.715445489501953,-11.170147845458983
3595512912428,2.208004426,1,0.2166752502441406,1.725022296142578,-11.19169566040039
3595515131699,2.210223697,1,0.22864625854492185,1.7166425903320313,-11.180921752929686
3595517354095,2.212446093,1,0.2262520568847656,1.7214309936523438,-11.188104357910156
3595519576022,2.21466802,1,0.23343466186523437,1.7310078002929687,-11.194089862060546
3595521797481,2.216889479,1,0.23223756103515625,1.7118541870117185,-11.188104357910156
3595524022845,2.219114843,1,0.23223756103515625,1.6986860778808592,-11.171344946289063
3595526242168,2.221334166,1,0.23582886352539062,1.7238251953125,-11.184513055419922
3595528467845,2.223559843,1,0.22864625854492185,1.7322049011230467,-11.186907257080078
3595530686543,2.225778541,1,0.22026655273437498,1.7214309936523438,-11.201272467041015
3595532912272,2.22800427,1,0.23104046020507812,1.7238251953125,-11.195286962890624
3595535130866,2.230222864,1,0.2454056701660156,1.7310078002929687,-11.209652172851563
3595537353835,2.232445833,1,0.23582886352539062,1.7214309936523438,-11.17852755126953
3595539575658,2.234667656,1,0.22864625854492185,1.7262193969726563,-11.168950744628905
3595541799095,2.236891093,1,0.2166752502441406,1.7393875061035156,-11.188104357910156
3595544023210,2.239115208,1,0.2059013427734375,1.7334020019531249,-11.204863769531249
3595546242428,2.241334426,1,0.20709844360351562,1.7034744812011717,-11.18571015625
3595548467324,2.243559322,1,0.22744915771484372,1.6986860778808592,-11.177330450439452
3595550687220,2.245779218,1,0.23104046020507812,1.715445489501953,-11.183315954589844
3595552911699,2.248003697,1,0.23822306518554687,1.7166425903320313,-11.190498559570312
3595555131231,2.250223229,1,0.21906945190429686,1.7298106994628906,-11.180921752929686
3595557352845,2.252444843,1,0.2262520568847656,1.7310078002929687,-11.152191333007812
3595559576022,2.25466802,1,0.22744915771484372,1.753752716064453,-11.166556542968749
3595561798053,2.256890051,1,0.2346317626953125,1.7393875061035156,-11.154585534667968
3595564023470,2.259115468,1,0.229843359375,1.7405846069335937,-11.166556542968749
3595566242220,2.261334218,1,0.22864625854492185,1.7417817077636717,-11.18571015625
3595568466856,2.263558854,1,0.22864625854492185,1.7274164978027342,-11.182118853759764
3595570692012,2.26578401,1,0.2214636535644531,1.7393875061035156,-11.177330450439452
3595572915606,2.268007604,1,0.21906945190429686,1.7585411193847655,-11.19887826538086
3595575131335,2.270223333,1,0.20470424194335937,1.7585411193847655,-11.214440576171874
3595577354043,2.272446041,1,0.20829554443359374,1.7429788085937499,-11.215637677001952
3595579576543,2.274668541,1,0.2166752502441406,1.7489643127441405,-11.177330450439452
3595581799199,2.276891197,1,0.23343466186523437,1.7453730102539062,-11.155782635498046
3595584023783,2.279115781,1,0.21308394775390624,1.7549498168945312,-11.162965240478515
3595586242897,2.281334895,1,0.19632453613281248,1.7417817077636717,-11.168950744628905
3595588467272,2.28355927,1,0.20829554443359374,1.7357962036132812,-11.204863769531249
3595590687324,2.285779322,1,0.229843359375,1.7405846069335937,-11.220426080322264
3595592912428,2.288004426,1,0.24301146850585936,1.7214309936523438,-11.212046374511718
3595595131126,2.290223124,1,0.229843359375,1.7369933044433592,-11.189301458740234
3595597353418,2.292445416,1,0.22864625854492185,1.7369933044433592,-11.19169566040039
3595599575762,2.29466776,1,0.21906945190429686,1.7262193969726563,-11.183315954589844
3595601797793,2.296889791,1,0.22266075439453123,1.7094599853515624,-11.21683477783203
3595604022585,2.299114583,1,0.22744915771484372,1.7166425903320313,-11.226411584472656
3595606242741,2.301334739,1,0.24061726684570311,1.7238251953125,-11.21683477783203
3595608467116,2.303559114,1,0.25139117431640623,1.714248388671875,-11.201272467041015
3595610686387,2.305778385,1,0.23702596435546874,1.7130512878417967,-11.208455072021483
3595612912064,2.308004062,1,0.229843359375,1.7178396911621092,-11.206060870361327
3595615132272,2.31022427,1,0.229843359375,1.7094599853515624,-11.336544860839844
3595617353887,2.312445885,1,0.239420166015625,1.7166425903320313,-11.148600030517578
3595619576126,2.314668124,1,0.2537853759765625,1.744175909423828,-11.161768139648437
3595621798001,2.316889999,1,0.23223756103515625,1.7393875061035156,-11.18571015625
3595624023835,2.319115833,1,0.2262520568847656,1.7417817077636717,-11.186907257080078
3595626242480,2.321334478,1,0.239420166015625,1.744175909423828,-11.183315954589844
3595628467324,2.323559322,1,0.23223756103515625,1.7405846069335937,-11.17254204711914
3595630686751,2.325778749,1,0.2262520568847656,1.734599102783203,-11.186907257080078
3595632911647,2.328003645,1,0.22505495605468748,1.7214309936523438,-11.171344946289063
3595635131230,2.330223228,1,0.22385785522460935,1.7178396911621092,-11.184513055419922
3595637353783,2.332445781,1,0.20709844360351562,1.7238251953125,-11.202469567871093
3595639575658,2.334667656,1,0.20231004028320312,1.7322049011230467,-11.190498559570312
3595641797585,2.336889583,1,0.229843359375,1.7214309936523438,-11.190498559570312
3595644023470,2.339115468,1,0.239420166015625,1.6998831787109374,-11.19887826538086
3595646242272,2.34133427,1,0.23822306518554687,1.705868682861328,-11.200075366210937
3595648468366,2.343560364,1,0.23223756103515625,1.714248388671875,-11.202469567871093
3595650687220,2.345779218,1,0.20709844360351562,1.7322049011230467,-11.177330450439452
3595652912949,2.348004947,1,0.20949264526367187,1.7369933044433592,-11.161768139648437
3595655131855,2.350223853,1,0.20949264526367187,1.7298106994628906,-11.171344946289063
3595657354616,2.352446614,1,0.22385785522460935,1.7178396911621092,-11.173739147949219
3595659576178,2.354668176,1,0.23702596435546874,1.7118541870117185,-11.183315954589844
3595661799043,2.356891041,1,0.23343466186523437,1.7226280944824217,-11.165359442138671
3595664023262,2.35911526,1,0.23343466186523437,1.7130512878417967,-11.179724652099608
3595666242376,2.361334374,1,0.2214636535644531,1.725022296142578,-11.194089862060546
3595668467533,2.363559531,1,0.21068974609375,1.7381904052734374,-11.19887826538086
3595670686647,2.365778645,1,0.21787235107421873,1.7274164978027342,-11.200075366210937
3595672912480,2.368004478,1,0.22266075439453123,1.7357962036132812,-11.197681164550781
3595675131543,2.370223541,1,0.23702596435546874,1.7405846069335937,-11.168950744628905
3595677353574,2.372445572,1,0.23822306518554687,1.7513585144042967,-11.165359442138671
3595679576283,2.374668281,1,0.24061726684570311,1.7405846069335937,-11.201272467041015
3595681798470,2.376890468,1,0.22266075439453123,1.7405846069335937,-11.18571015625
3595684023366,2.379115364,1,0.229843359375,1.7417817077636717,-11.19169566040039
3595686242428,2.381334426,1,0.24660277099609373,1.7405846069335937,-11.19887826538086
3595688467949,2.383559947,1,0.23582886352539062,1.7310078002929687,-11.171344946289063
3595690687428,2.385779426,1,0.2262520568847656,1.7238251953125,-11.158176837158203
3595692912428,2.388004426,1,0.23822306518554687,1.7166425903320313,-11.174936248779296
3595695132533,2.390224531,1,0.22744915771484372,1.7190367919921874,-11.14022032470703
3595697353678,2.392445676,1,0.22266075439453123,1.7322049011230467,-11.16057103881836
3595699575918,2.394667916,1,0.21188684692382811,1.7322049011230467,-11.195286962890624
3595701798105,2.396890103,1,0.20350714111328125,1.7453730102539062,-11.19169566040039
3595704022793,2.399114791,1,0.201112939453125,1.744175909423828,-11.183315954589844
3595706243522,2.40133552,1,0.19632453613281248,1.7405846069335937,-11.174936248779296
3595708468105,2.403560103,1,0.2166752502441406,1.7262193969726563,-11.195286962890624
3595710687637,2.405779635,1,0.20949264526367187,1.7106570861816406,-11.18571015625
3595712912272,2.40800427,1,0.21068974609375,1.7238251953125,-11.179724652099608
3595715131960,2.410223958,1,0.23582886352539062,1.7298106994628906,-11.192892761230468
3595717353730,2.412445728,1,0.26336218261718747,1.7274164978027342,-11.206060870361327
3595719576074,2.414668072,1,0.24660277099609373,1.725022296142578,-11.21084927368164
3595721798158,2.416890156,1,0.239420166015625,1.7429788085937499,-11.207257971191405
3595724024147,2.419116145,1,0.23702596435546874,1.7178396911621092,-11.17852755126953
3595726242897,2.421334895,1,0.229843359375,1.7022773803710936,-11.170147845458983
3595728468783,2.423560781,1,0.24061726684570311,1.707065783691406,-11.17254204711914
3595730687793,2.425779791,1,0.2346317626953125,1.715445489501953,-11.180921752929686
3595732915605,2.428007603,1,0.23223756103515625,1.725022296142578,-11.196484063720703
3595735131803,2.430223801,1,0.2166752502441406,1.7298106994628906,-11.209652172851563
3595737354408,2.432446406,1,0.23104046020507812,1.7489643127441405,-11.215637677001952
3595739576751,2.434668749,1,0.2166752502441406,1.7453730102539062,-11.21084927368164
3595741798783,2.436890781,1,0.20350714111328125,1.7357962036132812,-11.196484063720703
3595744024303,2.439116301,1,0.19632453613281248,1.7369933044433592,-11.186907257080078
3595746243678,2.441335676,1,0.19512743530273435,1.7465701110839842,-11.174936248779296
3595748467897,2.443559895,1,0.1975216369628906,1.7357962036132812,-11.170147845458983
3595750686855,2.445778853,1,0.19153613281249998,1.7130512878417967,-11.17852755126953
3595752912168,2.448004166,1,0.201112939453125,1.7310078002929687,-11.170147845458983
3595755131283,2.450223281,1,0.2059013427734375,1.7322049011230467,-11.189301458740234
3595757353158,2.452445156,1,0.22385785522460935,1.7202338928222656,-11.208455072021483
3595759575814,2.454667812,1,0.23702596435546874,1.7238251953125,-11.213243475341796
3595761798001,2.456889999,1,0.23104046020507812,1.7226280944824217,-11.221623181152344
3595764023001,2.459114999,1,0.22385785522460935,1.7322049011230467,-11.215637677001952
3595766242689,2.461334687,1,0.2214636535644531,1.7429788085937499,-11.221623181152344
3595768468105,2.463560103,1,0.229843359375,1.744175909423828,-11.214440576171874
3595770686595,2.465778593,1,0.24061726684570311,1.7310078002929687,-11.177330450439452
3595772912428,2.468004426,1,0.24301146850585936,1.7369933044433592,-11.04564935913086
3595775131855,2.470223853,1,0.22744915771484372,1.7429788085937499,-11.206060870361327
3595777354199,2.472446197,1,0.22026655273437498,1.725022296142578,-11.214440576171874
3595779582324,2.474674322,1,0.21188684692382811,1.7226280944824217,-11.201272467041015
3595781801022,2.47689302,1,0.2262520568847656,1.753752716064453,-11.195286962890624
3595784023887,2.479115885,1,0.21906945190429686,1.7645266235351562,-11.221623181152344
3595786243418,2.481335416,1,0.21308394775390624,1.7549498168945312,-11.220426080322264
3595788467533,2.483559531,1,0.22385785522460935,1.7549498168945312,-11.209652172851563
3595790687012,2.48577901,1,0.2262520568847656,1.7573440185546874,-11.196484063720703
3595792911699,2.488003697,1,0.21787235107421873,1.7453730102539062,-11.17852755126953
3595795132324,2.490224322,1,0.2166752502441406,1.7334020019531249,-11.177330450439452
3595797353574,2.492445572,1,0.20231004028320312,1.7453730102539062,-11.171344946289063
3595799576022,2.49466802,1,0.19991583862304688,1.7429788085937499,-11.164162341308593
3595801796439,2.496888437,1,0.21308394775390624,1.7357962036132812,-11.161768139648437
3595804124408,2.499216406,1,0.21188684692382811,1.725022296142578,-11.201272467041015
3595806246335,2.501338333,1,0.20949264526367187,1.7357962036132812,-11.196484063720703
3595808469616,2.503561614,1,0.19153613281249998,1.7274164978027342,-11.165359442138671
3595810687116,2.505779114,1,0.20949264526367187,1.7334020019531249,-11.145008728027342
3595812911960,2.508003958,1,0.20949264526367187,1.7465701110839842,-11.16057103881836
3595815131439,2.510223437,1,0.21906945190429686,1.7381904052734374,-11.19169566040039
3595817353470,2.512445468,1,0.2154781494140625,1.7298106994628906,-11.196484063720703
3595819575501,2.514667499,1,0.22864625854492185,1.7310078002929687,-11.214440576171874
3595821798678,2.516890676,1,0.23702596435546874,1.7286135986328124,-11.189301458740234
3595824023314,2.519115312,1,0.24181436767578124,1.7369933044433592,-11.164162341308593
3595826242532,2.52133453,1,0.22385785522460935,1.725022296142578,-11.164162341308593
3595828466855,2.523558853,1,0.2214636535644531,1.7238251953125,-11.176133349609374
3595830687168,2.525779166,1,0.23822306518554687,1.725022296142578,-11.186907257080078
3595832911491,2.528003489,1,0.239420166015625,1.7310078002929687,-11.21084927368164
3595835131022,2.53022302,1,0.24061726684570311,1.715445489501953,-11.182118853759764
3595837355189,2.532447187,1,0.239420166015625,1.7381904052734374,-11.150994232177734
3595839576491,2.534668489,1,0.2454056701660156,1.7489643127441405,-11.135431921386719
3595841798418,2.536890416,1,0.23343466186523437,1.753752716064453,-11.155782635498046
3595844023522,2.53911552,1,0.23104046020507812,1.7369933044433592,-11.150994232177734
3595846243001,2.541334999,1,0.21308394775390624,1.734599102783203,-11.16057103881836
3595848467116,2.543559114,1,0.20829554443359374,1.7477672119140624,-11.200075366210937
3595850686282,2.54577828,1,0.2166752502441406,1.7381904052734374,-11.220426080322264
3595852911855,2.548003853,1,0.21068974609375,1.7405846069335937,-11.196484063720703
3595855130970,2.550222968,1,0.2214636535644531,1.7405846069335937,-11.207257971191405
3595857353887,2.552445885,1,0.23104046020507812,1.7322049011230467,-11.184513055419922
3595859575605,2.554667603,1,0.2609679809570312,1.734599102783203,-11.19169566040039
3595861797689,2.556889687,1,0.2537853759765625,1.7477672119140624,-11.192892761230468
3595864022845,2.559114843,1,0.2442085693359375,1.7465701110839842,-11.202469567871093
3595866243314,2.561335312,1,0.23582886352539062,1.7369933044433592,-11.17852755126953
3595868467741,2.563559739,1,0.23822306518554687,1.7393875061035156,-11.171344946289063
3595870686751,2.565778749,1,0.22266075439453123,1.7322049011230467,-11.184513055419922
3595872911491,2.568003489,1,0.22385785522460935,1.7286135986328124,-11.170147845458983
3595875131491,2.570223489,1,0.21906945190429686,1.7214309936523438,-11.173739147949219
3595877353887,2.572445885,1,0.22505495605468748,1.7190367919921874,-11.18571015625
3595879576699,2.574668697,1,0.19512743530273435,1.7166425903320313,-11.19887826538086
3595881797949,2.576889947,1,0.201112939453125,1.705868682861328,-11.188104357910156
3595884022793,2.579114791,1,0.2214636535644531,1.7082628845214842,-11.162965240478515
3595886241960,2.581333958,1,0.19991583862304688,1.707065783691406,-11.150994232177734
3595888468001,2.583559999,1,0.19512743530273435,1.6986860778808592,-11.167753643798827
3595890686543,2.585778541,1,0.20470424194335937,1.7106570861816406,-11.220426080322264
3595892911960,2.588003958,1,0.20350714111328125,1.7322049011230467,-11.192892761230468
3595895131647,2.590223645,1,0.20709844360351562,1.7166425903320313,-11.195286962890624
3595897354043,2.592446041,1,0.22266075439453123,1.7190367919921874,-11.197681164550781
3595899575762,2.59466776,1,0.2346317626953125,1.7262193969726563,-11.2240173828125
3595901798262,2.59689026,1,0.229843359375,1.734599102783203,-11.226411584472656
3595904021960,2.599113958,1,0.20829554443359374,1.7190367919921874,-11.23000288696289
3595906243678,2.601335676,1,0.19991583862304688,1.7010802795410156,-11.221623181152344
3595908468730,2.603560728,1,0.2166752502441406,1.707065783691406,-11.21084927368164
3595910687428,2.605779426,1,0.21188684692382811,1.7166425903320313,-11.197681164550781
3595912911595,2.608003593,1,0.19512743530273435,1.714248388671875,-11.19169566040039
3595915131178,2.610223176,1,0.20470424194335937,1.7118541870117185,-11.192892761230468
3595917353470,2.612445468,1,0.2154781494140625,1.7106570861816406,-11.19887826538086
3595919576543,2.614668541,1,0.21428104858398436,1.7166425903320313,-11.215637677001952
3595921798210,2.616890208,1,0.201112939453125,1.7381904052734374,-11.220426080322264
3595924023782,2.61911578,1,0.21188684692382811,1.7453730102539062,-11.203666668701171
3595926241960,2.621333958,1,0.21906945190429686,1.7334020019531249,-11.183315954589844
3595928468262,2.62356026,1,0.229843359375,1.725022296142578,-11.161768139648437
3595930686282,2.62577828,1,0.24899697265624998,1.7334020019531249,-11.150994232177734
3595932912897,2.628004895,1,0.24899697265624998,1.7417817077636717,-11.182118853759764
3595935132324,2.630224322,1,0.25139117431640623,1.7501614135742187,-11.200075366210937
3595937354043,2.632446041,1,0.24301146850585936,1.7513585144042967,-11.189301458740234
3595939575657,2.634667655,1,0.239420166015625,1.7298106994628906,-11.188104357910156
3595941797637,2.636889635,1,0.24301146850585936,1.7262193969726563,-11.171344946289063
3595944022949,2.639114947,1,0.23343466186523437,1.7429788085937499,-11.174936248779296
3595946242637,2.641334635,1,0.23104046020507812,1.734599102783203,-11.18571015625
3595948467793,2.643559791,1,0.21308394775390624,1.7298106994628906,-11.179724652099608
3595950687532,2.64577953,1,0.21787235107421873,1.7214309936523438,-11.166556542968749
3595952912324,2.648004322,1,0.22744915771484372,1.714248388671875,-11.143811627197264
3595955131439,2.650223437,1,0.20829554443359374,1.7118541870117185,-11.146205828857422
3595957353626,2.652445624,1,0.21906945190429686,1.7202338928222656,-11.186907257080078
3595959575189,2.654667187,1,0.2166752502441406,1.725022296142578,-11.218031878662108
3595961797741,2.656889739,1,0.21188684692382811,1.7190367919921874,-11.222820281982422
3595964023105,2.659115103,1,0.20949264526367187,1.7118541870117185,-11.213243475341796
3595966242689,2.661334687,1,0.19871873779296872,1.715445489501953,-11.200075366210937
3595968467741,2.663559739,1,0.19393033447265623,1.7357962036132812,-11.166556542968749
3595970687168,2.665779166,1,0.20231004028320312,1.7477672119140624,-11.165359442138671
3595972912272,2.66800427,1,0.20231004028320312,1.7513585144042967,-11.18571015625
3595975131126,2.670223124,1,0.19632453613281248,1.7357962036132812,-11.208455072021483
3595977353157,2.672445155,1,0.23822306518554687,1.7274164978027342,-11.202469567871093
3595979575553,2.674667551,1,0.22864625854492185,1.7286135986328124,-11.204863769531249
3595981798210,2.676890208,1,0.2346317626953125,1.7334020019531249,-11.18571015625
3595984022741,2.679114739,1,0.2262520568847656,1.7226280944824217,-11.17254204711914
3595986242532,2.68133453,1,0.22266075439453123,1.7262193969726563,-11.190498559570312
3595988474355,2.683566353,1,0.21188684692382811,1.7465701110839842,-11.196484063720703
3595990690345,2.685782343,1,0.23104046020507812,1.7417817077636717,-11.204863769531249
3595992913105,2.688005103,1,0.23822306518554687,1.7334020019531249,-11.166556542968749
3595995131230,2.690223228,1,0.23702596435546874,1.7417817077636717,-11.166556542968749
3595997354407,2.692446405,1,0.23822306518554687,1.7298106994628906,-11.170147845458983
3595999575293,2.694667291,1,0.2262520568847656,1.7369933044433592,-11.174936248779296
3596001797480,2.696889478,1,0.2262520568847656,1.7513585144042967,-11.174936248779296
3596004023418,2.699115416,1,0.22385785522460935,1.7549498168945312,-11.188104357910156
3596006243366,2.701335364,1,0.22744915771484372,1.7501614135742187,-11.19169566040039
3596008468210,2.703560208,1,0.2262520568847656,1.7513585144042967,-11.180921752929686
3596010686543,2.705778541,1,0.21906945190429686,1.734599102783203,-11.171344946289063
3596012912793,2.708004791,1,0.20350714111328125,1.7226280944824217,-11.164162341308593
3596015130553,2.710222551,1,0.21906945190429686,1.6986860778808592,-11.180921752929686
3596017353626,2.712445624,1,0.23582886352539062,1.70467158203125,-11.203666668701171
3596019575657,2.714667655,1,0.2346317626953125,1.7202338928222656,-11.197681164550781
3596021797845,2.716889843,1,0.23104046020507812,1.7381904052734374,-11.197681164550781
3596024023001,2.719114999,1,0.24779987182617186,1.7465701110839842,-11.209652172851563
3596026243053,2.721335051,1,0.24779987182617186,1.7429788085937499,-11.225214483642578
3596028467689,2.723559687,1,0.24779987182617186,1.7525556152343749,-11.218031878662108
3596030687428,2.725779426,1,0.24301146850585936,1.744175909423828,-11.179724652099608
3596032912324,2.728004322,1,0.23582886352539062,1.7238251953125,-11.196484063720703
3596035131959,2.730223957,1,0.2501940734863281,1.7178396911621092,-11.195286962890624
3596037353262,2.73244526,1,0.23343466186523437,1.7130512878417967,-11.182118853759764
3596039575814,2.734667812,1,0.22864625854492185,1.7226280944824217,-11.176133349609374
3596041798418,2.736890416,1,0.2262520568847656,1.7310078002929687,-11.170147845458983
3596044023887,2.739115885,1,0.22744915771484372,1.7369933044433592,-11.183315954589844
3596046244928,2.741336926,1,0.22744915771484372,1.7453730102539062,-11.190498559570312
3596048467741,2.743559739,1,0.24660277099609373,1.7513585144042967,-11.197681164550781
3596050686855,2.745778853,1,0.258573779296875,1.7477672119140624,-11.176133349609374
3596052912064,2.748004062,1,0.26336218261718747,1.7310078002929687,-11.202469567871093
3596055130814,2.750222812,1,0.2609679809570312,1.7429788085937499,-11.218031878662108
3596057353678,2.752445676,1,0.2346317626953125,1.7393875061035156,-11.225214483642578
3596059575918,2.754667916,1,0.22266075439453123,1.7381904052734374,-11.184513055419922
3596061798105,2.756890103,1,0.21906945190429686,1.7298106994628906,-11.203666668701171
3596064023678,2.759115676,1,0.22505495605468748,1.7322049011230467,-11.23000288696289
3596066242637,2.761334635,1,0.22266075439453123,1.7298106994628906,-11.215637677001952
3596068466855,2.763558853,1,0.22266075439453123,1.7381904052734374,-11.204863769531249
3596070687168,2.765779166,1,0.20350714111328125,1.7238251953125,-11.201272467041015
3596072911491,2.768003489,1,0.2166752502441406,1.734599102783203,-11.207257971191405
3596075131543,2.770223541,1,0.24181436767578124,1.7417817077636717,-11.213243475341796
3596077353157,2.772445155,1,0.22744915771484372,1.7381904052734374,-11.221623181152344
3596079576230,2.774668228,1,0.23223756103515625,1.7393875061035156,-11.2240173828125
3596081798418,2.776890416,1,0.23343466186523437,1.7286135986328124,-11.218031878662108
3596084023262,2.77911526,1,0.23343466186523437,1.7178396911621092,-11.186907257080078
3596086242168,2.781334166,1,0.21787235107421873,1.7334020019531249,-11.161768139648437
3596088467428,2.783559426,1,0.22385785522460935,1.734599102783203,-11.188104357910156
3596090686855,2.785778853,1,0.22026655273437498,1.7286135986328124,-11.177330450439452
3596092909512,2.78800151,1,0.22385785522460935,1.7238251953125,-11.19887826538086
3596095131959,2.790223957,1,0.201112939453125,1.7118541870117185,-11.209652172851563
3596097353887,2.792445885,1,0.1975216369628906,1.7238251953125,-11.192892761230468
3596099576178,2.794668176,1,0.21787235107421873,1.7322049011230467,-11.197681164550781
3596101798522,2.79689052,1,0.23702596435546874,1.7561469177246092,-11.197681164550781
3596104023001,2.799114999,1,0.2537853759765625,1.7597382202148437,-11.21084927368164
3596106242689,2.801334687,1,0.2549824768066406,1.7405846069335937,-11.214440576171874
3596108468105,2.803560103,1,0.24779987182617186,1.734599102783203,-11.192892761230468
3596110687116,2.805779114,1,0.23582886352539062,1.7405846069335937,-11.195286962890624
3596112911751,2.808003749,1,0.23702596435546874,1.7405846069335937,-11.196484063720703
3596115131543,2.810223541,1,0.2214636535644531,1.7298106994628906,-11.176133349609374
3596117352845,2.812444843,1,0.23104046020507812,1.7202338928222656,-11.166556542968749
3596119575970,2.814667968,1,0.24061726684570311,1.7298106994628906,-11.155782635498046
3596121797012,2.81688901,1,0.23822306518554687,1.7322049011230467,-11.168950744628905
3596124084980,2.819176978,1,0.23343466186523437,1.7513585144042967,-11.192892761230468
3596126243782,2.82133578,1,0.239420166015625,1.7322049011230467,-11.197681164550781
3596128468730,2.823560728,1,0.25139117431640623,1.7477672119140624,-11.177330450439452
3596130686803,2.825778801,1,0.2346317626953125,1.7645266235351562,-11.21084927368164
3596132912064,2.828004062,1,0.21906945190429686,1.7561469177246092,-11.23718549194336
3596135131439,2.830223437,1,0.24181436767578124,1.7489643127441405,-11.241973895263671
3596137354043,2.832446041,1,0.24899697265624998,1.7561469177246092,-11.213243475341796
3596139576907,2.834668905,1,0.23702596435546874,1.7717092285156248,-11.176133349609374
3596141797897,2.836889895,1,0.2214636535644531,1.7597382202148437,-11.143811627197264
3596144023053,2.839115051,1,0.21428104858398436,1.7465701110839842,-11.155782635498046
3596146242532,2.84133453,1,0.22266075439453123,1.7645266235351562,-11.18571015625
3596148467220,2.843559218,1,0.22266075439453123,1.753752716064453,-11.200075366210937
3596150687793,2.845779791,1,0.23822306518554687,1.7417817077636717,-11.2240173828125
3596152909564,2.848001562,1,0.24061726684570311,1.7298106994628906,-11.218031878662108
3596155132168,2.850224166,1,0.2442085693359375,1.7334020019531249,-11.206060870361327
3596157354720,2.852446718,1,0.258573779296875,1.7417817077636717,-11.213243475341796
3596159576439,2.854668437,1,0.26336218261718747,1.7393875061035156,-11.21683477783203
3596161798314,2.856890312,1,0.2561795776367187,1.744175909423828,-11.19169566040039
3596164023574,2.859115572,1,0.229843359375,1.7429788085937499,-11.162965240478515
3596166242480,2.861334478,1,0.22864625854492185,1.7501614135742187,-11.173739147949219
3596168468366,2.863560364,1,0.229843359375,1.7453730102539062,-11.222820281982422
3596170686491,2.865778489,1,0.22505495605468748,1.7585411193847655,-11.209652172851563
3596172912949,2.868004947,1,0.23104046020507812,1.7238251953125,-11.195286962890624
3596175131855,2.870223853,1,0.22864625854492185,1.7286135986328124,-11.184513055419922
3596177354512,2.87244651,1,0.239420166015625,1.7310078002929687,-11.186907257080078
3596179576543,2.874668541,1,0.22744915771484372,1.7226280944824217,-11.214440576171874
3596181798209,2.876890207,1,0.23343466186523437,1.7118541870117185,-11.204863769531249
3596184023209,2.879115207,1,0.21428104858398436,1.7106570861816406,-11.200075366210937
3596186242532,2.88133453,1,0.19871873779296872,1.7262193969726563,-11.201272467041015
3596188467793,2.883559791,1,0.20231004028320312,1.7214309936523438,-11.208455072021483
3596190687012,2.88577901,1,0.22026655273437498,1.7106570861816406,-11.2240173828125
3596192912532,2.88800453,1,0.22744915771484372,1.7106570861816406,-11.227608685302734
3596195133105,2.890225103,1,0.22744915771484372,1.7082628845214842,-11.221623181152344
3596197359095,2.892451093,1,0.21787235107421873,1.7166425903320313,-11.220426080322264
3596199578470,2.894670468,1,0.201112939453125,1.715445489501953,-11.188104357910156
3596201798522,2.89689052,1,0.19153613281249998,1.7262193969726563,-11.192892761230468
3596204023678,2.899115676,1,0.20470424194335937,1.7369933044433592,-11.17254204711914
3596206242428,2.901334426,1,0.22385785522460935,1.7357962036132812,-11.167753643798827
3596208468314,2.903560312,1,0.21787235107421873,1.7417817077636717,-11.149797131347656
3596210686751,2.905778749,1,0.19512743530273435,1.7369933044433592,-11.17254204711914
3596212913105,2.908005103,1,0.2059013427734375,1.7405846069335937,-11.159373937988281
3596215132220,2.910224218,1,0.23223756103515625,1.7381904052734374,-11.179724652099608
3596217354407,2.912446405,1,0.229843359375,1.7393875061035156,-11.186907257080078
3596219575866,2.914667864,1,0.2166752502441406,1.725022296142578,-11.18571015625
3596221799147,2.916891145,1,0.2154781494140625,1.7357962036132812,-11.183315954589844
3596224023001,2.919114999,1,0.2154781494140625,1.7381904052734374,-11.179724652099608
3596226242480,2.921334478,1,0.21068974609375,1.7381904052734374,-11.186907257080078
3596228467949,2.923559947,1,0.21308394775390624,1.7286135986328124,-11.03846675415039
3596230687324,2.925779322,1,0.22864625854492185,1.7334020019531249,-11.190498559570312
3596232912428,2.928004426,1,0.229843359375,1.7501614135742187,-11.183315954589844
3596235132012,2.93022401,1,0.21308394775390624,1.7525556152343749,-11.162965240478515
3596237353887,2.932445885,1,0.20829554443359374,1.7381904052734374,-11.142614526367186
3596239576074,2.934668072,1,0.19393033447265623,1.7381904052734374,-11.143811627197264
3596241798105,2.936890103,1,0.1975216369628906,1.725022296142578,-11.141417425537108
3596244023678,2.939115676,1,0.19991583862304688,1.7106570861816406,-11.165359442138671
3596246242428,2.941334426,1,0.2059013427734375,1.7310078002929687,-11.173739147949219
3596248468105,2.943560103,1,0.2154781494140625,1.7405846069335937,-11.190498559570312
3596250686907,2.945778905,1,0.22266075439453123,1.7381904052734374,-11.196484063720703
3596252912324,2.948004322,1,0.2154781494140625,1.7393875061035156,-11.194089862060546
3596255132011,2.950224009,1,0.21906945190429686,1.744175909423828,-11.194089862060546
3596257354511,2.952446509,1,0.21787235107421873,1.7369933044433592,-11.201272467041015
3596259576230,2.954668228,1,0.23104046020507812,1.7286135986328124,-11.202469567871093
3596261797897,2.956889895,1,0.23223756103515625,1.7238251953125,-11.180921752929686
3596264022532,2.95911453,1,0.23582886352539062,1.7238251953125,-11.173739147949219
3596266243626,2.961335624,1,0.22385785522460935,1.7262193969726563,-11.165359442138671
3596268467845,2.963559843,1,0.2454056701660156,1.7298106994628906,-11.179724652099608
3596270687480,2.965779478,1,0.24301146850585936,1.734599102783203,-11.17852755126953
3596272912116,2.968004114,1,0.23702596435546874,1.7298106994628906,-11.170147845458983
3596275131282,2.97022328,1,0.239420166015625,1.7322049011230467,-11.166556542968749
3596277353939,2.972445937,1,0.23343466186523437,1.7465701110839842,-11.173739147949219
3596279576855,2.974668853,1,0.25139117431640623,1.7489643127441405,-11.19169566040039
3596281798574,2.976890572,1,0.2537853759765625,1.7381904052734374,-11.190498559570312
3596284022168,2.979114166,1,0.239420166015625,1.7417817077636717,-11.166556542968749
3596286243730,2.981335728,1,0.22026655273437498,1.744175909423828,-11.179724652099608
3596288468366,2.983560364,1,0.23702596435546874,1.7369933044433592,-11.165359442138671
3596290687220,2.985779218,1,0.2501940734863281,1.7369933044433592,-11.176133349609374
3596292912689,2.988004687,1,0.2537853759765625,1.7381904052734374,-11.196484063720703
3596295131126,2.990223124,1,0.24899697265624998,1.7214309936523438,-11.2240173828125
3596297354095,2.992446093,1,0.2262520568847656,1.715445489501953,-11.221623181152344
3596299575241,2.994667239,1,0.22744915771484372,1.7166425903320313,-11.200075366210937
3596301798991,2.996890989,1,0.2214636535644531,1.7238251953125,-11.189301458740234
3596304023157,2.999115155,1,0.22026655273437498,1.7298106994628906,-11.173739147949219
3596306243939,3.001335937,1,0.21428104858398436,1.725022296142578,-11.165359442138671
3596308467793,3.003559791,1,0.19033903198242186,1.734599102783203,-11.179724652099608
3596310688314,3.005780312,1,0.20231004028320312,1.7322049011230467,-11.17852755126953
3596312912636,3.008004634,1,0.22026655273437498,1.7322049011230467,-11.188104357910156
3596315131699,3.010223697,1,0.22744915771484372,1.7238251953125,-11.207257971191405
3596317354459,3.012446457,1,0.23343466186523437,1.7118541870117185,-11.206060870361327
3596319575866,3.014667864,1,0.22026655273437498,1.705868682861328,-11.200075366210937
3596321797584,3.016889582,1,0.22505495605468748,1.714248388671875,-11.201272467041015
3596324023105,3.019115103,1,0.21428104858398436,1.7238251953125,-11.19887826538086
3596326242845,3.021334843,1,0.2166752502441406,1.7322049011230467,-11.19169566040039
3596328467272,3.02355927,1,0.2262520568847656,1.7082628845214842,-11.159373937988281
3596330686803,3.025778801,1,0.23104046020507812,1.7190367919921874,-11.176133349609374
3596332912272,3.02800427,1,0.2214636535644531,1.7178396911621092,-11.183315954589844
3596335131334,3.030223332,1,0.23104046020507812,1.725022296142578,-11.192892761230468
3596337354147,3.032446145,1,0.23702596435546874,1.7334020019531249,-11.19169566040039
3596339575761,3.034667759,1,0.2346317626953125,1.7214309936523438,-11.189301458740234
3596341798730,3.036890728,1,0.22266075439453123,1.7381904052734374,-11.195286962890624
3596344023522,3.03911552,1,0.23104046020507812,1.7405846069335937,-11.179724652099608
3596346242897,3.041334895,1,0.22505495605468748,1.725022296142578,-11.161768139648437
3596348465241,3.043557239,1,0.2214636535644531,1.7226280944824217,-11.170147845458983
3596350688157,3.045780155,1,0.22266075439453123,1.7274164978027342,-11.190498559570312
3596352913001,3.048004999,1,0.22864625854492185,1.744175909423828,-11.221623181152344
3596355131647,3.050223645,1,0.19871873779296872,1.7405846069335937,-11.218031878662108
3596357353470,3.052445468,1,0.19871873779296872,1.7310078002929687,-11.200075366210937
3596359576126,3.054668124,1,0.20709844360351562,1.7214309936523438,-11.221623181152344
3596361798105,3.056890103,1,0.2346317626953125,1.7190367919921874,-11.200075366210937
3596364023209,3.059115207,1,0.24301146850585936,1.7286135986328124,-11.209652172851563
3596366242584,3.061334582,1,0.22864625854492185,1.7238251953125,-11.206060870361327
3596368467689,3.063559687,1,0.23582886352539062,1.7262193969726563,-11.218031878662108
3596370686803,3.065778801,1,0.22266075439453123,1.7334020019531249,-11.233594189453123
3596372911907,3.068003905,1,0.22744915771484372,1.7190367919921874,-11.219228979492186
3596375130970,3.070222968,1,0.22864625854492185,1.7082628845214842,-11.201272467041015
3596377353991,3.072445989,1,0.239420166015625,1.725022296142578,-11.184513055419922
3596379576334,3.074668332,1,0.23223756103515625,1.7369933044433592,-11.19169566040039
3596381799147,3.076891145,1,0.24181436767578124,1.7238251953125,-11.171344946289063
3596384024147,3.079116145,1,0.23582886352539062,1.715445489501953,-11.188104357910156
3596386242689,3.081334687,1,0.24181436767578124,1.7082628845214842,-11.332953558349608
3596388467636,3.083559634,1,0.23104046020507812,1.7202338928222656,-11.155782635498046
3596390687376,3.085779374,1,0.23822306518554687,1.714248388671875,-11.17254204711914
3596392911595,3.088003593,1,0.22505495605468748,1.715445489501953,-11.196484063720703
3596395131491,3.090223489,1,0.22744915771484372,1.7226280944824217,-11.189301458740234
3596397353053,3.092445051,1,0.2214636535644531,1.7106570861816406,-11.186907257080078
3596399575293,3.094667291,1,0.2166752502441406,1.697488977050781,-11.180921752929686
3596401799043,3.096891041,1,0.23702596435546874,1.707065783691406,-11.18571015625
3596404023626,3.099115624,1,0.23702596435546874,1.7226280944824217,-11.174936248779296
3596406247324,3.101339322,1,0.23343466186523437,1.7238251953125,-11.330559356689452
3596408471334,3.103563332,1,0.23702596435546874,1.7238251953125,-11.137826123046874
3596410687376,3.105779374,1,0.21068974609375,1.7429788085937499,-11.13423482055664
3596412912428,3.108004426,1,0.21787235107421873,1.7513585144042967,-11.145008728027342
3596415131595,3.110223593,1,0.21906945190429686,1.7549498168945312,-11.161768139648437
3596417354668,3.112446666,1,0.21906945190429686,1.7477672119140624,-11.171344946289063
3596419576439,3.114668437,1,0.2059013427734375,1.7369933044433592,-11.170147845458983
3596421798574,3.116890572,1,0.20829554443359374,1.7322049011230467,-11.18571015625
3596424023314,3.119115312,1,0.22744915771484372,1.7298106994628906,-11.189301458740234
3596426242376,3.121334374,1,0.2214636535644531,1.7334020019531249,-11.179724652099608
3596428468366,3.123560364,1,0.21068974609375,1.7286135986328124,-11.188104357910156
3596430686543,3.125778541,1,0.21906945190429686,1.7405846069335937,-11.204863769531249
3596432912532,3.12800453,1,0.23104046020507812,1.7357962036132812,-11.170147845458983
3596435131959,3.130223957,1,0.22505495605468748,1.734599102783203,-11.171344946289063
3596437354772,3.13244677,1,0.22026655273437498,1.7310078002929687,-11.16057103881836
3596439576126,3.134668124,1,0.21188684692382811,1.7262193969726563,-11.143811627197264
3596441798209,3.136890207,1,0.20231004028320312,1.7214309936523438,-11.156979736328124
3596444023470,3.139115468,1,0.20350714111328125,1.7298106994628906,-11.141417425537108
3596446242741,3.141334739,1,0.21428104858398436,1.7393875061035156,-11.170147845458983
3596448468782,3.14356078,1,0.21428104858398436,1.7357962036132812,-11.204863769531249
3596450687220,3.145779218,1,0.20709844360351562,1.7298106994628906,-11.202469567871093
3596452912324,3.148004322,1,0.19871873779296872,1.7262193969726563,-11.17852755126953
3596455132220,3.150224218,1,0.19632453613281248,1.734599102783203,-11.212046374511718
3596457354095,3.152446093,1,0.21068974609375,1.7417817077636717,-11.184513055419922
3596459575449,3.154667447,1,0.21787235107421873,1.753752716064453,-11.200075366210937
3596461798886,3.156890884,1,0.22385785522460935,1.7405846069335937,-11.189301458740234
3596464023991,3.159115989,1,0.23702596435546874,1.7286135986328124,-11.17254204711914
