timestamp_ns,t_s,sensor_id,ax,ay,az,gx,gy,gz
3809526803701,0.064818177,1,0.23582886352539062,1.7286135986328124,-11.17852755126953,-1.083969465648855,0.8015267175572519,-1.816793893129771
3809536764066,0.074778542,1,0.23223756103515625,1.7381904052734374,-11.154585534667968,-0.8244274809160306,0.5648854961832062,-1.3129770992366412
3809546764013,0.084778489,1,0.22385785522460935,1.7405846069335937,-11.17852755126953,-0.8091603053435115,0.549618320610687,-1.2900763358778626
3809556768076,0.094782552,1,0.23702596435546874,1.7286135986328124,-11.219228979492186,-0.816793893129771,0.6106870229007634,-1.297709923664122
3809566760524,0.104775,1,0.22266075439453123,1.7238251953125,-11.18571015625,-0.8320610687022901,0.6259541984732825,-1.3053435114503817
3809576759326,0.114773802,1,0.23223756103515625,1.7381904052734374,-11.220426080322264,-0.8473282442748091,0.5572519083969466,-1.3282442748091603
3809586759326,0.124773802,1,0.24181436767578124,1.7226280944824217,-11.166556542968749,-0.8244274809160306,0.6030534351145038,-1.297709923664122
3809596757555,0.134772031,1,0.23223756103515625,1.7453730102539062,-11.212046374511718,-0.8015267175572519,0.6335877862595419,-1.3358778625954197
3809606758024,0.1447725,1,0.22026655273437498,1.7405846069335937,-11.161768139648437,-0.8015267175572519,0.6412213740458015,-1.3358778625954197
3809616758441,0.154772917,1,0.20829554443359374,1.7357962036132812,-11.177330450439452,-0.8244274809160306,0.5190839694656488,-1.3511450381679388
3809626757868,0.164772344,1,0.23822306518554687,1.7357962036132812,-11.203666668701171,-0.7938931297709924,0.5267175572519084,-1.3282442748091603
3809636757763,0.174772239,1,0.2693476867675781,1.6986860778808592,-11.196484063720703,-0.8473282442748091,0.549618320610687,-1.3129770992366412
3809646757451,0.184771927,1,0.23822306518554687,1.7274164978027342,-11.164162341308593,-0.8244274809160306,0.5725190839694656,-1.2595419847328244
3809656756930,0.194771406,1,0.24779987182617186,1.7334020019531249,-11.203666668701171,-0.816793893129771,0.6030534351145038,-1.2748091603053435
3809666757451,0.204771927,1,0.20829554443359374,1.7381904052734374,-11.195286962890624,-0.8549618320610687,0.5572519083969466,-1.3282442748091603
3809676758597,0.214773073,1,0.22026655273437498,1.725022296142578,-11.183315954589844,-0.8778625954198473,0.5877862595419847,-1.3206106870229009
3809686758024,0.2247725,1,0.22385785522460935,1.7357962036132812,-11.17852755126953,-0.816793893129771,0.6030534351145038,-1.3358778625954197
3809696758336,0.234772812,1,0.22026655273437498,1.734599102783203,-11.182118853759764,-0.816793893129771,0.5419847328244275,-1.3358778625954197
3809706757138,0.244771614,1,0.19512743530273435,1.7561469177246092,-11.212046374511718,-0.8015267175572519,0.5877862595419847,-1.3053435114503817
3809716758284,0.25477276,1,0.2262520568847656,1.7118541870117185,-11.171344946289063,-0.8396946564885496,0.5954198473282443,-1.3587786259541985
3809726756722,0.264771198,1,0.23223756103515625,1.707065783691406,-11.220426080322264,-0.816793893129771,0.6106870229007634,-1.3206106870229009
3809736757295,0.274771771,1,0.24181436767578124,1.7214309936523438,-11.190498559570312,-0.8320610687022901,0.5877862595419847,-1.297709923664122
3809746756826,0.284771302,1,0.24899697265624998,1.7214309936523438,-11.180921752929686,-0.8625954198473282,0.5419847328244275,-1.3053435114503817
3809756756930,0.294771406,1,0.23343466186523437,1.715445489501953,-11.17254204711914,-0.8702290076335878,0.6641221374045801,-1.3206106870229009
3809766757503,0.304771979,1,0.20470424194335937,1.7357962036132812,-11.192892761230468,-0.8091603053435115,0.5725190839694656,-1.2900763358778626
3809776757503,0.314771979,1,0.201112939453125,1.7322049011230467,-11.165359442138671,-0.8549618320610687,0.6335877862595419,-1.297709923664122
3809786757243,0.324771719,1,0.2442085693359375,1.7381904052734374,-11.167753643798827,-0.8015267175572519,0.5801526717557252,-1.2595419847328244
3809796758128,0.334772604,1,0.21308394775390624,1.744175909423828,-11.227608685302734,-0.8396946564885496,0.5801526717557252,-1.3206106870229009
3809806757034,0.34477151,1,0.22026655273437498,1.7226280944824217,-11.207257971191405,-0.8244274809160306,0.6183206106870229,-1.3358778625954197
3809816757815,0.354772291,1,0.20829554443359374,1.7190367919921874,-11.208455072021483,-0.8015267175572519,0.5877862595419847,-1.3129770992366412
3809826758388,0.364772864,1,0.239420166015625,1.7585411193847655,-11.194089862060546,-0.8320610687022901,0.5954198473282443,-1.3358778625954197
3809836757920,0.374772396,1,0.19871873779296872,1.7429788085937499,-11.21683477783203,-0.8549618320610687,0.6106870229007634,-1.282442748091603
3809846756982,0.384771458,1,0.22864625854492185,1.7082628845214842,-11.21084927368164,-0.8473282442748091,0.6183206106870229,-1.3053435114503817
3809856758388,0.394772864,1,0.22266075439453123,1.7274164978027342,-11.184513055419922,-0.816793893129771,0.5419847328244275,-1.3358778625954197
3809866757659,0.404772135,1,0.22026655273437498,1.7322049011230467,-11.123460913085937,-0.8320610687022901,0.5190839694656488,-1.3358778625954197
3809876757659,0.414772135,1,0.24660277099609373,1.734599102783203,-11.183315954589844,-0.8091603053435115,0.5801526717557252,-1.3282442748091603
3809886756670,0.424771146,1,0.201112939453125,1.753752716064453,-11.225214483642578,-0.8244274809160306,0.5801526717557252,-1.3358778625954197
3809896756253,0.434770729,1,0.21068974609375,1.744175909423828,-11.1474029296875,-0.8320610687022901,0.5725190839694656,-1.3358778625954197
3809906757607,0.444772083,1,0.23343466186523437,1.7369933044433592,-11.204863769531249,-0.8549618320610687,0.6564885496183206,-1.3129770992366412
3809916757659,0.454772135,1,0.2346317626953125,1.7417817077636717,-11.196484063720703,-0.8091603053435115,0.5725190839694656,-1.3129770992366412
3809926756826,0.464771302,1,0.24899697265624998,1.7381904052734374,-11.2240173828125,-0.8625954198473282,0.6106870229007634,-1.3053435114503817
3809936759117,0.474773593,1,0.2454056701660156,1.7334020019531249,-11.25514200439453,-0.8320610687022901,0.549618320610687,-1.282442748091603
3809946757711,0.484772187,1,0.20470424194335937,1.7298106994628906,-11.194089862060546,-0.8625954198473282,0.6030534351145038,-1.3358778625954197
3809956757347,0.494771823,1,0.24181436767578124,1.7357962036132812,-11.148600030517578,-0.7862595419847328,0.5038167938931297,-1.3587786259541985
3809966755940,0.504770416,1,0.2454056701660156,1.7310078002929687,-11.221623181152344,-0.8473282442748091,0.6259541984732825,-1.297709923664122
3809976757451,0.514771927,1,0.21787235107421873,1.7178396911621092,-11.188104357910156,-0.8549618320610687,0.6106870229007634,-1.3358778625954197
3809986756565,0.524771041,1,0.21906945190429686,1.7573440185546874,-11.177330450439452,-0.8549618320610687,0.5954198473282443,-1.3206106870229009
3809996758753,0.534773229,1,0.2262520568847656,1.705868682861328,-11.208455072021483,-0.8015267175572519,0.5801526717557252,-1.297709923664122
3810006757086,0.544771562,1,0.21906945190429686,1.7130512878417967,-11.189301458740234,-0.8473282442748091,0.5954198473282443,-1.3282442748091603
3810016757711,0.554772187,1,0.2537853759765625,1.763329522705078,-11.159373937988281,-0.816793893129771,0.5267175572519084,-1.297709923664122
3810026756826,0.564771302,1,0.2442085693359375,1.7094599853515624,-11.158176837158203,-0.8549618320610687,0.5572519083969466,-1.3358778625954197
3810036758128,0.574772604,1,0.2262520568847656,1.7190367919921874,-11.208455072021483,-0.8396946564885496,0.6106870229007634,-1.3893129770992367
3810046756565,0.584771041,1,0.2549824768066406,1.7298106994628906,-11.201272467041015,-0.8778625954198473,0.5954198473282443,-1.297709923664122
3810056756513,0.594770989,1,0.22266075439453123,1.7130512878417967,-11.207257971191405,-0.8244274809160306,0.549618320610687,-1.3129770992366412
3810066756461,0.604770937,1,0.23822306518554687,1.7190367919921874,-11.184513055419922,-0.8396946564885496,0.549618320610687,-1.3435114503816794
3810076757190,0.614771666,1,0.24301146850585936,1.714248388671875,-11.203666668701171,-0.7633587786259542,0.5648854961832062,-1.3435114503816794
3810086765680,0.624780156,1,0.2262520568847656,1.753752716064453,-11.18571015625,-0.8320610687022901,0.5954198473282443,-1.2671755725190839
3810096759742,0.634774218,1,0.22864625854492185,1.725022296142578,-11.195286962890624,-0.8244274809160306,0.5648854961832062,-1.282442748091603
3810106757451,0.644771927,1,0.2346317626953125,1.7262193969726563,-11.19887826538086,-0.8854961832061069,0.5801526717557252,-1.3206106870229009
3810116757815,0.654772291,1,0.24660277099609373,1.7453730102539062,-11.184513055419922,-0.816793893129771,0.549618320610687,-1.3282442748091603
3810126757451,0.664771927,1,0.23582886352539062,1.7178396911621092,-11.214440576171874,-0.8702290076335878,0.6183206106870229,-1.3206106870229009
3810136757190,0.674771666,1,0.229843359375,1.7274164978027342,-11.161768139648437,-0.8320610687022901,0.5572519083969466,-1.3358778625954197
3810146757555,0.684772031,1,0.22385785522460935,1.7429788085937499,-11.190498559570312,-0.8320610687022901,0.5801526717557252,-1.3511450381679388
3810156757763,0.694772239,1,0.23104046020507812,1.725022296142578,-11.182118853759764,-0.7709923664122137,0.5648854961832062,-1.3358778625954197
3810166756982,0.704771458,1,0.229843359375,1.7369933044433592,-11.156979736328124,-0.8320610687022901,0.549618320610687,-1.3587786259541985
3810176755263,0.714769739,1,0.22266075439453123,1.744175909423828,-11.200075366210937,-0.8625954198473282,0.5343511450381679,-1.3282442748091603
3810186757242,0.724771718,1,0.19512743530273435,1.7298106994628906,-11.186907257080078,-0.8244274809160306,0.5343511450381679,-1.3206106870229009
3810196756930,0.734771406,1,0.21188684692382811,1.7262193969726563,-11.154585534667968,-0.7862595419847328,0.5419847328244275,-1.2748091603053435
3810206756253,0.744770729,1,0.19512743530273435,1.734599102783203,-11.158176837158203,-0.8396946564885496,0.6183206106870229,-1.297709923664122
3810216756669,0.754771145,1,0.23343466186523437,1.7262193969726563,-11.23718549194336,-0.7862595419847328,0.5725190839694656,-1.3358778625954197
3810226756253,0.764770729,1,0.201112939453125,1.7298106994628906,-11.17852755126953,-0.8244274809160306,0.6335877862595419,-1.366412213740458
3810236757815,0.774772291,1,0.21308394775390624,1.7202338928222656,-11.186907257080078,-0.7633587786259542,0.5801526717557252,-1.3587786259541985
3810246756878,0.784771354,1,0.239420166015625,1.7166425903320313,-11.206060870361327,-0.7862595419847328,0.6106870229007634,-1.3358778625954197
3810256757451,0.794771927,1,0.229843359375,1.7190367919921874,-11.182118853759764,-0.8320610687022901,0.5954198473282443,-1.3740458015267176
3810266756669,0.804771145,1,0.23702596435546874,1.7286135986328124,-11.192892761230468,-0.816793893129771,0.549618320610687,-1.3129770992366412
3810276757503,0.814771979,1,0.23104046020507812,1.7429788085937499,-11.167753643798827,-0.816793893129771,0.5190839694656488,-1.3893129770992367
3810286756305,0.824770781,1,0.21906945190429686,1.7417817077636717,-11.200075366210937,-0.8931297709923665,0.5419847328244275,-1.3435114503816794
3810296756722,0.834771198,1,0.20949264526367187,1.7417817077636717,-11.141417425537108,-0.8015267175572519,0.5801526717557252,-1.3511450381679388
3810306757190,0.844771666,1,0.22266075439453123,1.7322049011230467,-11.207257971191405,-0.8549618320610687,0.5801526717557252,-1.3129770992366412
3810316757034,0.85477151,1,0.239420166015625,1.7190367919921874,-11.208455072021483,-0.8625954198473282,0.5343511450381679,-1.3206106870229009
3810326756357,0.864770833,1,0.22864625854492185,1.772906329345703,-11.188104357910156,-0.8244274809160306,0.5419847328244275,-1.3129770992366412
3810336756930,0.874771406,1,0.23104046020507812,1.725022296142578,-11.208455072021483,-0.816793893129771,0.5954198473282443,-1.3435114503816794
3810346756305,0.884770781,1,0.23104046020507812,1.725022296142578,-11.173739147949219,-0.8244274809160306,0.5572519083969466,-1.3587786259541985
3810356757451,0.894771927,1,0.22266075439453123,1.7214309936523438,-11.206060870361327,-0.8091603053435115,0.5648854961832062,-1.3129770992366412
3810366754221,0.904768697,1,0.23822306518554687,1.7298106994628906,-11.21683477783203,-0.8320610687022901,0.6183206106870229,-1.3511450381679388
3810376757659,0.914772135,1,0.23702596435546874,1.7286135986328124,-11.173739147949219,-0.8549618320610687,0.5877862595419847,-1.366412213740458
3810386756878,0.924771354,1,0.23104046020507812,1.715445489501953,-11.176133349609374,-0.8473282442748091,0.5267175572519084,-1.3511450381679388
3810396757815,0.934772291,1,0.22864625854492185,1.7190367919921874,-11.19887826538086,-0.816793893129771,0.549618320610687,-1.3206106870229009
3810406756982,0.944771458,1,0.24061726684570311,1.7322049011230467,-11.190498559570312,-0.816793893129771,0.5267175572519084,-1.3129770992366412
3810416754221,0.954768697,1,0.23702596435546874,1.7381904052734374,-11.231199987792968,-0.9007633587786259,0.6030534351145038,-1.3206106870229009
3810426755732,0.964770208,1,0.23223756103515625,1.7322049011230467,-11.161768139648437,-0.8244274809160306,0.6259541984732825,-1.3282442748091603
3810436757555,0.974772031,1,0.2059013427734375,1.7477672119140624,-11.197681164550781,-0.8854961832061069,0.5725190839694656,-1.3206106870229009
3810446756930,0.984771406,1,0.23702596435546874,1.7357962036132812,-11.206060870361327,-0.8396946564885496,0.5648854961832062,-1.2442748091603053
3810456757086,0.994771562,1,0.239420166015625,1.7310078002929687,-11.228805786132812,-0.8625954198473282,0.5572519083969466,-1.3206106870229009
3810466755628,1.004770104,1,0.20709844360351562,1.7369933044433592,-11.182118853759764,-0.816793893129771,0.5648854961832062,-1.3358778625954197
3810476757659,1.014772135,1,0.22266075439453123,1.7393875061035156,-11.213243475341796,-0.9007633587786259,0.5648854961832062,-1.3053435114503817
3810486757138,1.024771614,1,0.229843359375,1.7525556152343749,-11.179724652099608,-0.7709923664122137,0.5114503816793893,-1.3358778625954197
3810496756253,1.034770729,1,0.23822306518554687,1.7369933044433592,-11.190498559570312,-0.8625954198473282,0.5343511450381679,-1.3740458015267176
3810506757399,1.044771875,1,0.23343466186523437,1.7094599853515624,-11.177330450439452,-0.8244274809160306,0.5114503816793893,-1.3587786259541985
3810516754534,1.05476901,1,0.18435352783203124,1.7202338928222656,-11.194089862060546,-0.8549618320610687,0.5725190839694656,-1.3511450381679388
3810526756565,1.064771041,1,0.21906945190429686,1.7429788085937499,-11.159373937988281,-0.8091603053435115,0.6106870229007634,-1.3511450381679388
3810536757867,1.074772343,1,0.2454056701660156,1.7166425903320313,-11.161768139648437,-0.8473282442748091,0.5801526717557252,-1.3435114503816794
3810546757659,1.084772135,1,0.23104046020507812,1.705868682861328,-11.159373937988281,-0.8473282442748091,0.5877862595419847,-1.3206106870229009
3810556758753,1.094773229,1,0.2154781494140625,1.7513585144042967,-11.165359442138671,-0.8244274809160306,0.6183206106870229,-1.3206106870229009
3810566755471,1.104769947,1,0.19512743530273435,1.7334020019531249,-11.207257971191405,-0.7251908396946565,0.5725190839694656,-1.3206106870229009
3810576757346,1.114771822,1,0.22864625854492185,1.7477672119140624,-11.204863769531249,-0.8702290076335878,0.6030534351145038,-1.2900763358778626
3810586756617,1.124771093,1,0.21068974609375,1.7369933044433592,-11.218031878662108,-0.8091603053435115,0.5572519083969466,-1.3282442748091603
3810596757398,1.134771874,1,0.201112939453125,1.7118541870117185,-11.188104357910156,-0.8396946564885496,0.6564885496183206,-1.3129770992366412
3810606757555,1.144772031,1,0.23582886352539062,1.7130512878417967,-11.179724652099608,-0.8473282442748091,0.6030534351145038,-1.282442748091603
3810616756096,1.154770572,1,0.23822306518554687,1.7190367919921874,-11.203666668701171,-0.8702290076335878,0.6030534351145038,-1.3435114503816794
3810626756305,1.164770781,1,0.2214636535644531,1.725022296142578,-11.197681164550781,-0.8015267175572519,0.6183206106870229,-1.3206106870229009
3810636757190,1.174771666,1,0.21787235107421873,1.725022296142578,-11.19169566040039,-0.8854961832061069,0.6564885496183206,-1.2900763358778626
3810646762242,1.184776718,1,0.2346317626953125,1.714248388671875,-11.251550701904296,-0.8091603053435115,0.5954198473282443,-1.2900763358778626
3810656759951,1.194774427,1,0.22026655273437498,1.7106570861816406,-11.19887826538086,-0.9312977099236641,0.5419847328244275,-1.3282442748091603
3810666756878,1.204771354,1,0.23702596435546874,1.7501614135742187,-11.194089862060546,-0.7862595419847328,0.5114503816793893,-1.3587786259541985
3810676758701,1.214773177,1,0.20709844360351562,1.7034744812011717,-11.196484063720703,-0.8244274809160306,0.5725190839694656,-1.3282442748091603
3810686757815,1.224772291,1,0.2597708801269531,1.7118541870117185,-11.162965240478515,-0.8396946564885496,0.5419847328244275,-1.3435114503816794
3810696756773,1.234771249,1,0.2262520568847656,1.7405846069335937,-11.220426080322264,-0.8320610687022901,0.5801526717557252,-1.3053435114503817
3810706757815,1.244772291,1,0.22864625854492185,1.7202338928222656,-11.213243475341796,-0.816793893129771,0.549618320610687,-1.282442748091603
3810716758805,1.254773281,1,0.2166752502441406,1.734599102783203,-11.208455072021483,-0.8854961832061069,0.5343511450381679,-1.3129770992366412
3810726758023,1.264772499,1,0.19512743530273435,1.707065783691406,-11.179724652099608,-0.8091603053435115,0.5725190839694656,-1.3282442748091603
3810736756773,1.274771249,1,0.21787235107421873,1.7322049011230467,-11.194089862060546,-0.8396946564885496,0.5572519083969466,-1.297709923664122
3810746756721,1.284771197,1,0.22505495605468748,1.7214309936523438,-11.166556542968749,-0.7938931297709924,0.5648854961832062,-1.3435114503816794
3810756757398,1.294771874,1,0.25258827514648435,1.7369933044433592,-11.189301458740234,-0.8015267175572519,0.5877862595419847,-1.2900763358778626
3810766757294,1.30477177,1,0.21428104858398436,1.7369933044433592,-11.166556542968749,-0.7709923664122137,0.5343511450381679,-1.297709923664122
3810776757138,1.314771614,1,0.21188684692382811,1.734599102783203,-11.171344946289063,-0.8625954198473282,0.5572519083969466,-1.3206106870229009
3810786756878,1.324771354,1,0.22385785522460935,1.725022296142578,-11.180921752929686,-0.8244274809160306,0.5725190839694656,-1.3053435114503817
3810796757815,1.334772291,1,0.23223756103515625,1.6986860778808592,-11.215637677001952,-0.8396946564885496,0.6030534351145038,-1.3435114503816794
3810806802919,1.344817395,1,0.21787235107421873,1.7298106994628906,-11.21084927368164,-0.8320610687022901,0.5343511450381679,-1.3206106870229009
3810816808284,1.35482276,1,0.21428104858398436,1.7202338928222656,-11.184513055419922,-0.816793893129771,0.5267175572519084,-1.3129770992366412
3810826763023,1.364777499,1,0.22505495605468748,1.7561469177246092,-11.179724652099608,-0.8396946564885496,0.5572519083969466,-1.3511450381679388
3810836759325,1.374773801,1,0.23582886352539062,1.734599102783203,-11.206060870361327,-0.8778625954198473,0.5190839694656488,-1.3053435114503817
3810846757294,1.38477177,1,0.23702596435546874,1.7417817077636717,-11.200075366210937,-0.8702290076335878,0.5648854961832062,-1.3206106870229009
3810856761305,1.394775781,1,0.23822306518554687,1.7190367919921874,-11.221623181152344,-0.8244274809160306,0.5419847328244275,-1.3129770992366412
3810866758284,1.40477276,1,0.23343466186523437,1.7238251953125,-11.158176837158203,-0.8015267175572519,0.5954198473282443,-1.3435114503816794
3810876755732,1.414770208,1,0.25139117431640623,1.7393875061035156,-11.170147845458983,-0.7709923664122137,0.5801526717557252,-1.3511450381679388
3810886756825,1.424771301,1,0.21787235107421873,1.744175909423828,-11.196484063720703,-0.7862595419847328,0.5572519083969466,-1.3358778625954197
3810896757398,1.434771874,1,0.21787235107421873,1.7298106994628906,-11.208455072021483,-0.8625954198473282,0.5954198473282443,-1.282442748091603
3810906757398,1.444771874,1,0.24301146850585936,1.7286135986328124,-11.208455072021483,-0.8244274809160306,0.6183206106870229,-1.251908396946565
3810916758023,1.454772499,1,0.22266075439453123,1.7381904052734374,-11.207257971191405,-0.816793893129771,0.6106870229007634,-1.2748091603053435
3810926757607,1.464772083,1,0.19871873779296872,1.725022296142578,-11.174936248779296,-0.8091603053435115,0.6183206106870229,-1.2748091603053435
3810936757294,1.47477177,1,0.20829554443359374,1.725022296142578,-11.196484063720703,-0.8015267175572519,0.5725190839694656,-1.297709923664122
3810946758128,1.484772604,1,0.21188684692382811,1.7381904052734374,-11.164162341308593,-0.816793893129771,0.6183206106870229,-1.3206106870229009
3810956758023,1.494772499,1,0.24779987182617186,1.7214309936523438,-11.19887826538086,-0.8015267175572519,0.5419847328244275,-1.3511450381679388
3810966756617,1.504771093,1,0.21188684692382811,1.7322049011230467,-11.184513055419922,-0.8549618320610687,0.6259541984732825,-1.3206106870229009
3810976758023,1.514772499,1,0.22864625854492185,1.7094599853515624,-11.17852755126953,-0.7938931297709924,0.5725190839694656,-1.297709923664122
3810986756982,1.524771458,1,0.22026655273437498,1.7393875061035156,-11.21084927368164,-0.8625954198473282,0.5801526717557252,-1.297709923664122
3810996757086,1.534771562,1,0.23582886352539062,1.7190367919921874,-11.21084927368164,-0.7938931297709924,0.5572519083969466,-1.2900763358778626
3811006756669,1.544771145,1,0.23582886352539062,1.7357962036132812,-11.195286962890624,-0.8396946564885496,0.5648854961832062,-1.3435114503816794
3811016757555,1.554772031,1,0.229843359375,1.7094599853515624,-11.166556542968749,-0.7786259541984732,0.5038167938931297,-1.3511450381679388
3811026756513,1.564770989,1,0.21428104858398436,1.7238251953125,-11.17852755126953,-0.8091603053435115,0.5801526717557252,-1.3129770992366412
3811036756200,1.574770676,1,0.25258827514648435,1.7286135986328124,-11.234791290283203,-0.7938931297709924,0.5419847328244275,-1.2900763358778626
3811046759013,1.584773489,1,0.239420166015625,1.7166425903320313,-11.186907257080078,-0.8549618320610687,0.5725190839694656,-1.3435114503816794
3811056757763,1.594772239,1,0.2262520568847656,1.7238251953125,-11.173739147949219,-0.7633587786259542,0.5877862595419847,-1.3282442748091603
3811066757294,1.60477177,1,0.2214636535644531,1.7178396911621092,-11.195286962890624,-0.8244274809160306,0.5572519083969466,-1.3053435114503817
3811076758752,1.614773228,1,0.23343466186523437,1.7298106994628906,-11.196484063720703,-0.816793893129771,0.5419847328244275,-1.3358778625954197
3811086757763,1.624772239,1,0.22266075439453123,1.7178396911621092,-11.164162341308593,-0.8473282442748091,0.6106870229007634,-1.2900763358778626
3811096758023,1.634772499,1,0.22026655273437498,1.7202338928222656,-11.192892761230468,-0.7633587786259542,0.549618320610687,-1.3358778625954197
3811106756513,1.644770989,1,0.2346317626953125,1.725022296142578,-11.182118853759764,-0.7709923664122137,0.6106870229007634,-1.3206106870229009
3811116757555,1.654772031,1,0.239420166015625,1.7274164978027342,-11.145008728027342,-0.8549618320610687,0.5190839694656488,-1.3282442748091603
3811126756721,1.664771197,1,0.21188684692382811,1.7310078002929687,-11.202469567871093,-0.8702290076335878,0.5877862595419847,-1.3206106870229009
3811136756773,1.674771249,1,0.22385785522460935,1.7513585144042967,-11.2240173828125,-0.7786259541984732,0.5725190839694656,-1.3511450381679388
3811146756930,1.684771406,1,0.2166752502441406,1.7214309936523438,-11.189301458740234,-0.816793893129771,0.5877862595419847,-1.3358778625954197
3811156757346,1.694771822,1,0.23582886352539062,1.7286135986328124,-11.171344946289063,-0.7633587786259542,0.5572519083969466,-1.3206106870229009
3811166756044,1.70477052,1,0.22266075439453123,1.7417817077636717,-11.189301458740234,-0.8931297709923665,0.6106870229007634,-1.3129770992366412
3811176758232,1.714772708,1,0.22744915771484372,1.7106570861816406,-11.202469567871093,-0.7862595419847328,0.6106870229007634,-1.3435114503816794
3811186757242,1.724771718,1,0.24779987182617186,1.7118541870117185,-11.17852755126953,-0.8244274809160306,0.6106870229007634,-1.282442748091603
3811196757555,1.734772031,1,0.23822306518554687,1.7094599853515624,-11.206060870361327,-0.8015267175572519,0.5877862595419847,-1.3358778625954197
3811206762763,1.744777239,1,0.2059013427734375,1.7238251953125,-11.235988391113281,-0.8091603053435115,0.549618320610687,-1.366412213740458
3811216759169,1.754773645,1,0.2346317626953125,1.7334020019531249,-11.194089862060546,-0.8244274809160306,0.5954198473282443,-1.297709923664122
3811226756513,1.764770989,1,0.201112939453125,1.734599102783203,-11.170147845458983,-0.8549618320610687,0.549618320610687,-1.297709923664122
3811236757554,1.77477203,1,0.22026655273437498,1.725022296142578,-11.182118853759764,-0.8091603053435115,0.5648854961832062,-1.2748091603053435
3811246757294,1.78477177,1,0.2154781494140625,1.7310078002929687,-11.214440576171874,-0.8549618320610687,0.5572519083969466,-1.3129770992366412
3811256757190,1.794771666,1,0.22505495605468748,1.7202338928222656,-11.189301458740234,-0.8396946564885496,0.5419847328244275,-1.3053435114503817
3811266756929,1.804771405,1,0.23223756103515625,1.7310078002929687,-11.19169566040039,-0.8549618320610687,0.5572519083969466,-1.3282442748091603
3811276757554,1.81477203,1,0.23582886352539062,1.7369933044433592,-11.201272467041015,-0.8778625954198473,0.5954198473282443,-1.3740458015267176
3811286757086,1.824771562,1,0.22744915771484372,1.7322049011230467,-11.182118853759764,-0.8778625954198473,0.5877862595419847,-1.3587786259541985
3811296759117,1.834773593,1,0.2262520568847656,1.7274164978027342,-11.194089862060546,-0.8244274809160306,0.5572519083969466,-1.3587786259541985
3811306758232,1.844772708,1,0.20470424194335937,1.7501614135742187,-11.190498559570312,-0.7938931297709924,0.5877862595419847,-1.3053435114503817
3811316756982,1.854771458,1,0.22266075439453123,1.7118541870117185,-11.159373937988281,-0.8015267175572519,0.5801526717557252,-1.3129770992366412
3811326756044,1.86477052,1,0.21428104858398436,1.7274164978027342,-11.183315954589844,-0.8702290076335878,0.6030534351145038,-1.3129770992366412
3811336757138,1.874771614,1,0.19153613281249998,1.7501614135742187,-11.165359442138671,-0.7862595419847328,0.5648854961832062,-1.3053435114503817
3811346756617,1.884771093,1,0.2214636535644531,1.7118541870117185,-11.196484063720703,-0.8625954198473282,0.5114503816793893,-1.2900763358778626
3811356757502,1.894771978,1,0.229843359375,1.705868682861328,-11.189301458740234,-0.8625954198473282,0.5877862595419847,-1.2748091603053435
3811366756669,1.904771145,1,0.22864625854492185,1.7238251953125,-11.179724652099608,-0.8015267175572519,0.549618320610687,-1.2900763358778626
3811376758596,1.914773072,1,0.21308394775390624,1.7130512878417967,-11.222820281982422,-0.8015267175572519,0.6030534351145038,-1.3129770992366412
3811386757086,1.924771562,1,0.25139117431640623,1.7310078002929687,-11.208455072021483,-0.7786259541984732,0.5648854961832062,-1.3206106870229009
3811396757763,1.934772239,1,0.24779987182617186,1.7202338928222656,-11.218031878662108,-0.816793893129771,0.5877862595419847,-1.3129770992366412
3811406756513,1.944770989,1,0.23104046020507812,1.7178396911621092,-11.171344946289063,-0.8473282442748091,0.5954198473282443,-1.3129770992366412
3811416756148,1.954770624,1,0.22505495605468748,1.753752716064453,-11.182118853759764,-0.816793893129771,0.6030534351145038,-1.3129770992366412
3811426757294,1.96477177,1,0.23223756103515625,1.7310078002929687,-11.208455072021483,-0.8702290076335878,0.5648854961832062,-1.3053435114503817
3811436757242,1.974771718,1,0.24061726684570311,1.7357962036132812,-11.17254204711914,-0.8931297709923665,0.6793893129770993,-1.3282442748091603
3811446757450,1.984771926,1,0.20470424194335937,1.7453730102539062,-11.189301458740234,-0.7786259541984732,0.5954198473282443,-1.3358778625954197
3811456756200,1.994770676,1,0.2262520568847656,1.7357962036132812,-11.158176837158203,-0.916030534351145,0.5572519083969466,-1.3435114503816794
3811466756825,2.004771301,1,0.23582886352539062,1.7322049011230467,-11.195286962890624,-0.7938931297709924,0.5648854961832062,-1.3282442748091603
3811476757190,2.014771666,1,0.24660277099609373,1.7465701110839842,-11.179724652099608,-0.8320610687022901,0.5954198473282443,-1.3511450381679388
3811486757138,2.024771614,1,0.22505495605468748,1.7405846069335937,-11.196484063720703,-0.7862595419847328,0.4961832061068702,-1.2900763358778626
3811496757554,2.03477203,1,0.21188684692382811,1.7202338928222656,-11.167753643798827,-0.8549618320610687,0.5267175572519084,-1.3129770992366412
3811506756565,2.044771041,1,0.23702596435546874,1.7310078002929687,-11.176133349609374,-0.7938931297709924,0.5648854961832062,-1.3053435114503817
3811516755106,2.054769582,1,0.1771709228515625,1.7178396911621092,-11.214440576171874,-0.8931297709923665,0.6564885496183206,-1.3282442748091603
3811526763961,2.064778437,1,0.21787235107421873,1.7310078002929687,-11.17254204711914,-0.8931297709923665,0.5801526717557252,-1.297709923664122
3811536759273,2.074773749,1,0.24899697265624998,1.7525556152343749,-11.2240173828125,-0.8931297709923665,0.6183206106870229,-1.3129770992366412
3811546757346,2.084771822,1,0.21188684692382811,1.7274164978027342,-11.206060870361327,-0.7709923664122137,0.5343511450381679,-1.3206106870229009
3811556757346,2.094771822,1,0.24061726684570311,1.7286135986328124,-11.184513055419922,-0.8702290076335878,0.6259541984732825,-1.3282442748091603
3811566757867,2.104772343,1,0.2166752502441406,1.7322049011230467,-11.192892761230468,-0.8778625954198473,0.5725190839694656,-1.3053435114503817
3811576758075,2.114772551,1,0.20350714111328125,1.734599102783203,-11.183315954589844,-0.9465648854961832,0.6030534351145038,-1.2900763358778626
3811586756565,2.124771041,1,0.21906945190429686,1.696291876220703,-11.256339105224608,-0.8396946564885496,0.5572519083969466,-1.3053435114503817
3811596757971,2.134772447,1,0.23343466186523437,1.7322049011230467,-11.209652172851563,-0.8396946564885496,0.6030534351145038,-1.366412213740458
3811606756721,2.144771197,1,0.2166752502441406,1.734599102783203,-11.200075366210937,-0.7862595419847328,0.5267175572519084,-1.3511450381679388
3811616757346,2.154771822,1,0.20949264526367187,1.7561469177246092,-11.188104357910156,-0.8702290076335878,0.5954198473282443,-1.3282442748091603
3811626757294,2.16477177,1,0.22026655273437498,1.7334020019531249,-11.165359442138671,-0.7862595419847328,0.5725190839694656,-1.2748091603053435
3811636757294,2.17477177,1,0.22744915771484372,1.7322049011230467,-11.19169566040039,-0.8320610687022901,0.6030534351145038,-1.3129770992366412
3811646755575,2.184770051,1,0.25258827514648435,1.7166425903320313,-11.201272467041015,-0.7709923664122137,0.5572519083969466,-1.3206106870229009
3811656757815,2.194772291,1,0.22385785522460935,1.7022773803710936,-11.17852755126953,-0.8396946564885496,0.549618320610687,-1.3282442748091603
3811666755263,2.204769739,1,0.21906945190429686,1.7202338928222656,-11.161768139648437,-0.8244274809160306,0.46564885496183206,-1.3282442748091603
3811676757815,2.214772291,1,0.20350714111328125,1.7166425903320313,-11.218031878662108,-0.8625954198473282,0.549618320610687,-1.3282442748091603
3811686757606,2.224772082,1,0.2346317626953125,1.7322049011230467,-11.190498559570312,-0.7862595419847328,0.5801526717557252,-1.2748091603053435
3811696757450,2.234771926,1,0.239420166015625,1.7501614135742187,-11.207257971191405,-0.8778625954198473,0.5648854961832062,-1.2366412213740459
3811706757398,2.244771874,1,0.239420166015625,1.753752716064453,-11.203666668701171,-0.7786259541984732,0.5114503816793893,-1.2748091603053435
3811716757763,2.254772239,1,0.22744915771484372,1.7393875061035156,-11.228805786132812,-0.8549618320610687,0.5343511450381679,-1.2748091603053435
3811726752763,2.264767239,1,0.22385785522460935,1.714248388671875,-11.196484063720703,-0.7786259541984732,0.5419847328244275,-1.3053435114503817
3811736756981,2.274771457,1,0.23223756103515625,1.7094599853515624,-11.188104357910156,-0.8244274809160306,0.5801526717557252,-1.3282442748091603
3811746757346,2.284771822,1,0.22505495605468748,1.725022296142578,-11.184513055419922,-0.8015267175572519,0.5725190839694656,-1.3358778625954197
3811756757086,2.294771562,1,0.21308394775390624,1.7238251953125,-11.23718549194336,-0.8549618320610687,0.6106870229007634,-1.297709923664122
3811766757190,2.304771666,1,0.23582886352539062,1.7274164978027342,-11.208455072021483,-0.8091603053435115,0.6106870229007634,-1.3206106870229009
3811776754586,2.314769062,1,0.22385785522460935,1.7369933044433592,-11.189301458740234,-0.8854961832061069,0.5725190839694656,-1.3206106870229009
3811786757138,2.324771614,1,0.26815058593749996,1.7238251953125,-11.183315954589844,-0.8015267175572519,0.5801526717557252,-1.297709923664122
3811796757606,2.334772082,1,0.2442085693359375,1.7262193969726563,-11.21683477783203,-0.8244274809160306,0.5725190839694656,-1.2900763358778626
3811806756721,2.344771197,1,0.23702596435546874,1.7022773803710936,-11.19887826538086,-0.8473282442748091,0.5877862595419847,-1.3358778625954197
3811816757450,2.354771926,1,0.20470424194335937,1.7489643127441405,-11.206060870361327,-0.8244274809160306,0.5419847328244275,-1.297709923664122
3811826754638,2.364769114,1,0.2501940734863281,1.7429788085937499,-11.202469567871093,-0.8473282442748091,0.5725190839694656,-1.3053435114503817
3811836756721,2.374771197,1,0.24301146850585936,1.7585411193847655,-11.189301458740234,-0.916030534351145,0.5725190839694656,-1.297709923664122
3811846757086,2.384771562,1,0.23582886352539062,1.7322049011230467,-11.166556542968749,-0.8549618320610687,0.5954198473282443,-1.3358778625954197
3811856759169,2.394773645,1,0.22385785522460935,1.7238251953125,-11.233594189453123,-0.7938931297709924,0.5419847328244275,-1.3511450381679388
3811866757867,2.404772343,1,0.239420166015625,1.7106570861816406,-11.209652172851563,-0.816793893129771,0.6183206106870229,-1.3129770992366412
3811876757658,2.414772134,1,0.21906945190429686,1.705868682861328,-11.17852755126953,-0.816793893129771,0.6030534351145038,-1.2671755725190839
3811886756148,2.424770624,1,0.23223756103515625,1.7166425903320313,-11.222820281982422,-0.8931297709923665,0.6030534351145038,-1.3511450381679388
3811896758127,2.434772603,1,0.23822306518554687,1.7465701110839842,-11.212046374511718,-0.8244274809160306,0.5419847328244275,-1.3358778625954197
3811906757450,2.444771926,1,0.23822306518554687,1.7621324218749999,-11.215637677001952,-0.8396946564885496,0.5648854961832062,-1.3511450381679388
3811916757971,2.454772447,1,0.22864625854492185,1.7322049011230467,-11.188104357910156,-0.816793893129771,0.5648854961832062,-1.3435114503816794
3811926756981,2.464771457,1,0.24660277099609373,1.7381904052734374,-11.162965240478515,-0.8778625954198473,0.5419847328244275,-1.3587786259541985
3811936757450,2.474771926,1,0.24181436767578124,1.7322049011230467,-11.180921752929686,-0.7862595419847328,0.5267175572519084,-1.3358778625954197
3811946757294,2.48477177,1,0.23343466186523437,1.7178396911621092,-11.164162341308593,-0.8931297709923665,0.5572519083969466,-1.3129770992366412
3811956757346,2.494771822,1,0.20231004028320312,1.6927005737304686,-11.194089862060546,-0.7938931297709924,0.5267175572519084,-1.3053435114503817
3811966756981,2.504771457,1,0.2346317626953125,1.7274164978027342,-11.17852755126953,-0.8015267175572519,0.5877862595419847,-1.3282442748091603
3811976756408,2.514770884,1,0.2346317626953125,1.734599102783203,-11.170147845458983,-0.7938931297709924,0.6106870229007634,-1.3282442748091603
3811986756669,2.524771145,1,0.24899697265624998,1.7214309936523438,-11.204863769531249,-0.8625954198473282,0.6717557251908397,-1.2595419847328244
3811996756721,2.534771197,1,0.24899697265624998,1.753752716064453,-11.177330450439452,-0.8320610687022901,0.5877862595419847,-1.2595419847328244
3812006756044,2.54477052,1,0.23582886352539062,1.7357962036132812,-11.220426080322264,-0.8244274809160306,0.5954198473282443,-1.297709923664122
3812016757502,2.554771978,1,0.23822306518554687,1.7310078002929687,-11.167753643798827,-0.8015267175572519,0.5725190839694656,-1.3511450381679388
3812026756929,2.564771405,1,0.27293898925781246,1.7453730102539062,-11.17254204711914,-0.8320610687022901,0.6106870229007634,-1.3435114503816794
3812036757919,2.574772395,1,0.21787235107421873,1.7118541870117185,-11.194089862060546,-0.8473282442748091,0.5954198473282443,-1.3129770992366412
3812046757710,2.584772186,1,0.25139117431640623,1.7202338928222656,-11.201272467041015,-0.8778625954198473,0.6335877862595419,-1.3358778625954197
3812056756356,2.594770832,1,0.21787235107421873,1.7322049011230467,-11.204863769531249,-0.8244274809160306,0.5419847328244275,-1.3358778625954197
3812066756929,2.604771405,1,0.20949264526367187,1.7238251953125,-11.207257971191405,-0.9007633587786259,0.5419847328244275,-1.3282442748091603
3812076757294,2.61477177,1,0.24779987182617186,1.7214309936523438,-11.19887826538086,-0.8015267175572519,0.5038167938931297,-1.3053435114503817
3812086756200,2.624770676,1,0.20709844360351562,1.7453730102539062,-11.226411584472656,-0.8320610687022901,0.5954198473282443,-1.3358778625954197
3812096762606,2.634777082,1,0.2166752502441406,1.715445489501953,-11.201272467041015,-0.8396946564885496,0.5267175572519084,-1.3129770992366412
3812106758231,2.644772707,1,0.24779987182617186,1.7322049011230467,-11.173739147949219,-0.8702290076335878,0.5954198473282443,-1.3358778625954197
3812116757658,2.654772134,1,0.2154781494140625,1.7214309936523438,-11.171344946289063,-0.7938931297709924,0.5419847328244275,-1.3435114503816794
3812126757294,2.66477177,1,0.21906945190429686,1.7334020019531249,-11.14022032470703,-0.8854961832061069,0.6106870229007634,-1.2900763358778626
3812136758387,2.674772863,1,0.23223756103515625,1.725022296142578,-11.177330450439452,-0.8473282442748091,0.5648854961832062,-1.3206106870229009
3812146757033,2.684771509,1,0.24301146850585936,1.7453730102539062,-11.204863769531249,-0.8931297709923665,0.5954198473282443,-1.366412213740458
3812156756096,2.694770572,1,0.2166752502441406,1.7214309936523438,-11.209652172851563,-0.8015267175572519,0.5877862595419847,-1.3206106870229009
3812166757867,2.704772343,1,0.22026655273437498,1.725022296142578,-11.18571015625,-0.8625954198473282,0.5572519083969466,-1.3129770992366412
3812176757867,2.714772343,1,0.22744915771484372,1.7166425903320313,-11.195286962890624,-0.816793893129771,0.6106870229007634,-1.297709923664122
3812186757919,2.724772395,1,0.201112939453125,1.7166425903320313,-11.166556542968749,-0.8625954198473282,0.6412213740458015,-1.3358778625954197
3812196757971,2.734772447,1,0.2262520568847656,1.7190367919921874,-11.195286962890624,-0.816793893129771,0.5877862595419847,-1.3282442748091603
3812206756981,2.744771457,1,0.19991583862304688,1.7298106994628906,-11.182118853759764,-0.8931297709923665,0.6335877862595419,-1.3053435114503817
3812216758387,2.754772863,1,0.22505495605468748,1.7501614135742187,-11.206060870361327,-0.8396946564885496,0.6030534351145038,-1.282442748091603
3812226757137,2.764771613,1,0.229843359375,1.7501614135742187,-11.161768139648437,-0.8549618320610687,0.6030534351145038,-1.3206106870229009
3812236756981,2.774771457,1,0.22864625854492185,1.7286135986328124,-11.166556542968749,-0.8091603053435115,0.5801526717557252,-1.3282442748091603
3812246756721,2.784771197,1,0.23822306518554687,1.7369933044433592,-11.161768139648437,-0.816793893129771,0.5648854961832062,-1.3129770992366412
3812256757658,2.794772134,1,0.2154781494140625,1.7118541870117185,-11.18571015625,-0.7938931297709924,0.5725190839694656,-1.3129770992366412
3812266756200,2.804770676,1,0.22864625854492185,1.7262193969726563,-11.189301458740234,-0.8320610687022901,0.5648854961832062,-1.3129770992366412
3812276757815,2.814772291,1,0.2154781494140625,1.705868682861328,-11.201272467041015,-0.8473282442748091,0.5725190839694656,-1.3511450381679388
3812286757137,2.824771613,1,0.20231004028320312,1.7202338928222656,-11.202469567871093,-0.9236641221374046,0.5801526717557252,-1.282442748091603
3812296757294,2.83477177,1,0.2561795776367187,1.7262193969726563,-11.2240173828125,-0.8702290076335878,0.5801526717557252,-1.3206106870229009
3812306756981,2.844771457,1,0.23343466186523437,1.715445489501953,-11.17254204711914,-0.8549618320610687,0.5725190839694656,-1.3435114503816794
3812316757658,2.854772134,1,0.2346317626953125,1.7178396911621092,-11.207257971191405,-0.8244274809160306,0.5877862595419847,-1.3053435114503817
3812326757137,2.864771613,1,0.24061726684570311,1.7238251953125,-11.179724652099608,-0.8625954198473282,0.5419847328244275,-1.3206106870229009
3812336757814,2.87477229,1,0.24181436767578124,1.7429788085937499,-11.2240173828125,-0.8549618320610687,0.5419847328244275,-1.2748091603053435
3812346757189,2.884771665,1,0.181959326171875,1.7118541870117185,-11.190498559570312,-0.8854961832061069,0.5954198473282443,-1.282442748091603
3812356757398,2.894771874,1,0.229843359375,1.7453730102539062,-11.203666668701171,-0.8625954198473282,0.6412213740458015,-1.3282442748091603
3812366756773,2.904771249,1,0.21787235107421873,1.7238251953125,-11.182118853759764,-0.816793893129771,0.549618320610687,-1.3358778625954197
3812376757606,2.914772082,1,0.23104046020507812,1.714248388671875,-11.152191333007812,-0.9236641221374046,0.6106870229007634,-1.3358778625954197
3812386757502,2.924771978,1,0.25258827514648435,1.714248388671875,-11.196484063720703,-0.8244274809160306,0.6106870229007634,-1.3129770992366412
3812396756460,2.934770936,1,0.229843359375,1.7453730102539062,-11.2240173828125,-0.8244274809160306,0.6412213740458015,-1.3129770992366412
3812406756721,2.944771197,1,0.21787235107421873,1.7262193969726563,-11.2240173828125,-0.8549618320610687,0.5954198473282443,-1.297709923664122
3812416757137,2.954771613,1,0.19871873779296872,1.753752716064453,-11.202469567871093,-0.8931297709923665,0.5648854961832062,-1.3129770992366412
3812426757554,2.96477203,1,0.20949264526367187,1.7322049011230467,-11.235988391113281,-0.8625954198473282,0.5190839694656488,-1.3358778625954197
3812436758648,2.974773124,1,0.23104046020507812,1.7405846069335937,-11.207257971191405,-0.8854961832061069,0.6183206106870229,-1.3206106870229009
3812446757971,2.984772447,1,0.239420166015625,1.6986860778808592,-11.21084927368164,-0.7938931297709924,0.5954198473282443,-1.3282442748091603
3812456758492,2.994772968,1,0.20949264526367187,1.714248388671875,-11.21084927368164,-0.8778625954198473,0.6106870229007634,-1.3587786259541985
3812466756825,3.004771301,1,0.2214636535644531,1.6998831787109374,-11.184513055419922,-0.7938931297709924,0.5419847328244275,-1.3206106870229009
3812476756044,3.01477052,1,0.23223756103515625,1.7166425903320313,-11.177330450439452,-0.816793893129771,0.6106870229007634,-1.3206106870229009
3812486756252,3.024770728,1,0.239420166015625,1.7453730102539062,-11.158176837158203,-0.7557251908396947,0.5343511450381679,-1.3282442748091603
3812496757137,3.034771613,1,0.2154781494140625,1.7417817077636717,-11.192892761230468,-0.8549618320610687,0.5954198473282443,-1.3129770992366412
3812506757189,3.044771665,1,0.2262520568847656,1.7298106994628906,-11.200075366210937,-0.8244274809160306,0.5725190839694656,-1.3053435114503817
3812516757762,3.054772238,1,0.2262520568847656,1.7405846069335937,-11.238382592773437,-0.8473282442748091,0.6259541984732825,-1.3129770992366412
3812526756825,3.064771301,1,0.22505495605468748,1.7274164978027342,-11.238382592773437,-0.8396946564885496,0.5801526717557252,-1.2900763358778626
3812536757502,3.074771978,1,0.21068974609375,1.7238251953125,-11.227608685302734,-0.8625954198473282,0.6106870229007634,-1.3129770992366412
3812546757241,3.084771717,1,0.22864625854492185,1.7417817077636717,-11.189301458740234,-0.7786259541984732,0.5801526717557252,-1.282442748091603
3812556757085,3.094771561,1,0.2454056701660156,1.7513585144042967,-11.196484063720703,-0.8320610687022901,0.5877862595419847,-1.3358778625954197
3812566757346,3.104771822,1,0.22266075439453123,1.7561469177246092,-11.219228979492186,-0.8015267175572519,0.5419847328244275,-1.3206106870229009
3812576756929,3.114771405,1,0.21188684692382811,1.725022296142578,-11.197681164550781,-0.8778625954198473,0.5343511450381679,-1.3129770992366412
3812586756356,3.124770832,1,0.2501940734863281,1.7094599853515624,-11.158176837158203,-0.7938931297709924,0.549618320610687,-1.3358778625954197
3812596756408,3.134770884,1,0.24061726684570311,1.7202338928222656,-11.173739147949219,-0.8702290076335878,0.5954198473282443,-1.3129770992366412
3812606755939,3.144770415,1,0.2346317626953125,1.7238251953125,-11.190498559570312,-0.7709923664122137,0.5572519083969466,-1.3358778625954197
3812616757606,3.154772082,1,0.23702596435546874,1.705868682861328,-11.16057103881836,-0.8396946564885496,0.549618320610687,-1.3358778625954197
3812626756929,3.164771405,1,0.2609679809570312,1.7334020019531249,-11.201272467041015,-0.8244274809160306,0.5648854961832062,-1.3282442748091603
3812636757346,3.174771822,1,0.24061726684570311,1.7310078002929687,-11.17852755126953,-0.8473282442748091,0.6564885496183206,-1.3358778625954197
3812646757085,3.184771561,1,0.23104046020507812,1.7274164978027342,-11.148600030517578,-0.8091603053435115,0.6030534351145038,-1.282442748091603
3812656760262,3.194774738,1,0.23822306518554687,1.7334020019531249,-11.177330450439452,-0.8625954198473282,0.5801526717557252,-1.251908396946565
3812666760158,3.204774634,1,0.21787235107421873,1.7202338928222656,-11.180921752929686,-0.7709923664122137,0.549618320610687,-1.3129770992366412
3812676758075,3.214772551,1,0.22864625854492185,1.7357962036132812,-11.220426080322264,-0.8931297709923665,0.5648854961832062,-1.282442748091603
3812686757085,3.224771561,1,0.21787235107421873,1.734599102783203,-11.179724652099608,-0.7862595419847328,0.5801526717557252,-1.282442748091603
3812696757398,3.234771874,1,0.21308394775390624,1.734599102783203,-11.220426080322264,-0.8320610687022901,0.6030534351145038,-1.3053435114503817
3812706756616,3.244771092,1,0.23343466186523437,1.734599102783203,-11.215637677001952,-0.7862595419847328,0.6030534351145038,-1.3129770992366412
3812716756825,3.254771301,1,0.229843359375,1.753752716064453,-11.207257971191405,-0.8625954198473282,0.5877862595419847,-1.3358778625954197
3812726757398,3.264771874,1,0.20949264526367187,1.7465701110839842,-11.165359442138671,-0.7862595419847328,0.5419847328244275,-1.3358778625954197
3812736758231,3.274772707,1,0.24061726684570311,1.7393875061035156,-11.234791290283203,-0.8320610687022901,0.5725190839694656,-1.3358778625954197
3812746756929,3.284771405,1,0.2346317626953125,1.7274164978027342,-11.192892761230468,-0.8244274809160306,0.5725190839694656,-1.3282442748091603
3812756756825,3.294771301,1,0.23104046020507812,1.7238251953125,-11.200075366210937,-0.8625954198473282,0.6412213740458015,-1.3129770992366412
3812766756408,3.304770884,1,0.2442085693359375,1.7310078002929687,-11.183315954589844,-0.8015267175572519,0.5954198473282443,-1.366412213740458
3812776757606,3.314772082,1,0.24779987182617186,1.734599102783203,-11.167753643798827,-0.8702290076335878,0.6106870229007634,-1.3129770992366412
3812786756408,3.324770884,1,0.24181436767578124,1.7417817077636717,-11.186907257080078,-0.8244274809160306,0.6259541984732825,-1.381679389312977
3812796757866,3.334772342,1,0.20829554443359374,1.7405846069335937,-11.196484063720703,-0.8778625954198473,0.6030534351145038,-1.3206106870229009
3812806757606,3.344772082,1,0.21906945190429686,1.7106570861816406,-11.165359442138671,-0.8244274809160306,0.5648854961832062,-1.282442748091603
3812816757293,3.354771769,1,0.21188684692382811,1.697488977050781,-11.204863769531249,-0.8473282442748091,0.6030534351145038,-1.3129770992366412
3812826756408,3.364770884,1,0.21787235107421873,1.7405846069335937,-11.184513055419922,-0.816793893129771,0.5877862595419847,-1.3282442748091603
3812836759377,3.374773853,1,0.25258827514648435,1.7465701110839842,-11.206060870361327,-0.7709923664122137,0.5419847328244275,-1.2748091603053435
3812846757346,3.384771822,1,0.21188684692382811,1.7322049011230467,-11.192892761230468,-0.8320610687022901,0.6030534351145038,-1.3206106870229009
3812856757502,3.394771978,1,0.22864625854492185,1.7298106994628906,-11.204863769531249,-0.7938931297709924,0.5648854961832062,-1.3435114503816794
3812866757450,3.404771926,1,0.23343466186523437,1.714248388671875,-11.190498559570312,-0.8015267175572519,0.5877862595419847,-1.3206106870229009
3812876757241,3.414771717,1,0.21906945190429686,1.7477672119140624,-11.204863769531249,-0.8702290076335878,0.5801526717557252,-1.3053435114503817
3812886756773,3.424771249,1,0.24061726684570311,1.744175909423828,-11.166556542968749,-0.816793893129771,0.5801526717557252,-1.282442748091603
3812896758387,3.434772863,1,0.23104046020507812,1.7525556152343749,-11.209652172851563,-0.7862595419847328,0.5267175572519084,-1.3129770992366412
3812906755471,3.444769947,1,0.1975216369628906,1.7405846069335937,-11.215637677001952,-0.8320610687022901,0.6030534351145038,-1.3511450381679388
3812916758335,3.454772811,1,0.21428104858398436,1.7465701110839842,-11.201272467041015,-0.8549618320610687,0.5877862595419847,-1.3511450381679388
3812926755054,3.46476953,1,0.2346317626953125,1.7286135986328124,-11.173739147949219,-0.8702290076335878,0.5877862595419847,-1.3740458015267176
3812936757658,3.474772134,1,0.21188684692382811,1.7262193969726563,-11.146205828857422,-0.8702290076335878,0.5725190839694656,-1.3587786259541985
3812946756721,3.484771197,1,0.21068974609375,1.7453730102539062,-11.17254204711914,-0.8473282442748091,0.5648854961832062,-1.3282442748091603
3812956757398,3.494771874,1,0.23223756103515625,1.725022296142578,-11.149797131347656,-0.7633587786259542,0.5419847328244275,-1.3587786259541985
3812966756252,3.504770728,1,0.2262520568847656,1.7262193969726563,-11.213243475341796,-0.8320610687022901,0.5801526717557252,-1.3053435114503817
3812976829689,3.514844165,1,0.23822306518554687,1.7118541870117185,-11.209652172851563,-0.7557251908396947,0.5877862595419847,-1.297709923664122
3812986775627,3.524790103,1,0.24899697265624998,1.705868682861328,-11.189301458740234,-0.816793893129771,0.5877862595419847,-1.3129770992366412
3812996771043,3.534785519,1,0.24061726684570311,1.7238251953125,-11.220426080322264,-0.8091603053435115,0.6030534351145038,-1.3282442748091603
3813006770158,3.544784634,1,0.229843359375,1.725022296142578,-11.197681164550781,-0.8702290076335878,0.5877862595419847,-1.3053435114503817
3813016771095,3.554785571,1,0.23343466186523437,1.7286135986328124,-11.192892761230468,-0.7557251908396947,0.5190839694656488,-1.3053435114503817
3813026771304,3.56478578,1,0.21787235107421873,1.7298106994628906,-11.213243475341796,-0.8549618320610687,0.6030534351145038,-1.297709923664122
3813036770991,3.574785467,1,0.21787235107421873,1.7334020019531249,-11.200075366210937,-0.8320610687022901,0.5343511450381679,-1.3435114503816794
3813046771148,3.584785624,1,0.2442085693359375,1.7238251953125,-11.208455072021483,-0.8244274809160306,0.6259541984732825,-1.3740458015267176
3813056770731,3.594785207,1,0.23223756103515625,1.7286135986328124,-11.139023223876952,-0.7862595419847328,0.5343511450381679,-1.3206106870229009
3813066770418,3.604784894,1,0.22385785522460935,1.7274164978027342,-11.21683477783203,-0.8549618320610687,0.549618320610687,-1.3053435114503817
3813076841043,3.614855519,1,0.21787235107421873,1.7681179260253905,-11.221623181152344,-0.8091603053435115,0.549618320610687,-1.3129770992366412
3813086781148,3.624795624,1,0.19991583862304688,1.7238251953125,-11.19169566040039,-0.8320610687022901,0.5648854961832062,-1.3511450381679388
3813096782241,3.634796717,1,0.2442085693359375,1.7118541870117185,-11.19169566040039,-0.7862595419847328,0.5648854961832062,-1.3129770992366412
3813106777866,3.644792342,1,0.23702596435546874,1.7465701110839842,-11.156979736328124,-0.8244274809160306,0.5954198473282443,-1.3358778625954197
3813116777502,3.654791978,1,0.20350714111328125,1.7226280944824217,-11.16057103881836,-0.816793893129771,0.5877862595419847,-1.3511450381679388
3813126776408,3.664790884,1,0.19871873779296872,1.734599102783203,-11.208455072021483,-0.8396946564885496,0.6183206106870229,-1.2900763358778626
3813136778491,3.674792967,1,0.19632453613281248,1.753752716064453,-11.19169566040039,-0.8320610687022901,0.5954198473282443,-1.3129770992366412
3813146778595,3.684793071,1,0.23702596435546874,1.7645266235351562,-11.202469567871093,-0.816793893129771,0.5725190839694656,-1.3511450381679388
3813156779741,3.694794217,1,0.22744915771484372,1.7178396911621092,-11.219228979492186,-0.8320610687022901,0.549618320610687,-1.3053435114503817
3813166778960,3.704793436,1,0.20231004028320312,1.7501614135742187,-11.204863769531249,-0.8091603053435115,0.5648854961832062,-1.3206106870229009
3813176865731,3.714880207,1,0.22505495605468748,1.7322049011230467,-11.161768139648437,-0.8091603053435115,0.6030534351145038,-1.3206106870229009
3813186772658,3.724787134,1,0.20829554443359374,1.7405846069335937,-11.177330450439452,-0.8931297709923665,0.5877862595419847,-1.3435114503816794
3813196772554,3.73478703,1,0.21188684692382811,1.7286135986328124,-11.188104357910156,-0.8396946564885496,0.5725190839694656,-1.3282442748091603
3813206772033,3.744786509,1,0.2214636535644531,1.7393875061035156,-11.19169566040039,-0.8396946564885496,0.5954198473282443,-1.2671755725190839
3813216777918,3.754792394,1,0.22505495605468748,1.7262193969726563,-11.189301458740234,-0.8473282442748091,0.6030534351145038,-1.3206106870229009
3813226772814,3.76478729,1,0.23223756103515625,1.725022296142578,-11.18571015625,-0.8091603053435115,0.5877862595419847,-1.3206106870229009
3813236771200,3.774785676,1,0.19512743530273435,1.753752716064453,-11.207257971191405,-0.8015267175572519,0.6335877862595419,-1.3282442748091603
3813246771512,3.784785988,1,0.19632453613281248,1.714248388671875,-11.184513055419922,-0.8931297709923665,0.5877862595419847,-1.3129770992366412
3813256771825,3.794786301,1,0.22864625854492185,1.714248388671875,-11.197681164550781,-0.8396946564885496,0.5343511450381679,-1.3358778625954197
3813266770418,3.804784894,1,0.23582886352539062,1.7429788085937499,-11.19887826538086,-0.8778625954198473,0.6564885496183206,-1.3129770992366412
3813276772293,3.814786769,1,0.2262520568847656,1.7274164978027342,-11.206060870361327,-0.8320610687022901,0.5877862595419847,-1.282442748091603
3813286782345,3.824796821,1,0.22385785522460935,1.7322049011230467,-11.184513055419922,-0.8320610687022901,0.48854961832061067,-1.3129770992366412
3813296778908,3.834793384,1,0.22266075439453123,1.7286135986328124,-11.182118853759764,-0.8473282442748091,0.549618320610687,-1.3511450381679388
3813306777710,3.844792186,1,0.21906945190429686,1.7262193969726563,-11.177330450439452,-0.7633587786259542,0.6106870229007634,-1.3358778625954197
3813316779012,3.854793488,1,0.22864625854492185,1.7334020019531249,-11.219228979492186,-0.7862595419847328,0.5877862595419847,-1.3358778625954197
3813326778647,3.864793123,1,0.21787235107421873,1.7381904052734374,-11.186907257080078,-0.8091603053435115,0.6030534351145038,-1.297709923664122
3813336778335,3.874792811,1,0.19033903198242186,1.734599102783203,-11.192892761230468,-0.7633587786259542,0.5648854961832062,-1.3053435114503817
3813346778491,3.884792967,1,0.23343466186523437,1.7166425903320313,-11.21084927368164,-0.8854961832061069,0.5267175572519084,-1.3282442748091603
3813356778647,3.894793123,1,0.2346317626953125,1.725022296142578,-11.213243475341796,-0.8854961832061069,0.5801526717557252,-1.3358778625954197
3813366777293,3.904791769,1,0.24061726684570311,1.7106570861816406,-11.190498559570312,-0.8244274809160306,0.5648854961832062,-1.3206106870229009
3813376778856,3.914793332,1,0.23582886352539062,1.7082628845214842,-11.21683477783203,-0.8702290076335878,0.549618320610687,-1.3435114503816794
3813386772814,3.92478729,1,0.20949264526367187,1.7357962036132812,-11.206060870361327,-0.8320610687022901,0.549618320610687,-1.3435114503816794
3813396772449,3.934786925,1,0.23822306518554687,1.7190367919921874,-11.180921752929686,-0.8549618320610687,0.5648854961832062,-1.297709923664122
3813406772033,3.944786509,1,0.25139117431640623,1.715445489501953,-11.192892761230468,-0.816793893129771,0.5648854961832062,-1.3358778625954197
3813416771147,3.954785623,1,0.2454056701660156,1.744175909423828,-11.219228979492186,-0.8320610687022901,0.5725190839694656,-1.297709923664122
3813426770731,3.964785207,1,0.20709844360351562,1.7202338928222656,-11.188104357910156,-0.8320610687022901,0.5114503816793893,-1.282442748091603
3813436767189,3.974781665,1,0.229843359375,1.7190367919921874,-11.197681164550781,-0.8320610687022901,0.6259541984732825,-1.3129770992366412
3813446772606,3.984787082,1,0.20231004028320312,1.7286135986328124,-11.190498559570312,-0.8091603053435115,0.5801526717557252,-1.297709923664122
3813456771147,3.994785623,1,0.201112939453125,1.7310078002929687,-11.176133349609374,-0.8091603053435115,0.5648854961832062,-1.3511450381679388
3813466771460,4.004785936,1,0.2262520568847656,1.744175909423828,-11.179724652099608,-0.8015267175572519,0.5877862595419847,-1.297709923664122
3813476770835,4.014785311,1,0.20829554443359374,1.7190367919921874,-11.17852755126953,-0.8244274809160306,0.5954198473282443,-1.282442748091603
3813486778595,4.024793071,1,0.2442085693359375,1.7357962036132812,-11.171344946289063,-0.8549618320610687,0.5267175572519084,-1.2900763358778626
3813496778908,4.034793384,1,0.24301146850585936,1.7621324218749999,-11.184513055419922,-0.8549618320610687,0.5801526717557252,-1.2900763358778626
3813506779689,4.044794165,1,0.22744915771484372,1.734599102783203,-11.177330450439452,-0.7862595419847328,0.5114503816793893,-1.3511450381679388
3813516778804,4.05479328,1,0.201112939453125,1.7381904052734374,-11.17254204711914,-0.8625954198473282,0.6106870229007634,-1.2748091603053435
3813526782085,4.064796561,1,0.2154781494140625,1.7381904052734374,-11.127052215576171,-0.7709923664122137,0.6183206106870229,-1.297709923664122
3813536783022,4.074797498,1,0.23223756103515625,1.7310078002929687,-11.228805786132812,-0.8320610687022901,0.5954198473282443,-1.3053435114503817
3813546779012,4.084793488,1,0.2214636535644531,1.7381904052734374,-11.183315954589844,-0.8625954198473282,0.5343511450381679,-1.3206106870229009
3813556777449,4.094791925,1,0.2166752502441406,1.7298106994628906,-11.215637677001952,-0.816793893129771,0.549618320610687,-1.3129770992366412
3813566778335,4.104792811,1,0.23582886352539062,1.7118541870117185,-11.189301458740234,-0.7938931297709924,0.549618320610687,-1.3282442748091603
3813576778804,4.11479328,1,0.21787235107421873,1.7322049011230467,-11.180921752929686,-0.8549618320610687,0.5572519083969466,-1.3282442748091603
3813586773960,4.124788436,1,0.258573779296875,1.7429788085937499,-11.220426080322264,-0.7404580152671756,0.5572519083969466,-1.3435114503816794
3813596772137,4.134786613,1,0.2561795776367187,1.715445489501953,-11.18571015625,-0.8473282442748091,0.5954198473282443,-1.3358778625954197
3813606771199,4.144785675,1,0.24301146850585936,1.7166425903320313,-11.21683477783203,-0.8015267175572519,0.5954198473282443,-1.2748091603053435
3813616771460,4.154785936,1,0.2442085693359375,1.7334020019531249,-11.15338843383789,-0.8091603053435115,0.5419847328244275,-1.3435114503816794
3813626770679,4.164785155,1,0.23582886352539062,1.707065783691406,-11.166556542968749,-0.8320610687022901,0.6106870229007634,-1.297709923664122
3813636770731,4.174785207,1,0.239420166015625,1.7489643127441405,-11.201272467041015,-0.8244274809160306,0.6030534351145038,-1.3129770992366412
3813646769845,4.184784321,1,0.2166752502441406,1.7369933044433592,-11.19169566040039,-0.8702290076335878,0.5877862595419847,-1.3053435114503817
3813656772397,4.194786873,1,0.201112939453125,1.7286135986328124,-11.197681164550781,-0.8473282442748091,0.6183206106870229,-1.297709923664122
3813666769481,4.204783957,1,0.21188684692382811,1.7417817077636717,-11.184513055419922,-0.8244274809160306,0.48091603053435117,-1.2900763358778626
3813676771304,4.21478578,1,0.25139117431640623,1.7381904052734374,-11.194089862060546,-0.8854961832061069,0.5648854961832062,-1.3282442748091603
3813686841564,4.22485604,1,0.2442085693359375,1.7525556152343749,-11.188104357910156,-0.8396946564885496,0.5343511450381679,-1.297709923664122
3813696780679,4.234795155,1,0.25258827514648435,1.7357962036132812,-11.214440576171874,-0.7786259541984732,0.5114503816793893,-1.3206106870229009
3813706779741,4.244794217,1,0.22385785522460935,1.7513585144042967,-11.218031878662108,-0.7862595419847328,0.5343511450381679,-1.3053435114503817
3813716778751,4.254793227,1,0.19991583862304688,1.7381904052734374,-11.179724652099608,-0.9007633587786259,0.5801526717557252,-1.3358778625954197
3813726778022,4.264792498,1,0.2166752502441406,1.7286135986328124,-11.173739147949219,-0.8091603053435115,0.5954198473282443,-1.3282442748091603
3813736781251,4.274795727,1,0.24061726684570311,1.725022296142578,-11.158176837158203,-0.816793893129771,0.5725190839694656,-1.3511450381679388
3813746778126,4.284792602,1,0.2059013427734375,1.715445489501953,-11.196484063720703,-0.7938931297709924,0.5725190839694656,-1.3129770992366412
3813756779845,4.294794321,1,0.21428104858398436,1.7118541870117185,-11.18571015625,-0.8320610687022901,0.5801526717557252,-1.3358778625954197
3813766779845,4.304794321,1,0.23582886352539062,1.7322049011230467,-11.196484063720703,-0.8320610687022901,0.5343511450381679,-1.381679389312977
3813776779064,4.31479354,1,0.2262520568847656,1.7453730102539062,-11.17852755126953,-0.8320610687022901,0.5877862595419847,-1.3893129770992367
3813786861720,4.324876196,1,0.23223756103515625,1.7178396911621092,-11.19169566040039,-0.7938931297709924,0.5801526717557252,-1.3587786259541985
3813796773595,4.334788071,1,0.25737667846679685,1.7322049011230467,-11.186907257080078,-0.8396946564885496,0.5801526717557252,-1.3206106870229009
3813806770418,4.344784894,1,0.21308394775390624,1.7274164978027342,-11.179724652099608,-0.816793893129771,0.5419847328244275,-1.3511450381679388
3813816771824,4.3547863,1,0.2262520568847656,1.714248388671875,-11.188104357910156,-0.7938931297709924,0.6106870229007634,-1.3511450381679388
3813826770731,4.364785207,1,0.23223756103515625,1.7417817077636717,-11.188104357910156,-0.7938931297709924,0.5725190839694656,-1.366412213740458
3813836770574,4.37478505,1,0.21428104858398436,1.7226280944824217,-11.197681164550781,-0.816793893129771,0.5801526717557252,-1.297709923664122
3813846770262,4.384784738,1,0.2059013427734375,1.7094599853515624,-11.218031878662108,-0.8473282442748091,0.5419847328244275,-1.3206106870229009
3813856772658,4.394787134,1,0.19393033447265623,1.7381904052734374,-11.204863769531249,-0.8244274809160306,0.5801526717557252,-1.3282442748091603
3813866771408,4.404785884,1,0.22744915771484372,1.7453730102539062,-11.203666668701171,-0.8473282442748091,0.549618320610687,-1.3740458015267176
3813876770991,4.414785467,1,0.24181436767578124,1.7417817077636717,-11.19169566040039,-0.8015267175572519,0.5725190839694656,-1.3206106870229009
3813886770574,4.42478505,1,0.23702596435546874,1.7525556152343749,-11.196484063720703,-0.8015267175572519,0.6030534351145038,-1.297709923664122
3813896779220,4.434793696,1,0.22026655273437498,1.7274164978027342,-11.213243475341796,-0.8396946564885496,0.6106870229007634,-1.3206106870229009
3813906778960,4.444793436,1,0.2262520568847656,1.6986860778808592,-11.173739147949219,-0.8015267175572519,0.5114503816793893,-1.3587786259541985
3813916776981,4.454791457,1,0.2166752502441406,1.7214309936523438,-11.179724652099608,-0.8091603053435115,0.5190839694656488,-1.3129770992366412
3813926779168,4.464793644,1,0.23223756103515625,1.7190367919921874,-11.177330450439452,-0.7862595419847328,0.5877862595419847,-1.2671755725190839
3813936779897,4.474794373,1,0.20470424194335937,1.7286135986328124,-11.167753643798827,-0.8473282442748091,0.549618320610687,-1.3206106870229009
3813946778699,4.484793175,1,0.1975216369628906,1.7477672119140624,-11.208455072021483,-0.8625954198473282,0.5572519083969466,-1.366412213740458
3813956783595,4.494798071,1,0.21068974609375,1.7226280944824217,-11.182118853759764,-0.8091603053435115,0.5801526717557252,-1.3129770992366412
3813966779064,4.50479354,1,0.24301146850585936,1.715445489501953,-11.19169566040039,-0.8015267175572519,0.6183206106870229,-1.2671755725190839
3813976780210,4.514794686,1,0.22385785522460935,1.7274164978027342,-11.16057103881836,-0.9007633587786259,0.5801526717557252,-1.2900763358778626
3813986778439,4.524792915,1,0.21188684692382811,1.715445489501953,-11.208455072021483,-0.816793893129771,0.549618320610687,-1.3206106870229009
3813996774428,4.534788904,1,0.22266075439453123,1.725022296142578,-11.192892761230468,-0.816793893129771,0.6106870229007634,-1.3511450381679388
3814006784428,4.544798904,1,0.21906945190429686,1.7118541870117185,-11.197681164550781,-0.8244274809160306,0.5725190839694656,-1.3053435114503817
3814016804376,4.554818852,1,0.21906945190429686,1.7262193969726563,-11.197681164550781,-0.8549618320610687,0.6030534351145038,-1.3740458015267176
3814026777085,4.564791561,1,0.24181436767578124,1.7226280944824217,-11.170147845458983,-0.8473282442748091,0.6030534351145038,-1.2748091603053435
3814036775106,4.574789582,1,0.22026655273437498,1.7393875061035156,-11.158176837158203,-0.9083969465648855,0.5419847328244275,-1.3435114503816794
3814046770939,4.584785415,1,0.22744915771484372,1.7453730102539062,-11.17254204711914,-0.9312977099236641,0.5267175572519084,-1.3129770992366412
3814056769480,4.594783956,1,0.20829554443359374,1.7429788085937499,-11.150994232177734,-0.8396946564885496,0.5725190839694656,-1.3206106870229009
3814066770314,4.60478479,1,0.22505495605468748,1.7369933044433592,-11.184513055419922,-0.8244274809160306,0.5419847328244275,-1.3129770992366412
3814076770991,4.614785467,1,0.2214636535644531,1.7573440185546874,-11.186907257080078,-0.8702290076335878,0.6030534351145038,-1.3129770992366412
3814086770522,4.624784998,1,0.2154781494140625,1.715445489501953,-11.21084927368164,-0.9465648854961832,0.5801526717557252,-1.3053435114503817
3814096778074,4.63479255,1,0.2262520568847656,1.7549498168945312,-11.2240173828125,-0.8396946564885496,0.5419847328244275,-1.3435114503816794
3814106773751,4.644788227,1,0.23582886352539062,1.7322049011230467,-11.17254204711914,-0.8625954198473282,0.5725190839694656,-1.297709923664122
3814116770678,4.654785154,1,0.22026655273437498,1.7226280944824217,-11.21683477783203,-0.8396946564885496,0.6106870229007634,-1.282442748091603
3814126769845,4.664784321,1,0.22266075439453123,1.7393875061035156,-11.2240173828125,-0.816793893129771,0.5954198473282443,-1.3282442748091603
3814136771876,4.674786352,1,0.23343466186523437,1.7178396911621092,-11.156979736328124,-0.7862595419847328,0.6717557251908397,-1.3358778625954197
3814146769064,4.68478354,1,0.22744915771484372,1.7238251953125,-11.184513055419922,-0.8320610687022901,0.6030534351145038,-1.297709923664122
3814156771408,4.694785884,1,0.21428104858398436,1.7310078002929687,-11.194089862060546,-0.8625954198473282,0.5725190839694656,-1.3740458015267176
3814166770158,4.704784634,1,0.23343466186523437,1.7214309936523438,-11.195286962890624,-0.8702290076335878,0.48854961832061067,-1.3893129770992367
3814176771355,4.714785831,1,0.20231004028320312,1.715445489501953,-11.196484063720703,-0.8015267175572519,0.5419847328244275,-1.3358778625954197
3814186770574,4.72478505,1,0.2262520568847656,1.7082628845214842,-11.19169566040039,-0.8854961832061069,0.5801526717557252,-1.3129770992366412
3814196781043,4.734795519,1,0.20709844360351562,1.7621324218749999,-11.183315954589844,-0.8320610687022901,0.6106870229007634,-1.297709923664122
3814206777397,4.744791873,1,0.21428104858398436,1.7310078002929687,-11.189301458740234,-0.7938931297709924,0.5648854961832062,-1.282442748091603
3814216780366,4.754794842,1,0.23104046020507812,1.696291876220703,-11.19169566040039,-0.8549618320610687,0.5954198473282443,-1.3053435114503817
3814226777501,4.764791977,1,0.2454056701660156,1.7369933044433592,-11.188104357910156,-0.916030534351145,0.5877862595419847,-1.3129770992366412
3814236775887,4.774790363,1,0.22266075439453123,1.7405846069335937,-11.154585534667968,-0.8625954198473282,0.6030534351145038,-1.3129770992366412
3814246778595,4.784793071,1,0.21188684692382811,1.7609353210449217,-11.203666668701171,-0.8015267175572519,0.5114503816793893,-1.2900763358778626
3814256777866,4.794792342,1,0.18914193115234373,1.7262193969726563,-11.158176837158203,-0.8473282442748091,0.5954198473282443,-1.3511450381679388
3814266778960,4.804793436,1,0.2154781494140625,1.7334020019531249,-11.170147845458983,-0.7480916030534351,0.5801526717557252,-1.282442748091603
3814276778335,4.814792811,1,0.19512743530273435,1.7453730102539062,-11.2240173828125,-0.8396946564885496,0.6412213740458015,-1.3435114503816794
3814286779637,4.824794113,1,0.22026655273437498,1.715445489501953,-11.180921752929686,-0.8549618320610687,0.5877862595419847,-1.3282442748091603
3814296775418,4.834789894,1,0.2454056701660156,1.7274164978027342,-11.192892761230468,-0.8778625954198473,0.5343511450381679,-1.2595419847328244
3814306772293,4.844786769,1,0.24899697265624998,1.7513585144042967,-11.203666668701171,-0.8244274809160306,0.5572519083969466,-1.2900763358778626
3814316770835,4.854785311,1,0.2442085693359375,1.7322049011230467,-11.201272467041015,-0.8854961832061069,0.5877862595419847,-1.3282442748091603
3814326769845,4.864784321,1,0.25139117431640623,1.734599102783203,-11.180921752929686,-0.816793893129771,0.5725190839694656,-1.3282442748091603
3814336770574,4.87478505,1,0.22385785522460935,1.7310078002929687,-11.184513055419922,-0.8625954198473282,0.5572519083969466,-1.3206106870229009
3814346770210,4.884784686,1,0.2549824768066406,1.7381904052734374,-11.218031878662108,-0.8091603053435115,0.5648854961832062,-1.3587786259541985
3814356770522,4.894784998,1,0.22505495605468748,1.7214309936523438,-11.196484063720703,-0.816793893129771,0.5801526717557252,-1.3587786259541985
3814366769637,4.904784113,1,0.24181436767578124,1.7334020019531249,-11.183315954589844,-0.7938931297709924,0.6335877862595419,-1.3053435114503817
3814376771668,4.914786144,1,0.23223756103515625,1.7417817077636717,-11.227608685302734,-0.7786259541984732,0.6335877862595419,-1.3129770992366412
3814386770157,4.924784633,1,0.22505495605468748,1.7429788085937499,-11.213243475341796,-0.8396946564885496,0.5954198473282443,-1.3206106870229009
3814396782866,4.934797342,1,0.22385785522460935,1.715445489501953,-11.19169566040039,-0.8625954198473282,0.5801526717557252,-1.3129770992366412
3814406781199,4.944795675,1,0.22744915771484372,1.7118541870117185,-11.18571015625,-0.7938931297709924,0.5725190839694656,-1.3587786259541985
3814416781512,4.954795988,1,0.2262520568847656,1.7202338928222656,-11.194089862060546,-0.7938931297709924,0.5725190839694656,-1.3358778625954197
3814426781564,4.96479604,1,0.201112939453125,1.7190367919921874,-11.332953558349608,-0.7938931297709924,0.5725190839694656,-1.366412213740458
3814436782710,4.974797186,1,0.23223756103515625,1.7166425903320313,-11.051634863281249,-0.8473282442748091,0.5877862595419847,-1.2671755725190839
3814446795366,4.984809842,1,0.22505495605468748,1.7381904052734374,-11.201272467041015,-0.8320610687022901,0.6106870229007634,-1.3129770992366412
3814456781616,4.994796092,1,0.23822306518554687,1.7286135986328124,-11.313799945068359,-0.816793893129771,0.6030534351145038,-1.2900763358778626
3814466781928,5.004796404,1,0.24301146850585936,1.7286135986328124,-11.180921752929686,-0.8473282442748091,0.6183206106870229,-1.3435114503816794
3814476779845,5.014794321,1,0.24301146850585936,1.734599102783203,-11.048043560791015,-0.8854961832061069,0.5954198473282443,-1.3282442748091603
3814486780209,5.024794685,1,0.21308394775390624,1.7094599853515624,-11.33175645751953,-0.8625954198473282,0.5954198473282443,-1.3435114503816794
3814496779845,5.034794321,1,0.2166752502441406,1.7262193969726563,-11.044452258300781,-0.8091603053435115,0.4732824427480916,-1.3053435114503817
3814506779428,5.044793904,1,0.23343466186523437,1.7357962036132812,-11.33175645751953,-0.8091603053435115,0.5648854961832062,-1.3282442748091603
3814516779897,5.054794373,1,0.24660277099609373,1.7190367919921874,-11.162965240478515,-0.7786259541984732,0.549618320610687,-1.3206106870229009
3814526779845,5.064794321,1,0.22505495605468748,1.7417817077636717,-11.161768139648437,-0.9007633587786259,0.5114503816793893,-1.3511450381679388
3814536778699,5.074793175,1,0.24660277099609373,1.753752716064453,-11.184513055419922,-0.8625954198473282,0.5648854961832062,-1.2900763358778626
3814546779741,5.084794217,1,0.22864625854492185,1.7178396911621092,-11.071985577392578,-0.8320610687022901,0.5954198473282443,-1.3206106870229009
3814556779741,5.094794217,1,0.24899697265624998,1.7274164978027342,-11.323376751708985,-0.816793893129771,0.6030534351145038,-1.297709923664122
3814566779689,5.104794165,1,0.22744915771484372,1.7381904052734374,-11.046846459960937,-0.8244274809160306,0.5954198473282443,-1.3129770992366412
3814576778699,5.114793175,1,0.24181436767578124,1.7334020019531249,-11.3389390625,-0.816793893129771,0.5648854961832062,-1.3282442748091603
3814586780209,5.124794685,1,0.2262520568847656,1.7178396911621092,-11.074379779052734,-0.7862595419847328,0.5648854961832062,-1.3053435114503817
3814596776668,5.134791144,1,0.21906945190429686,1.7298106994628906,-11.33175645751953,-0.8091603053435115,0.549618320610687,-1.2366412213740459
3814606774584,5.14478906,1,0.21906945190429686,1.7513585144042967,-11.069591375732422,-0.8320610687022901,0.5725190839694656,-1.2748091603053435
3814616774012,5.154788488,1,0.1927332336425781,1.7405846069335937,-11.336544860839844,-0.816793893129771,0.549618320610687,-1.3129770992366412
3814626774532,5.164789008,1,0.22266075439453123,1.7178396911621092,-11.177330450439452,-0.8473282442748091,0.5954198473282443,-1.3053435114503817
3814636773959,5.174788435,1,0.229843359375,1.7501614135742187,-11.166556542968749,-0.8320610687022901,0.549618320610687,-1.3358778625954197
3814646772241,5.184786717,1,0.2214636535644531,1.7286135986328124,-11.182118853759764,-0.916030534351145,0.5954198473282443,-1.3053435114503817
3814656798387,5.194812863,1,0.2262520568847656,1.7334020019531249,-11.176133349609374,-0.816793893129771,0.5038167938931297,-1.3206106870229009
3814666780887,5.204795363,1,0.2214636535644531,1.7274164978027342,-11.034875451660156,-0.8015267175572519,0.6183206106870229,-1.3358778625954197
3814676774376,5.214788852,1,0.21787235107421873,1.744175909423828,-11.324573852539062,-0.8015267175572519,0.6106870229007634,-1.2671755725190839
3814686773959,5.224788435,1,0.2346317626953125,1.7262193969726563,-11.04564935913086,-0.8625954198473282,0.5877862595419847,-1.3587786259541985
3814696791824,5.2348063,1,0.24301146850585936,1.7274164978027342,-11.209652172851563,-0.8244274809160306,0.5038167938931297,-1.3129770992366412
3814706773230,5.244787706,1,0.21188684692382811,1.7190367919921874,-11.214440576171874,-0.8473282442748091,0.5877862595419847,-1.3358778625954197
3814716769220,5.254783696,1,0.1927332336425781,1.7334020019531249,-11.202469567871093,-0.7938931297709924,0.6259541984732825,-1.3740458015267176
3814726773595,5.264788071,1,0.23223756103515625,1.7130512878417967,-11.330559356689452,-0.9083969465648855,0.6412213740458015,-1.3358778625954197
3814736774324,5.2747888,1,0.2537853759765625,1.7190367919921874,-11.037269653320312,-0.7862595419847328,0.5572519083969466,-1.3206106870229009
3814746773178,5.284787654,1,0.21308394775390624,1.7334020019531249,-11.252747802734374,-0.8778625954198473,0.6030534351145038,-1.297709923664122
3814756774845,5.294789321,1,0.23582886352539062,1.7453730102539062,-11.192892761230468,-0.8625954198473282,0.5419847328244275,-1.3129770992366412
3814766773647,5.304788123,1,0.23223756103515625,1.7357962036132812,-11.201272467041015,-0.8549618320610687,0.5267175572519084,-1.3053435114503817
3814776772814,5.31478729,1,0.18315642700195311,1.7298106994628906,-11.201272467041015,-0.8396946564885496,0.5725190839694656,-1.3129770992366412
3814786773074,5.32478755,1,0.23822306518554687,1.744175909423828,-11.195286962890624,-0.8702290076335878,0.5572519083969466,-1.3587786259541985
3814796811355,5.334825831,1,0.2346317626953125,1.7369933044433592,-11.17852755126953,-0.8473282442748091,0.5267175572519084,-1.297709923664122
3814806774168,5.344788644,1,0.21428104858398436,1.7322049011230467,-11.207257971191405,-0.8702290076335878,0.5038167938931297,-1.2671755725190839
3814816774845,5.354789321,1,0.25258827514648435,1.7310078002929687,-11.179724652099608,-0.8015267175572519,0.5038167938931297,-1.2900763358778626
3814826774532,5.364789008,1,0.2262520568847656,1.7226280944824217,-11.158176837158203,-0.8396946564885496,0.5419847328244275,-1.3358778625954197
3814836773959,5.374788435,1,0.23702596435546874,1.7286135986328124,-11.177330450439452,-0.7786259541984732,0.5725190839694656,-1.3129770992366412
3814846773126,5.384787602,1,0.23104046020507812,1.7322049011230467,-11.156979736328124,-0.8396946564885496,0.5877862595419847,-1.3053435114503817
3814856773386,5.394787862,1,0.24061726684570311,1.7286135986328124,-11.184513055419922,-0.7633587786259542,0.5572519083969466,-1.297709923664122
3814866774168,5.404788644,1,0.21906945190429686,1.7286135986328124,-11.176133349609374,-0.816793893129771,0.6183206106870229,-1.282442748091603
3814876773230,5.414787706,1,0.21787235107421873,1.7489643127441405,-11.168950744628905,-0.8091603053435115,0.5038167938931297,-1.3511450381679388
3814886772866,5.424787342,1,0.20470424194335937,1.7286135986328124,-11.176133349609374,-0.8931297709923665,0.5419847328244275,-1.3206106870229009
3814896809636,5.434824112,1,0.2154781494140625,1.7226280944824217,-11.168950744628905,-0.8396946564885496,0.5801526717557252,-1.3358778625954197
3814906775053,5.444789529,1,0.22385785522460935,1.6831237670898436,-11.150994232177734,-0.8549618320610687,0.5648854961832062,-1.366412213740458
3814916775157,5.454789633,1,0.21906945190429686,1.7214309936523438,-11.186907257080078,-0.8396946564885496,0.5572519083969466,-1.3282442748091603
3814926774220,5.464788696,1,0.22744915771484372,1.7393875061035156,-11.206060870361327,-0.8244274809160306,0.6183206106870229,-1.282442748091603
3814936773282,5.474787758,1,0.20829554443359374,1.695094775390625,-11.214440576171874,-0.8320610687022901,0.5954198473282443,-1.2900763358778626
3814946783699,5.484798175,1,0.23104046020507812,1.7369933044433592,-11.180921752929686,-0.816793893129771,0.5648854961832062,-1.2671755725190839
3814956775626,5.494790102,1,0.24660277099609373,1.7453730102539062,-11.186907257080078,-0.7786259541984732,0.5877862595419847,-1.3511450381679388
3814966773647,5.504788123,1,0.22266075439453123,1.7322049011230467,-11.177330450439452,-0.8320610687022901,0.6259541984732825,-1.2900763358778626
3814976771303,5.514785779,1,0.21308394775390624,1.7573440185546874,-11.238382592773437,-0.8320610687022901,0.5572519083969466,-1.3587786259541985
3814986773855,5.524788331,1,0.23104046020507812,1.7202338928222656,-11.19887826538086,-0.8320610687022901,0.5343511450381679,-1.3206106870229009
3814996773543,5.534788019,1,0.22385785522460935,1.7238251953125,-11.206060870361327,-0.8091603053435115,0.5114503816793893,-1.3282442748091603
3815006774011,5.544788487,1,0.2561795776367187,1.744175909423828,-11.18571015625,-0.816793893129771,0.5801526717557252,-1.3129770992366412
3815016774376,5.554788852,1,0.22864625854492185,1.7214309936523438,-11.143811627197264,-0.8244274809160306,0.5343511450381679,-1.3435114503816794
3815026772553,5.564787029,1,0.21906945190429686,1.7262193969726563,-11.168950744628905,-0.8549618320610687,0.5954198473282443,-1.282442748091603
3815036773178,5.574787654,1,0.21787235107421873,1.753752716064453,-11.215637677001952,-0.8396946564885496,0.5343511450381679,-1.3435114503816794
3815046773386,5.584787862,1,0.22385785522460935,1.7166425903320313,-11.208455072021483,-0.816793893129771,0.5343511450381679,-1.366412213740458
3815056773959,5.594788435,1,0.23822306518554687,1.7118541870117185,-11.156979736328124,-0.8396946564885496,0.5877862595419847,-1.3511450381679388
3815066773334,5.60478781,1,0.2454056701660156,1.7310078002929687,-11.156979736328124,-0.8549618320610687,0.5954198473282443,-1.3206106870229009
3815076773074,5.61478755,1,0.23223756103515625,1.7022773803710936,-11.189301458740234,-0.8320610687022901,0.6106870229007634,-1.3129770992366412
3815086773803,5.624788279,1,0.239420166015625,1.7405846069335937,-11.183315954589844,-0.8625954198473282,0.5190839694656488,-1.297709923664122
3815096773855,5.634788331,1,0.2214636535644531,1.7310078002929687,-11.206060870361327,-0.8931297709923665,0.5267175572519084,-1.2900763358778626
3815106774272,5.644788748,1,0.22026655273437498,1.7202338928222656,-11.195286962890624,-0.8320610687022901,0.5343511450381679,-1.282442748091603
3815116773959,5.654788435,1,0.1927332336425781,1.7226280944824217,-11.208455072021483,-0.7938931297709924,0.6412213740458015,-1.3129770992366412
3815126773543,5.664788019,1,0.23582886352539062,1.7417817077636717,-11.2240173828125,-0.7938931297709924,0.5343511450381679,-1.3282442748091603
3815136768699,5.674783175,1,0.22385785522460935,1.725022296142578,-11.16057103881836,-0.8625954198473282,0.6030534351145038,-1.3511450381679388
3815146773074,5.68478755,1,0.2154781494140625,1.7322049011230467,-11.168950744628905,-0.8396946564885496,0.6412213740458015,-1.282442748091603
3815156773803,5.694788279,1,0.239420166015625,1.7298106994628906,-11.202469567871093,-0.8625954198473282,0.5648854961832062,-1.3358778625954197
3815166774115,5.704788591,1,0.21188684692382811,1.7094599853515624,-11.215637677001952,-0.8244274809160306,0.5648854961832062,-1.3129770992366412
3815176773959,5.714788435,1,0.23104046020507812,1.7334020019531249,-11.17852755126953,-0.8625954198473282,0.6183206106870229,-1.2595419847328244
3815186773074,5.72478755,1,0.2442085693359375,1.7034744812011717,-11.195286962890624,-0.8015267175572519,0.549618320610687,-1.2442748091603053
3815196774063,5.734788539,1,0.21068974609375,1.7417817077636717,-11.221623181152344,-0.8473282442748091,0.5954198473282443,-1.282442748091603
3815206774845,5.744789321,1,0.22385785522460935,1.7190367919921874,-11.190498559570312,-0.8091603053435115,0.5267175572519084,-1.3358778625954197
3815216786615,5.754801091,1,0.25258827514648435,1.7334020019531249,-11.215637677001952,-0.8778625954198473,0.5725190839694656,-1.3511450381679388
3815226775365,5.764789841,1,0.22026655273437498,1.7226280944824217,-11.184513055419922,-0.7633587786259542,0.5801526717557252,-1.3206106870229009
3815236775782,5.774790258,1,0.22026655273437498,1.7429788085937499,-11.161768139648437,-0.8702290076335878,0.5801526717557252,-1.3053435114503817
3815246774115,5.784788591,1,0.20709844360351562,1.7190367919921874,-11.19169566040039,-0.8320610687022901,0.6030534351145038,-1.3282442748091603
3815256774272,5.794788748,1,0.2166752502441406,1.7381904052734374,-11.170147845458983,-0.8702290076335878,0.5877862595419847,-1.3206106870229009
3815266773699,5.804788175,1,0.22266075439453123,1.70467158203125,-11.204863769531249,-0.8015267175572519,0.5954198473282443,-1.3053435114503817
3815276775365,5.814789841,1,0.21428104858398436,1.7405846069335937,-11.173739147949219,-0.8778625954198473,0.5877862595419847,-1.3129770992366412
3815286773595,5.824788071,1,0.24061726684570311,1.707065783691406,-11.188104357910156,-0.8015267175572519,0.48091603053435117,-1.3129770992366412
3815296774115,5.834788591,1,0.19393033447265623,1.7381904052734374,-11.207257971191405,-0.8854961832061069,0.5725190839694656,-1.297709923664122
3815306775626,5.844790102,1,0.22385785522460935,1.7369933044433592,-11.184513055419922,-0.8396946564885496,0.5877862595419847,-1.3206106870229009
3815316774532,5.854789008,1,0.22266075439453123,1.7190367919921874,-11.18571015625,-0.8625954198473282,0.6183206106870229,-1.282442748091603
3815326774636,5.864789112,1,0.24181436767578124,1.734599102783203,-11.232397088623046,-0.7862595419847328,0.5954198473282443,-1.3129770992366412
3815336773907,5.874788383,1,0.23223756103515625,1.753752716064453,-11.206060870361327,-0.9007633587786259,0.5190839694656488,-1.3129770992366412
3815346775053,5.884789529,1,0.23343466186523437,1.7262193969726563,-11.161768139648437,-0.8320610687022901,0.5648854961832062,-1.3511450381679388
3815356773907,5.894788383,1,0.22505495605468748,1.7310078002929687,-11.197681164550781,-0.8702290076335878,0.5419847328244275,-1.3129770992366412
3815366774011,5.904788487,1,0.20470424194335937,1.7094599853515624,-11.197681164550781,-0.8091603053435115,0.5648854961832062,-1.3511450381679388
3815376773699,5.914788175,1,0.24061726684570311,1.753752716064453,-11.204863769531249,-0.8091603053435115,0.549618320610687,-1.3053435114503817
3815386769063,5.924783539,1,0.22505495605468748,1.7298106994628906,-11.188104357910156,-0.8244274809160306,0.5725190839694656,-1.3206106870229009
3815396774324,5.9347888,1,0.239420166015625,1.7298106994628906,-11.21084927368164,-0.8702290076335878,0.6183206106870229,-1.3358778625954197
3815406773803,5.944788279,1,0.22266075439453123,1.7310078002929687,-11.207257971191405,-0.7862595419847328,0.6183206106870229,-1.3206106870229009
3815416775001,5.954789477,1,0.20470424194335937,1.7298106994628906,-11.16057103881836,-0.8625954198473282,0.6183206106870229,-1.282442748091603
3815426774167,5.964788643,1,0.21068974609375,1.715445489501953,-11.203666668701171,-0.9236641221374046,0.6412213740458015,-1.3129770992366412
3815436774949,5.974789425,1,0.2645592834472656,1.7334020019531249,-11.21683477783203,-0.9007633587786259,0.5801526717557252,-1.3053435114503817
3815446773699,5.984788175,1,0.229843359375,1.7106570861816406,-11.202469567871093,-0.8396946564885496,0.5725190839694656,-1.3740458015267176
3815456774740,5.994789216,1,0.22266075439453123,1.7202338928222656,-11.192892761230468,-0.8396946564885496,0.5877862595419847,-1.2748091603053435
3815466775313,6.004789789,1,0.2346317626953125,1.7298106994628906,-11.168950744628905,-0.8396946564885496,0.5419847328244275,-1.3129770992366412
3815476774272,6.014788748,1,0.2262520568847656,1.7429788085937499,-11.194089862060546,-0.8015267175572519,0.5114503816793893,-1.3282442748091603
3815486769897,6.024784373,1,0.21188684692382811,1.7178396911621092,-11.183315954589844,-0.7633587786259542,0.5725190839694656,-1.366412213740458
3815496774324,6.0347888,1,0.22266075439453123,1.7226280944824217,-11.213243475341796,-0.8091603053435115,0.6259541984732825,-1.297709923664122
3815506774740,6.044789216,1,0.2154781494140625,1.7274164978027342,-11.197681164550781,-0.8320610687022901,0.6183206106870229,-1.3511450381679388
3815516774636,6.054789112,1,0.24061726684570311,1.7202338928222656,-11.213243475341796,-0.8244274809160306,0.5572519083969466,-1.3740458015267176
3815526773178,6.064787654,1,0.20470424194335937,1.7405846069335937,-11.161768139648437,-0.8091603053435115,0.5648854961832062,-1.3129770992366412
3815536781407,6.074795883,1,0.23582886352539062,1.7357962036132812,-11.206060870361327,-0.8931297709923665,0.5572519083969466,-1.251908396946565
3815546776303,6.084790779,1,0.239420166015625,1.7310078002929687,-11.21084927368164,-0.8396946564885496,0.5648854961832062,-1.3053435114503817
3815556775522,6.094789998,1,0.23582886352539062,1.7202338928222656,-11.190498559570312,-0.8549618320610687,0.5648854961832062,-1.3358778625954197
3815566774480,6.104788956,1,0.22505495605468748,1.7118541870117185,-11.203666668701171,-0.8015267175572519,0.5648854961832062,-1.3511450381679388
3815576774949,6.114789425,1,0.23702596435546874,1.715445489501953,-11.176133349609374,-0.8320610687022901,0.5725190839694656,-1.3206106870229009
3815586774584,6.12478906,1,0.21308394775390624,1.7274164978027342,-11.186907257080078,-0.8625954198473282,0.5572519083969466,-1.3435114503816794
3815596773022,6.134787498,1,0.22505495605468748,1.7190367919921874,-11.166556542968749,-0.7709923664122137,0.6183206106870229,-1.2671755725190839
3815606788178,6.144802654,1,0.24779987182617186,1.7429788085937499,-11.194089862060546,-0.8778625954198473,0.6412213740458015,-1.297709923664122
3815616775313,6.154789789,1,0.21068974609375,1.7238251953125,-11.222820281982422,-0.8473282442748091,0.5648854961832062,-1.2595419847328244
3815626774636,6.164789112,1,0.21188684692382811,1.7310078002929687,-11.184513055419922,-0.8625954198473282,0.5877862595419847,-1.251908396946565
3815636772501,6.174786977,1,0.2262520568847656,1.7429788085937499,-11.195286962890624,-0.8320610687022901,0.6030534351145038,-1.297709923664122
3815646774428,6.184788904,1,0.229843359375,1.7322049011230467,-11.176133349609374,-0.8396946564885496,0.6335877862595419,-1.3206106870229009
3815656774063,6.194788539,1,0.1879448303222656,1.7417817077636717,-11.164162341308593,-0.7938931297709924,0.5572519083969466,-1.3282442748091603
3815666774115,6.204788591,1,0.22385785522460935,1.7238251953125,-11.214440576171874,-0.8625954198473282,0.6106870229007634,-1.3282442748091603
3815676772136,6.214786612,1,0.24061726684570311,1.7298106994628906,-11.186907257080078,-0.816793893129771,0.5725190839694656,-1.3129770992366412
3815686773490,6.224787966,1,0.23822306518554687,1.7513585144042967,-11.192892761230468,-0.8396946564885496,0.5801526717557252,-1.3129770992366412
3815696774376,6.234788852,1,0.22505495605468748,1.7417817077636717,-11.166556542968749,-0.8015267175572519,0.5954198473282443,-1.3206106870229009
3815706808490,6.244822966,1,0.22864625854492185,1.7381904052734374,-11.21084927368164,-0.8244274809160306,0.5877862595419847,-1.3435114503816794
3815716774167,6.254788643,1,0.2537853759765625,1.7226280944824217,-11.195286962890624,-0.8320610687022901,0.6106870229007634,-1.366412213740458
3815726775053,6.264789529,1,0.24779987182617186,1.7549498168945312,-11.209652172851563,-0.8473282442748091,0.549618320610687,-1.381679389312977
3815736773699,6.274788175,1,0.21906945190429686,1.7274164978027342,-11.209652172851563,-0.8396946564885496,0.5267175572519084,-1.3206106870229009
3815746773178,6.284787654,1,0.22744915771484372,1.744175909423828,-11.209652172851563,-0.8778625954198473,0.6183206106870229,-1.3435114503816794
3815756775678,6.294790154,1,0.2154781494140625,1.7334020019531249,-11.212046374511718,-0.8473282442748091,0.5725190839694656,-1.3282442748091603
3815766774115,6.304788591,1,0.20231004028320312,1.7334020019531249,-11.21683477783203,-0.8778625954198473,0.5725190839694656,-1.2900763358778626
3815776773542,6.314788018,1,0.23343466186523437,1.7226280944824217,-11.213243475341796,-0.8320610687022901,0.5572519083969466,-1.3206106870229009
3815786773699,6.324788175,1,0.2346317626953125,1.7657237243652342,-11.18571015625,-0.9007633587786259,0.549618320610687,-1.3129770992366412
3815796774167,6.334788643,1,0.2154781494140625,1.7369933044433592,-11.18571015625,-0.8320610687022901,0.5801526717557252,-1.3511450381679388
3815806773699,6.344788175,1,0.21787235107421873,1.6986860778808592,-11.190498559570312,-0.8702290076335878,0.6183206106870229,-1.3206106870229009
3815816778490,6.354792966,1,0.2561795776367187,1.7202338928222656,-11.197681164550781,-0.7709923664122137,0.5648854961832062,-1.3435114503816794
3815826947136,6.364961612,1,0.20350714111328125,1.7094599853515624,-11.179724652099608,-0.8778625954198473,0.6641221374045801,-1.3129770992366412
3815836779376,6.374793852,1,0.229843359375,1.7429788085937499,-11.196484063720703,-0.816793893129771,0.5725190839694656,-1.3358778625954197
3815846772813,6.384787289,1,0.201112939453125,1.7549498168945312,-11.206060870361327,-0.8473282442748091,0.5801526717557252,-1.3587786259541985
3815856769584,6.39478406,1,0.22385785522460935,1.7202338928222656,-11.192892761230468,-0.7938931297709924,0.5419847328244275,-1.366412213740458
3815866772501,6.404786977,1,0.21428104858398436,1.7286135986328124,-11.213243475341796,-0.8396946564885496,0.5648854961832062,-1.3435114503816794
3815876772084,6.41478656,1,0.21428104858398436,1.7274164978027342,-11.179724652099608,-0.8015267175572519,0.6030534351145038,-1.3129770992366412
3815886772501,6.424786977,1,0.22266075439453123,1.7357962036132812,-11.168950744628905,-0.8244274809160306,0.6030534351145038,-1.3129770992366412
3815896766980,6.434781456,1,0.239420166015625,1.7226280944824217,-11.165359442138671,-0.7709923664122137,0.5648854961832062,-1.3053435114503817
3815906771146,6.444785622,1,0.2166752502441406,1.7310078002929687,-11.227608685302734,-0.8396946564885496,0.5954198473282443,-1.3129770992366412
3815916774688,6.454789164,1,0.22744915771484372,1.7334020019531249,-11.206060870361327,-0.7709923664122137,0.5954198473282443,-1.3435114503816794
3815926771667,6.464786143,1,0.24301146850585936,1.6986860778808592,-11.213243475341796,-0.8549618320610687,0.5419847328244275,-1.3282442748091603
3815936770886,6.474785362,1,0.22266075439453123,1.7298106994628906,-11.182118853759764,-0.8244274809160306,0.5801526717557252,-1.3587786259541985
3815946770782,6.484785258,1,0.229843359375,1.7202338928222656,-11.227608685302734,-0.816793893129771,0.549618320610687,-1.3053435114503817
3815956771824,6.4947863,1,0.21906945190429686,1.7202338928222656,-11.21084927368164,-0.8473282442748091,0.5114503816793893,-1.3206106870229009
3815966769219,6.504783695,1,0.24061726684570311,1.734599102783203,-11.204863769531249,-0.8091603053435115,0.5343511450381679,-1.3435114503816794
3815976771146,6.514785622,1,0.19991583862304688,1.7417817077636717,-11.194089862060546,-0.8244274809160306,0.5877862595419847,-1.3435114503816794
3815986771563,6.524786039,1,0.2059013427734375,1.7369933044433592,-11.207257971191405,-0.8015267175572519,0.5572519083969466,-1.3358778625954197
3815996767813,6.534782289,1,0.2442085693359375,1.7286135986328124,-11.196484063720703,-0.8320610687022901,0.6106870229007634,-1.3206106870229009
3816006771928,6.544786404,1,0.2537853759765625,1.7334020019531249,-11.174936248779296,-0.8091603053435115,0.5419847328244275,-1.2900763358778626
3816016781823,6.554796299,1,0.21428104858398436,1.7202338928222656,-11.215637677001952,-0.7633587786259542,0.5877862595419847,-1.3587786259541985
3816026779167,6.564793643,1,0.2214636535644531,1.7262193969726563,-11.21683477783203,-0.8396946564885496,0.5648854961832062,-1.3129770992366412
3816036778698,6.574793174,1,0.2561795776367187,1.7393875061035156,-11.201272467041015,-0.8244274809160306,0.5801526717557252,-1.3587786259541985
3816046778178,6.584792654,1,0.24301146850585936,1.7286135986328124,-11.18571015625,-0.8320610687022901,0.5267175572519084,-1.297709923664122
3816056778646,6.594793122,1,0.2454056701660156,1.7202338928222656,-11.166556542968749,-0.8244274809160306,0.6183206106870229,-1.3053435114503817
3816066778698,6.604793174,1,0.23822306518554687,1.7106570861816406,-11.228805786132812,-0.8091603053435115,0.549618320610687,-1.3358778625954197
3816076777917,6.614792393,1,0.2214636535644531,1.714248388671875,-11.180921752929686,-0.7862595419847328,0.5877862595419847,-1.366412213740458
3816086778751,6.624793227,1,0.23104046020507812,1.7262193969726563,-11.201272467041015,-0.8015267175572519,0.5801526717557252,-1.366412213740458
3816096778230,6.634792706,1,0.2454056701660156,1.744175909423828,-11.19169566040039,-0.8625954198473282,0.6412213740458015,-1.3587786259541985
3816106783959,6.644798435,1,0.23582886352539062,1.7226280944824217,-11.182118853759764,-0.8625954198473282,0.5954198473282443,-1.297709923664122
3816116775261,6.654789737,1,0.21906945190429686,1.7286135986328124,-11.190498559570312,-0.9007633587786259,0.5801526717557252,-1.3206106870229009
3816126773386,6.664787862,1,0.22385785522460935,1.7310078002929687,-11.182118853759764,-0.7938931297709924,0.5648854961832062,-1.3206106870229009
3816136772188,6.674786664,1,0.23822306518554687,1.7405846069335937,-11.232397088623046,-0.8244274809160306,0.5954198473282443,-1.3129770992366412
3816146772344,6.68478682,1,0.24660277099609373,1.7178396911621092,-11.174936248779296,-0.7557251908396947,0.5190839694656488,-1.3282442748091603
3816156770469,6.694784945,1,0.258573779296875,1.7274164978027342,-11.200075366210937,-0.8091603053435115,0.5648854961832062,-1.3740458015267176
3816166772188,6.704786664,1,0.18914193115234373,1.7298106994628906,-11.168950744628905,-0.8244274809160306,0.5801526717557252,-1.3587786259541985
3816176771980,6.714786456,1,0.24181436767578124,1.7262193969726563,-11.168950744628905,-0.8244274809160306,0.5801526717557252,-1.3435114503816794
3816186771407,6.724785883,1,0.2346317626953125,1.7106570861816406,-11.16057103881836,-0.8091603053435115,0.5725190839694656,-1.3358778625954197
3816196771823,6.734786299,1,0.25139117431640623,1.7561469177246092,-11.184513055419922,-0.8702290076335878,0.6335877862595419,-1.3435114503816794
3816206766198,6.744780674,1,0.22266075439453123,1.7022773803710936,-11.209652172851563,-0.8244274809160306,0.5419847328244275,-1.3282442748091603
3816216780417,6.754794893,1,0.22505495605468748,1.7405846069335937,-11.180921752929686,-0.8778625954198473,0.5801526717557252,-1.3435114503816794
3816226778490,6.764792966,1,0.229843359375,1.7262193969726563,-11.173739147949219,-0.8015267175572519,0.5725190839694656,-1.3435114503816794
3816236777657,6.774792133,1,0.2537853759765625,1.7310078002929687,-11.194089862060546,-0.8473282442748091,0.648854961832061,-1.3129770992366412
3816246775625,6.784790101,1,0.23582886352539062,1.7357962036132812,-11.19887826538086,-0.8244274809160306,0.5725190839694656,-1.3206106870229009
3816256778594,6.79479307,1,0.2442085693359375,1.7298106994628906,-11.184513055419922,-0.816793893129771,0.6335877862595419,-1.297709923664122
3816266778230,6.804792706,1,0.21308394775390624,1.7238251953125,-11.233594189453123,-0.7786259541984732,0.6106870229007634,-1.3053435114503817
3816276779271,6.814793747,1,0.2214636535644531,1.7334020019531249,-11.188104357910156,-0.8396946564885496,0.5343511450381679,-1.3358778625954197
3816286775886,6.824790362,1,0.22744915771484372,1.734599102783203,-11.190498559570312,-0.7404580152671756,0.5343511450381679,-1.366412213740458
3816296779167,6.834793643,1,0.21428104858398436,1.725022296142578,-11.194089862060546,-0.9083969465648855,0.6106870229007634,-1.282442748091603
3816306777865,6.844792341,1,0.22266075439453123,1.725022296142578,-11.145008728027342,-0.8396946564885496,0.5343511450381679,-1.3282442748091603
3816316778021,6.854792497,1,0.23343466186523437,1.7310078002929687,-11.196484063720703,-0.7938931297709924,0.6106870229007634,-1.3435114503816794
3816326775938,6.864790414,1,0.22505495605468748,1.7118541870117185,-11.159373937988281,-0.8091603053435115,0.5801526717557252,-1.3358778625954197
3816336774428,6.874788904,1,0.2214636535644531,1.7274164978027342,-11.18571015625,-0.8549618320610687,0.6564885496183206,-1.3282442748091603
3816346773959,6.884788435,1,0.22266075439453123,1.725022296142578,-11.177330450439452,-0.7786259541984732,0.5954198473282443,-1.366412213740458
3816356773438,6.894787914,1,0.22864625854492185,1.7322049011230467,-11.186907257080078,-0.8778625954198473,0.5877862595419847,-1.3587786259541985
3816366773646,6.904788122,1,0.239420166015625,1.7417817077636717,-11.189301458740234,-0.8091603053435115,0.5725190839694656,-1.3129770992366412
3816376766355,6.914780831,1,0.24301146850585936,1.7489643127441405,-11.190498559570312,-0.8396946564885496,0.5725190839694656,-1.3053435114503817
3816386773698,6.924788174,1,0.20470424194335937,1.7214309936523438,-11.183315954589844,-0.8778625954198473,0.5801526717557252,-1.3358778625954197
3816396774011,6.934788487,1,0.2059013427734375,1.6927005737304686,-11.158176837158203,-0.8015267175572519,0.6183206106870229,-1.3129770992366412
3816406774323,6.944788799,1,0.2214636535644531,1.7226280944824217,-11.177330450439452,-0.8320610687022901,0.5572519083969466,-1.3129770992366412
3816416791563,6.954806039,1,0.2214636535644531,1.725022296142578,-11.180921752929686,-0.8625954198473282,0.6183206106870229,-1.3053435114503817
3816426775365,6.964789841,1,0.20829554443359374,1.7405846069335937,-11.218031878662108,-0.8244274809160306,0.5648854961832062,-1.3358778625954197
3816436772813,6.974787289,1,0.20470424194335937,1.7489643127441405,-11.21084927368164,-0.8015267175572519,0.5419847328244275,-1.3129770992366412
3816446773177,6.984787653,1,0.20949264526367187,1.7178396911621092,-11.17852755126953,-0.7709923664122137,0.5725190839694656,-1.3129770992366412
3816456772969,6.994787445,1,0.22864625854492185,1.744175909423828,-11.192892761230468,-0.8396946564885496,0.5725190839694656,-1.297709923664122
3816466774167,7.004788643,1,0.2262520568847656,1.7393875061035156,-11.214440576171874,-0.8549618320610687,0.6259541984732825,-1.3129770992366412
3816476773594,7.01478807,1,0.19393033447265623,1.7298106994628906,-11.179724652099608,-0.8396946564885496,0.5954198473282443,-1.282442748091603
3816486773855,7.024788331,1,0.2214636535644531,1.7298106994628906,-11.165359442138671,-0.7786259541984732,0.6106870229007634,-1.3358778625954197
3816496774115,7.034788591,1,0.19153613281249998,1.7226280944824217,-11.234791290283203,-0.8244274809160306,0.6030534351145038,-1.3206106870229009
3816506773907,7.044788383,1,0.24660277099609373,1.7166425903320313,-11.200075366210937,-0.8473282442748091,0.5954198473282443,-1.3129770992366412
3816516811927,7.054826403,1,0.2561795776367187,1.7334020019531249,-11.168950744628905,-0.816793893129771,0.6030534351145038,-1.2900763358778626
3816526774063,7.064788539,1,0.23223756103515625,1.7214309936523438,-11.139023223876952,-0.8091603053435115,0.5954198473282443,-1.2900763358778626
3816536773230,7.074787706,1,0.19033903198242186,1.7513585144042967,-11.189301458740234,-0.7862595419847328,0.549618320610687,-1.3053435114503817
3816546774427,7.084788903,1,0.239420166015625,1.7381904052734374,-11.190498559570312,-0.8244274809160306,0.648854961832061,-1.297709923664122
3816556773855,7.094788331,1,0.23343466186523437,1.7357962036132812,-11.167753643798827,-0.7862595419847328,0.5801526717557252,-1.297709923664122
3816566773282,7.104787758,1,0.23104046020507812,1.7178396911621092,-11.208455072021483,-0.816793893129771,0.5954198473282443,-1.3053435114503817
3816576773594,7.11478807,1,0.21068974609375,1.7262193969726563,-11.152191333007812,-0.8091603053435115,0.5267175572519084,-1.251908396946565
3816586772969,7.124787445,1,0.24660277099609373,1.7262193969726563,-11.189301458740234,-0.8320610687022901,0.5648854961832062,-1.3206106870229009
3816596772292,7.134786768,1,0.229843359375,1.7298106994628906,-11.174936248779296,-0.816793893129771,0.5877862595419847,-1.3435114503816794
3816606773073,7.144787549,1,0.2166752502441406,1.7429788085937499,-11.17852755126953,-0.8396946564885496,0.6030534351145038,-1.3129770992366412
3816616807344,7.15482182,1,0.24061726684570311,1.7298106994628906,-11.227608685302734,-0.8015267175572519,0.5877862595419847,-1.3206106870229009
3816626769427,7.164783903,1,0.20470424194335937,1.7429788085937499,-11.196484063720703,-0.8091603053435115,0.5648854961832062,-1.3206106870229009
3816636773021,7.174787497,1,0.23582886352539062,1.7022773803710936,-11.219228979492186,-0.7862595419847328,0.5190839694656488,-1.3129770992366412
3816646772657,7.184787133,1,0.2154781494140625,1.7178396911621092,-11.190498559570312,-0.8702290076335878,0.648854961832061,-1.2900763358778626
3816656773334,7.19478781,1,0.2537853759765625,1.7310078002929687,-11.194089862060546,-0.816793893129771,0.5725190839694656,-1.282442748091603
3816666783125,7.204797601,1,0.22026655273437498,1.7298106994628906,-11.208455072021483,-0.8473282442748091,0.5954198473282443,-1.3206106870229009
3816676776615,7.214791091,1,0.20709844360351562,1.7429788085937499,-11.227608685302734,-0.8091603053435115,0.6183206106870229,-1.3053435114503817
3816686773594,7.22478807,1,0.20829554443359374,1.7334020019531249,-11.208455072021483,-0.8931297709923665,0.5572519083969466,-1.381679389312977
3816696773959,7.234788435,1,0.21308394775390624,1.7357962036132812,-11.183315954589844,-0.8091603053435115,0.4580152671755725,-1.3358778625954197
3816706773334,7.24478781,1,0.21906945190429686,1.753752716064453,-11.204863769531249,-0.8702290076335878,0.5572519083969466,-1.3129770992366412
3816716816927,7.254831403,1,0.21308394775390624,1.7357962036132812,-11.201272467041015,-0.8015267175572519,0.5419847328244275,-1.3587786259541985
3816726775677,7.264790153,1,0.19512743530273435,1.7322049011230467,-11.195286962890624,-0.816793893129771,0.5954198473282443,-1.3206106870229009
3816736773854,7.27478833,1,0.2442085693359375,1.7429788085937499,-11.162965240478515,-0.7938931297709924,0.5877862595419847,-1.3358778625954197
3816746773698,7.284788174,1,0.22505495605468748,1.7405846069335937,-11.176133349609374,-0.8778625954198473,0.6259541984732825,-1.3435114503816794
3816756773021,7.294787497,1,0.23702596435546874,1.7202338928222656,-11.179724652099608,-0.8015267175572519,0.5343511450381679,-1.282442748091603
3816766769896,7.304784372,1,0.20709844360351562,1.744175909423828,-11.197681164550781,-0.816793893129771,0.5419847328244275,-1.297709923664122
3816776774167,7.314788643,1,0.23104046020507812,1.7226280944824217,-11.164162341308593,-0.7709923664122137,0.5725190839694656,-1.3129770992366412
3816786773386,7.324787862,1,0.24660277099609373,1.7286135986328124,-11.209652172851563,-0.8396946564885496,0.5954198473282443,-1.282442748091603
3816796773750,7.334788226,1,0.2059013427734375,1.7214309936523438,-11.17254204711914,-0.7862595419847328,0.6030534351145038,-1.2900763358778626
3816806773073,7.344787549,1,0.17836802368164062,1.7298106994628906,-11.189301458740234,-0.8549618320610687,0.5877862595419847,-1.3206106870229009
3816816773282,7.354787758,1,0.22744915771484372,1.734599102783203,-11.195286962890624,-0.8473282442748091,0.5267175572519084,-1.3511450381679388
3816826775157,7.364789633,1,0.21906945190429686,1.7549498168945312,-11.158176837158203,-0.8473282442748091,0.5801526717557252,-1.3206106870229009
3816836773594,7.37478807,1,0.21068974609375,1.7381904052734374,-11.190498559570312,-0.8015267175572519,0.5419847328244275,-1.3129770992366412
3816846773594,7.38478807,1,0.22266075439453123,1.725022296142578,-11.17254204711914,-0.8625954198473282,0.5648854961832062,-1.3206106870229009
3816856774427,7.394788903,1,0.229843359375,1.7082628845214842,-11.215637677001952,-0.8091603053435115,0.549618320610687,-1.3206106870229009
3816866774479,7.404788955,1,0.20231004028320312,1.753752716064453,-11.18571015625,-0.8854961832061069,0.6183206106870229,-1.2595419847328244
3816876774636,7.414789112,1,0.19991583862304688,1.7178396911621092,-11.201272467041015,-0.816793893129771,0.5572519083969466,-1.3282442748091603
3816886773646,7.424788122,1,0.22266075439453123,1.7369933044433592,-11.174936248779296,-0.8473282442748091,0.5267175572519084,-1.3511450381679388
3816896773854,7.43478833,1,0.23582886352539062,1.7274164978027342,-11.19887826538086,-0.7786259541984732,0.6106870229007634,-1.282442748091603
3816906773906,7.444788382,1,0.23223756103515625,1.7262193969726563,-11.16057103881836,-0.8320610687022901,0.5954198473282443,-1.2748091603053435
3816916773594,7.45478807,1,0.2214636535644531,1.734599102783203,-11.19887826538086,-0.8091603053435115,0.5648854961832062,-1.3587786259541985
3816926773646,7.464788122,1,0.239420166015625,1.7190367919921874,-11.154585534667968,-0.8244274809160306,0.5648854961832062,-1.3129770992366412
3816936773698,7.474788174,1,0.22385785522460935,1.7310078002929687,-11.17852755126953,-0.8091603053435115,0.5801526717557252,-1.297709923664122
3816946773542,7.484788018,1,0.2166752502441406,1.7393875061035156,-11.184513055419922,-0.8320610687022901,0.6183206106870229,-1.3435114503816794
3816956774115,7.494788591,1,0.19871873779296872,1.725022296142578,-11.180921752929686,-0.8244274809160306,0.5954198473282443,-1.3206106870229009
3816966773021,7.504787497,1,0.22744915771484372,1.6998831787109374,-11.204863769531249,-0.8549618320610687,0.5954198473282443,-1.3129770992366412
3816976772761,7.514787237,1,0.21308394775390624,1.7298106994628906,-11.196484063720703,-0.8320610687022901,0.5954198473282443,-1.3053435114503817
3816986773594,7.52478807,1,0.23223756103515625,1.7429788085937499,-11.200075366210937,-0.8320610687022901,0.5801526717557252,-1.2900763358778626
3816996774792,7.534789268,1,0.2214636535644531,1.7405846069335937,-11.152191333007812,-0.7938931297709924,0.5954198473282443,-1.3511450381679388
3817006773750,7.544788226,1,0.229843359375,1.7334020019531249,-11.168950744628905,-0.8396946564885496,0.5648854961832062,-1.3358778625954197
3817016773229,7.554787705,1,0.2262520568847656,1.7274164978027342,-11.18571015625,-0.8091603053435115,0.5725190839694656,-1.3435114503816794
3817026772552,7.564787028,1,0.21068974609375,1.70467158203125,-11.18571015625,-0.8091603053435115,0.5343511450381679,-1.297709923664122
3817036774167,7.574788643,1,0.23582886352539062,1.7298106994628906,-11.200075366210937,-0.8091603053435115,0.5267175572519084,-1.3282442748091603
3817046773490,7.584787966,1,0.24181436767578124,1.7262193969726563,-11.200075366210937,-0.8625954198473282,0.5190839694656488,-1.297709923664122
3817056772969,7.594787445,1,0.21906945190429686,1.734599102783203,-11.170147845458983,-0.8854961832061069,0.5114503816793893,-1.3053435114503817
3817066774115,7.604788591,1,0.22026655273437498,1.7322049011230467,-11.18571015625,-0.816793893129771,0.5343511450381679,-1.297709923664122
3817076773854,7.61478833,1,0.20709844360351562,1.753752716064453,-11.162965240478515,-0.8320610687022901,0.6106870229007634,-1.3740458015267176
3817086773073,7.624787549,1,0.21308394775390624,1.7202338928222656,-11.194089862060546,-0.8244274809160306,0.5190839694656488,-1.3053435114503817
3817096773594,7.63478807,1,0.22744915771484372,1.7178396911621092,-11.18571015625,-0.8931297709923665,0.6183206106870229,-1.3129770992366412
3817106774844,7.64478932,1,0.19871873779296872,1.7190367919921874,-11.159373937988281,-0.7938931297709924,0.5114503816793893,-1.3129770992366412
3817116773698,7.654788174,1,0.23343466186523437,1.7118541870117185,-11.195286962890624,-0.8396946564885496,0.5954198473282443,-1.3511450381679388
3817126772448,7.664786924,1,0.23582886352539062,1.7334020019531249,-11.215637677001952,-0.8091603053435115,0.5419847328244275,-1.2595419847328244
3817136773906,7.674788382,1,0.2166752502441406,1.7274164978027342,-11.201272467041015,-0.8473282442748091,0.5954198473282443,-1.3129770992366412
3817146773594,7.68478807,1,0.20470424194335937,1.7286135986328124,-11.186907257080078,-0.7786259541984732,0.4961832061068702,-1.2748091603053435
3817156773802,7.694788278,1,0.22385785522460935,1.7214309936523438,-11.167753643798827,-0.8702290076335878,0.5801526717557252,-1.3282442748091603
3817166773229,7.704787705,1,0.22385785522460935,1.7298106994628906,-11.177330450439452,-0.816793893129771,0.549618320610687,-1.3206106870229009
3817176773750,7.714788226,1,0.21068974609375,1.7118541870117185,-11.173739147949219,-0.7786259541984732,0.5725190839694656,-1.282442748091603
3817186773646,7.724788122,1,0.2454056701660156,1.7274164978027342,-11.200075366210937,-0.816793893129771,0.5343511450381679,-1.3053435114503817
3817196772761,7.734787237,1,0.22744915771484372,1.7393875061035156,-11.171344946289063,-0.8931297709923665,0.6106870229007634,-1.3206106870229009
3817206773750,7.744788226,1,0.2154781494140625,1.7465701110839842,-11.188104357910156,-0.8549618320610687,0.5267175572519084,-1.2748091603053435
3817216774375,7.754788851,1,0.22026655273437498,1.7405846069335937,-11.173739147949219,-0.8625954198473282,0.6183206106870229,-1.2900763358778626
3817226785313,7.764799789,1,0.2262520568847656,1.7645266235351562,-11.186907257080078,-0.8320610687022901,0.549618320610687,-1.3206106870229009
3817236776302,7.774790778,1,0.21068974609375,1.7525556152343749,-11.213243475341796,-0.8549618320610687,0.5954198473282443,-1.2671755725190839
3817246773542,7.784788018,1,0.181959326171875,1.7525556152343749,-11.183315954589844,-0.816793893129771,0.5725190839694656,-1.3358778625954197
3817256772865,7.794787341,1,0.22864625854492185,1.7286135986328124,-11.170147845458983,-0.8931297709923665,0.5801526717557252,-1.3587786259541985
3817266773073,7.804787549,1,0.23223756103515625,1.7286135986328124,-11.192892761230468,-0.8244274809160306,0.5648854961832062,-1.2671755725190839
3817276769531,7.814784007,1,0.2154781494140625,1.7453730102539062,-11.214440576171874,-0.816793893129771,0.5877862595419847,-1.3053435114503817
3817286773958,7.824788434,1,0.2501940734863281,1.7453730102539062,-11.204863769531249,-0.7557251908396947,0.5190839694656488,-1.3129770992366412
3817296773386,7.834787862,1,0.229843359375,1.7310078002929687,-11.197681164550781,-0.8396946564885496,0.5877862595419847,-1.3129770992366412
3817306773281,7.844787757,1,0.23343466186523437,1.7106570861816406,-11.218031878662108,-0.8091603053435115,0.5419847328244275,-1.3358778625954197
3817316774844,7.85478932,1,0.2597708801269531,1.7178396911621092,-11.167753643798827,-0.8015267175572519,0.6259541984732825,-1.3053435114503817
3817326773594,7.86478807,1,0.229843359375,1.744175909423828,-11.213243475341796,-0.7633587786259542,0.5648854961832062,-1.282442748091603
3817336774167,7.874788643,1,0.2166752502441406,1.7405846069335937,-11.179724652099608,-0.8549618320610687,0.5725190839694656,-1.3129770992366412
3817346772604,7.88478708,1,0.22385785522460935,1.725022296142578,-11.190498559570312,-0.7786259541984732,0.5648854961832062,-1.3206106870229009
3817356772708,7.894787184,1,0.25139117431640623,1.7381904052734374,-11.21084927368164,-0.8549618320610687,0.6106870229007634,-1.3206106870229009
3817366773281,7.904787757,1,0.22266075439453123,1.7489643127441405,-11.19169566040039,-0.8320610687022901,0.5877862595419847,-1.3435114503816794
3817376774063,7.914788539,1,0.23343466186523437,1.7262193969726563,-11.21084927368164,-0.8549618320610687,0.5648854961832062,-1.3282442748091603
3817386772917,7.924787393,1,0.24301146850585936,1.7190367919921874,-11.206060870361327,-0.8244274809160306,0.6717557251908397,-1.3053435114503817
3817396773281,7.934787757,1,0.21787235107421873,1.753752716064453,-11.190498559570312,-0.8320610687022901,0.5725190839694656,-1.3435114503816794
3817406772292,7.944786768,1,0.21906945190429686,1.7202338928222656,-11.189301458740234,-0.8320610687022901,0.549618320610687,-1.297709923664122
3817416774792,7.954789268,1,0.2214636535644531,1.7310078002929687,-11.167753643798827,-0.8702290076335878,0.5877862595419847,-1.3206106870229009
3817426773490,7.964787966,1,0.23343466186523437,1.7417817077636717,-11.203666668701171,-0.8854961832061069,0.6030534351145038,-1.2748091603053435
3817436774635,7.974789111,1,0.20470424194335937,1.725022296142578,-11.219228979492186,-0.8625954198473282,0.6259541984732825,-1.251908396946565
3817446773958,7.984788434,1,0.239420166015625,1.7202338928222656,-11.171344946289063,-0.8244274809160306,0.6106870229007634,-1.2900763358778626
3817456774010,7.994788486,1,0.23223756103515625,1.725022296142578,-11.18571015625,-0.8625954198473282,0.5725190839694656,-1.3129770992366412
3817466774167,8.004788643,1,0.229843359375,1.7178396911621092,-11.21084927368164,-0.8473282442748091,0.5877862595419847,-1.3206106870229009
3817476773906,8.014788382,1,0.22505495605468748,1.734599102783203,-11.152191333007812,-0.8320610687022901,0.5190839694656488,-1.3129770992366412
3817486773021,8.024787497,1,0.25258827514648435,1.7202338928222656,-11.195286962890624,-0.8625954198473282,0.5877862595419847,-1.3435114503816794
3817496773281,8.034787757,1,0.24061726684570311,1.7226280944824217,-11.235988391113281,-0.8702290076335878,0.5648854961832062,-1.3282442748091603
3817506772865,8.044787341,1,0.2346317626953125,1.7190367919921874,-11.18571015625,-0.8473282442748091,0.5877862595419847,-1.366412213740458
3817516773802,8.054788278,1,0.22744915771484372,1.7166425903320313,-11.17254204711914,-0.8244274809160306,0.5877862595419847,-1.2900763358778626
3817526787135,8.064801611,1,0.21308394775390624,1.7226280944824217,-11.17254204711914,-0.7938931297709924,0.6412213740458015,-1.3740458015267176
3817536772865,8.074787341,1,0.23343466186523437,1.7286135986328124,-11.227608685302734,-0.7557251908396947,0.648854961832061,-1.3206106870229009
3817546783021,8.084797497,1,0.24779987182617186,1.7310078002929687,-11.197681164550781,-0.816793893129771,0.6183206106870229,-1.2900763358778626
3817556775990,8.094790466,1,0.22385785522460935,1.725022296142578,-11.173739147949219,-0.8244274809160306,0.549618320610687,-1.3282442748091603
3817566769896,8.104784372,1,0.2262520568847656,1.705868682861328,-11.2240173828125,-0.8396946564885496,0.5801526717557252,-1.297709923664122
3817576774375,8.114788851,1,0.2549824768066406,1.725022296142578,-11.192892761230468,-0.816793893129771,0.5725190839694656,-1.297709923664122
3817586773385,8.124787861,1,0.239420166015625,1.7453730102539062,-11.166556542968749,-0.8320610687022901,0.6335877862595419,-1.3511450381679388
3817596773854,8.13478833,1,0.1975216369628906,1.7286135986328124,-11.21084927368164,-0.816793893129771,0.5725190839694656,-1.3129770992366412
3817606774635,8.144789111,1,0.2454056701660156,1.7381904052734374,-11.17852755126953,-0.8320610687022901,0.5648854961832062,-1.297709923664122
3817616769167,8.154783643,1,0.21906945190429686,1.6819266662597656,-11.141417425537108,-0.8244274809160306,0.5954198473282443,-1.2900763358778626
3817626812135,8.164826611,1,0.22505495605468748,1.715445489501953,-11.189301458740234,-0.8396946564885496,0.5725190839694656,-1.3282442748091603
3817636774271,8.174788747,1,0.2214636535644531,1.7262193969726563,-11.152191333007812,-0.8931297709923665,0.5572519083969466,-1.3358778625954197
3817646774167,8.184788643,1,0.22744915771484372,1.7405846069335937,-11.196484063720703,-0.8854961832061069,0.5954198473282443,-1.3282442748091603
3817656773490,8.194787966,1,0.2537853759765625,1.7357962036132812,-11.201272467041015,-0.8396946564885496,0.6030534351145038,-1.3053435114503817
3817666773958,8.204788434,1,0.23822306518554687,1.7322049011230467,-11.194089862060546,-0.9312977099236641,0.6030534351145038,-1.3206106870229009
3817676774635,8.214789111,1,0.22385785522460935,1.7226280944824217,-11.215637677001952,-0.9007633587786259,0.5343511450381679,-1.2748091603053435
3817686773490,8.224787966,1,0.2059013427734375,1.734599102783203,-11.190498559570312,-0.8931297709923665,0.5877862595419847,-1.3129770992366412
3817696774219,8.234788695,1,0.2059013427734375,1.6986860778808592,-11.165359442138671,-0.8625954198473282,0.549618320610687,-1.3129770992366412
3817706774740,8.244789216,1,0.229843359375,1.7322049011230467,-11.177330450439452,-0.8854961832061069,0.549618320610687,-1.297709923664122
3817716774479,8.254788955,1,0.2214636535644531,1.6998831787109374,-11.222820281982422,-0.816793893129771,0.5114503816793893,-1.3053435114503817
3817726806875,8.264821351,1,0.2166752502441406,1.7417817077636717,-11.219228979492186,-0.8320610687022901,0.5572519083969466,-1.297709923664122
3817736773490,8.274787966,1,0.2214636535644531,1.7106570861816406,-11.182118853759764,-0.8015267175572519,0.6030534351145038,-1.366412213740458
3817746773698,8.284788174,1,0.1975216369628906,1.7178396911621092,-11.239579693603515,-0.8549618320610687,0.5801526717557252,-1.282442748091603
3817756773229,8.294787705,1,0.229843359375,1.715445489501953,-11.135431921386719,-0.8244274809160306,0.5648854961832062,-1.2671755725190839
3817766773958,8.304788434,1,0.22026655273437498,1.7130512878417967,-11.19169566040039,-0.8244274809160306,0.6106870229007634,-1.297709923664122
3817776774792,8.314789268,1,0.20829554443359374,1.7310078002929687,-11.159373937988281,-0.8778625954198473,0.6335877862595419,-1.3511450381679388
3817786774271,8.324788747,1,0.23223756103515625,1.7310078002929687,-11.176133349609374,-0.9236641221374046,0.5725190839694656,-1.282442748091603
3817796773594,8.33478807,1,0.23702596435546874,1.7166425903320313,-11.19169566040039,-0.7786259541984732,0.5038167938931297,-1.2671755725190839
3817806773073,8.344787549,1,0.23223756103515625,1.7549498168945312,-11.179724652099608,-0.8320610687022901,0.5190839694656488,-1.3206106870229009
