timestamp_ns,t_s,sensor_id,ax,ay,az
3560124884890,0.057780781,1,0.23582886352539062,1.7429788085937499,-11.203666668701171
3560127691713,0.060587604,1,0.23582886352539062,1.7322049011230467,-11.184513055419922
3560130545723,0.063441614,1,0.229843359375,1.7322049011230467,-11.192892761230468
3560133405515,0.066301406,1,0.20709844360351562,1.7501614135742187,-11.208455072021483
3560136259890,0.069155781,1,0.2346317626953125,1.734599102783203,-11.208455072021483
3560139114734,0.072010625,1,0.21068974609375,1.7286135986328124,-11.206060870361327
3560141970411,0.074866302,1,0.21906945190429686,1.7178396911621092,-11.192892761230468
3560144831244,0.077727135,1,0.229843359375,1.725022296142578,-11.18571015625
3560147685046,0.080580937,1,0.23582886352539062,1.707065783691406,-11.182118853759764
3560150542286,0.083438177,1,0.22026655273437498,1.70467158203125,-11.195286962890624
3560153401296,0.086297187,1,0.2154781494140625,1.7166425903320313,-11.152191333007812
3560156257911,0.089153802,1,0.23343466186523437,1.7094599853515624,-11.164162341308593
3560159112546,0.092008437,1,0.23702596435546874,1.725022296142578,-11.196484063720703
3560161970150,0.094866041,1,0.22864625854492185,1.7130512878417967,-11.17254204711914
3560164829109,0.097725,1,0.229843359375,1.7178396911621092,-11.17254204711914
3560167685046,0.100580937,1,0.23104046020507812,1.7262193969726563,-11.183315954589844
3560170699994,0.103595885,1,0.229843359375,1.7214309936523438,-11.184513055419922
3560173450307,0.106346198,1,0.23822306518554687,1.7525556152343749,-11.156979736328124
3560176275202,0.109171093,1,0.23343466186523437,1.7298106994628906,-11.183315954589844
3560179159213,0.112055104,1,0.2501940734863281,1.7262193969726563,-11.177330450439452
3560181974734,0.114870625,1,0.2454056701660156,1.7274164978027342,-11.176133349609374
3560184826348,0.117722239,1,0.2454056701660156,1.7166425903320313,-11.165359442138671
3560187682859,0.12057875,1,0.2454056701660156,1.7357962036132812,-11.17852755126953
3560190539942,0.123435833,1,0.23343466186523437,1.7357962036132812,-11.156979736328124
3560193397182,0.126293073,1,0.23582886352539062,1.7381904052734374,-11.200075366210937
3560196254004,0.129149895,1,0.23343466186523437,1.7238251953125,-11.208455072021483
3560199110827,0.132006718,1,0.2154781494140625,1.7369933044433592,-11.208455072021483
3560201971192,0.134867083,1,0.22026655273437498,1.7226280944824217,-11.226411584472656
3560204828640,0.137724531,1,0.239420166015625,1.7190367919921874,-11.214440576171874
3560207684838,0.140580729,1,0.2501940734863281,1.7298106994628906,-11.177330450439452
3560210542494,0.143438385,1,0.24899697265624998,1.7082628845214842,-11.179724652099608
3560213401869,0.14629776,1,0.22744915771484372,1.7130512878417967,-11.176133349609374
3560216259317,0.149155208,1,0.20829554443359374,1.7214309936523438,-11.222820281982422
3560219113067,0.152008958,1,0.2154781494140625,1.7226280944824217,-11.21683477783203
3560221970827,0.154866718,1,0.2166752502441406,1.7369933044433592,-11.221623181152344
3560224829004,0.157724895,1,0.20949264526367187,1.7489643127441405,-11.189301458740234
3560227684369,0.16058026,1,0.22744915771484372,1.7310078002929687,-11.196484063720703
3560230541869,0.16343776,1,0.2262520568847656,1.725022296142578,-11.222820281982422
3560233401661,0.166297552,1,0.22026655273437498,1.7214309936523438,-11.219228979492186
3560236258275,0.169154166,1,0.21428104858398436,1.7190367919921874,-11.19169566040039
3560239113484,0.172009375,1,0.22026655273437498,1.7238251953125,-11.170147845458983
3560241970463,0.174866354,1,0.21308394775390624,1.7393875061035156,-11.15338843383789
3560244829317,0.177725208,1,0.2059013427734375,1.7525556152343749,-11.146205828857422
3560247685567,0.180581458,1,0.2059013427734375,1.7561469177246092,-11.162965240478515
3560250541661,0.183437552,1,0.22505495605468748,1.753752716064453,-11.15338843383789
3560253399213,0.186295104,1,0.22744915771484372,1.753752716064453,-11.189301458740234
3560256258952,0.189154843,1,0.22864625854492185,1.7453730102539062,-11.192892761230468
3560259113275,0.192009166,1,0.2442085693359375,1.7501614135742187,-11.192892761230468
3560261970723,0.194866614,1,0.24899697265624998,1.7561469177246092,-11.186907257080078
3560264829577,0.197725468,1,0.24899697265624998,1.7429788085937499,-11.184513055419922
3560267684473,0.200580364,1,0.22864625854492185,1.7417817077636717,-11.201272467041015
3560270541921,0.203437812,1,0.22505495605468748,1.7381904052734374,-11.186907257080078
3560273401192,0.206297083,1,0.23582886352539062,1.7274164978027342,-11.180921752929686
3560276257754,0.209153645,1,0.22385785522460935,1.7166425903320313,-11.166556542968749
3560279113171,0.212009062,1,0.21906945190429686,1.7393875061035156,-11.173739147949219
3560281970254,0.214866145,1,0.23104046020507812,1.7465701110839842,-11.158176837158203
3560284828067,0.217723958,1,0.22266075439453123,1.7501614135742187,-11.173739147949219
3560287684629,0.22058052,1,0.22266075439453123,1.734599102783203,-11.194089862060546
3560290542077,0.223437968,1,0.19991583862304688,1.7082628845214842,-11.190498559570312
3560293400984,0.226296875,1,0.2262520568847656,1.696291876220703,-11.166556542968749
3560296259525,0.229155416,1,0.24779987182617186,1.7262193969726563,-11.143811627197264
3560299113223,0.232009114,1,0.2442085693359375,1.725022296142578,-11.174936248779296
3560301970046,0.234865937,1,0.239420166015625,1.7178396911621092,-11.192892761230468
3560304830931,0.237726822,1,0.24660277099609373,1.714248388671875,-11.165359442138671
3560307684681,0.240580572,1,0.24660277099609373,1.7106570861816406,-11.173739147949219
3560310542234,0.243438125,1,0.24301146850585936,1.7118541870117185,-11.173739147949219
3560313401192,0.246297083,1,0.23223756103515625,1.7286135986328124,-11.167753643798827
3560316258379,0.24915427,1,0.22864625854492185,1.7286135986328124,-11.170147845458983
3560319112806,0.252008697,1,0.2214636535644531,1.7334020019531249,-11.177330450439452
3560321970411,0.254866302,1,0.239420166015625,1.7477672119140624,-11.177330450439452
3560324829525,0.257725416,1,0.229843359375,1.7417817077636717,-11.179724652099608
3560327684161,0.260580052,1,0.24660277099609373,1.7322049011230467,-11.213243475341796
3560330541765,0.263437656,1,0.22864625854492185,1.7334020019531249,-11.214440576171874
3560333401088,0.266296979,1,0.2262520568847656,1.7429788085937499,-11.188104357910156
3560336257963,0.269153854,1,0.20470424194335937,1.7477672119140624,-11.202469567871093
3560339113640,0.272009531,1,0.21787235107421873,1.7166425903320313,-11.202469567871093
3560341971296,0.274867187,1,0.201112939453125,1.7010802795410156,-11.203666668701171
3560344829838,0.277725729,1,0.20829554443359374,1.7274164978027342,-11.167753643798827
3560347684681,0.280580572,1,0.23223756103515625,1.7334020019531249,-11.173739147949219
3560350541661,0.283437552,1,0.23104046020507812,1.7381904052734374,-11.167753643798827
3560353400931,0.286296822,1,0.21787235107421873,1.7322049011230467,-11.180921752929686
3560356258015,0.289153906,1,0.19153613281249998,1.7238251953125,-11.168950744628905
3560359112963,0.292008854,1,0.21308394775390624,1.7465701110839842,-11.19887826538086
3560361970202,0.294866093,1,0.2454056701660156,1.7274164978027342,-11.200075366210937
3560364829265,0.297725156,1,0.239420166015625,1.6998831787109374,-11.214440576171874
3560367684473,0.300580364,1,0.22864625854492185,1.7130512878417967,-11.204863769531249
3560370541713,0.303437604,1,0.22864625854492185,1.707065783691406,-11.19169566040039
3560373401244,0.306297135,1,0.23223756103515625,1.7166425903320313,-11.161768139648437
3560376258900,0.309154791,1,0.23104046020507812,1.7166425903320313,-11.1474029296875
3560379112181,0.312008072,1,0.229843359375,1.7357962036132812,-11.176133349609374
3560381969786,0.314865677,1,0.2214636535644531,1.7178396911621092,-11.176133349609374
3560384829525,0.317725416,1,0.24181436767578124,1.7274164978027342,-11.177330450439452
3560387684525,0.320580416,1,0.239420166015625,1.7381904052734374,-11.183315954589844
3560390541244,0.323437135,1,0.229843359375,1.7357962036132812,-11.167753643798827
3560393408484,0.326304375,1,0.24779987182617186,1.7405846069335937,-11.196484063720703
3560396260931,0.329156822,1,0.2454056701660156,1.7322049011230467,-11.188104357910156
3560399113119,0.33200901,1,0.2561795776367187,1.7190367919921874,-11.173739147949219
3560401969629,0.33486552,1,0.24899697265624998,1.7274164978027342,-11.194089862060546
3560404829109,0.337725,1,0.21068974609375,1.7166425903320313,-11.158176837158203
3560407684994,0.340580885,1,0.21428104858398436,1.7238251953125,-11.149797131347656
3560410541296,0.343437187,1,0.2059013427734375,1.7310078002929687,-11.155782635498046
3560413398431,0.346294322,1,0.22026655273437498,1.7310078002929687,-11.17852755126953
3560416258952,0.349154843,1,0.23343466186523437,1.7298106994628906,-11.17254204711914
3560419111713,0.352007604,1,0.23582886352539062,1.7298106994628906,-11.189301458740234
3560421970098,0.354865989,1,0.23822306518554687,1.7118541870117185,-11.189301458740234
3560424829317,0.357725208,1,0.21308394775390624,1.7202338928222656,-11.190498559570312
3560427683431,0.360579322,1,0.23582886352539062,1.7357962036132812,-11.177330450439452
3560430542129,0.36343802,1,0.23582886352539062,1.7393875061035156,-11.19887826538086
3560433400306,0.366296197,1,0.2059013427734375,1.7369933044433592,-11.197681164550781
3560436257806,0.369153697,1,0.19393033447265623,1.7369933044433592,-11.188104357910156
3560439113327,0.372009218,1,0.22266075439453123,1.7393875061035156,-11.168950744628905
3560441970150,0.374866041,1,0.23223756103515625,1.7393875061035156,-11.154585534667968
3560444829213,0.377725104,1,0.201112939453125,1.7585411193847655,-11.154585534667968
3560447684265,0.380580156,1,0.18914193115234373,1.7417817077636717,-11.1474029296875
3560450541921,0.383437812,1,0.2262520568847656,1.7465701110839842,-11.196484063720703
3560453401140,0.386297031,1,0.25258827514648435,1.7429788085937499,-11.196484063720703
3560456258536,0.389154427,1,0.258573779296875,1.7262193969726563,-11.215637677001952
3560459113275,0.392009166,1,0.2442085693359375,1.7286135986328124,-11.186907257080078
3560461970306,0.394866197,1,0.2262520568847656,1.7262193969726563,-11.179724652099608
3560464829942,0.397725833,1,0.23343466186523437,1.7262193969726563,-11.192892761230468
3560467683796,0.400579687,1,0.24181436767578124,1.7417817077636717,-11.192892761230468
3560470542338,0.403438229,1,0.24899697265624998,1.7429788085937499,-11.155782635498046
3560473400931,0.406296822,1,0.25139117431640623,1.7453730102539062,-11.154585534667968
3560476258327,0.409154218,1,0.2537853759765625,1.7513585144042967,-11.200075366210937
3560479112338,0.412008229,1,0.24061726684570311,1.7453730102539062,-11.203666668701171
3560481969473,0.414865364,1,0.23223756103515625,1.7238251953125,-11.201272467041015
3560484829473,0.417725364,1,0.21906945190429686,1.7393875061035156,-11.208455072021483
3560487684890,0.420580781,1,0.23702596435546874,1.7561469177246092,-11.201272467041015
3560490542338,0.423438229,1,0.24301146850585936,1.7465701110839842,-11.174936248779296
3560493400723,0.426296614,1,0.24301146850585936,1.7417817077636717,-11.177330450439452
3560496258327,0.429154218,1,0.22505495605468748,1.7286135986328124,-11.17254204711914
3560499112806,0.432008697,1,0.22385785522460935,1.7286135986328124,-11.189301458740234
3560501969681,0.434865572,1,0.23343466186523437,1.734599102783203,-11.195286962890624
3560504829317,0.437725208,1,0.21188684692382811,1.7226280944824217,-11.195286962890624
3560507683900,0.440579791,1,0.19991583862304688,1.7226280944824217,-11.207257971191405
3560510542702,0.443438593,1,0.229843359375,1.7178396911621092,-11.222820281982422
3560513401817,0.446297708,1,0.2346317626953125,1.7178396911621092,-11.221623181152344
3560516257181,0.449153072,1,0.22385785522460935,1.7130512878417967,-11.188104357910156
3560519112546,0.452008437,1,0.239420166015625,1.7322049011230467,-11.208455072021483
3560521969525,0.454865416,1,0.2346317626953125,1.7286135986328124,-11.167753643798827
3560524829004,0.457724895,1,0.23104046020507812,1.7453730102539062,-11.152191333007812
3560527684004,0.460579895,1,0.2346317626953125,1.7190367919921874,-11.17254204711914
3560530541973,0.463437864,1,0.2166752502441406,1.7381904052734374,-11.180921752929686
3560533400827,0.466296718,1,0.22744915771484372,1.7525556152343749,-11.207257971191405
3560536258379,0.46915427,1,0.22505495605468748,1.7561469177246092,-11.194089862060546
3560539112286,0.472008177,1,0.22864625854492185,1.7621324218749999,-11.222820281982422
3560541969525,0.474865416,1,0.21428104858398436,1.7369933044433592,-11.196484063720703
3560544829161,0.477725052,1,0.23343466186523437,1.7489643127441405,-11.200075366210937
3560547684161,0.480580052,1,0.23223756103515625,1.7453730102539062,-11.204863769531249
3560550542702,0.483438593,1,0.2346317626953125,1.7262193969726563,-11.197681164550781
3560553401244,0.486297135,1,0.2346317626953125,1.744175909423828,-11.162965240478515
3560556257338,0.489153229,1,0.22744915771484372,1.7429788085937499,-11.196484063720703
3560559112390,0.492008281,1,0.21787235107421873,1.7429788085937499,-11.200075366210937
3560561969733,0.494865624,1,0.21188684692382811,1.7226280944824217,-11.208455072021483
3560564828119,0.49772401,1,0.22266075439453123,1.7130512878417967,-11.328165155029296
3560567684629,0.50058052,1,0.20231004028320312,1.7274164978027342,-11.174936248779296
3560570541400,0.503437291,1,0.20231004028320312,1.7357962036132812,-11.170147845458983
3560573400671,0.506296562,1,0.20350714111328125,1.7298106994628906,-11.148600030517578
3560576257494,0.509153385,1,0.22505495605468748,1.7202338928222656,-11.167753643798827
3560579112858,0.512008749,1,0.21428104858398436,1.734599102783203,-11.235988391113281
3560581969890,0.514865781,1,0.21787235107421873,1.725022296142578,-11.243170996093749
3560584828848,0.517724739,1,0.22026655273437498,1.7274164978027342,-11.214440576171874
3560587683431,0.520579322,1,0.2166752502441406,1.7274164978027342,-11.197681164550781
3560590541088,0.523436979,1,0.20829554443359374,1.7405846069335937,-11.189301458740234
3560593401140,0.526297031,1,0.239420166015625,1.7381904052734374,-11.18571015625
3560596257650,0.529153541,1,0.2166752502441406,1.7453730102539062,-11.196484063720703
3560599113015,0.532008906,1,0.20709844360351562,1.7621324218749999,-11.192892761230468
3560601970046,0.534865937,1,0.20949264526367187,1.7513585144042967,-11.162965240478515
3560604829577,0.537725468,1,0.22026655273437498,1.744175909423828,-11.164162341308593
3560607683483,0.540579374,1,0.229843359375,1.7262193969726563,-11.174936248779296
3560610541973,0.543437864,1,0.20949264526367187,1.7226280944824217,-11.174936248779296
3560613400775,0.546296666,1,0.22385785522460935,1.7202338928222656,-11.19887826538086
3560616257911,0.549153802,1,0.22385785522460935,1.7214309936523438,-11.190498559570312
3560619113796,0.552009687,1,0.22744915771484372,1.715445489501953,-11.189301458740234
3560621969629,0.55486552,1,0.23343466186523437,1.715445489501953,-11.17852755126953
3560624829265,0.557725156,1,0.24899697265624998,1.7501614135742187,-11.162965240478515
3560627684056,0.560579947,1,0.24779987182617186,1.7669208251953124,-11.162965240478515
3560630541348,0.563437239,1,0.23223756103515625,1.7465701110839842,-11.168950744628905
3560633400671,0.566296562,1,0.23343466186523437,1.7465701110839842,-11.208455072021483
3560636257754,0.569153645,1,0.23223756103515625,1.7429788085937499,-11.201272467041015
3560639112025,0.572007916,1,0.20949264526367187,1.734599102783203,-11.192892761230468
3560641969733,0.574865624,1,0.19991583862304688,1.715445489501953,-11.212046374511718
3560644828796,0.577724687,1,0.21906945190429686,1.725022296142578,-11.200075366210937
3560647683952,0.580579843,1,0.23582886352539062,1.7465701110839842,-11.21084927368164
3560650540567,0.583436458,1,0.229843359375,1.7429788085937499,-11.207257971191405
3560653400879,0.58629677,1,0.23582886352539062,1.7489643127441405,-11.19887826538086
3560656257442,0.589153333,1,0.23702596435546874,1.7310078002929687,-11.203666668701171
3560659112910,0.592008801,1,0.24660277099609373,1.7226280944824217,-11.194089862060546
3560661969942,0.594865833,1,0.229843359375,1.7298106994628906,-11.176133349609374
3560664835567,0.597731458,1,0.22026655273437498,1.7286135986328124,-11.192892761230468
3560667685619,0.60058151,1,0.21428104858398436,1.7166425903320313,-11.166556542968749
3560670552650,0.603448541,1,0.22864625854492185,1.744175909423828,-11.155782635498046
3560673408223,0.606304114,1,0.229843359375,1.7465701110839842,-11.174936248779296
3560676257702,0.609153593,1,0.229843359375,1.7393875061035156,-11.189301458740234
3560679112233,0.612008124,1,0.22744915771484372,1.7298106994628906,-11.208455072021483
3560681970046,0.614865937,1,0.23582886352539062,1.7298106994628906,-11.206060870361327
3560684828848,0.617724739,1,0.25737667846679685,1.7429788085937499,-11.243170996093749
3560687684473,0.620580364,1,0.2609679809570312,1.7429788085937499,-11.212046374511718
3560690542963,0.623438854,1,0.23582886352539062,1.7465701110839842,-11.212046374511718
3560693400827,0.626296718,1,0.239420166015625,1.7274164978027342,-11.19169566040039
3560696258952,0.629154843,1,0.2262520568847656,1.7381904052734374,-11.18571015625
3560699112858,0.632008749,1,0.22864625854492185,1.7238251953125,-11.21084927368164
3560701969785,0.634865676,1,0.22026655273437498,1.7357962036132812,-11.19169566040039
3560704828588,0.637724479,1,0.2166752502441406,1.7274164978027342,-11.209652172851563
3560707683848,0.640579739,1,0.20709844360351562,1.7226280944824217,-11.179724652099608
3560710542025,0.643437916,1,0.22026655273437498,1.7381904052734374,-11.188104357910156
3560713400879,0.64629677,1,0.21787235107421873,1.7118541870117185,-11.231199987792968
3560716259004,0.649154895,1,0.2214636535644531,1.7178396911621092,-11.195286962890624
3560719113171,0.652009062,1,0.22385785522460935,1.7405846069335937,-11.161768139648437
3560721969473,0.654865364,1,0.2214636535644531,1.7417817077636717,-11.188104357910156
3560724828900,0.657724791,1,0.21787235107421873,1.7178396911621092,-11.183315954589844
3560727684785,0.660580676,1,0.2214636535644531,1.7262193969726563,-11.177330450439452
3560730541608,0.663437499,1,0.2214636535644531,1.7238251953125,-11.201272467041015
3560733400150,0.666296041,1,0.23582886352539062,1.725022296142578,-11.19887826538086
3560736257338,0.669153229,1,0.23702596435546874,1.7369933044433592,-11.174936248779296
3560739112546,0.672008437,1,0.23702596435546874,1.7405846069335937,-11.21084927368164
3560741969265,0.674865156,1,0.23223756103515625,1.7513585144042967,-11.203666668701171
3560744828744,0.677724635,1,0.22864625854492185,1.7513585144042967,-11.19169566040039
3560747684577,0.680580468,1,0.23223756103515625,1.7429788085937499,-11.32577095336914
3560750542442,0.683438333,1,0.229843359375,1.7405846069335937,-11.17254204711914
3560753400046,0.686295937,1,0.23104046020507812,1.7357962036132812,-11.162965240478515
3560756257910,0.689153801,1,0.23822306518554687,1.7393875061035156,-11.222820281982422
3560759112858,0.692008749,1,0.24061726684570311,1.7465701110839842,-11.209652172851563
3560761969733,0.694865624,1,0.25258827514648435,1.7525556152343749,-11.17254204711914
3560764827338,0.697723229,1,0.26336218261718747,1.7298106994628906,-11.182118853759764
3560767684317,0.700580208,1,0.239420166015625,1.7226280944824217,-11.203666668701171
3560770541765,0.703437656,1,0.21308394775390624,1.7369933044433592,-11.177330450439452
3560773400358,0.706296249,1,0.24899697265624998,1.7226280944824217,-11.168950744628905
3560776256973,0.709152864,1,0.25737667846679685,1.7094599853515624,-11.167753643798827
3560779112910,0.712008801,1,0.2346317626953125,1.7310078002929687,-11.194089862060546
3560781969785,0.714865676,1,0.23223756103515625,1.7429788085937499,-11.19887826538086
3560784829421,0.717725312,1,0.23582886352539062,1.7262193969726563,-11.201272467041015
3560787683640,0.720579531,1,0.24181436767578124,1.7369933044433592,-11.156979736328124
3560790541556,0.723437447,1,0.2657563842773437,1.714248388671875,-11.167753643798827
3560793400202,0.726296093,1,0.239420166015625,1.7094599853515624,-11.165359442138671
3560796257702,0.729153593,1,0.22266075439453123,1.7310078002929687,-11.150994232177734
3560799112546,0.732008437,1,0.22266075439453123,1.7501614135742187,-11.146205828857422
3560801969785,0.734865676,1,0.22744915771484372,1.7369933044433592,-11.17254204711914
3560804829421,0.737725312,1,0.23702596435546874,1.7369933044433592,-11.171344946289063
3560807683744,0.740579635,1,0.23343466186523437,1.7501614135742187,-11.18571015625
3560810541608,0.743437499,1,0.21906945190429686,1.7334020019531249,-11.037269653320312
3560813401765,0.746297656,1,0.20829554443359374,1.7274164978027342,-11.190498559570312
3560816257650,0.749153541,1,0.21428104858398436,1.7202338928222656,-11.206060870361327
3560819112702,0.752008593,1,0.20829554443359374,1.7034744812011717,-11.220426080322264
3560821970254,0.754866145,1,0.21068974609375,1.7262193969726563,-11.235988391113281
3560824829317,0.757725208,1,0.2346317626953125,1.744175909423828,-11.208455072021483
3560827683900,0.760579791,1,0.19991583862304688,1.744175909423828,-11.17852755126953
3560830541088,0.763436979,1,0.2214636535644531,1.7322049011230467,-11.156979736328124
3560833400358,0.766296249,1,0.24899697265624998,1.7262193969726563,-11.154585534667968
3560836257025,0.769152916,1,0.2501940734863281,1.7274164978027342,-11.184513055419922
3560839112598,0.772008489,1,0.23582886352539062,1.7118541870117185,-11.202469567871093
3560841969265,0.774865156,1,0.2059013427734375,1.7190367919921874,-11.206060870361327
3560844829108,0.777724999,1,0.21906945190429686,1.7357962036132812,-11.190498559570312
3560847683900,0.780579791,1,0.2262520568847656,1.7274164978027342,-11.207257971191405
3560850541556,0.783437447,1,0.2346317626953125,1.7274164978027342,-11.184513055419922
3560853400306,0.786296197,1,0.23702596435546874,1.7094599853515624,-11.189301458740234
3560856258327,0.789154218,1,0.2346317626953125,1.707065783691406,-11.176133349609374
3560859112390,0.792008281,1,0.2442085693359375,1.7214309936523438,-11.21084927368164
3560861970306,0.794866197,1,0.2442085693359375,1.7357962036132812,-11.218031878662108
3560864829108,0.797724999,1,0.2346317626953125,1.7298106994628906,-11.19887826538086
3560867683327,0.800579218,1,0.21787235107421873,1.7298106994628906,-11.168950744628905
3560870541504,0.803437395,1,0.2262520568847656,1.7357962036132812,-11.173739147949219
3560873399681,0.806295572,1,0.23343466186523437,1.7274164978027342,-11.173739147949219
3560876258327,0.809154218,1,0.2154781494140625,1.7106570861816406,-11.196484063720703
3560879113535,0.812009426,1,0.2262520568847656,1.7238251953125,-11.183315954589844
3560881969577,0.814865468,1,0.239420166015625,1.7214309936523438,-11.149797131347656
3560884829317,0.817725208,1,0.22266075439453123,1.725022296142578,-11.162965240478515
3560887684577,0.820580468,1,0.2262520568847656,1.7178396911621092,-11.19169566040039
3560890541921,0.823437812,1,0.22385785522460935,1.7477672119140624,-11.221623181152344
3560893401348,0.826297239,1,0.23104046020507812,1.7286135986328124,-11.23718549194336
3560896257650,0.829153541,1,0.22744915771484372,1.7489643127441405,-11.209652172851563
3560899112650,0.832008541,1,0.22266075439453123,1.7609353210449217,-11.197681164550781
3560901969421,0.834865312,1,0.22026655273437498,1.753752716064453,-11.192892761230468
3560904828640,0.837724531,1,0.22864625854492185,1.7465701110839842,-11.186907257080078
3560907684473,0.840580364,1,0.25139117431640623,1.7417817077636717,-11.158176837158203
3560910540567,0.843436458,1,0.2813186950683594,1.7178396911621092,-11.188104357910156
3560913400775,0.846296666,1,0.2561795776367187,1.7274164978027342,-11.18571015625
3560916257494,0.849153385,1,0.25139117431640623,1.7238251953125,-11.192892761230468
3560919112546,0.852008437,1,0.22266075439453123,1.7393875061035156,-11.177330450439452
3560921970410,0.854866301,1,0.22266075439453123,1.744175909423828,-11.183315954589844
3560924829160,0.857725051,1,0.23822306518554687,1.7334020019531249,-11.189301458740234
3560927684733,0.860580624,1,0.22744915771484372,1.7202338928222656,-11.195286962890624
3560930541035,0.863436926,1,0.22744915771484372,1.7202338928222656,-11.186907257080078
3560933405410,0.866301301,1,0.22744915771484372,1.7274164978027342,-11.195286962890624
3560936257390,0.869153281,1,0.2262520568847656,1.7357962036132812,-11.195286962890624
3560939113587,0.872009478,1,0.2214636535644531,1.7573440185546874,-11.2240173828125
3560941969265,0.874865156,1,0.22744915771484372,1.7381904052734374,-11.220426080322264
3560944829733,0.877725624,1,0.2154781494140625,1.7381904052734374,-11.197681164550781
3560947684890,0.880580781,1,0.21787235107421873,1.7274164978027342,-11.19169566040039
3560950541296,0.883437187,1,0.23223756103515625,1.7286135986328124,-11.190498559570312
3560953400723,0.886296614,1,0.2561795776367187,1.7094599853515624,-11.182118853759764
3560956257806,0.889153697,1,0.23822306518554687,1.7298106994628906,-11.19169566040039
3560959112702,0.892008593,1,0.23822306518554687,1.7322049011230467,-11.200075366210937
3560961969837,0.894865728,1,0.24181436767578124,1.7429788085937499,-11.176133349609374
3560964829265,0.897725156,1,0.23822306518554687,1.7238251953125,-11.177330450439452
3560967684108,0.900579999,1,0.24899697265624998,1.7334020019531249,-11.183315954589844
3560970541608,0.903437499,1,0.22026655273437498,1.7357962036132812,-11.222820281982422
3560973400515,0.906296406,1,0.22385785522460935,1.734599102783203,-11.19169566040039
3560976257702,0.909153593,1,0.22026655273437498,1.7393875061035156,-11.214440576171874
3560979112806,0.912008697,1,0.20949264526367187,1.7549498168945312,-11.213243475341796
3560981970046,0.914865937,1,0.20829554443359374,1.7369933044433592,-11.19887826538086
3560984828483,0.917724374,1,0.20829554443359374,1.744175909423828,-11.209652172851563
3560987681087,0.920576978,1,0.21428104858398436,1.7322049011230467,-11.189301458740234
3560990542494,0.923438385,1,0.22266075439453123,1.7322049011230467,-11.214440576171874
3560993400098,0.926295989,1,0.23104046020507812,1.7501614135742187,-11.320982550048827
3560996257910,0.929153801,1,0.23582886352539062,1.7525556152343749,-11.167753643798827
3560999111556,0.932007447,1,0.23822306518554687,1.7190367919921874,-11.177330450439452
3561001969160,0.934865051,1,0.2154781494140625,1.7262193969726563,-11.213243475341796
3561004828640,0.937724531,1,0.20709844360351562,1.734599102783203,-11.213243475341796
3561007684369,0.94058026,1,0.21308394775390624,1.7357962036132812,-11.194089862060546
3561010541400,0.943437291,1,0.22505495605468748,1.7286135986328124,-11.201272467041015
3561013400931,0.946296822,1,0.24301146850585936,1.7322049011230467,-11.202469567871093
3561016258171,0.949154062,1,0.2154781494140625,1.7262193969726563,-11.183315954589844
3561019113223,0.952009114,1,0.229843359375,1.7357962036132812,-11.226411584472656
3561021970150,0.954866041,1,0.2346317626953125,1.7334020019531249,-11.182118853759764
3561024829160,0.957725051,1,0.21906945190429686,1.7310078002929687,-11.166556542968749
3561027684421,0.960580312,1,0.2346317626953125,1.7166425903320313,-11.161768139648437
3561030541765,0.963437656,1,0.23822306518554687,1.7166425903320313,-11.189301458740234
3561033399785,0.966295676,1,0.25139117431640623,1.7130512878417967,-11.192892761230468
3561036257442,0.969153333,1,0.2501940734863281,1.7357962036132812,-11.165359442138671
3561039112806,0.972008697,1,0.22026655273437498,1.7274164978027342,-11.166556542968749
3561041969629,0.97486552,1,0.20829554443359374,1.7357962036132812,-11.194089862060546
3561044827858,0.977723749,1,0.20829554443359374,1.734599102783203,-11.214440576171874
3561047684890,0.980580781,1,0.21428104858398436,1.7501614135742187,-11.201272467041015
3561050541035,0.983436926,1,0.21188684692382811,1.7501614135742187,-11.180921752929686
3561053400202,0.986296093,1,0.22266075439453123,1.7381904052734374,-11.170147845458983
3561056257598,0.989153489,1,0.2501940734863281,1.7381904052734374,-11.150994232177734
3561059113067,0.992008958,1,0.24061726684570311,1.7381904052734374,-11.150994232177734
3561061970046,0.994865937,1,0.23702596435546874,1.714248388671875,-11.1474029296875
3561064828952,0.997724843,1,0.2214636535644531,1.725022296142578,-11.188104357910156
3561067683692,1.000579583,1,0.229843359375,1.7393875061035156,-11.212046374511718
3561070541192,1.003437083,1,0.24779987182617186,1.7094599853515624,-11.197681164550781
3561073399889,1.00629578,1,0.24660277099609373,1.714248388671875,-11.204863769531249
3561076256087,1.009151978,1,0.23343466186523437,1.7310078002929687,-11.189301458740234
3561079113327,1.012009218,1,0.201112939453125,1.7286135986328124,-11.182118853759764
3561081970046,1.014865937,1,0.201112939453125,1.725022296142578,-11.209652172851563
3561084828796,1.017724687,1,0.22026655273437498,1.7357962036132812,-11.240776794433593
3561087684421,1.020580312,1,0.2154781494140625,1.7310078002929687,-11.214440576171874
3561090542025,1.023437916,1,0.20709844360351562,1.7298106994628906,-11.226411584472656
3561093401139,1.02629703,1,0.21068974609375,1.7381904052734374,-11.203666668701171
3561096257337,1.029153228,1,0.22744915771484372,1.7274164978027342,-11.192892761230468
3561099112442,1.032008333,1,0.21787235107421873,1.7322049011230467,-11.196484063720703
3561101969264,1.034865155,1,0.2059013427734375,1.7322049011230467,-11.190498559570312
3561104828379,1.03772427,1,0.20709844360351562,1.7381904052734374,-11.173739147949219
3561107683692,1.040579583,1,0.20709844360351562,1.7489643127441405,-11.196484063720703
3561110541296,1.043437187,1,0.2214636535644531,1.7429788085937499,-11.212046374511718
3561113400410,1.046296301,1,0.2442085693359375,1.7429788085937499,-11.194089862060546
3561116257858,1.049153749,1,0.22385785522460935,1.7274164978027342,-11.203666668701171
3561119112181,1.052008072,1,0.2214636535644531,1.7262193969726563,-11.203666668701171
3561121969785,1.054865676,1,0.24660277099609373,1.7405846069335937,-11.190498559570312
3561124829108,1.057724999,1,0.23104046020507812,1.7369933044433592,-11.19169566040039
3561127683796,1.060579687,1,0.24181436767578124,1.7322049011230467,-11.188104357910156
3561130540619,1.06343651,1,0.2454056701660156,1.715445489501953,-11.19169566040039
3561133400567,1.066296458,1,0.239420166015625,1.7286135986328124,-11.195286962890624
3561136257858,1.069153749,1,0.2262520568847656,1.7274164978027342,-11.218031878662108
3561139111817,1.072007708,1,0.2154781494140625,1.7322049011230467,-11.195286962890624
3561141969942,1.074865833,1,0.21787235107421873,1.7369933044433592,-11.194089862060546
3561144829785,1.077725676,1,0.2214636535644531,1.7274164978027342,-11.161768139648437
3561147684160,1.080580051,1,0.22744915771484372,1.744175909423828,-11.17852755126953
3561150541660,1.083437551,1,0.24061726684570311,1.7417817077636717,-11.135431921386719
3561153401296,1.086297187,1,0.21787235107421873,1.7465701110839842,-11.177330450439452
3561156257337,1.089153228,1,0.22505495605468748,1.714248388671875,-11.171344946289063
3561159112025,1.092007916,1,0.23582886352539062,1.7238251953125,-11.19169566040039
3561161969837,1.094865728,1,0.22026655273437498,1.7453730102539062,-11.176133349609374
3561164828483,1.097724374,1,0.23822306518554687,1.734599102783203,-11.176133349609374
3561167683327,1.100579218,1,0.23822306518554687,1.7334020019531249,-11.203666668701171
3561170541348,1.103437239,1,0.23582886352539062,1.725022296142578,-11.17254204711914
3561173402077,1.106297968,1,0.24779987182617186,1.725022296142578,-11.170147845458983
3561176259317,1.109155208,1,0.24181436767578124,1.7166425903320313,-11.17254204711914
3561179113119,1.11200901,1,0.2214636535644531,1.6938976745605467,-11.036072552490234
3561181969421,1.114865312,1,0.23582886352539062,1.70467158203125,-11.189301458740234
3561184827702,1.117723593,1,0.23223756103515625,1.7178396911621092,-11.19887826538086
3561187684681,1.120580572,1,0.24061726684570311,1.7357962036132812,-11.184513055419922
3561190541504,1.123437395,1,0.23343466186523437,1.7274164978027342,-11.174936248779296
3561193400619,1.12629651,1,0.2262520568847656,1.7322049011230467,-11.170147845458983
3561196258223,1.129154114,1,0.22266075439453123,1.7429788085937499,-11.171344946289063
3561199111973,1.132007864,1,0.23702596435546874,1.7453730102539062,-11.154585534667968
3561201972702,1.134868593,1,0.2442085693359375,1.7322049011230467,-11.183315954589844
3561204832025,1.137727916,1,0.23104046020507812,1.7286135986328124,-11.156979736328124
3561207685098,1.140580989,1,0.23343466186523437,1.7178396911621092,-11.170147845458983
3561210541452,1.143437343,1,0.201112939453125,1.7310078002929687,-11.164162341308593
3561213400567,1.146296458,1,0.21188684692382811,1.7357962036132812,-11.167753643798827
3561216257598,1.149153489,1,0.22026655273437498,1.7310078002929687,-11.150994232177734
3561219112285,1.152008176,1,0.22744915771484372,1.7178396911621092,-11.171344946289063
3561221969889,1.15486578,1,0.22744915771484372,1.734599102783203,-11.179724652099608
3561224829108,1.157724999,1,0.22505495605468748,1.7369933044433592,-11.167753643798827
3561227684629,1.16058052,1,0.23223756103515625,1.7322049011230467,-11.174936248779296
3561230542233,1.163438124,1,0.23223756103515625,1.7214309936523438,-11.192892761230468
3561233401139,1.16629703,1,0.22864625854492185,1.7130512878417967,-11.165359442138671
3561236258067,1.169153958,1,0.23822306518554687,1.7130512878417967,-11.184513055419922
3561239113014,1.172008905,1,0.2346317626953125,1.7310078002929687,-11.051634863281249
3561241969994,1.174865885,1,0.2154781494140625,1.7286135986328124,-11.204863769531249
3561244828431,1.177724322,1,0.23822306518554687,1.7214309936523438,-11.174936248779296
3561247683848,1.180579739,1,0.24779987182617186,1.7022773803710936,-11.179724652099608
3561250541244,1.183437135,1,0.2537853759765625,1.7262193969726563,-11.190498559570312
3561253400983,1.186296874,1,0.23702596435546874,1.7381904052734374,-11.183315954589844
3561256257754,1.189153645,1,0.21906945190429686,1.7322049011230467,-11.206060870361327
3561259113119,1.19200901,1,0.22505495605468748,1.7357962036132812,-11.19887826538086
3561261969733,1.194865624,1,0.22505495605468748,1.7417817077636717,-11.232397088623046
3561264829577,1.197725468,1,0.2442085693359375,1.7609353210449217,-11.190498559570312
3561267683692,1.200579583,1,0.26216508178710934,1.7561469177246092,-11.190498559570312
3561270540983,1.203436874,1,0.26695348510742184,1.7501614135742187,-11.19887826538086
3561273400150,1.206296041,1,0.2454056701660156,1.7489643127441405,-11.183315954589844
3561276256087,1.209151978,1,0.23822306518554687,1.7465701110839842,-11.195286962890624
3561279113796,1.212009687,1,0.22505495605468748,1.7310078002929687,-11.215637677001952
3561281970202,1.214866093,1,0.24779987182617186,1.734599102783203,-11.189301458740234
3561284829160,1.217725051,1,0.23343466186523437,1.7322049011230467,-11.183315954589844
3561287684212,1.220580103,1,0.23104046020507812,1.7262193969726563,-11.17852755126953
3561290541921,1.223437812,1,0.23104046020507812,1.7286135986328124,-11.195286962890624
3561293400671,1.226296562,1,0.239420166015625,1.7226280944824217,-11.209652172851563
3561296257546,1.229153437,1,0.23223756103515625,1.7226280944824217,-11.200075366210937
3561299111660,1.232007551,1,0.22026655273437498,1.7381904052734374,-11.19169566040039
3561301969889,1.23486578,1,0.21428104858398436,1.7178396911621092,-11.335347760009764
3561304828691,1.237724582,1,0.22505495605468748,1.7166425903320313,-11.182118853759764
3561307683744,1.240579635,1,0.20949264526367187,1.7226280944824217,-11.202469567871093
3561310542598,1.243438489,1,0.21188684692382811,1.6986860778808592,-11.161768139648437
3561313400358,1.246296249,1,0.22744915771484372,1.6998831787109374,-11.168950744628905
3561316257754,1.249153645,1,0.23223756103515625,1.7190367919921874,-11.194089862060546
3561319113275,1.252009166,1,0.21308394775390624,1.7322049011230467,-11.197681164550781
3561321970254,1.254866145,1,0.23104046020507812,1.7214309936523438,-11.189301458740234
3561324828535,1.257724426,1,0.23343466186523437,1.7322049011230467,-11.17254204711914
3561327683535,1.260579426,1,0.2059013427734375,1.7597382202148437,-11.161768139648437
3561330540723,1.263436614,1,0.2166752502441406,1.7453730102539062,-11.164162341308593
3561333400566,1.266296457,1,0.2059013427734375,1.7310078002929687,-11.174936248779296
3561336257441,1.269153332,1,0.21188684692382811,1.7417817077636717,-11.195286962890624
3561339113066,1.272008957,1,0.22026655273437498,1.7166425903320313,-11.184513055419922
3561341969733,1.274865624,1,0.229843359375,1.7357962036132812,-11.197681164550781
3561344828535,1.277724426,1,0.24301146850585936,1.7429788085937499,-11.173739147949219
3561347683744,1.280579635,1,0.26216508178710934,1.734599102783203,-11.176133349609374
3561350542129,1.28343802,1,0.2454056701660156,1.7214309936523438,-11.194089862060546
3561353401191,1.286297082,1,0.2454056701660156,1.7417817077636717,-11.206060870361327
3561356257441,1.289153332,1,0.24660277099609373,1.7393875061035156,-11.189301458740234
3561359112650,1.292008541,1,0.2597708801269531,1.7393875061035156,-11.165359442138671
3561361969264,1.294865155,1,0.2501940734863281,1.7178396911621092,-11.148600030517578
3561364828379,1.29772427,1,0.24660277099609373,1.7238251953125,-11.148600030517578
3561367684264,1.300580155,1,0.24061726684570311,1.7214309936523438,-11.150994232177734
3561370541660,1.303437551,1,0.2262520568847656,1.7190367919921874,-11.158176837158203
3561373400723,1.306296614,1,0.22266075439453123,1.7298106994628906,-11.165359442138671
3561376258431,1.309154322,1,0.22505495605468748,1.734599102783203,-11.171344946289063
3561379112441,1.312008332,1,0.20949264526367187,1.7369933044433592,-11.192892761230468
3561381969473,1.314865364,1,0.2214636535644531,1.7022773803710936,-11.192892761230468
3561384829160,1.317725051,1,0.24061726684570311,1.7274164978027342,-11.222820281982422
3561387683639,1.32057953,1,0.2442085693359375,1.7549498168945312,-11.21683477783203
3561390541869,1.32343776,1,0.2501940734863281,1.7621324218749999,-11.208455072021483
3561393401556,1.326297447,1,0.21308394775390624,1.7681179260253905,-11.190498559570312
3561396257702,1.329153593,1,0.19871873779296872,1.7573440185546874,-11.188104357910156
3561399112702,1.332008593,1,0.18435352783203124,1.7357962036132812,-11.17254204711914
3561401970254,1.334866145,1,0.22505495605468748,1.7501614135742187,-11.188104357910156
3561404829212,1.337725103,1,0.24181436767578124,1.7585411193847655,-11.195286962890624
3561407683535,1.340579426,1,0.2454056701660156,1.7453730102539062,-11.208455072021483
3561410540514,1.343436405,1,0.2346317626953125,1.7393875061035156,-11.208455072021483
3561413400931,1.346296822,1,0.2346317626953125,1.7573440185546874,-11.21683477783203
3561416257025,1.349152916,1,0.21787235107421873,1.7549498168945312,-11.222820281982422
3561419112181,1.352008072,1,0.22385785522460935,1.7549498168945312,-11.221623181152344
3561421970254,1.354866145,1,0.23104046020507812,1.7429788085937499,-11.221623181152344
3561424829473,1.357725364,1,0.239420166015625,1.7334020019531249,-11.209652172851563
3561427683848,1.360579739,1,0.22385785522460935,1.7561469177246092,-11.209652172851563
3561430541452,1.363437343,1,0.22744915771484372,1.7609353210449217,-11.173739147949219
3561433398535,1.366294426,1,0.23223756103515625,1.7453730102539062,-11.195286962890624
3561436257806,1.369153697,1,0.2501940734863281,1.7405846069335937,-11.233594189453123
3561439112858,1.372008749,1,0.26336218261718747,1.7429788085937499,-11.226411584472656
3561441969785,1.374865676,1,0.2561795776367187,1.7034744812011717,-11.212046374511718
3561444828691,1.377724582,1,0.22744915771484372,1.725022296142578,-11.197681164550781
3561447684473,1.380580364,1,0.21906945190429686,1.7274164978027342,-11.184513055419922
3561450541296,1.383437187,1,0.20949264526367187,1.7453730102539062,-11.173739147949219
3561453400827,1.386296718,1,0.20231004028320312,1.7429788085937499,-11.143811627197264
3561456257598,1.389153489,1,0.19632453613281248,1.7357962036132812,-11.17852755126953
3561459112858,1.392008749,1,0.20709844360351562,1.7298106994628906,-11.174936248779296
3561461969525,1.394865416,1,0.1927332336425781,1.7465701110839842,-11.174936248779296
3561464829473,1.397725364,1,0.21068974609375,1.7334020019531249,-11.182118853759764
3561467688223,1.400584114,1,0.22505495605468748,1.7405846069335937,-11.186907257080078
3561470543066,1.403438957,1,0.22505495605468748,1.7202338928222656,-11.206060870361327
3561473401191,1.406297082,1,0.22864625854492185,1.7178396911621092,-11.222820281982422
3561476258171,1.409154062,1,0.22864625854492185,1.7262193969726563,-11.221623181152344
3561479112233,1.412008124,1,0.2214636535644531,1.734599102783203,-11.225214483642578
3561481969785,1.414865676,1,0.21428104858398436,1.734599102783203,-11.195286962890624
3561484829994,1.417725885,1,0.21308394775390624,1.725022296142578,-11.312602844238281
3561487684681,1.420580572,1,0.21428104858398436,1.7405846069335937,-11.159373937988281
3561490541556,1.423437447,1,0.22864625854492185,1.7489643127441405,-11.156979736328124
3561493400879,1.42629677,1,0.2442085693359375,1.7573440185546874,-11.174936248779296
3561496257910,1.429153801,1,0.23822306518554687,1.7214309936523438,-11.203666668701171
3561499113171,1.432009062,1,0.22864625854492185,1.7178396911621092,-11.21084927368164
3561501969525,1.434865416,1,0.20470424194335937,1.725022296142578,-11.201272467041015
3561504828691,1.437724582,1,0.20949264526367187,1.7178396911621092,-11.194089862060546
3561507683066,1.440578957,1,0.21906945190429686,1.7166425903320313,-11.180921752929686
3561510541243,1.443437134,1,0.22026655273437498,1.725022296142578,-11.173739147949219
3561513400462,1.446296353,1,0.22266075439453123,1.7310078002929687,-11.152191333007812
3561516258275,1.449154166,1,0.20470424194335937,1.7489643127441405,-11.206060870361327
3561519112337,1.452008228,1,0.1975216369628906,1.7357962036132812,-11.19169566040039
3561521969941,1.454865832,1,0.21787235107421873,1.7393875061035156,-11.166556542968749
3561524829108,1.457724999,1,0.23702596435546874,1.7381904052734374,-11.148600030517578
3561527683796,1.460579687,1,0.239420166015625,1.7465701110839842,-11.170147845458983
3561530539004,1.463434895,1,0.23223756103515625,1.7501614135742187,-11.186907257080078
3561533400098,1.466295989,1,0.24660277099609373,1.734599102783203,-11.158176837158203
3561536258483,1.469154374,1,0.24660277099609373,1.7334020019531249,-11.154585534667968
3561539112962,1.472008853,1,0.23343466186523437,1.7286135986328124,-11.162965240478515
3561541969785,1.474865676,1,0.2262520568847656,1.7286135986328124,-11.204863769531249
3561544829160,1.477725051,1,0.23822306518554687,1.715445489501953,-11.225214483642578
3561547683223,1.480579114,1,0.2454056701660156,1.7178396911621092,-11.335347760009764
3561550541139,1.48343703,1,0.24061726684570311,1.7238251953125,-11.182118853759764
3561553400410,1.486296301,1,0.23582886352539062,1.7022773803710936,-11.171344946289063
3561556257546,1.489153437,1,0.20949264526367187,1.7190367919921874,-11.182118853759764
3561559112702,1.492008593,1,0.22266075439453123,1.7190367919921874,-11.136629022216797
3561561969473,1.494865364,1,0.23702596435546874,1.7190367919921874,-11.152191333007812
3561564829681,1.497725572,1,0.24660277099609373,1.7310078002929687,-11.156979736328124
3561567683952,1.500579843,1,0.20470424194335937,1.7274164978027342,-11.19169566040039
3561570541660,1.503437551,1,0.20829554443359374,1.7190367919921874,-11.171344946289063
3561573400775,1.506296666,1,0.19033903198242186,1.7310078002929687,-11.184513055419922
3561576257598,1.509153489,1,0.21068974609375,1.7238251953125,-11.16057103881836
3561579112181,1.512008072,1,0.23223756103515625,1.7298106994628906,-11.206060870361327
3561581969993,1.514865884,1,0.22744915771484372,1.7226280944824217,-11.182118853759764
3561584829056,1.517724947,1,0.201112939453125,1.7202338928222656,-11.200075366210937
3561587683483,1.520579374,1,0.201112939453125,1.7477672119140624,-11.206060870361327
3561590540879,1.52343677,1,0.22744915771484372,1.7489643127441405,-11.184513055419922
3561593400566,1.526296457,1,0.22026655273437498,1.7238251953125,-11.202469567871093
3561596258066,1.529153957,1,0.21188684692382811,1.725022296142578,-11.201272467041015
3561599112806,1.532008697,1,0.21188684692382811,1.725022296142578,-11.197681164550781
3561601970254,1.534866145,1,0.21068974609375,1.7022773803710936,-11.196484063720703
3561604828379,1.53772427,1,0.20949264526367187,1.7022773803710936,-11.194089862060546
3561607683171,1.540579062,1,0.22864625854492185,1.707065783691406,-11.33175645751953
3561610541035,1.543436926,1,0.23702596435546874,1.7405846069335937,-11.17852755126953
3561613400098,1.546295989,1,0.22026655273437498,1.7214309936523438,-11.167753643798827
3561616257077,1.549152968,1,0.23822306518554687,1.7322049011230467,-11.16057103881836
3561619112129,1.55200802,1,0.2454056701660156,1.734599102783203,-11.179724652099608
3561621969316,1.554865207,1,0.23343466186523437,1.7334020019531249,-11.201272467041015
3561624828848,1.557724739,1,0.23343466186523437,1.714248388671875,-11.192892761230468
3561627683535,1.560579426,1,0.2166752502441406,1.705868682861328,-11.186907257080078
3561630541556,1.563437447,1,0.2166752502441406,1.7238251953125,-11.196484063720703
3561633400618,1.566296509,1,0.2501940734863281,1.7274164978027342,-11.18571015625
3561636257598,1.569153489,1,0.24061726684570311,1.7489643127441405,-11.17852755126953
3561639112181,1.572008072,1,0.23822306518554687,1.7393875061035156,-11.176133349609374
3561641969212,1.574865103,1,0.2214636535644531,1.7202338928222656,-11.17852755126953
3561644828743,1.577724634,1,0.21068974609375,1.7214309936523438,-11.21683477783203
3561647683379,1.58057927,1,0.21906945190429686,1.725022296142578,-11.231199987792968
3561650540827,1.583436718,1,0.22864625854492185,1.7202338928222656,-11.218031878662108
3561653400827,1.586296718,1,0.21308394775390624,1.7094599853515624,-11.235988391113281
3561656258587,1.589154478,1,0.22385785522460935,1.7202338928222656,-11.213243475341796
3561659112702,1.592008593,1,0.22385785522460935,1.7178396911621092,-11.171344946289063
3561661969108,1.594864999,1,0.22026655273437498,1.7489643127441405,-11.177330450439452
3561664828952,1.597724843,1,0.22744915771484372,1.7489643127441405,-11.174936248779296
3561667683587,1.600579478,1,0.20470424194335937,1.734599102783203,-11.186907257080078
3561670541400,1.603437291,1,0.2214636535644531,1.7310078002929687,-11.186907257080078
3561673400098,1.606295989,1,0.2262520568847656,1.7190367919921874,-11.197681164550781
3561676257077,1.609152968,1,0.20949264526367187,1.7286135986328124,-11.219228979492186
3561679112441,1.612008332,1,0.21188684692382811,1.7381904052734374,-11.212046374511718
3561681969993,1.614865884,1,0.20709844360351562,1.7238251953125,-11.189301458740234
3561684829004,1.617724895,1,0.21787235107421873,1.7357962036132812,-11.19169566040039
3561687684056,1.620579947,1,0.22026655273437498,1.7214309936523438,-11.17852755126953
3561690540671,1.623436562,1,0.2166752502441406,1.714248388671875,-11.184513055419922
3561693399837,1.626295728,1,0.20350714111328125,1.714248388671875,-11.19887826538086
3561696258952,1.629154843,1,0.1927332336425781,1.7286135986328124,-11.206060870361327
3561699112702,1.632008593,1,0.21188684692382811,1.7453730102539062,-11.19169566040039
3561701969473,1.634865364,1,0.23822306518554687,1.7214309936523438,-11.204863769531249
3561704829733,1.637725624,1,0.22266075439453123,1.7286135986328124,-11.206060870361327
3561707683639,1.64057953,1,0.23582886352539062,1.7310078002929687,-11.19887826538086
3561710541348,1.643437239,1,0.23702596435546874,1.7226280944824217,-11.16057103881836
3561713400827,1.646296718,1,0.23702596435546874,1.6986860778808592,-11.168950744628905
3561716257441,1.649153332,1,0.24660277099609373,1.7310078002929687,-11.182118853759764
3561719113275,1.652009166,1,0.2346317626953125,1.7453730102539062,-11.174936248779296
3561721969733,1.654865624,1,0.2346317626953125,1.7381904052734374,-11.162965240478515
3561724828535,1.657724426,1,0.20829554443359374,1.7274164978027342,-11.155782635498046
3561727683952,1.660579843,1,0.22385785522460935,1.7274164978027342,-11.16057103881836
3561730541087,1.663436978,1,0.21068974609375,1.7381904052734374,-11.149797131347656
3561733401087,1.666296978,1,0.23104046020507812,1.7405846069335937,-11.149797131347656
3561736265410,1.669161301,1,0.2346317626953125,1.7226280944824217,-11.174936248779296
3561739115098,1.672010989,1,0.229843359375,1.7190367919921874,-11.192892761230468
3561741969681,1.674865572,1,0.21308394775390624,1.715445489501953,-11.170147845458983
3561744829785,1.677725676,1,0.2262520568847656,1.714248388671875,-11.190498559570312
3561747683795,1.680579686,1,0.2454056701660156,1.7190367919921874,-11.189301458740234
3561750541973,1.683437864,1,0.2501940734863281,1.7369933044433592,-11.201272467041015
3561753400827,1.686296718,1,0.2454056701660156,1.7393875061035156,-11.168950744628905
3561756257337,1.689153228,1,0.21787235107421873,1.7130512878417967,-11.190498559570312
3561759112389,1.69200828,1,0.21787235107421873,1.7298106994628906,-11.212046374511718
3561761969420,1.694865311,1,0.23582886352539062,1.7334020019531249,-11.204863769531249
3561764829577,1.697725468,1,0.20231004028320312,1.7238251953125,-11.197681164550781
3561767684056,1.700579947,1,0.21787235107421873,1.7322049011230467,-11.186907257080078
3561770541348,1.703437239,1,0.239420166015625,1.7381904052734374,-11.182118853759764
3561773400098,1.706295989,1,0.239420166015625,1.7262193969726563,-11.17254204711914
3561776257858,1.709153749,1,0.23223756103515625,1.7597382202148437,-11.189301458740234
3561779112285,1.712008176,1,0.2166752502441406,1.7465701110839842,-11.189301458740234
3561781969525,1.714865416,1,0.2166752502441406,1.7381904052734374,-11.196484063720703
3561784829056,1.717724947,1,0.22864625854492185,1.7513585144042967,-11.200075366210937
3561787683327,1.720579218,1,0.21787235107421873,1.7465701110839842,-11.192892761230468
3561790542962,1.723438853,1,0.24181436767578124,1.7465701110839842,-11.190498559570312
3561793401608,1.726297499,1,0.2442085693359375,1.7369933044433592,-11.190498559570312
3561796257806,1.729153697,1,0.23822306518554687,1.7226280944824217,-11.182118853759764
3561799112545,1.732008436,1,0.22266075439453123,1.7238251953125,-11.19169566040039
3561801969420,1.734865311,1,0.20829554443359374,1.7202338928222656,-11.203666668701171
3561804828743,1.737724634,1,0.21906945190429686,1.753752716064453,-11.220426080322264
3561807683535,1.740579426,1,0.21188684692382811,1.7238251953125,-11.190498559570312
3561810540723,1.743436614,1,0.2214636535644531,1.7226280944824217,-11.188104357910156
3561813400202,1.746296093,1,0.22744915771484372,1.7214309936523438,-11.161768139648437
3561816257858,1.749153749,1,0.22864625854492185,1.7262193969726563,-11.190498559570312
3561819112493,1.752008384,1,0.25258827514648435,1.7238251953125,-11.197681164550781
3561821969420,1.754865311,1,0.2501940734863281,1.7082628845214842,-11.182118853759764
3561824829108,1.757724999,1,0.24061726684570311,1.7082628845214842,-11.179724652099608
3561827684108,1.760579999,1,0.239420166015625,1.7094599853515624,-11.17254204711914
3561830542962,1.763438853,1,0.23582886352539062,1.7118541870117185,-11.184513055419922
3561833400723,1.766296614,1,0.21068974609375,1.7034744812011717,-11.203666668701171
3561836257441,1.769153332,1,0.22864625854492185,1.715445489501953,-11.219228979492186
3561839112910,1.772008801,1,0.2346317626953125,1.7262193969726563,-11.21084927368164
3561841969785,1.774865676,1,0.2346317626953125,1.7357962036132812,-11.206060870361327
3561844828014,1.777723905,1,0.2549824768066406,1.7166425903320313,-11.186907257080078
3561847684733,1.780580624,1,0.2442085693359375,1.7369933044433592,-11.19887826538086
3561850541868,1.783437759,1,0.2442085693359375,1.7369933044433592,-11.19887826538086
3561853400983,1.786296874,1,0.21428104858398436,1.7286135986328124,-11.203666668701171
3561856257337,1.789153228,1,0.21428104858398436,1.7357962036132812,-11.203666668701171
3561859112441,1.792008332,1,0.24181436767578124,1.7357962036132812,-11.17254204711914
3561861969264,1.794865155,1,0.26336218261718747,1.7310078002929687,-11.180921752929686
3561864828275,1.797724166,1,0.2537853759765625,1.734599102783203,-11.184513055419922
3561867682650,1.800578541,1,0.22744915771484372,1.7369933044433592,-11.213243475341796
3561870540670,1.803436561,1,0.2214636535644531,1.7274164978027342,-11.16057103881836
3561873400514,1.806296405,1,0.2166752502441406,1.7322049011230467,-11.146205828857422
3561876257233,1.809153124,1,0.2154781494140625,1.7214309936523438,-11.164162341308593
3561879113170,1.812009061,1,0.22385785522460935,1.7369933044433592,-11.202469567871093
3561881970358,1.814866249,1,0.23223756103515625,1.734599102783203,-11.176133349609374
3561884828848,1.817724739,1,0.23343466186523437,1.734599102783203,-11.183315954589844
3561887682962,1.820578853,1,0.229843359375,1.7381904052734374,-11.167753643798827
3561890541295,1.823437186,1,0.22864625854492185,1.7357962036132812,-11.194089862060546
3561893399993,1.826295884,1,0.22744915771484372,1.7214309936523438,-11.206060870361327
3561896257598,1.829153489,1,0.229843359375,1.725022296142578,-11.215637677001952
3561899112337,1.832008228,1,0.20949264526367187,1.7429788085937499,-11.189301458740234
3561901969681,1.834865572,1,0.21308394775390624,1.7453730102539062,-11.183315954589844
3561904829056,1.837724947,1,0.21308394775390624,1.7226280944824217,-11.170147845458983
3561907683535,1.840579426,1,0.20470424194335937,1.696291876220703,-11.179724652099608
3561910541295,1.843437186,1,0.2214636535644531,1.696291876220703,-11.183315954589844
3561913401035,1.846296926,1,0.20709844360351562,1.715445489501953,-11.184513055419922
3561916257389,1.84915328,1,0.21906945190429686,1.7274164978027342,-11.184513055419922
3561919112025,1.852007916,1,0.2166752502441406,1.7657237243652342,-11.176133349609374
3561921968691,1.854864582,1,0.22505495605468748,1.7525556152343749,-11.155782635498046
3561924828170,1.857724061,1,0.21188684692382811,1.7286135986328124,-11.167753643798827
3561927682910,1.860578801,1,0.23582886352539062,1.7214309936523438,-11.177330450439452
3561930540723,1.863436614,1,0.23223756103515625,1.715445489501953,-11.213243475341796
3561933400670,1.866296561,1,0.20709844360351562,1.7274164978027342,-11.231199987792968
3561936257650,1.869153541,1,0.2166752502441406,1.7262193969726563,-11.196484063720703
3561939112077,1.872007968,1,0.21188684692382811,1.725022296142578,-11.197681164550781
3561941971139,1.87486703,1,0.229843359375,1.7274164978027342,-11.17852755126953
3561944829472,1.877725363,1,0.21428104858398436,1.734599102783203,-11.182118853759764
3561947683014,1.880578905,1,0.2166752502441406,1.744175909423828,-11.165359442138671
3561950541087,1.883436978,1,0.22505495605468748,1.7286135986328124,-11.200075366210937
3561953401139,1.88629703,1,0.23702596435546874,1.7322049011230467,-11.220426080322264
3561956257702,1.889153593,1,0.22864625854492185,1.734599102783203,-11.202469567871093
3561959111347,1.892007238,1,0.21188684692382811,1.725022296142578,-11.203666668701171
3561961970410,1.894866301,1,0.22266075439453123,1.7310078002929687,-11.202469567871093
3561964828952,1.897724843,1,0.22266075439453123,1.7322049011230467,-11.168950744628905
3561967683847,1.900579738,1,0.2501940734863281,1.7334020019531249,-11.17852755126953
3561970541400,1.903437291,1,0.2537853759765625,1.734599102783203,-11.194089862060546
3561973399837,1.906295728,1,0.23822306518554687,1.734599102783203,-11.197681164550781
3561976258118,1.909154009,1,0.23343466186523437,1.7429788085937499,-11.3389390625
3561979112389,1.91200828,1,0.2154781494140625,1.7417817077636717,-11.18571015625
3561981969420,1.914865311,1,0.21068974609375,1.7310078002929687,-11.204863769531249
3561984828847,1.917724738,1,0.2154781494140625,1.7334020019531249,-11.21084927368164
3561987683431,1.920579322,1,0.23822306518554687,1.7166425903320313,-11.21084927368164
3561990540983,1.923436874,1,0.22385785522460935,1.7310078002929687,-11.184513055419922
3561993400097,1.926295988,1,0.22385785522460935,1.7274164978027342,-11.142614526367186
3561996257806,1.929153697,1,0.20231004028320312,1.7190367919921874,-11.179724652099608
3561999111556,1.932007447,1,0.20949264526367187,1.70467158203125,-11.195286962890624
3562001968483,1.934864374,1,0.22266075439453123,1.7166425903320313,-11.219228979492186
3562004838847,1.937734738,1,0.24181436767578124,1.7417817077636717,-11.219228979492186
3562007694629,1.94059052,1,0.25737667846679685,1.7513585144042967,-11.209652172851563
3562010542077,1.943437968,1,0.2597708801269531,1.7561469177246092,-11.19887826538086
3562013398222,1.946294113,1,0.239420166015625,1.734599102783203,-11.179724652099608
3562016253587,1.949149478,1,0.2166752502441406,1.7274164978027342,-11.204863769531249
3562019113275,1.952009166,1,0.18914193115234373,1.7226280944824217,-11.213243475341796
3562021971087,1.954866978,1,0.2346317626953125,1.7202338928222656,-11.202469567871093
3562024830202,1.957726093,1,0.21787235107421873,1.7477672119140624,-11.201272467041015
3562027685150,1.960581041,1,0.21787235107421873,1.7453730102539062,-11.168950744628905
3562030540410,1.963436301,1,0.22266075439453123,1.7357962036132812,-11.161768139648437
3562033399889,1.96629578,1,0.23343466186523437,1.7357962036132812,-11.174936248779296
3562036255150,1.969151041,1,0.23223756103515625,1.7190367919921874,-11.173739147949219
3562039113639,1.97200953,1,0.2454056701660156,1.7369933044433592,-11.173739147949219
3562041971035,1.974866926,1,0.23582886352539062,1.753752716064453,-11.186907257080078
3562044827077,1.977722968,1,0.24779987182617186,1.7741034301757812,-11.173739147949219
3562047684004,1.980579895,1,0.27174188842773433,1.7573440185546874,-11.16057103881836
3562050541816,1.983437707,1,0.24301146850585936,1.753752716064453,-11.142614526367186
3562053399889,1.98629578,1,0.23223756103515625,1.7465701110839842,-11.154585534667968
3562056257702,1.989153593,1,0.2166752502441406,1.7369933044433592,-11.158176837158203
3562059112181,1.992008072,1,0.22026655273437498,1.734599102783203,-11.176133349609374
3562061969212,1.994865103,1,0.239420166015625,1.7369933044433592,-11.177330450439452
3562064828483,1.997724374,1,0.24061726684570311,1.7405846069335937,-11.196484063720703
3562067684108,2.000579999,1,0.2454056701660156,1.7357962036132812,-11.203666668701171
3562070541035,2.003436926,1,0.21787235107421873,1.7190367919921874,-11.182118853759764
3562073401295,2.006297186,1,0.2166752502441406,1.70467158203125,-11.17852755126953
3562076258014,2.009153905,1,0.25139117431640623,1.6986860778808592,-11.176133349609374
3562079112962,2.012008853,1,0.23223756103515625,1.6998831787109374,-11.156979736328124
3562081970045,2.014865936,1,0.22266075439453123,1.7106570861816406,-11.179724652099608
3562084828483,2.017724374,1,0.22385785522460935,1.7262193969726563,-11.209652172851563
3562087683795,2.020579686,1,0.22385785522460935,1.7393875061035156,-11.192892761230468
3562090541504,2.023437395,1,0.201112939453125,1.7166425903320313,-11.166556542968749
3562093400566,2.026296457,1,0.20470424194335937,1.7322049011230467,-11.177330450439452
3562096258066,2.029153957,1,0.18914193115234373,1.7322049011230467,-11.190498559570312
3562099112858,2.032008749,1,0.2059013427734375,1.7369933044433592,-11.195286962890624
3562101970462,2.034866353,1,0.22744915771484372,1.7262193969726563,-11.195286962890624
3562104829472,2.037725363,1,0.2346317626953125,1.7310078002929687,-11.176133349609374
3562107684108,2.040579999,1,0.23343466186523437,1.725022296142578,-11.184513055419922
3562110541556,2.043437447,1,0.2346317626953125,1.7178396911621092,-11.202469567871093
3562113400306,2.046296197,1,0.2262520568847656,1.7226280944824217,-11.233594189453123
3562116257754,2.049153645,1,0.22864625854492185,1.7310078002929687,-11.215637677001952
3562119112806,2.052008697,1,0.2154781494140625,1.7357962036132812,-11.214440576171874
3562121973327,2.054869218,1,0.2262520568847656,1.7393875061035156,-11.208455072021483
3562124831660,2.057727551,1,0.24181436767578124,1.7465701110839842,-11.203666668701171
3562127683691,2.060579582,1,0.23343466186523437,1.7501614135742187,-11.176133349609374
3562130541035,2.063436926,1,0.22744915771484372,1.725022296142578,-11.177330450439452
3562133400670,2.066296561,1,0.22266075439453123,1.7298106994628906,-11.177330450439452
3562136257650,2.069153541,1,0.2454056701660156,1.7166425903320313,-11.184513055419922
3562139113118,2.072009009,1,0.239420166015625,1.7262193969726563,-11.201272467041015
3562141969889,2.07486578,1,0.23223756103515625,1.7238251953125,-11.180921752929686
3562144829264,2.077725155,1,0.2346317626953125,1.7214309936523438,-11.188104357910156
3562147683639,2.08057953,1,0.2262520568847656,1.7166425903320313,-11.154585534667968
3562150541764,2.083437655,1,0.2262520568847656,1.7262193969726563,-11.16057103881836
3562153400150,2.086296041,1,0.23104046020507812,1.734599102783203,-11.150994232177734
3562156257285,2.089153176,1,0.22385785522460935,1.734599102783203,-11.182118853759764
3562159112389,2.09200828,1,0.2262520568847656,1.7166425903320313,-11.048043560791015
3562161970097,2.094865988,1,0.2154781494140625,1.715445489501953,-11.201272467041015
3562164829212,2.097725103,1,0.20709844360351562,1.7202338928222656,-11.15338843383789
3562167684993,2.100580884,1,0.229843359375,1.7310078002929687,-11.192892761230468
3562170542545,2.103438436,1,0.22864625854492185,1.744175909423828,-11.204863769531249
3562173401347,2.106297238,1,0.21308394775390624,1.7561469177246092,-11.19169566040039
3562176254629,2.10915052,1,0.2262520568847656,1.7573440185546874,-11.197681164550781
3562179112806,2.112008697,1,0.21068974609375,1.7477672119140624,-11.171344946289063
3562181969160,2.114865051,1,0.229843359375,1.7477672119140624,-11.186907257080078
3562184828691,2.117724582,1,0.21906945190429686,1.7465701110839842,-11.197681164550781
3562187684368,2.120580259,1,0.22744915771484372,1.7561469177246092,-11.177330450439452
3562190542181,2.123438072,1,0.23223756103515625,1.7381904052734374,-11.194089862060546
3562193401191,2.126297082,1,0.2597708801269531,1.7322049011230467,-11.200075366210937
3562196257389,2.12915328,1,0.2609679809570312,1.7274164978027342,-11.189301458740234
3562199112597,2.132008488,1,0.2657563842773437,1.7513585144042967,-11.164162341308593
3562201969629,2.13486552,1,0.22864625854492185,1.7812860351562498,-11.188104357910156
3562204829785,2.137725676,1,0.23104046020507812,1.7429788085937499,-11.17852755126953
3562207684472,2.140580363,1,0.22385785522460935,1.7453730102539062,-11.183315954589844
3562210541452,2.143437343,1,0.22385785522460935,1.7405846069335937,-11.179724652099608
3562213401243,2.146297134,1,0.2214636535644531,1.7334020019531249,-11.184513055419922
3562216257233,2.149153124,1,0.21188684692382811,1.7238251953125,-11.214440576171874
3562219112858,2.152008749,1,0.21308394775390624,1.7238251953125,-11.200075366210937
3562221969889,2.15486578,1,0.20350714111328125,1.70467158203125,-11.192892761230468
3562224829420,2.157725311,1,0.23702596435546874,1.7262193969726563,-11.192892761230468
3562227683379,2.16057927,1,0.23822306518554687,1.7262193969726563,-11.208455072021483
3562230541191,2.163437082,1,0.23582886352539062,1.7405846069335937,-11.203666668701171
3562233400879,2.16629677,1,0.2454056701660156,1.725022296142578,-11.197681164550781
3562236257545,2.169153436,1,0.2549824768066406,1.7238251953125,-11.201272467041015
3562239112649,2.17200854,1,0.24301146850585936,1.7130512878417967,-11.186907257080078
3562241969108,2.174864999,1,0.2262520568847656,1.7238251953125,-11.173739147949219
3562244828014,2.177723905,1,0.20709844360351562,1.7130512878417967,-11.186907257080078
3562247683379,2.18057927,1,0.21068974609375,1.7178396911621092,-11.213243475341796
3562250540306,2.183436197,1,0.2214636535644531,1.7094599853515624,-11.202469567871093
3562253400566,2.186296457,1,0.20350714111328125,1.70467158203125,-11.19887826538086
3562256257337,2.189153228,1,0.20829554443359374,1.6938976745605467,-11.17254204711914
3562259112337,2.192008228,1,0.22744915771484372,1.7214309936523438,-11.168950744628905
3562261969629,2.19486552,1,0.2214636535644531,1.725022296142578,-11.18571015625
3562264829264,2.197725155,1,0.24061726684570311,1.7106570861816406,-11.149797131347656
3562267683170,2.200579061,1,0.24660277099609373,1.7010802795410156,-11.148600030517578
3562270541608,2.203437499,1,0.22864625854492185,1.7094599853515624,-11.174936248779296
3562273399889,2.20629578,1,0.22864625854492185,1.7130512878417967,-11.173739147949219
3562276257545,2.209153436,1,0.2346317626953125,1.7106570861816406,-11.18571015625
3562279111347,2.212007238,1,0.23343466186523437,1.7106570861816406,-11.188104357910156
3562281968691,2.214864582,1,0.22266075439453123,1.7022773803710936,-11.200075366210937
3562284828952,2.217724843,1,0.2214636535644531,1.695094775390625,-11.200075366210937
3562287683483,2.220579374,1,0.20949264526367187,1.705868682861328,-11.201272467041015
3562290541556,2.223437447,1,0.21188684692382811,1.7405846069335937,-11.177330450439452
3562293400774,2.226296665,1,0.21428104858398436,1.7286135986328124,-11.146205828857422
3562296258639,2.22915453,1,0.21068974609375,1.7274164978027342,-11.170147845458983
3562299112754,2.232008645,1,0.20709844360351562,1.7298106994628906,-11.146205828857422
3562301970202,2.234866093,1,0.22385785522460935,1.7393875061035156,-11.1474029296875
3562304829629,2.23772552,1,0.23104046020507812,1.7214309936523438,-11.168950744628905
3562307684577,2.240580468,1,0.22744915771484372,1.7274164978027342,-11.183315954589844
3562310541608,2.243437499,1,0.20829554443359374,1.7214309936523438,-11.201272467041015
3562313399733,2.246295624,1,0.20949264526367187,1.7322049011230467,-11.204863769531249
3562316257806,2.249153697,1,0.21428104858398436,1.714248388671875,-11.201272467041015
3562319112597,2.252008488,1,0.21906945190429686,1.707065783691406,-11.204863769531249
3562321969368,2.254865259,1,0.21428104858398436,1.7274164978027342,-11.192892761230468
3562324828170,2.257724061,1,0.19393033447265623,1.7334020019531249,-11.16057103881836
3562327684889,2.26058078,1,0.22026655273437498,1.7238251953125,-11.154585534667968
3562330541556,2.263437447,1,0.23702596435546874,1.7429788085937499,-11.150994232177734
3562333398639,2.26629453,1,0.23702596435546874,1.7334020019531249,-11.16057103881836
3562336259472,2.269155363,1,0.2214636535644531,1.7310078002929687,-11.184513055419922
3562339113118,2.272009009,1,0.2154781494140625,1.7334020019531249,-11.200075366210937
3562341969368,2.274865259,1,0.22026655273437498,1.7334020019531249,-11.17852755126953
3562344828639,2.27772453,1,0.21068974609375,1.7489643127441405,-11.176133349609374
3562347683535,2.280579426,1,0.23343466186523437,1.7226280944824217,-11.176133349609374
3562350540879,2.28343677,1,0.24899697265624998,1.7465701110839842,-11.197681164550781
3562353400097,2.286295988,1,0.23223756103515625,1.7357962036132812,-11.219228979492186
3562356256764,2.289152655,1,0.2154781494140625,1.7214309936523438,-11.194089862060546
3562359112129,2.29200802,1,0.21428104858398436,1.7178396911621092,-11.188104357910156
3562361969368,2.294865259,1,0.21188684692382811,1.7238251953125,-11.165359442138671
3562364829264,2.297725155,1,0.21906945190429686,1.7190367919921874,-11.190498559570312
3562367684056,2.300579947,1,0.229843359375,1.7286135986328124,-11.203666668701171
3562370541868,2.303437759,1,0.23223756103515625,1.7190367919921874,-11.179724652099608
3562373400045,2.306295936,1,0.2166752502441406,1.7322049011230467,-11.16057103881836
3562376256556,2.309152447,1,0.21428104858398436,1.7298106994628906,-11.165359442138671
3562379112024,2.312007915,1,0.2214636535644531,1.7310078002929687,-11.165359442138671
3562381969264,2.314865155,1,0.23702596435546874,1.7429788085937499,-11.179724652099608
3562384828222,2.317724113,1,0.23104046020507812,1.7322049011230467,-11.180921752929686
3562387684056,2.320579947,1,0.21787235107421873,1.7094599853515624,-11.194089862060546
3562390541816,2.323437707,1,0.21068974609375,1.7262193969726563,-11.208455072021483
3562393406139,2.32630203,1,0.20709844360351562,1.7106570861816406,-11.202469567871093
3562396259837,2.329155728,1,0.20709844360351562,1.715445489501953,-11.226411584472656
3562399112233,2.332008124,1,0.21068974609375,1.7166425903320313,-11.201272467041015
3562401969681,2.334865572,1,0.2262520568847656,1.7166425903320313,-11.208455072021483
3562404828951,2.337724842,1,0.239420166015625,1.7202338928222656,-11.326968054199218
3562407683743,2.340579634,1,0.2454056701660156,1.7238251953125,-11.173739147949219
3562410541920,2.343437811,1,0.23702596435546874,1.7322049011230467,-11.161768139648437
3562413400410,2.346296301,1,0.239420166015625,1.7238251953125,-11.149797131347656
3562416257962,2.349153853,1,0.23582886352539062,1.7262193969726563,-11.166556542968749
3562419113170,2.352009061,1,0.22026655273437498,1.7226280944824217,-11.165359442138671
3562421970514,2.354866405,1,0.22026655273437498,1.7130512878417967,-11.182118853759764
3562424827545,2.357723436,1,0.2214636535644531,1.7381904052734374,-11.162965240478515
3562427684264,2.360580155,1,0.23582886352539062,1.7417817077636717,-11.176133349609374
3562430541035,2.363436926,1,0.22026655273437498,1.7489643127441405,-11.197681164550781
3562433399889,2.36629578,1,0.22864625854492185,1.7405846069335937,-11.207257971191405
3562436257285,2.369153176,1,0.22864625854492185,1.7369933044433592,-11.18571015625
3562439113014,2.372008905,1,0.2262520568847656,1.7322049011230467,-11.168950744628905
3562441970045,2.374865936,1,0.22026655273437498,1.7226280944824217,-11.166556542968749
3562444828587,2.377724478,1,0.21188684692382811,1.7369933044433592,-11.17852755126953
3562447683743,2.380579634,1,0.21787235107421873,1.7381904052734374,-11.167753643798827
3562450542285,2.383438176,1,0.21068974609375,1.7310078002929687,-11.170147845458983
3562453400826,2.386296717,1,0.23104046020507812,1.7310078002929687,-11.189301458740234
3562456257233,2.389153124,1,0.23104046020507812,1.7525556152343749,-11.179724652099608
3562459112910,2.392008801,1,0.239420166015625,1.7274164978027342,-11.176133349609374
3562461969368,2.394865259,1,0.22026655273437498,1.7513585144042967,-11.194089862060546
3562464830306,2.397726197,1,0.2262520568847656,1.7513585144042967,-11.194089862060546
3562467683274,2.400579165,1,0.2166752502441406,1.7513585144042967,-11.188104357910156
3562470541764,2.403437655,1,0.22266075439453123,1.7489643127441405,-11.188104357910156
3562473400670,2.406296561,1,0.229843359375,1.7573440185546874,-11.213243475341796
3562476257389,2.40915328,1,0.2454056701660156,1.7298106994628906,-11.182118853759764
3562479111972,2.412007863,1,0.23343466186523437,1.734599102783203,-11.231199987792968
3562481969733,2.414865624,1,0.2166752502441406,1.725022296142578,-11.2240173828125
3562484828326,2.417724217,1,0.2454056701660156,1.7501614135742187,-11.219228979492186
3562487684004,2.420579895,1,0.23822306518554687,1.7381904052734374,-11.219228979492186
3562490540983,2.423436874,1,0.22266075439453123,1.7657237243652342,-11.196484063720703
3562493400826,2.426296717,1,0.2154781494140625,1.7549498168945312,-11.207257971191405
3562496257910,2.429153801,1,0.23582886352539062,1.7501614135742187,-11.219228979492186
3562499112493,2.432008384,1,0.22744915771484372,1.7525556152343749,-11.200075366210937
3562501969316,2.434865207,1,0.22266075439453123,1.763329522705078,-11.180921752929686
3562504828795,2.437724686,1,0.19871873779296872,1.7549498168945312,-11.231199987792968
3562507683014,2.440578905,1,0.21906945190429686,1.7525556152343749,-11.182118853759764
3562510541399,2.44343729,1,0.23582886352539062,1.7334020019531249,-11.161768139648437
3562513400045,2.446295936,1,0.21906945190429686,1.734599102783203,-11.170147845458983
3562516257129,2.44915302,1,0.22505495605468748,1.7381904052734374,-11.162965240478515
3562519112910,2.452008801,1,0.22505495605468748,1.7381904052734374,-11.186907257080078
3562521968951,2.454864842,1,0.24181436767578124,1.7214309936523438,-11.215637677001952
3562524828639,2.45772453,1,0.24660277099609373,1.7214309936523438,-11.19887826538086
3562527684368,2.460580259,1,0.2561795776367187,1.7405846069335937,-11.322179650878905
3562530540931,2.463436822,1,0.24899697265624998,1.7501614135742187,-11.168950744628905
3562533401243,2.466297134,1,0.2346317626953125,1.7513585144042967,-11.177330450439452
3562536258014,2.469153905,1,0.21906945190429686,1.7405846069335937,-11.148600030517578
3562539111660,2.472007551,1,0.2214636535644531,1.7262193969726563,-11.168950744628905
3562541968795,2.474864686,1,0.2214636535644531,1.715445489501953,-11.213243475341796
3562544828535,2.477724426,1,0.23822306518554687,1.715445489501953,-11.252747802734374
3562547683951,2.480579842,1,0.23702596435546874,1.7082628845214842,-11.212046374511718
3562550541243,2.483437134,1,0.23104046020507812,1.7118541870117185,-11.203666668701171
3562553400566,2.486296457,1,0.22864625854492185,1.7262193969726563,-11.23718549194336
3562556256139,2.48915203,1,0.24181436767578124,1.7405846069335937,-11.206060870361327
3562559113639,2.49200953,1,0.25258827514648435,1.7190367919921874,-11.197681164550781
3562561968899,2.49486479,1,0.2501940734863281,1.7178396911621092,-11.212046374511718
3562564828379,2.49772427,1,0.24660277099609373,1.7226280944824217,-11.17852755126953
3562567683951,2.500579842,1,0.2166752502441406,1.7238251953125,-11.17254204711914
3562570540149,2.50343604,1,0.21428104858398436,1.7118541870117185,-11.17852755126953
3562573400410,2.506296301,1,0.22744915771484372,1.7202338928222656,-11.197681164550781
3562576257545,2.509153436,1,0.21787235107421873,1.734599102783203,-11.180921752929686
3562579112233,2.512008124,1,0.21787235107421873,1.7226280944824217,-11.179724652099608
3562581969316,2.514865207,1,0.2214636535644531,1.7357962036132812,-11.156979736328124
3562584830306,2.517726197,1,0.23702596435546874,1.7417817077636717,-11.166556542968749
3562587684316,2.520580207,1,0.25258827514648435,1.7417817077636717,-11.201272467041015
3562590541087,2.523436978,1,0.2645592834472656,1.7322049011230467,-11.203666668701171
3562593399681,2.526295572,1,0.25258827514648435,1.7190367919921874,-11.203666668701171
3562596256920,2.529152811,1,0.26216508178710934,1.714248388671875,-11.183315954589844
3562599112389,2.53200828,1,0.24181436767578124,1.7322049011230467,-11.16057103881836
3562601969889,2.53486578,1,0.23343466186523437,1.7202338928222656,-11.162965240478515
3562604829264,2.537725155,1,0.23702596435546874,1.725022296142578,-11.177330450439452
3562607683899,2.54057979,1,0.21906945190429686,1.7298106994628906,-11.180921752929686
3562610541191,2.543437082,1,0.21068974609375,1.7238251953125,-11.203666668701171
3562613399993,2.546295884,1,0.22266075439453123,1.7322049011230467,-11.232397088623046
3562616258691,2.549154582,1,0.23104046020507812,1.7549498168945312,-11.19887826538086
3562619113118,2.552009009,1,0.21068974609375,1.7501614135742187,-11.189301458740234
3562621969628,2.554865519,1,0.19632453613281248,1.7393875061035156,-11.186907257080078
3562624829056,2.557724947,1,0.2262520568847656,1.7357962036132812,-11.171344946289063
3562627683899,2.56057979,1,0.22744915771484372,1.744175909423828,-11.17852755126953
3562630541191,2.563437082,1,0.22266075439453123,1.7334020019531249,-11.184513055419922
3562633399524,2.566295415,1,0.2262520568847656,1.7310078002929687,-11.179724652099608
3562636257233,2.569153124,1,0.21906945190429686,1.7381904052734374,-11.154585534667968
3562639111972,2.572007863,1,0.23104046020507812,1.7262193969726563,-11.182118853759764
3562641968587,2.574864478,1,0.23104046020507812,1.7561469177246092,-11.225214483642578
3562644828118,2.577724009,1,0.20709844360351562,1.7310078002929687,-11.196484063720703
3562647684576,2.580580467,1,0.2166752502441406,1.7310078002929687,-11.184513055419922
3562650541816,2.583437707,1,0.201112939453125,1.7262193969726563,-11.03846675415039
3562653400462,2.586296353,1,0.20709844360351562,1.7357962036132812,-11.19169566040039
3562656257128,2.589153019,1,0.21068974609375,1.7334020019531249,-11.168950744628905
3562659112181,2.592008072,1,0.23582886352539062,1.7226280944824217,-11.202469567871093
3562661973274,2.594869165,1,0.24301146850585936,1.7417817077636717,-11.197681164550781
3562664831972,2.597727863,1,0.229843359375,1.7322049011230467,-11.19169566040039
3562667682806,2.600578697,1,0.22744915771484372,1.7381904052734374,-11.164162341308593
3562670540774,2.603436665,1,0.2166752502441406,1.7262193969726563,-11.183315954589844
3562673397597,2.606293488,1,0.20949264526367187,1.7322049011230467,-11.19169566040039
3562676257233,2.609153124,1,0.21188684692382811,1.7274164978027342,-11.190498559570312
3562679113431,2.612009322,1,0.23582886352539062,1.7381904052734374,-11.214440576171874
3562681970201,2.614866092,1,0.24181436767578124,1.7405846069335937,-11.19887826538086
3562684829056,2.617724947,1,0.23223756103515625,1.744175909423828,-11.161768139648437
3562687683483,2.620579374,1,0.2214636535644531,1.7417817077636717,-11.202469567871093
3562690541451,2.623437342,1,0.229843359375,1.7357962036132812,-11.194089862060546
3562693400306,2.626296197,1,0.22744915771484372,1.7357962036132812,-11.21084927368164
3562696257858,2.629153749,1,0.22266075439453123,1.7310078002929687,-11.183315954589844
3562699112441,2.632008332,1,0.24181436767578124,1.7274164978027342,-11.179724652099608
3562701968951,2.634864842,1,0.24181436767578124,1.7202338928222656,-11.155782635498046
3562704829056,2.637724947,1,0.24061726684570311,1.7453730102539062,-11.159373937988281
3562707683483,2.640579374,1,0.239420166015625,1.7298106994628906,-11.189301458740234
3562710542441,2.643438332,1,0.22385785522460935,1.7298106994628906,-11.150994232177734
3562713400566,2.646296457,1,0.2166752502441406,1.7202338928222656,-11.159373937988281
3562716257806,2.649153697,1,0.2346317626953125,1.7262193969726563,-11.159373937988281
3562719111868,2.652007759,1,0.23343466186523437,1.7322049011230467,-11.168950744628905
3562721969420,2.654865311,1,0.24660277099609373,1.7310078002929687,-11.165359442138671
3562724829264,2.657725155,1,0.23702596435546874,1.7298106994628906,-11.162965240478515
3562727683431,2.660579322,1,0.23223756103515625,1.7322049011230467,-11.195286962890624
3562730541139,2.66343703,1,0.22266075439453123,1.7357962036132812,-11.220426080322264
3562733400358,2.666296249,1,0.22744915771484372,1.7585411193847655,-11.19887826538086
3562736257649,2.66915354,1,0.23223756103515625,1.7477672119140624,-11.170147845458983
3562739112128,2.672008019,1,0.22026655273437498,1.7334020019531249,-11.200075366210937
3562741969108,2.674864999,1,0.22505495605468748,1.7369933044433592,-11.183315954589844
3562744828639,2.67772453,1,0.2154781494140625,1.7597382202148437,-11.168950744628905
3562747683587,2.680579478,1,0.21068974609375,1.7369933044433592,-11.161768139648437
3562750540878,2.683436769,1,0.2154781494140625,1.7286135986328124,-11.196484063720703
3562753400201,2.686296092,1,0.22744915771484372,1.7429788085937499,-11.203666668701171
3562756257441,2.689153332,1,0.22505495605468748,1.7417817077636717,-11.203666668701171
3562759112233,2.692008124,1,0.23582886352539062,1.714248388671875,-11.221623181152344
3562761969524,2.694865415,1,0.2346317626953125,1.7262193969726563,-11.197681164550781
3562764829160,2.697725051,1,0.2346317626953125,1.7322049011230467,-11.180921752929686
3562767683483,2.700579374,1,0.2214636535644531,1.744175909423828,-11.195286962890624
3562770540462,2.703436353,1,0.19512743530273435,1.744175909423828,-11.197681164550781
3562773399733,2.706295624,1,0.22385785522460935,1.7549498168945312,-11.337741961669922
3562776257181,2.709153072,1,0.2154781494140625,1.7525556152343749,-11.184513055419922
3562779112389,2.71200828,1,0.21188684692382811,1.7357962036132812,-11.166556542968749
3562781969160,2.714865051,1,0.20350714111328125,1.734599102783203,-11.168950744628905
3562784829212,2.717725103,1,0.2346317626953125,1.7262193969726563,-11.167753643798827
3562787683639,2.72057953,1,0.22744915771484372,1.7357962036132812,-11.177330450439452
3562790540878,2.723436769,1,0.20829554443359374,1.7369933044433592,-11.173739147949219
3562793400566,2.726296457,1,0.2346317626953125,1.7334020019531249,-11.17852755126953
3562796257493,2.729153384,1,0.22505495605468748,1.7286135986328124,-11.204863769531249
3562799111660,2.732007551,1,0.24061726684570311,1.7214309936523438,-11.190498559570312
3562801969264,2.734865155,1,0.23343466186523437,1.7262193969726563,-11.154585534667968
3562804828535,2.737724426,1,0.22864625854492185,1.7214309936523438,-11.174936248779296
3562807683847,2.740579738,1,0.23822306518554687,1.7202338928222656,-11.200075366210937
3562810541503,2.743437394,1,0.2262520568847656,1.725022296142578,-11.19887826538086
3562813398691,2.746294582,1,0.22744915771484372,1.7369933044433592,-11.200075366210937
3562816257181,2.749153072,1,0.2705447875976562,1.7357962036132812,-11.201272467041015
3562819112024,2.752007915,1,0.23104046020507812,1.7298106994628906,-11.196484063720703
3562821968847,2.754864738,1,0.23223756103515625,1.7357962036132812,-11.209652172851563
3562824828378,2.757724269,1,0.23223756103515625,1.7310078002929687,-11.192892761230468
3562827682805,2.760578696,1,0.2537853759765625,1.7130512878417967,-11.202469567871093
3562830541451,2.763437342,1,0.239420166015625,1.7130512878417967,-11.184513055419922
3562833400305,2.766296196,1,0.25737667846679685,1.70467158203125,-11.177330450439452
3562836257128,2.769153019,1,0.239420166015625,1.7094599853515624,-11.184513055419922
3562839112597,2.772008488,1,0.23822306518554687,1.7130512878417967,-11.184513055419922
3562841969420,2.774865311,1,0.2442085693359375,1.7226280944824217,-11.177330450439452
3562844828847,2.777724738,1,0.23822306518554687,1.725022296142578,-11.159373937988281
3562847684420,2.780580311,1,0.21308394775390624,1.714248388671875,-11.179724652099608
3562850540253,2.783436144,1,0.22266075439453123,1.734599102783203,-11.194089862060546
3562853399785,2.786295676,1,0.24061726684570311,1.7513585144042967,-11.194089862060546
3562856257389,2.78915328,1,0.23223756103515625,1.7381904052734374,-11.220426080322264
3562859112128,2.792008019,1,0.22505495605468748,1.7286135986328124,-11.21084927368164
3562861969003,2.794864894,1,0.21308394775390624,1.725022296142578,-11.204863769531249
3562864828066,2.797723957,1,0.21906945190429686,1.7238251953125,-11.201272467041015
3562867683587,2.800579478,1,0.25139117431640623,1.7178396911621092,-11.173739147949219
3562870541555,2.803437446,1,0.24779987182617186,1.7178396911621092,-11.19169566040039
3562873400201,2.806296092,1,0.2454056701660156,1.7369933044433592,-11.155782635498046
3562876258535,2.809154426,1,0.239420166015625,1.7489643127441405,-11.166556542968749
3562879112597,2.812008488,1,0.23104046020507812,1.7501614135742187,-11.180921752929686
3562881969785,2.814865676,1,0.239420166015625,1.7262193969726563,-11.221623181152344
3562884829264,2.817725155,1,0.22266075439453123,1.7226280944824217,-11.206060870361327
3562887683222,2.820579113,1,0.22266075439453123,1.7286135986328124,-11.184513055419922
3562890540774,2.823436665,1,0.2214636535644531,1.7130512878417967,-11.207257971191405
3562893400462,2.826296353,1,0.20949264526367187,1.7130512878417967,-11.186907257080078
3562896257805,2.829153696,1,0.22026655273437498,1.7130512878417967,-11.30661734008789
3562899112076,2.832007967,1,0.22744915771484372,1.7202338928222656,-11.15338843383789
3562901968951,2.834864842,1,0.229843359375,1.7226280944824217,-11.168950744628905
3562904828847,2.837724738,1,0.24779987182617186,1.7298106994628906,-11.189301458740234
3562907683535,2.840579426,1,0.22864625854492185,1.734599102783203,-11.19887826538086
3562910541243,2.843437134,1,0.21188684692382811,1.734599102783203,-11.220426080322264
3562913399212,2.846295103,1,0.239420166015625,1.7489643127441405,-11.196484063720703
3562916257233,2.849153124,1,0.2501940734863281,1.744175909423828,-11.152191333007812
3562919112024,2.852007915,1,0.24779987182617186,1.7298106994628906,-11.182118853759764
3562921969785,2.854865676,1,0.2537853759765625,1.7477672119140624,-11.195286962890624
3562924829212,2.857725103,1,0.258573779296875,1.7334020019531249,-11.194089862060546
3562927684108,2.860579999,1,0.22266075439453123,1.7286135986328124,-11.177330450439452
3562930546503,2.863442394,1,0.22026655273437498,1.725022296142578,-11.19169566040039
3562933404108,2.866299999,1,0.21787235107421873,1.7022773803710936,-11.18571015625
3562936258066,2.869153957,1,0.2214636535644531,1.707065783691406,-11.189301458740234
3562939112701,2.872008592,1,0.24181436767578124,1.7274164978027342,-11.203666668701171
3562941969316,2.874865207,1,0.25258827514648435,1.7238251953125,-11.174936248779296
3562944828066,2.877723957,1,0.24181436767578124,1.7381904052734374,-11.158176837158203
3562947683951,2.880579842,1,0.24181436767578124,1.7202338928222656,-11.168950744628905
3562950539941,2.883435832,1,0.229843359375,1.6998831787109374,-11.196484063720703
3562953400930,2.886296821,1,0.22505495605468748,1.6998831787109374,-11.215637677001952
3562956257962,2.889153853,1,0.19871873779296872,1.7118541870117185,-11.194089862060546
3562959112441,2.892008332,1,0.20350714111328125,1.715445489501953,-11.19887826538086
3562961969368,2.894865259,1,0.2166752502441406,1.7202338928222656,-11.19887826538086
3562964828326,2.897724217,1,0.2214636535644531,1.7118541870117185,-11.190498559570312
3562967683691,2.900579582,1,0.23702596435546874,1.7214309936523438,-11.176133349609374
3562970540618,2.903436509,1,0.22505495605468748,1.7381904052734374,-11.162965240478515
3562973401087,2.906296978,1,0.24181436767578124,1.7513585144042967,-11.208455072021483
3562976257024,2.909152915,1,0.25139117431640623,1.7513585144042967,-11.183315954589844
3562979111764,2.912007655,1,0.24181436767578124,1.7513585144042967,-11.189301458740234
3562981968899,2.91486479,1,0.229843359375,1.7525556152343749,-11.209652172851563
3562984828639,2.91772453,1,0.24899697265624998,1.734599102783203,-11.19887826538086
3562987683795,2.920579686,1,0.2597708801269531,1.7238251953125,-11.203666668701171
3562990541191,2.923437082,1,0.26336218261718747,1.7214309936523438,-11.183315954589844
3562993401399,2.92629729,1,0.2561795776367187,1.7357962036132812,-11.152191333007812
3562996257805,2.929153696,1,0.22864625854492185,1.7334020019531249,-11.154585534667968
3562999112389,2.93200828,1,0.23223756103515625,1.7286135986328124,-11.168950744628905
3563001968483,2.934864374,1,0.23104046020507812,1.7262193969726563,-11.186907257080078
3563004828535,2.937724426,1,0.239420166015625,1.7106570861816406,-11.195286962890624
3563007683847,2.940579738,1,0.22385785522460935,1.715445489501953,-11.200075366210937
3563010540722,2.943436613,1,0.22385785522460935,1.715445489501953,-11.206060870361327
3563013400149,2.94629604,1,0.22744915771484372,1.7357962036132812,-11.194089862060546
3563016256087,2.949151978,1,0.23702596435546874,1.7357962036132812,-11.167753643798827
3563019112597,2.952008488,1,0.25139117431640623,1.7465701110839842,-11.173739147949219
3563021969264,2.954865155,1,0.24899697265624998,1.7525556152343749,-11.173739147949219
3563024828430,2.957724321,1,0.21787235107421873,1.7453730102539062,-11.195286962890624
3563027684055,2.960579946,1,0.20949264526367187,1.7393875061035156,-11.212046374511718
3563030541191,2.963437082,1,0.21068974609375,1.753752716064453,-11.212046374511718
3563033400097,2.966295988,1,0.2262520568847656,1.7226280944824217,-11.180921752929686
3563036254368,2.969150259,1,0.19632453613281248,1.715445489501953,-11.179724652099608
3563039113274,2.972009165,1,0.2262520568847656,1.7082628845214842,-11.171344946289063
3563041969003,2.974864894,1,0.23223756103515625,1.7166425903320313,-11.176133349609374
3563044828430,2.977724321,1,0.2442085693359375,1.7262193969726563,-11.17852755126953
3563047682805,2.980578696,1,0.23104046020507812,1.7334020019531249,-11.188104357910156
3563050539993,2.983435884,1,0.23822306518554687,1.7310078002929687,-11.176133349609374
3563053399941,2.986295832,1,0.23702596435546874,1.7286135986328124,-11.145008728027342
3563056257180,2.989153071,1,0.21906945190429686,1.707065783691406,-11.17254204711914
3563059111660,2.992007551,1,0.20709844360351562,1.7106570861816406,-11.188104357910156
3563061970305,2.994866196,1,0.2154781494140625,1.707065783691406,-11.215637677001952
3563064829160,2.997725051,1,0.23104046020507812,1.7202338928222656,-11.214440576171874
3563067683118,3.000579009,1,0.22385785522460935,1.6998831787109374,-11.2240173828125
3563070541243,3.003437134,1,0.22385785522460935,1.7106570861816406,-11.227608685302734
3563073400930,3.006296821,1,0.21906945190429686,1.7034744812011717,-11.203666668701171
3563076258170,3.009154061,1,0.2214636535644531,1.7034744812011717,-11.186907257080078
3563079111451,3.012007342,1,0.21906945190429686,1.7094599853515624,-11.190498559570312
3563081968587,3.014864478,1,0.23343466186523437,1.7429788085937499,-11.204863769531249
3563084828535,3.017724426,1,0.23223756103515625,1.7465701110839842,-11.204863769531249
3563087683482,3.020579373,1,0.23223756103515625,1.7369933044433592,-11.17852755126953
3563090540670,3.023436561,1,0.24899697265624998,1.7501614135742187,-11.155782635498046
3563093399889,3.02629578,1,0.2454056701660156,1.7501614135742187,-11.177330450439452
3563096257441,3.029153332,1,0.2501940734863281,1.7573440185546874,-11.188104357910156
3563099112753,3.032008644,1,0.239420166015625,1.744175909423828,-11.183315954589844
3563101968743,3.034864634,1,0.24181436767578124,1.7381904052734374,-11.18571015625
3563104828118,3.037724009,1,0.229843359375,1.707065783691406,-11.213243475341796
3563107683066,3.040578957,1,0.2214636535644531,1.7166425903320313,-11.215637677001952
3563110540566,3.043436457,1,0.19632453613281248,1.7357962036132812,-11.201272467041015
3563113400149,3.04629604,1,0.2166752502441406,1.7322049011230467,-11.176133349609374
3563116257232,3.049153123,1,0.22385785522460935,1.7381904052734374,-11.189301458740234
3563119111503,3.052007394,1,0.19991583862304688,1.734599102783203,-11.213243475341796
3563121969264,3.054865155,1,0.21068974609375,1.7489643127441405,-11.184513055419922
3563124828118,3.057724009,1,0.21188684692382811,1.7417817077636717,-11.125855114746093
3563127684472,3.060580363,1,0.21906945190429686,1.734599102783203,-11.137826123046874
3563130541660,3.063437551,1,0.23582886352539062,1.7357962036132812,-11.159373937988281
3563133400357,3.066296248,1,0.23582886352539062,1.7322049011230467,-11.168950744628905
3563136257857,3.069153748,1,0.21068974609375,1.7262193969726563,-11.164162341308593
3563139111868,3.072007759,1,0.20949264526367187,1.7262193969726563,-11.156979736328124
3563141968847,3.074864738,1,0.23822306518554687,1.7298106994628906,-11.052831964111327
3563144828691,3.077724582,1,0.22864625854492185,1.7429788085937499,-11.206060870361327
3563147683274,3.080579165,1,0.21428104858398436,1.7357962036132812,-11.19887826538086
3563150541087,3.083436978,1,0.20350714111328125,1.7393875061035156,-11.200075366210937
3563153399524,3.086295415,1,0.21308394775390624,1.7477672119140624,-11.204863769531249
3563156257441,3.089153332,1,0.21428104858398436,1.7429788085937499,-11.190498559570312
3563159112441,3.092008332,1,0.21906945190429686,1.7417817077636717,-11.188104357910156
3563161968899,3.09486479,1,0.21787235107421873,1.7214309936523438,-11.170147845458983
3563164828378,3.097724269,1,0.23223756103515625,1.725022296142578,-11.174936248779296
3563167683170,3.100579061,1,0.2346317626953125,1.7310078002929687,-11.202469567871093
3563170540930,3.103436821,1,0.23582886352539062,1.7357962036132812,-11.195286962890624
3563173399941,3.106295832,1,0.2346317626953125,1.7381904052734374,-11.189301458740234
3563176256451,3.109152342,1,0.23822306518554687,1.7357962036132812,-11.182118853759764
3563179112753,3.112008644,1,0.23822306518554687,1.7621324218749999,-11.179724652099608
3563181968899,3.11486479,1,0.22744915771484372,1.7202338928222656,-11.170147845458983
3563184828482,3.117724373,1,0.24779987182617186,1.7118541870117185,-11.207257971191405
3563187684420,3.120580311,1,0.24899697265624998,1.714248388671875,-11.214440576171874
3563190541139,3.12343703,1,0.23223756103515625,1.7202338928222656,-11.19887826538086
3563193400305,3.126296196,1,0.23223756103515625,1.7034744812011717,-11.206060870361327
3563196257285,3.129153176,1,0.239420166015625,1.7334020019531249,-11.195286962890624
3563199118222,3.132014113,1,0.2262520568847656,1.7286135986328124,-11.173739147949219
3563201971399,3.13486729,1,0.239420166015625,1.7286135986328124,-11.197681164550781
3563204829316,3.137725207,1,0.22864625854492185,1.7274164978027342,-11.329362255859374
3563207682962,3.140578853,1,0.23702596435546874,1.7190367919921874,-11.176133349609374
3563210541191,3.143437082,1,0.2346317626953125,1.7274164978027342,-11.214440576171874
3563213400045,3.146295936,1,0.21068974609375,1.7357962036132812,-11.174936248779296
3563216257076,3.149152967,1,0.19871873779296872,1.7453730102539062,-11.168950744628905
3563219111607,3.152007498,1,0.19991583862304688,1.753752716064453,-11.206060870361327
3563221969680,3.154865571,1,0.19512743530273435,1.7501614135742187,-11.180921752929686
3563224829368,3.157725259,1,0.18076222534179687,1.744175909423828,-11.184513055419922
3563227683587,3.160579478,1,0.21188684692382811,1.7465701110839842,-11.190498559570312
3563230540253,3.163436144,1,0.229843359375,1.7369933044433592,-11.2240173828125
3563233400149,3.16629604,1,0.20709844360351562,1.7322049011230467,-11.202469567871093
3563236257076,3.169152967,1,0.21428104858398436,1.7214309936523438,-11.214440576171874
3563239112180,3.172008071,1,0.19871873779296872,1.7465701110839842,-11.220426080322264
3563241969160,3.174865051,1,0.20231004028320312,1.734599102783203,-11.202469567871093
3563244828274,3.177724165,1,0.22505495605468748,1.725022296142578,-11.164162341308593
3563247683222,3.180579113,1,0.22385785522460935,1.7082628845214842,-11.179724652099608
3563250541087,3.183436978,1,0.2262520568847656,1.715445489501953,-11.150994232177734
3563253400514,3.186296405,1,0.22026655273437498,1.734599102783203,-11.127052215576171
3563256256659,3.18915255,1,0.22026655273437498,1.734599102783203,-11.137826123046874
3563259112180,3.192008071,1,0.23702596435546874,1.7369933044433592,-11.173739147949219
3563261968534,3.194864425,1,0.24301146850585936,1.7369933044433592,-11.180921752929686
3563264829055,3.197724946,1,0.20829554443359374,1.7393875061035156,-11.039663854980468
3563267683274,3.200579165,1,0.18315642700195311,1.714248388671875,-11.192892761230468
3563270541191,3.203437082,1,0.19991583862304688,1.707065783691406,-11.220426080322264
3563273400409,3.2062963,1,0.22505495605468748,1.7298106994628906,-11.209652172851563
3563276256972,3.209152863,1,0.23223756103515625,1.7357962036132812,-11.203666668701171
3563279111659,3.21200755,1,0.2262520568847656,1.7286135986328124,-11.179724652099608
3563281969212,3.214865103,1,0.22266075439453123,1.7322049011230467,-11.171344946289063
3563284829628,3.217725519,1,0.23343466186523437,1.7334020019531249,-11.195286962890624
3563287683743,3.220579634,1,0.24660277099609373,1.7286135986328124,-11.201272467041015
3563290541503,3.223437394,1,0.25737667846679685,1.7322049011230467,-11.221623181152344
3563293401034,3.226296925,1,0.2442085693359375,1.7286135986328124,-11.18571015625
3563296257284,3.229153175,1,0.23582886352539062,1.7178396911621092,-11.201272467041015
3563299111868,3.232007759,1,0.21906945190429686,1.7130512878417967,-11.212046374511718
3563301969680,3.234865571,1,0.2501940734863281,1.7274164978027342,-11.209652172851563
3563304829732,3.237725623,1,0.23822306518554687,1.7298106994628906,-11.209652172851563
3563307683222,3.240579113,1,0.22505495605468748,1.7202338928222656,-11.173739147949219
3563310540722,3.243436613,1,0.22864625854492185,1.707065783691406,-11.155782635498046
3563313401555,3.246297446,1,0.23104046020507812,1.7166425903320313,-11.188104357910156
3563316256920,3.249152811,1,0.23104046020507812,1.7130512878417967,-11.189301458740234
3563319112441,3.252008332,1,0.21787235107421873,1.7130512878417967,-11.189301458740234
3563321969576,3.254865467,1,0.229843359375,1.7130512878417967,-11.174936248779296
3563324826607,3.257722498,1,0.239420166015625,1.7166425903320313,-11.170147845458983
3563327684159,3.26058005,1,0.23822306518554687,1.7226280944824217,-11.177330450439452
3563330540774,3.263436665,1,0.24301146850585936,1.7214309936523438,-11.177330450439452
3563333400514,3.266296405,1,0.239420166015625,1.7118541870117185,-11.203666668701171
3563336256868,3.269152759,1,0.229843359375,1.7178396911621092,-11.188104357910156
3563339112962,3.272008853,1,0.24899697265624998,1.7334020019531249,-11.170147845458983
3563341969107,3.274864998,1,0.21068974609375,1.7322049011230467,-11.165359442138671
3563344828899,3.27772479,1,0.2346317626953125,1.7262193969726563,-11.190498559570312
3563347683795,3.280579686,1,0.24660277099609373,1.7202338928222656,-11.197681164550781
3563350541295,3.283437186,1,0.22266075439453123,1.7082628845214842,-11.207257971191405
3563353400357,3.286296248,1,0.22864625854492185,1.7429788085937499,-11.184513055419922
3563356255670,3.289151561,1,0.23104046020507812,1.7357962036132812,-11.180921752929686
3563359113118,3.292009009,1,0.21308394775390624,1.7334020019531249,-11.176133349609374
3563361968482,3.294864373,1,0.22505495605468748,1.7357962036132812,-11.19169566040039
3563364827909,3.2977238,1,0.2166752502441406,1.7334020019531249,-11.17254204711914
3563367682805,3.300578696,1,0.2454056701660156,1.7609353210449217,-11.173739147949219
3563370541191,3.303437082,1,0.24061726684570311,1.7453730102539062,-11.177330450439452
3563373400774,3.306296665,1,0.23343466186523437,1.7322049011230467,-11.176133349609374
3563376257389,3.30915328,1,0.24779987182617186,1.7310078002929687,-11.190498559570312
3563379111816,3.312007707,1,0.24779987182617186,1.7202338928222656,-11.208455072021483
3563381969159,3.31486505,1,0.24899697265624998,1.7202338928222656,-11.214440576171874
3563384829941,3.317725832,1,0.22026655273437498,1.7202338928222656,-11.174936248779296
3563387683951,3.320579842,1,0.2262520568847656,1.7477672119140624,-11.183315954589844
3563390541087,3.323436978,1,0.2166752502441406,1.7561469177246092,-11.183315954589844
3563393399628,3.326295519,1,0.23104046020507812,1.7525556152343749,-11.228805786132812
3563396257962,3.329153853,1,0.2346317626953125,1.7369933044433592,-11.208455072021483
3563399111920,3.332007811,1,0.23582886352539062,1.7190367919921874,-11.206060870361327
3563401968951,3.334864842,1,0.22505495605468748,1.7286135986328124,-11.204863769531249
3563404829420,3.337725311,1,0.2214636535644531,1.7513585144042967,-11.182118853759764
3563407684316,3.340580207,1,0.20350714111328125,1.7513585144042967,-11.197681164550781
3563410540722,3.343436613,1,0.22505495605468748,1.7417817077636717,-11.161768139648437
3563413400097,3.346295988,1,0.24899697265624998,1.7381904052734374,-11.19169566040039
3563416255878,3.349151769,1,0.24779987182617186,1.7106570861816406,-11.170147845458983
3563419112493,3.352008384,1,0.23822306518554687,1.7130512878417967,-11.186907257080078
3563421968951,3.354864842,1,0.21308394775390624,1.6998831787109374,-11.173739147949219
3563424829316,3.357725207,1,0.23343466186523437,1.7214309936523438,-11.167753643798827
3563427683222,3.360579113,1,0.23223756103515625,1.7381904052734374,-11.197681164550781
3563430540722,3.363436613,1,0.2262520568847656,1.7513585144042967,-11.225214483642578
3563433400566,3.366296457,1,0.2154781494140625,1.7429788085937499,-11.2240173828125
3563436257701,3.369153592,1,0.2166752502441406,1.7417817077636717,-11.2240173828125
3563439112389,3.37200828,1,0.2166752502441406,1.7357962036132812,-11.201272467041015
3563441968743,3.374864634,1,0.1975216369628906,1.7381904052734374,-11.164162341308593
3563444828430,3.377724321,1,0.2346317626953125,1.7381904052734374,-11.170147845458983
3563447683170,3.380579061,1,0.23702596435546874,1.7238251953125,-11.19169566040039
3563450540462,3.383436353,1,0.20231004028320312,1.734599102783203,-11.189301458740234
3563453400097,3.386295988,1,0.21787235107421873,1.7477672119140624,-11.189301458740234
3563456256555,3.389152446,1,0.21308394775390624,1.7513585144042967,-11.186907257080078
3563459111712,3.392007603,1,0.21787235107421873,1.7453730102539062,-11.204863769531249
3563461968639,3.39486453,1,0.2262520568847656,1.734599102783203,-11.215637677001952
3563464828691,3.397724582,1,0.23104046020507812,1.7334020019531249,-11.209652172851563
3563467689003,3.400584894,1,0.24779987182617186,1.7525556152343749,-11.170147845458983
3563470542493,3.403438384,1,0.22744915771484372,1.7322049011230467,-11.186907257080078
3563473400097,3.406295988,1,0.22266075439453123,1.7334020019531249,-11.189301458740234
3563476257336,3.409153227,1,0.22266075439453123,1.7322049011230467,-11.19887826538086
3563479112389,3.41200828,1,0.23104046020507812,1.7405846069335937,-11.190498559570312
3563481969159,3.41486505,1,0.22026655273437498,1.7274164978027342,-11.177330450439452
3563484828014,3.417723905,1,0.22026655273437498,1.7286135986328124,-11.189301458740234
3563487684420,3.420580311,1,0.22026655273437498,1.7310078002929687,-11.179724652099608
3563490542493,3.423438384,1,0.21787235107421873,1.7453730102539062,-11.166556542968749
3563493399993,3.426295884,1,0.2214636535644531,1.7238251953125,-11.208455072021483
3563496256868,3.429152759,1,0.22744915771484372,1.7334020019531249,-11.174936248779296
3563499112076,3.432007967,1,0.20709844360351562,1.744175909423828,-11.183315954589844
3563501970097,3.434865988,1,0.20709844360351562,1.7477672119140624,-11.166556542968749
3563504827857,3.437723748,1,0.23822306518554687,1.7417817077636717,-11.15338843383789
3563507683430,3.440579321,1,0.23582886352539062,1.7417817077636717,-11.16057103881836
3563510541086,3.443436977,1,0.2346317626953125,1.7429788085937499,-11.173739147949219
3563513399993,3.446295884,1,0.21188684692382811,1.734599102783203,-11.173739147949219
3563516256451,3.449152342,1,0.21068974609375,1.7298106994628906,-11.168950744628905
3563519112441,3.452008332,1,0.22864625854492185,1.7369933044433592,-11.18571015625
3563521969524,3.454865415,1,0.22744915771484372,1.734599102783203,-11.168950744628905
3563524828430,3.457724321,1,0.22026655273437498,1.7645266235351562,-11.194089862060546
3563527683274,3.460579165,1,0.2154781494140625,1.7681179260253905,-11.195286962890624
3563530541295,3.463437186,1,0.20470424194335937,1.7573440185546874,-11.208455072021483
3563533400409,3.4662963,1,0.21787235107421873,1.753752716064453,-11.197681164550781
3563536257180,3.469153071,1,0.20470424194335937,1.7369933044433592,-11.206060870361327
3563539111972,3.472007863,1,0.20829554443359374,1.7405846069335937,-11.215637677001952
3563541969368,3.474865259,1,0.21787235107421873,1.7178396911621092,-11.204863769531249
3563544828274,3.477724165,1,0.20709844360351562,1.7238251953125,-11.200075366210937
3563547681139,3.48057703,1,0.1975216369628906,1.7298106994628906,-11.186907257080078
3563550542493,3.483438384,1,0.21787235107421873,1.7238251953125,-11.195286962890624
3563553400461,3.486296352,1,0.2346317626953125,1.7298106994628906,-11.174936248779296
3563556256295,3.489152186,1,0.22505495605468748,1.7369933044433592,-11.17254204711914
3563559111920,3.492007811,1,0.23223756103515625,1.7477672119140624,-11.208455072021483
3563561968795,3.494864686,1,0.23223756103515625,1.7202338928222656,-11.17254204711914
3563564828691,3.497724582,1,0.22505495605468748,1.7082628845214842,-11.184513055419922
3563567683586,3.500579477,1,0.2501940734863281,1.7202338928222656,-11.179724652099608
3563570540982,3.503436873,1,0.21906945190429686,1.7202338928222656,-11.171344946289063
3563573399784,3.506295675,1,0.2166752502441406,1.7334020019531249,-11.17852755126953
3563576257753,3.509153644,1,0.19871873779296872,1.7417817077636717,-11.17852755126953
3563579111711,3.512007602,1,0.21428104858398436,1.7453730102539062,-11.197681164550781
3563581969784,3.514865675,1,0.23104046020507812,1.7369933044433592,-11.21084927368164
3563584828847,3.517724738,1,0.22505495605468748,1.7405846069335937,-11.220426080322264
3563587682701,3.520578592,1,0.23582886352539062,1.7322049011230467,-11.201272467041015
3563590540566,3.523436457,1,0.23702596435546874,1.725022296142578,-11.186907257080078
3563593399784,3.526295675,1,0.22744915771484372,1.707065783691406,-11.189301458740234
3563596256451,3.529152342,1,0.24061726684570311,1.725022296142578,-11.155782635498046
3563599111764,3.532007655,1,0.24061726684570311,1.7238251953125,-11.155782635498046
3563601968847,3.534864738,1,0.22385785522460935,1.7106570861816406,-11.17254204711914
3563604828430,3.537724321,1,0.22864625854492185,1.715445489501953,-11.207257971191405
3563607683586,3.540579477,1,0.24899697265624998,1.7238251953125,-11.190498559570312
3563610540878,3.543436769,1,0.25737667846679685,1.753752716064453,-11.180921752929686
3563613400930,3.546296821,1,0.22744915771484372,1.7465701110839842,-11.176133349609374
3563616257336,3.549153227,1,0.20709844360351562,1.7274164978027342,-11.17852755126953
3563619111451,3.552007342,1,0.22744915771484372,1.715445489501953,-11.136629022216797
3563621968847,3.554864738,1,0.2262520568847656,1.7106570861816406,-11.150994232177734
3563624827441,3.557723332,1,0.2262520568847656,1.7322049011230467,-11.174936248779296
3563627682701,3.560578592,1,0.229843359375,1.7166425903320313,-11.189301458740234
3563630540982,3.563436873,1,0.2346317626953125,1.7166425903320313,-11.186907257080078
3563633401191,3.566297082,1,0.2501940734863281,1.725022296142578,-11.190498559570312
3563636257701,3.569153592,1,0.239420166015625,1.7310078002929687,-11.190498559570312
3563639111972,3.572007863,1,0.239420166015625,1.7453730102539062,-11.209652172851563
3563641969003,3.574864894,1,0.2454056701660156,1.7477672119140624,-11.179724652099608
3563644828014,3.577723905,1,0.2501940734863281,1.7525556152343749,-11.165359442138671
3563647683170,3.580579061,1,0.22385785522460935,1.734599102783203,-11.155782635498046
3563650540514,3.583436405,1,0.22385785522460935,1.7393875061035156,-11.135431921386719
3563653399941,3.586295832,1,0.2154781494140625,1.7298106994628906,-11.128249316406249
3563656257024,3.589152915,1,0.229843359375,1.7429788085937499,-11.1474029296875
3563659111816,3.592007707,1,0.23702596435546874,1.7322049011230467,-11.203666668701171
3563661983951,3.594879842,1,0.23343466186523437,1.7226280944824217,-11.184513055419922
3563664843795,3.597739686,1,0.23223756103515625,1.7274164978027342,-11.173739147949219
3563667698847,3.600594738,1,0.23582886352539062,1.7310078002929687,-11.173739147949219
3563670555930,3.603451821,1,0.24061726684570311,1.714248388671875,-11.182118853759764
3563673412909,3.6063088,1,0.23822306518554687,1.7214309936523438,-11.170147845458983
3563676273378,3.609169269,1,0.23104046020507812,1.7322049011230467,-11.183315954589844
3563679127389,3.61202328,1,0.24301146850585936,1.7190367919921874,-11.194089862060546
3563681983951,3.614879842,1,0.2454056701660156,1.707065783691406,-11.177330450439452
3563684845253,3.617741144,1,0.2454056701660156,1.7190367919921874,-11.152191333007812
3563687698482,3.620594373,1,0.2454056701660156,1.7166425903320313,-11.148600030517578
3563690556399,3.62345229,1,0.2537853759765625,1.7322049011230467,-11.149797131347656
3563693413638,3.626309529,1,0.25139117431640623,1.7322049011230467,-11.161768139648437
3563696273378,3.629169269,1,0.23343466186523437,1.7322049011230467,-11.148600030517578
3563699127284,3.632023175,1,0.23582886352539062,1.7501614135742187,-11.17852755126953
3563701984524,3.634880415,1,0.23822306518554687,1.7405846069335937,-11.174936248779296
3563704844316,3.637740207,1,0.23104046020507812,1.7393875061035156,-11.174936248779296
3563707699107,3.640594998,1,0.2346317626953125,1.725022296142578,-11.186907257080078
3563710556347,3.643452238,1,0.23343466186523437,1.7190367919921874,-11.194089862060546
3563713416816,3.646312707,1,0.239420166015625,1.7034744812011717,-11.200075366210937
3563716273013,3.649168904,1,0.22026655273437498,1.7034744812011717,-11.183315954589844
3563719124993,3.652020884,1,0.23702596435546874,1.705868682861328,-11.19887826538086
3563721983691,3.654879582,1,0.21906945190429686,1.7190367919921874,-11.213243475341796
3563724842336,3.657738227,1,0.23223756103515625,1.7178396911621092,-11.207257971191405
3563727696191,3.660592082,1,0.21428104858398436,1.7334020019531249,-11.200075366210937
3563730554159,3.66345005,1,0.22385785522460935,1.7489643127441405,-11.192892761230468
3563733410982,3.666306873,1,0.23343466186523437,1.7310078002929687,-11.192892761230468
3563736279784,3.669175675,1,0.2442085693359375,1.7262193969726563,-11.174936248779296
3563739122597,3.672018488,1,0.23582886352539062,1.7130512878417967,-11.18571015625
3563741984993,3.674880884,1,0.22026655273437498,1.7226280944824217,-11.17852755126953
3563744842961,3.677738852,1,0.21308394775390624,1.7166425903320313,-11.189301458740234
3563747696451,3.680592342,1,0.21308394775390624,1.7214309936523438,-11.18571015625
3563750554784,3.683450675,1,0.2537853759765625,1.734599102783203,-11.197681164550781
3563753412024,3.686307915,1,0.2549824768066406,1.7322049011230467,-11.170147845458983
3563756272024,3.689167915,1,0.23343466186523437,1.7322049011230467,-11.155782635498046
3563759125201,3.692021092,1,0.21906945190429686,1.7274164978027342,-11.152191333007812
3563761985357,3.694881248,1,0.23104046020507812,1.7334020019531249,-11.161768139648437
3563764845826,3.697741717,1,0.24779987182617186,1.7238251953125,-11.161768139648437
3563767699524,3.700595415,1,0.23104046020507812,1.7202338928222656,-11.204863769531249
3563770556816,3.703452707,1,0.23104046020507812,1.7262193969726563,-11.202469567871093
3563773413222,3.706309113,1,0.24181436767578124,1.725022296142578,-11.197681164550781
3563776273326,3.709169217,1,0.23223756103515625,1.7393875061035156,-11.186907257080078
3563779127909,3.7120238,1,0.24301146850585936,1.7369933044433592,-11.184513055419922
3563781984680,3.714880571,1,0.23223756103515625,1.7357962036132812,-11.183315954589844
3563784845201,3.717741092,1,0.21906945190429686,1.7369933044433592,-11.192892761230468
3563787697701,3.720593592,1,0.20231004028320312,1.7322049011230467,-11.202469567871093
3563790556243,3.723452134,1,0.23822306518554687,1.734599102783203,-11.171344946289063
3563793413951,3.726309842,1,0.24899697265624998,1.725022296142578,-11.177330450439452
3563796274993,3.729170884,1,0.24181436767578124,1.7166425903320313,-11.183315954589844
3563799126920,3.732022811,1,0.2442085693359375,1.7262193969726563,-11.200075366210937
3563801984420,3.734880311,1,0.24301146850585936,1.7274164978027342,-11.179724652099608
3563804845201,3.737741092,1,0.2501940734863281,1.7322049011230467,-11.206060870361327
3563807699420,3.740595311,1,0.22864625854492185,1.734599102783203,-11.203666668701171
3563810556399,3.74345229,1,0.22864625854492185,1.7334020019531249,-11.18571015625
3563813415982,3.746311873,1,0.2346317626953125,1.7202338928222656,-11.196484063720703
3563816273482,3.749169373,1,0.2214636535644531,1.714248388671875,-11.176133349609374
3563819126086,3.752021977,1,0.21787235107421873,1.714248388671875,-11.203666668701171
3563821983638,3.754879529,1,0.21308394775390624,1.7357962036132812,-11.200075366210937
3563824843430,3.757739321,1,0.20709844360351562,1.7489643127441405,-11.222820281982422
3563827696399,3.76059229,1,0.20949264526367187,1.7609353210449217,-11.222820281982422
3563830554628,3.763450519,1,0.21906945190429686,1.7717092285156248,-11.192892761230468
3563833410513,3.766306404,1,0.22385785522460935,1.7501614135742187,-11.202469567871093
3563836269732,3.769165623,1,0.22385785522460935,1.7262193969726563,-11.18571015625
3563839125097,3.772020988,1,0.23104046020507812,1.7322049011230467,-11.179724652099608
3563841982545,3.774878436,1,0.24779987182617186,1.7286135986328124,-11.167753643798827
3563844842805,3.777738696,1,0.24899697265624998,1.7429788085937499,-11.190498559570312
3563847698482,3.780594373,1,0.2454056701660156,1.7034744812011717,-11.188104357910156
3563850554524,3.783450415,1,0.24301146850585936,1.697488977050781,-11.166556542968749
3563853411086,3.786306977,1,0.23822306518554687,1.715445489501953,-11.158176837158203
3563856271503,3.789167394,1,0.23582886352539062,1.7298106994628906,-11.188104357910156
3563859125201,3.792021092,1,0.2454056701660156,1.734599102783203,-11.206060870361327
3563862018847,3.794914738,1,0.24301146850585936,1.7322049011230467,-11.176133349609374
3563864843899,3.79773979,1,0.23582886352539062,1.7310078002929687,-11.150994232177734
3563867696868,3.800592759,1,0.229843359375,1.7477672119140624,-11.16057103881836
3563870553326,3.803449217,1,0.229843359375,1.7322049011230467,-11.164162341308593
3563873410097,3.806305988,1,0.24899697265624998,1.734599102783203,-11.156979736328124
3563876271868,3.809167759,1,0.2597708801269531,1.7393875061035156,-11.165359442138671
3563879125722,3.812021613,1,0.23702596435546874,1.7393875061035156,-11.171344946289063
3563881982753,3.814878644,1,0.23223756103515625,1.7597382202148437,-11.158176837158203
3563884842857,3.817738748,1,0.2454056701660156,1.744175909423828,-11.16057103881836
3563887696243,3.820592134,1,0.24061726684570311,1.7310078002929687,-11.16057103881836
3563890553847,3.823449738,1,0.24061726684570311,1.7214309936523438,-11.18571015625
3563893411399,3.82630729,1,0.24301146850585936,1.7381904052734374,-11.222820281982422
3563896271347,3.829167238,1,0.25139117431640623,1.7226280944824217,-11.215637677001952
3563899124420,3.832020311,1,0.26815058593749996,1.7214309936523438,-11.186907257080078
3563901982180,3.834878071,1,0.25139117431640623,1.7190367919921874,-11.21683477783203
3563904842076,3.837737967,1,0.229843359375,1.715445489501953,-11.204863769531249
3563907696086,3.840591977,1,0.19871873779296872,1.7106570861816406,-11.206060870361327
3563910554784,3.843450675,1,0.19153613281249998,1.7214309936523438,-11.21683477783203
3563913410930,3.846306821,1,0.21068974609375,1.7357962036132812,-11.184513055419922
3563916271347,3.849167238,1,0.21068974609375,1.7298106994628906,-11.170147845458983
3563919125461,3.852021352,1,0.24061726684570311,1.715445489501953,-11.173739147949219
3563921982232,3.854878123,1,0.2154781494140625,1.7214309936523438,-11.179724652099608
3563924842909,3.8577388,1,0.21787235107421873,1.7381904052734374,-11.171344946289063
3563927696399,3.86059229,1,0.2346317626953125,1.7381904052734374,-11.192892761230468
3563930552753,3.863448644,1,0.23822306518554687,1.7274164978027342,-11.196484063720703
3563933410826,3.866306717,1,0.23822306518554687,1.7166425903320313,-11.231199987792968
3563936271503,3.869167394,1,0.2561795776367187,1.7262193969726563,-11.206060870361327
3563939125513,3.872021404,1,0.229843359375,1.7262193969726563,-11.18571015625
3563941982857,3.874878748,1,0.2346317626953125,1.7262193969726563,-11.195286962890624
3563944841972,3.877737863,1,0.239420166015625,1.7262193969726563,-11.212046374511718
3563947696503,3.880592394,1,0.23343466186523437,1.7106570861816406,-11.194089862060546
3563950552440,3.883448331,1,0.239420166015625,1.7298106994628906,-11.194089862060546
3563953410670,3.886306561,1,0.23343466186523437,1.7226280944824217,-11.189301458740234
3563956270461,3.889166352,1,0.25737667846679685,1.734599102783203,-11.190498559570312
3563959125357,3.892021248,1,0.258573779296875,1.7405846069335937,-11.154585534667968
3563962021034,3.894916925,1,0.2442085693359375,1.7298106994628906,-11.180921752929686
3563964843222,3.897739113,1,0.25258827514648435,1.734599102783203,-11.197681164550781
3563967695930,3.900591821,1,0.2346317626953125,1.7381904052734374,-11.17254204711914
3563970553638,3.903449529,1,0.22864625854492185,1.7465701110839842,-11.154585534667968
3563973410774,3.906306665,1,0.22026655273437498,1.7274164978027342,-11.180921752929686
3563976272180,3.909168071,1,0.22864625854492185,1.7202338928222656,-11.200075366210937
3563979124993,3.912020884,1,0.22026655273437498,1.7513585144042967,-11.233594189453123
3563981981451,3.914877342,1,0.23343466186523437,1.7549498168945312,-11.206060870361327
3563984843326,3.917739217,1,0.2166752502441406,1.725022296142578,-11.18571015625
3563987692701,3.920588592,1,0.2166752502441406,1.7573440185546874,-11.166556542968749
3563990556034,3.923451925,1,0.22864625854492185,1.763329522705078,-11.186907257080078
3563993412076,3.926307967,1,0.22864625854492185,1.7190367919921874,-11.197681164550781
3563996270774,3.929166665,1,0.239420166015625,1.7106570861816406,-11.19169566040039
3563999124420,3.932020311,1,0.25139117431640623,1.696291876220703,-11.195286962890624
3564001982024,3.934877915,1,0.23582886352539062,1.696291876220703,-11.209652172851563
3564004846347,3.937742238,1,0.2454056701660156,1.715445489501953,-11.186907257080078
3564007699368,3.940595259,1,0.23822306518554687,1.7202338928222656,-11.200075366210937
3564010553638,3.943449529,1,0.2454056701660156,1.7094599853515624,-11.200075366210937
3564013411815,3.946307706,1,0.22266075439453123,1.7034744812011717,-11.200075366210937
3564016271399,3.94916729,1,0.23104046020507812,1.7226280944824217,-11.206060870361327
3564019124888,3.952020779,1,0.239420166015625,1.7226280944824217,-11.180921752929686
3564021982232,3.954878123,1,0.23343466186523437,1.7214309936523438,-11.17852755126953
3564024842649,3.95773854,1,0.21906945190429686,1.714248388671875,-11.176133349609374
3564027696086,3.960591977,1,0.22505495605468748,1.7022773803710936,-11.171344946289063
3564030552493,3.963448384,1,0.20949264526367187,1.7094599853515624,-11.184513055419922
3564033410826,3.966306717,1,0.21188684692382811,1.7465701110839842,-11.18571015625
3564036270722,3.969166613,1,0.21188684692382811,1.7465701110839842,-11.202469567871093
3564039124472,3.972020363,1,0.22266075439453123,1.7561469177246092,-11.190498559570312
3564041982961,3.974878852,1,0.229843359375,1.7369933044433592,-11.159373937988281
3564044841815,3.977737706,1,0.21308394775390624,1.7429788085937499,-11.195286962890624
3564047696451,3.980592342,1,0.1927332336425781,1.7334020019531249,-11.190498559570312
3564050552701,3.983448592,1,0.19632453613281248,1.7453730102539062,-11.194089862060546
3564053411451,3.986307342,1,0.2214636535644531,1.725022296142578,-11.182118853759764
3564056271659,3.98916755,1,0.2214636535644531,1.725022296142578,-11.142614526367186
3564059120565,3.992016456,1,0.22505495605468748,1.715445489501953,-11.18571015625
3564062016659,3.99491255,1,0.21068974609375,1.7274164978027342,-11.154585534667968
3564064844159,3.99774005,1,0.21308394775390624,1.7274164978027342,-11.141417425537108
3564067696503,4.000592394,1,0.1975216369628906,1.7585411193847655,-11.17852755126953
3564070553795,4.003449686,1,0.1867477294921875,1.7489643127441405,-11.06360587158203
3564073411659,4.00630755,1,0.2262520568847656,1.7597382202148437,-11.21683477783203
3564076271555,4.009167446,1,0.21787235107421873,1.7549498168945312,-11.226411584472656
3564079123743,4.012019634,1,0.22385785522460935,1.763329522705078,-11.203666668701171
3564081982545,4.014878436,1,0.23582886352539062,1.772906329345703,-11.220426080322264
3564084842857,4.017738748,1,0.22864625854492185,1.7705121276855467,-11.19169566040039
3564087695930,4.020591821,1,0.23702596435546874,1.7776947326660155,-11.155782635498046
3564090553795,4.023449686,1,0.23343466186523437,1.7585411193847655,-11.143811627197264
3564093411503,4.026307394,1,0.22744915771484372,1.7669208251953124,-11.168950744628905
3564096271607,4.029167498,1,0.22266075439453123,1.725022296142578,-11.183315954589844
3564099124628,4.032020519,1,0.2154781494140625,1.7369933044433592,-11.184513055419922
3564101982388,4.034878279,1,0.22385785522460935,1.7334020019531249,-11.164162341308593
3564104842961,4.037738852,1,0.201112939453125,1.7238251953125,-11.146205828857422
3564107696451,4.040592342,1,0.20709844360351562,1.7226280944824217,-11.165359442138671
