timestamp_ns,t_s,sensor_id,ax,ay,az
4942642068842,0.058177084,1,0.24660277099609373,1.7334020019531249,-11.19169566040039
4942645360873,0.061469115,1,0.22864625854492185,1.7262193969726563,-11.192892761230468
4942648689987,0.064798229,1,0.22505495605468748,1.7369933044433592,-11.251550701904296
4942652043477,0.068151719,1,0.2537853759765625,1.7800889343261719,-11.16057103881836
4942655357071,0.071465313,1,0.2346317626953125,1.7298106994628906,-11.179724652099608
4942658689258,0.0747975,1,0.2166752502441406,1.7202338928222656,-11.208455072021483
4942662026133,0.078134375,1,0.22385785522460935,1.6843208679199217,-11.204863769531249
4942665357800,0.081466042,1,0.26695348510742184,1.734599102783203,-11.174936248779296
4942668690717,0.084798959,1,0.22744915771484372,1.7369933044433592,-11.241973895263671
4942672023946,0.088132188,1,0.2561795776367187,1.744175909423828,-11.136629022216797
4942675354206,0.091462448,1,0.19393033447265623,1.7944541442871094,-11.17254204711914
4942678688008,0.09479625,1,0.23822306518554687,1.7286135986328124,-11.18571015625
4942682022800,0.098131042,1,0.27293898925781246,1.7166425903320313,-11.214440576171874
4942685354831,0.101463073,1,0.24660277099609373,1.7489643127441405,-11.219228979492186
4942688690508,0.10479875,1,0.20709844360351562,1.70467158203125,-11.124658013916015
4942692023269,0.108131511,1,0.21308394775390624,1.707065783691406,-11.232397088623046
4942695353998,0.11146224,1,0.2059013427734375,1.7274164978027342,-11.149797131347656
4942698688373,0.114796615,1,0.23223756103515625,1.656787548828125,-11.202469567871093
4942702023425,0.118131667,1,0.27293898925781246,1.7310078002929687,-11.200075366210937
4942705356654,0.121464896,1,0.2561795776367187,1.7393875061035156,-11.180921752929686
4942708689519,0.124797761,1,0.23343466186523437,1.7106570861816406,-11.182118853759764
4942712023477,0.128131719,1,0.20350714111328125,1.7381904052734374,-11.142614526367186
4942715354467,0.131462709,1,0.22026655273437498,1.707065783691406,-11.188104357910156
4942718688165,0.134796407,1,0.2059013427734375,1.697488977050781,-11.21084927368164
4942722023633,0.138131875,1,0.1879448303222656,1.7202338928222656,-11.154585534667968
4942725355925,0.141464167,1,0.2346317626953125,1.6903063720703124,-11.156979736328124
4942728689415,0.144797657,1,0.24899697265624998,1.686715069580078,-11.184513055419922
4942732023060,0.148131302,1,0.23582886352539062,1.7286135986328124,-11.213243475341796
4942735354571,0.151462813,1,0.23702596435546874,1.7381904052734374,-11.18571015625
4942738688060,0.154796302,1,0.20470424194335937,1.7190367919921874,-11.190498559570312
4942742023685,0.158131927,1,0.19512743530273435,1.7214309936523438,-11.190498559570312
4942745356602,0.161464844,1,0.22505495605468748,1.7573440185546874,-11.170147845458983
4942748689310,0.164797552,1,0.2059013427734375,1.7310078002929687,-11.056423266601563
4942752023008,0.16813125,1,0.2537853759765625,1.8148048583984373,-11.201272467041015
4942755353581,0.171461823,1,0.2537853759765625,1.7381904052734374,-11.213243475341796
4942758687800,0.174796042,1,0.16998831787109375,1.6915034729003906,-11.167753643798827
4942762023790,0.178132032,1,0.2454056701660156,1.7034744812011717,-11.176133349609374
4942765356342,0.181464584,1,0.229843359375,1.7513585144042967,-11.174936248779296
4942768689779,0.184798021,1,0.19512743530273435,1.7525556152343749,-11.180921752929686
4942772023217,0.188131459,1,0.2705447875976562,1.6986860778808592,-11.256339105224608
4942775354415,0.191462657,1,0.24779987182617186,1.6747440612792968,-11.136629022216797
4942778687956,0.194796198,1,0.1927332336425781,1.7357962036132812,-11.189301458740234
4942782022696,0.198130938,1,0.19153613281249998,1.753752716064453,-11.167753643798827
4942785356446,0.201464688,1,0.201112939453125,1.7166425903320313,-11.173739147949219
4942788689414,0.204797656,1,0.23822306518554687,1.68551796875,-11.214440576171874
4942792023164,0.208131406,1,0.21308394775390624,1.7178396911621092,-11.189301458740234
4942795354154,0.211462396,1,0.20709844360351562,1.7034744812011717,-11.177330450439452
4942798688998,0.21479724,1,0.19393033447265623,1.7573440185546874,-11.165359442138671
4942802023529,0.218131771,1,0.22266075439453123,1.696291876220703,-11.225214483642578
4942805356185,0.221464427,1,0.2442085693359375,1.7453730102539062,-11.170147845458983
4942808689935,0.224798177,1,0.22266075439453123,1.7681179260253905,-11.29344923095703
4942812379779,0.228488021,1,0.19632453613281248,1.7118541870117185,-11.23718549194336
4942815359571,0.231467813,1,0.19512743530273435,1.753752716064453,-11.23000288696289
4942818688269,0.234796511,1,0.2346317626953125,1.7609353210449217,-11.158176837158203
4942822023946,0.238132188,1,0.24779987182617186,1.7274164978027342,-11.238382592773437
4942825356602,0.241464844,1,0.2537853759765625,1.7226280944824217,-11.173739147949219
4942828689935,0.244798177,1,0.19512743530273435,1.705868682861328,-11.165359442138671
4942832023060,0.248131302,1,0.26336218261718747,1.7178396911621092,-11.19169566040039
4942835353998,0.25146224,1,0.20350714111328125,1.7753005310058592,-11.174936248779296
4942838687592,0.254795834,1,0.19393033447265623,1.7561469177246092,-11.173739147949219
4942842023894,0.258132136,1,0.2262520568847656,1.7597382202148437,-11.206060870361327
4942845356446,0.261464688,1,0.24181436767578124,1.7166425903320313,-11.174936248779296
4942848689154,0.264797396,1,0.24660277099609373,1.7298106994628906,-11.182118853759764
4942852023425,0.268131667,1,0.23822306518554687,1.714248388671875,-11.121066711425781
4942855354310,0.271462552,1,0.20949264526367187,1.7405846069335937,-11.177330450439452
4942858687956,0.274796198,1,0.2442085693359375,1.7549498168945312,-11.150994232177734
4942862022956,0.278131198,1,0.2597708801269531,1.725022296142578,-11.19887826538086
4942865357071,0.281465313,1,0.20350714111328125,1.7693150268554687,-11.201272467041015
4942868689727,0.284797969,1,0.22864625854492185,1.7262193969726563,-11.197681164550781
4942872023321,0.288131563,1,0.239420166015625,1.6998831787109374,-11.189301458740234
4942875352904,0.291461146,1,0.18914193115234373,1.7549498168945312,-11.119869610595703
4942878688321,0.294796563,1,0.19632453613281248,1.7561469177246092,-11.184513055419922
4942882023060,0.298131302,1,0.2549824768066406,1.7513585144042967,-11.109095703125
4942885356185,0.301464427,1,0.20709844360351562,1.7393875061035156,-11.143811627197264
4942888689779,0.304798021,1,0.21308394775390624,1.7764976318359373,-11.202469567871093
4942892022748,0.30813099,1,0.2454056701660156,1.7202338928222656,-11.194089862060546
4942895353529,0.311461771,1,0.24301146850585936,1.675941162109375,-11.130643518066405
4942898687904,0.314796146,1,0.21428104858398436,1.7094599853515624,-11.161768139648437
4942902022539,0.318130781,1,0.2214636535644531,1.7298106994628906,-11.197681164550781
4942905355873,0.321464115,1,0.2454056701660156,1.70467158203125,-11.17254204711914
4942908687696,0.324795938,1,0.2657563842773437,1.7705121276855467,-11.170147845458983
4942912022956,0.328131198,1,0.1975216369628906,1.7118541870117185,-11.173739147949219
4942915353685,0.331461927,1,0.1927332336425781,1.753752716064453,-11.159373937988281
4942918687123,0.334795365,1,0.21787235107421873,1.6891092712402342,-11.166556542968749
4942922022852,0.338131094,1,0.2166752502441406,1.687912170410156,-11.13423482055664
4942925356185,0.341464427,1,0.24061726684570311,1.7717092285156248,-11.149797131347656
4942928689935,0.344798177,1,0.20709844360351562,1.7274164978027342,-11.189301458740234
4942932023060,0.348131302,1,0.2166752502441406,1.6927005737304686,-11.204863769531249
4942935353842,0.351462084,1,0.20709844360351562,1.6639701538085936,-11.227608685302734
4942938688321,0.354796563,1,0.22026655273437498,1.7166425903320313,-11.166556542968749
4942942023373,0.358131615,1,0.23702596435546874,1.7357962036132812,-11.207257971191405
4942945356758,0.361465,1,0.1927332336425781,1.7429788085937499,-11.177330450439452
4942948689258,0.3647975,1,0.229843359375,1.6938976745605467,-11.182118853759764
4942952022748,0.36813099,1,0.2059013427734375,1.714248388671875,-11.202469567871093
4942955359883,0.371468125,1,0.2657563842773437,1.7298106994628906,-11.149797131347656
4942958690508,0.37479875,1,0.23104046020507812,1.7226280944824217,-11.180921752929686
4942962023581,0.378131823,1,0.2501940734863281,1.7082628845214842,-11.113884106445312
4942965356810,0.381465052,1,0.28012159423828126,1.7262193969726563,-11.244368096923827
4942968689310,0.384797552,1,0.26695348510742184,1.7405846069335937,-11.201272467041015
4942972022331,0.388130573,1,0.2214636535644531,1.6986860778808592,-11.087547888183593
4942975353477,0.391461719,1,0.2537853759765625,1.7106570861816406,-11.288660827636718
4942978688269,0.394796511,1,0.229843359375,1.714248388671875,-11.220426080322264
4942982022227,0.398130469,1,0.22744915771484372,1.7357962036132812,-11.161768139648437
4942985355352,0.401463594,1,0.229843359375,1.6891092712402342,-11.148600030517578
4942988689154,0.404797396,1,0.24301146850585936,1.734599102783203,-11.146205828857422
4942992022748,0.40813099,1,0.239420166015625,1.7094599853515624,-11.204863769531249
4942995353269,0.411461511,1,0.181959326171875,1.7082628845214842,-11.15338843383789
4942998688164,0.414796406,1,0.239420166015625,1.7238251953125,-11.179724652099608
4943002023112,0.418131354,1,0.19512743530273435,1.7417817077636717,-11.189301458740234
4943005356081,0.421464323,1,0.2214636535644531,1.714248388671875,-11.218031878662108
4943008689675,0.424797917,1,0.26216508178710934,1.7417817077636717,-11.19887826538086
4943012023581,0.428131823,1,0.2346317626953125,1.7429788085937499,-11.243170996093749
4943015351237,0.431459479,1,0.19991583862304688,1.696291876220703,-11.183315954589844
4943018688269,0.434796511,1,0.23223756103515625,1.7585411193847655,-11.135431921386719
4943022023216,0.438131458,1,0.23343466186523437,1.7334020019531249,-11.208455072021483
4943025355456,0.441463698,1,0.24660277099609373,1.7130512878417967,-11.177330450439452
4943028689102,0.444797344,1,0.20470424194335937,1.734599102783203,-11.137826123046874
4943032022748,0.44813099,1,0.24181436767578124,1.7322049011230467,-11.194089862060546
4943035354623,0.451462865,1,0.2597708801269531,1.70467158203125,-11.227608685302734
4943038688581,0.454796823,1,0.18076222534179687,1.725022296142578,-11.18571015625
4943042020925,0.458129167,1,0.22385785522460935,1.7513585144042967,-11.200075366210937
4943045356394,0.461464636,1,0.22385785522460935,1.7274164978027342,-11.177330450439452
4943048688373,0.464796615,1,0.20350714111328125,1.7166425903320313,-11.228805786132812
4943052023373,0.468131615,1,0.20470424194335937,1.7489643127441405,-11.124658013916015
4943055354414,0.471462656,1,0.2609679809570312,1.7190367919921874,-11.220426080322264
4943058687487,0.474795729,1,0.20231004028320312,1.7513585144042967,-11.204863769531249
4943062022644,0.478130886,1,0.24061726684570311,1.7238251953125,-11.18571015625
4943065355612,0.481463854,1,0.2346317626953125,1.7262193969726563,-11.08395658569336
4943068688685,0.484796927,1,0.239420166015625,1.7094599853515624,-11.197681164550781
4943072022227,0.488130469,1,0.26815058593749996,1.7286135986328124,-11.141417425537108
4943075353946,0.491462188,1,0.2693476867675781,1.734599102783203,-11.330559356689452
4943078687279,0.494795521,1,0.2454056701660156,1.7286135986328124,-11.091139190673827
4943082023060,0.498131302,1,0.23343466186523437,1.7022773803710936,-11.150994232177734
4943085356081,0.501464323,1,0.24301146850585936,1.7130512878417967,-11.125855114746093
4943088689258,0.5047975,1,0.27293898925781246,1.7214309936523438,-11.23718549194336
4943092023581,0.508131823,1,0.20829554443359374,1.7513585144042967,-11.231199987792968
4943095353894,0.511462136,1,0.22744915771484372,1.7322049011230467,-11.143811627197264
4943098687800,0.514796042,1,0.24779987182617186,1.725022296142578,-11.209652172851563
4943102023164,0.518131406,1,0.2537853759765625,1.715445489501953,-11.116278308105468
4943105356081,0.521464323,1,0.2454056701660156,1.7334020019531249,-11.055226165771483
4943108689310,0.524797552,1,0.23582886352539062,1.7286135986328124,-11.174936248779296
4943112022227,0.528130469,1,0.2262520568847656,1.7369933044433592,-11.162965240478515
4943115353946,0.531462188,1,0.2346317626953125,1.7274164978027342,-11.17852755126953
4943118687591,0.534795833,1,0.22266075439453123,1.7764976318359373,-11.194089862060546
4943122023164,0.538131406,1,0.23702596435546874,1.6843208679199217,-11.218031878662108
4943125355873,0.541464115,1,0.25737667846679685,1.707065783691406,-11.170147845458983
4943128689154,0.544797396,1,0.21906945190429686,1.7489643127441405,-11.194089862060546
4943132023060,0.548131302,1,0.2059013427734375,1.6986860778808592,-11.202469567871093
4943135353894,0.551462136,1,0.22864625854492185,1.744175909423828,-11.19887826538086
4943138687644,0.554795886,1,0.18555062866210936,1.725022296142578,-11.137826123046874
4943142022383,0.558130625,1,0.2454056701660156,1.7908628417968748,-11.150994232177734
4943145355925,0.561464167,1,0.19512743530273435,1.7429788085937499,-11.165359442138671
4943148689310,0.564797552,1,0.22266075439453123,1.7477672119140624,-11.18571015625
4943152022800,0.568131042,1,0.19153613281249998,1.7130512878417967,-11.166556542968749
4943155353112,0.571461354,1,0.2693476867675781,1.7334020019531249,-11.149797131347656
4943158687227,0.574795469,1,0.24779987182617186,1.7573440185546874,-11.194089862060546
4943162022956,0.578131198,1,0.21787235107421873,1.7369933044433592,-11.136629022216797
4943165354779,0.581463021,1,0.23822306518554687,1.7657237243652342,-11.195286962890624
4943168690716,0.584798958,1,0.20231004028320312,1.7238251953125,-11.207257971191405
4943172022748,0.58813099,1,0.21787235107421873,1.6998831787109374,-11.21084927368164
4943175354102,0.591462344,1,0.2262520568847656,1.6795324645996093,-11.129446417236327
4943178687748,0.59479599,1,0.229843359375,1.7106570861816406,-11.1474029296875
4943182022279,0.598130521,1,0.21068974609375,1.725022296142578,-11.167753643798827
4943185356602,0.601464844,1,0.258573779296875,1.7322049011230467,-11.164162341308593
4943188689258,0.6047975,1,0.16998831787109375,1.744175909423828,-11.183315954589844
4943192022956,0.608131198,1,0.22864625854492185,1.7597382202148437,-11.148600030517578
4943195353894,0.611462136,1,0.21188684692382811,1.7513585144042967,-11.130643518066405
4943198687175,0.614795417,1,0.16041151123046873,1.7381904052734374,-11.165359442138671
4943202023216,0.618131458,1,0.239420166015625,1.772906329345703,-11.16057103881836
4943205355560,0.621463802,1,0.19991583862304688,1.7298106994628906,-11.171344946289063
4943208688998,0.62479724,1,0.22744915771484372,1.6998831787109374,-11.196484063720703
4943212023269,0.628131511,1,0.23343466186523437,1.7705121276855467,-11.14022032470703
4943215353841,0.631462083,1,0.24181436767578124,1.714248388671875,-11.154585534667968
4943218687487,0.634795729,1,0.23702596435546874,1.7453730102539062,-11.203666668701171
4943222023060,0.638131302,1,0.23822306518554687,1.7298106994628906,-11.180921752929686
4943225356237,0.641464479,1,0.22385785522460935,1.7226280944824217,-11.165359442138671
4943228689310,0.644797552,1,0.20949264526367187,1.7310078002929687,-11.112687005615234
4943232023112,0.648131354,1,0.22385785522460935,1.7621324218749999,-11.166556542968749
4943235353373,0.651461615,1,0.2753331909179687,1.7429788085937499,-11.164162341308593
4943238688373,0.654796615,1,0.2059013427734375,1.7010802795410156,-11.177330450439452
4943242023477,0.658131719,1,0.24061726684570311,1.7585411193847655,-11.214440576171874
4943245356081,0.661464323,1,0.21428104858398436,1.7369933044433592,-11.143811627197264
4943248689362,0.664797604,1,0.26695348510742184,1.7405846069335937,-11.194089862060546
4943252022748,0.66813099,1,0.22505495605468748,1.6831237670898436,-11.212046374511718
4943255354258,0.6714625,1,0.20949264526367187,1.68551796875,-11.152191333007812
4943258687279,0.674795521,1,0.16160861206054686,1.7561469177246092,-11.204863769531249
4943262022956,0.678131198,1,0.23582886352539062,1.707065783691406,-11.171344946289063
4943265355664,0.681463906,1,0.21906945190429686,1.7645266235351562,-11.195286962890624
4943268696341,0.684804583,1,0.27174188842773433,1.7298106994628906,-11.165359442138671
4943272024779,0.688133021,1,0.24181436767578124,1.753752716064453,-11.202469567871093
4943275353425,0.691461667,1,0.1927332336425781,1.7226280944824217,-11.116278308105468
4943278687904,0.694796146,1,0.2166752502441406,1.7405846069335937,-11.186907257080078
4943282022539,0.698130781,1,0.23343466186523437,1.7262193969726563,-11.21084927368164
4943285356393,0.701464635,1,0.24061726684570311,1.7214309936523438,-11.116278308105468
4943288687956,0.704796198,1,0.21068974609375,1.7190367919921874,-11.166556542968749
4943292023164,0.708131406,1,0.23822306518554687,1.744175909423828,-11.188104357910156
4943295353893,0.711462135,1,0.20231004028320312,1.7106570861816406,-11.208455072021483
4943298688060,0.714796302,1,0.22385785522460935,1.6831237670898436,-11.164162341308593
4943302022904,0.718131146,1,0.21428104858398436,1.7501614135742187,-11.177330450439452
4943305356133,0.721464375,1,0.2442085693359375,1.7262193969726563,-11.239579693603515
4943308689518,0.72479776,1,0.258573779296875,1.7202338928222656,-11.128249316406249
4943312023112,0.728131354,1,0.229843359375,1.792059942626953,-11.164162341308593
4943315353685,0.731461927,1,0.21428104858398436,1.7669208251953124,-11.21683477783203
4943318687904,0.734796146,1,0.17238251953125,1.7585411193847655,-11.16057103881836
4943322022539,0.738130781,1,0.2214636535644531,1.7334020019531249,-11.180921752929686
4943325356498,0.74146474,1,0.22026655273437498,1.7166425903320313,-11.245565197753905
4943328688998,0.74479724,1,0.21188684692382811,1.7118541870117185,-11.155782635498046
4943332022279,0.748130521,1,0.18914193115234373,1.7118541870117185,-11.186907257080078
4943335353998,0.75146224,1,0.2154781494140625,1.7106570861816406,-11.219228979492186
4943338688112,0.754796354,1,0.20231004028320312,1.7178396911621092,-11.261127508544922
4943342023008,0.75813125,1,0.20350714111328125,1.7405846069335937,-11.03846675415039
4943345356237,0.761464479,1,0.23702596435546874,1.7381904052734374,-11.221623181152344
4943348689102,0.764797344,1,0.16041151123046873,1.7549498168945312,-11.201272467041015
4943352023529,0.768131771,1,0.2609679809570312,1.7812860351562498,-11.165359442138671
4943355353998,0.77146224,1,0.23343466186523437,1.7190367919921874,-11.25514200439453
4943358687904,0.774796146,1,0.1867477294921875,1.7357962036132812,-11.141417425537108
4943362022591,0.778130833,1,0.21188684692382811,1.7369933044433592,-11.221623181152344
4943365356029,0.781464271,1,0.22385785522460935,1.7310078002929687,-11.213243475341796
4943368688737,0.784796979,1,0.14963760375976562,1.7561469177246092,-11.158176837158203
4943372023737,0.788131979,1,0.18435352783203124,1.725022296142578,-11.324573852539062
4943375354206,0.791462448,1,0.239420166015625,1.7621324218749999,-11.235988391113281
4943378687279,0.794795521,1,0.24899697265624998,1.7286135986328124,-11.234791290283203
4943382023321,0.798131563,1,0.2442085693359375,1.7262193969726563,-11.184513055419922
4943385355664,0.801463906,1,0.17477672119140625,1.696291876220703,-11.143811627197264
4943388687123,0.804795365,1,0.21906945190429686,1.7956512451171873,-11.162965240478515
4943392023060,0.808131302,1,0.20829554443359374,1.6723498596191406,-11.186907257080078
4943395354414,0.811462656,1,0.22864625854492185,1.7573440185546874,-11.196484063720703
4943398687435,0.814795677,1,0.21068974609375,1.7190367919921874,-11.19169566040039
4943402022591,0.818130833,1,0.26695348510742184,1.734599102783203,-11.323376751708985
4943405355925,0.821464167,1,0.229843359375,1.7621324218749999,-11.110292803955078
4943408689414,0.824797656,1,0.26815058593749996,1.687912170410156,-11.209652172851563
4943412022800,0.828131042,1,0.24899697265624998,1.7405846069335937,-11.088744989013671
4943415354102,0.831462344,1,0.22385785522460935,1.7322049011230467,-11.190498559570312
4943418687696,0.834795938,1,0.258573779296875,1.7238251953125,-11.21084927368164
4943422021081,0.838129323,1,0.25139117431640623,1.753752716064453,-11.23000288696289
4943425356706,0.841464948,1,0.2442085693359375,1.7705121276855467,-11.19887826538086
4943428689310,0.844797552,1,0.22864625854492185,1.7214309936523438,-11.2240173828125
4943432023477,0.848131719,1,0.26216508178710934,1.7549498168945312,-11.189301458740234
4943435353789,0.851462031,1,0.2813186950683594,1.7561469177246092,-11.215637677001952
4943438687123,0.854795365,1,0.2705447875976562,1.7764976318359373,-11.159373937988281
4943442022800,0.858131042,1,0.20829554443359374,1.7202338928222656,-11.183315954589844
4943445356758,0.861465,1,0.18914193115234373,1.7202338928222656,-11.213243475341796
4943448689570,0.864797812,1,0.2059013427734375,1.7166425903320313,-11.176133349609374
4943452022383,0.868130625,1,0.2442085693359375,1.7357962036132812,-11.201272467041015
4943455353268,0.87146151,1,0.19632453613281248,1.7597382202148437,-11.17852755126953
4943458687695,0.874795937,1,0.2753331909179687,1.763329522705078,-11.180921752929686
4943462022487,0.878130729,1,0.23104046020507812,1.7753005310058592,-11.150994232177734
4943465357643,0.881465885,1,0.19153613281249998,1.7489643127441405,-11.176133349609374
4943468689414,0.884797656,1,0.22744915771484372,1.7417817077636717,-11.16057103881836
4943472022852,0.888131094,1,0.18555062866210936,1.7513585144042967,-11.17254204711914
4943475353945,0.891462187,1,0.1927332336425781,1.7226280944824217,-11.222820281982422
4943478687591,0.894795833,1,0.19871873779296872,1.7262193969726563,-11.141417425537108
4943482022643,0.898130885,1,0.2645592834472656,1.7178396911621092,-11.200075366210937
4943485355664,0.901463906,1,0.20709844360351562,1.7130512878417967,-11.188104357910156
4943488688164,0.904796406,1,0.16998831787109375,1.66636435546875,-11.207257971191405
4943492022591,0.908130833,1,0.2597708801269531,1.7130512878417967,-11.136629022216797
4943495353008,0.91146125,1,0.2537853759765625,1.7106570861816406,-11.148600030517578
4943498687800,0.914796042,1,0.258573779296875,1.7417817077636717,-11.136629022216797
4943502023320,0.918131562,1,0.24301146850585936,1.7393875061035156,-11.227608685302734
4943505354675,0.921462917,1,0.23223756103515625,1.7477672119140624,-11.209652172851563
4943508690195,0.924798437,1,0.22864625854492185,1.7453730102539062,-11.182118853759764
4943512022383,0.928130625,1,0.20470424194335937,1.7405846069335937,-11.184513055419922
4943515353581,0.931461823,1,0.25139117431640623,1.753752716064453,-11.252747802734374
4943518687123,0.934795365,1,0.22505495605468748,1.7238251953125,-11.19887826538086
4943522023008,0.93813125,1,0.22744915771484372,1.7549498168945312,-11.203666668701171
4943525356237,0.941464479,1,0.20231004028320312,1.744175909423828,-11.215637677001952
4943528688841,0.944797083,1,0.20350714111328125,1.7262193969726563,-11.131840618896483
4943532022383,0.948130625,1,0.2154781494140625,1.7238251953125,-11.171344946289063
4943535354206,0.951462448,1,0.28371289672851563,1.7453730102539062,-11.154585534667968
4943538687487,0.954795729,1,0.2059013427734375,1.7082628845214842,-11.107898602294922
4943542023529,0.958131771,1,0.23582886352539062,1.734599102783203,-11.133037719726563
4943545355560,0.961463802,1,0.2059013427734375,1.714248388671875,-11.209652172851563
4943548689518,0.96479776,1,0.1771709228515625,1.7429788085937499,-11.117475408935546
4943552022383,0.968130625,1,0.19153613281249998,1.7896657409667969,-11.105504400634764
4943555353425,0.971461667,1,0.24181436767578124,1.7369933044433592,-11.156979736328124
4943558687383,0.974795625,1,0.19393033447265623,1.7381904052734374,-11.165359442138671
4943562023216,0.978131458,1,0.2561795776367187,1.7274164978027342,-11.202469567871093
4943565355716,0.981463958,1,0.2753331909179687,1.7621324218749999,-11.215637677001952
4943568689623,0.984797865,1,0.19871873779296872,1.753752716064453,-11.168950744628905
4943572022539,0.988130781,1,0.22026655273437498,1.7944541442871094,-11.186907257080078
4943575353633,0.991461875,1,0.21068974609375,1.7274164978027342,-11.218031878662108
4943578688112,0.994796354,1,0.23343466186523437,1.7310078002929687,-11.037269653320312
4943582028112,0.998136354,1,0.24660277099609373,1.7310078002929687,-11.213243475341796
4943585357748,1.00146599,1,0.26695348510742184,1.715445489501953,-11.130643518066405
4943588689258,1.0047975,1,0.24899697265624998,1.7489643127441405,-11.161768139648437
4943592022591,1.008130833,1,0.1771709228515625,1.7214309936523438,-11.127052215576171
4943595351393,1.011459635,1,0.19033903198242186,1.7034744812011717,-11.136629022216797
4943598688477,1.014796719,1,0.24899697265624998,1.7178396911621092,-11.23718549194336
4943602022800,1.018131042,1,0.23343466186523437,1.763329522705078,-11.152191333007812
4943605355925,1.021464167,1,0.277727392578125,1.7417817077636717,-11.176133349609374
4943608689310,1.024797552,1,0.24181436767578124,1.7298106994628906,-11.166556542968749
4943612022331,1.028130573,1,0.19153613281249998,1.7286135986328124,-11.155782635498046
4943615354102,1.031462344,1,0.2609679809570312,1.7741034301757812,-11.137826123046874
4943618687800,1.034796042,1,0.21906945190429686,1.7513585144042967,-11.1474029296875
4943622022643,1.038130885,1,0.2442085693359375,1.6891092712402342,-11.133037719726563
4943625356185,1.041464427,1,0.22026655273437498,1.7334020019531249,-11.228805786132812
4943628689779,1.044798021,1,0.2346317626953125,1.7477672119140624,-11.24915650024414
4943632023477,1.048131719,1,0.19632453613281248,1.753752716064453,-11.167753643798827
4943635354102,1.051462344,1,0.24301146850585936,1.7489643127441405,-11.197681164550781
4943638687695,1.054795937,1,0.20350714111328125,1.7561469177246092,-11.319785449218749
4943642022748,1.05813099,1,0.2346317626953125,1.7621324218749999,-11.127052215576171
4943645356029,1.061464271,1,0.2262520568847656,1.744175909423828,-11.164162341308593
4943648689779,1.064798021,1,0.229843359375,1.7190367919921874,-11.184513055419922
4943652023216,1.068131458,1,0.316034619140625,1.7034744812011717,-11.103110198974608
4943655353633,1.071461875,1,0.2166752502441406,1.744175909423828,-11.200075366210937
4943658687175,1.074795417,1,0.2346317626953125,1.7621324218749999,-11.118672509765624
4943662023477,1.078131719,1,0.24181436767578124,1.707065783691406,-11.226411584472656
4943665355872,1.081464114,1,0.23223756103515625,1.725022296142578,-11.208455072021483
4943668689935,1.084798177,1,0.18914193115234373,1.70467158203125,-11.0707884765625
4943672023008,1.08813125,1,0.239420166015625,1.7094599853515624,-11.171344946289063
4943675353737,1.091461979,1,0.26216508178710934,1.707065783691406,-11.17852755126953
4943678688268,1.09479651,1,0.25258827514648435,1.763329522705078,-11.150994232177734
4943682022695,1.098130937,1,0.2705447875976562,1.7717092285156248,-11.121066711425781
4943685356133,1.101464375,1,0.16280571289062498,1.7465701110839842,-11.130643518066405
4943688689310,1.104797552,1,0.2166752502441406,1.7489643127441405,-11.182118853759764
4943692022591,1.108130833,1,0.26336218261718747,1.7357962036132812,-11.206060870361327
4943695353997,1.111462239,1,0.2346317626953125,1.6699556579589843,-11.128249316406249
4943698687070,1.114795312,1,0.2346317626953125,1.70467158203125,-11.18571015625
4943702022904,1.118131146,1,0.22505495605468748,1.7178396911621092,-11.166556542968749
4943705356237,1.121464479,1,0.20829554443359374,1.7238251953125,-11.143811627197264
4943708685925,1.124794167,1,0.24660277099609373,1.753752716064453,-11.161768139648437
4943712022800,1.128131042,1,0.19393033447265623,1.725022296142578,-11.241973895263671
4943715353685,1.131461927,1,0.23582886352539062,1.705868682861328,-11.106701501464842
4943718686862,1.134795104,1,0.1975216369628906,1.7489643127441405,-11.180921752929686
4943722022383,1.138130625,1,0.19871873779296872,1.7298106994628906,-11.079168182373046
4943725356810,1.141465052,1,0.20829554443359374,1.714248388671875,-11.206060870361327
4943728690247,1.144798489,1,0.23343466186523437,1.7214309936523438,-11.195286962890624
4943732022435,1.148130677,1,0.2561795776367187,1.695094775390625,-11.173739147949219
4943735353425,1.151461667,1,0.23822306518554687,1.7525556152343749,-11.23000288696289
4943738687175,1.154795417,1,0.229843359375,1.696291876220703,-11.21084927368164
4943742022383,1.158130625,1,0.24181436767578124,1.686715069580078,-11.174936248779296
4943745355977,1.161464219,1,0.22744915771484372,1.772906329345703,-11.209652172851563
4943748689258,1.1647975,1,0.14963760375976562,1.725022296142578,-11.221623181152344
4943752022227,1.168130469,1,0.23104046020507812,1.695094775390625,-11.2240173828125
4943755353685,1.171461927,1,0.24660277099609373,1.7010802795410156,-11.231199987792968
4943758688581,1.174796823,1,0.25737667846679685,1.7453730102539062,-11.155782635498046
4943762023581,1.178131823,1,0.22864625854492185,1.7298106994628906,-11.18571015625
4943765357227,1.181465469,1,0.26336218261718747,1.7214309936523438,-11.194089862060546
4943768689987,1.184798229,1,0.2154781494140625,1.7274164978027342,-11.202469567871093
4943772029518,1.18813776,1,0.24061726684570311,1.7166425903320313,-11.251550701904296
4943775373945,1.191482187,1,0.2166752502441406,1.7477672119140624,-11.173739147949219
4943778724518,1.19483276,1,0.2214636535644531,1.7238251953125,-11.165359442138671
4943782024154,1.198132396,1,0.2501940734863281,1.7465701110839842,-11.228805786132812
4943785352070,1.201460312,1,0.25258827514648435,1.7405846069335937,-11.188104357910156
4943788685612,1.204793854,1,0.22744915771484372,1.714248388671875,-11.174936248779296
4943792038008,1.20814625,1,0.21428104858398436,1.763329522705078,-11.2240173828125
4943795352591,1.211460833,1,0.24301146850585936,1.7238251953125,-11.152191333007812
4943798684831,1.214793073,1,0.1975216369628906,1.7238251953125,-11.11508120727539
4943802017747,1.218125989,1,0.22266075439453123,1.734599102783203,-11.220426080322264
4943805352435,1.221460677,1,0.24779987182617186,1.7226280944824217,-11.170147845458983
4943808687852,1.224796094,1,0.23104046020507812,1.7166425903320313,-11.19887826538086
4943812023529,1.228131771,1,0.239420166015625,1.7477672119140624,-11.1474029296875
4943815353008,1.23146125,1,0.2262520568847656,1.7489643127441405,-11.133037719726563
4943818688477,1.234796719,1,0.19991583862304688,1.7477672119140624,-11.189301458740234
4943822023737,1.238131979,1,0.2597708801269531,1.7298106994628906,-11.129446417236327
4943825356497,1.241464739,1,0.19991583862304688,1.714248388671875,-11.179724652099608
4943828688633,1.244796875,1,0.23343466186523437,1.7322049011230467,-11.227608685302734
4943832022591,1.248130833,1,0.20470424194335937,1.7310078002929687,-11.174936248779296
4943835351185,1.251459427,1,0.19991583862304688,1.6927005737304686,-11.165359442138671
4943838699466,1.254807708,1,0.2609679809570312,1.7202338928222656,-11.270704315185545
4943842030716,1.258138958,1,0.24779987182617186,1.7585411193847655,-11.197681164550781
4943845356602,1.261464844,1,0.18914193115234373,1.7788918334960937,-11.226411584472656
4943848689206,1.264797448,1,0.23104046020507812,1.70467158203125,-11.208455072021483
4943852050560,1.268158802,1,0.22385785522460935,1.7477672119140624,-11.21683477783203
4943855354466,1.271462708,1,0.22266075439453123,1.744175909423828,-11.168950744628905
4943858688008,1.27479625,1,0.24660277099609373,1.70467158203125,-11.206060870361327
4943862023216,1.278131458,1,0.2537853759765625,1.7226280944824217,-11.190498559570312
4943865355872,1.281464114,1,0.2442085693359375,1.7310078002929687,-11.141417425537108
4943868688268,1.28479651,1,0.23104046020507812,1.7501614135742187,-11.119869610595703
4943872023737,1.288131979,1,0.2537853759765625,1.7764976318359373,-11.186907257080078
4943875354050,1.291462292,1,0.2657563842773437,1.6986860778808592,-11.305420239257812
4943878687695,1.294795937,1,0.23343466186523437,1.772906329345703,-11.186907257080078
4943882022383,1.298130625,1,0.20829554443359374,1.7477672119140624,-11.190498559570312
4943885356393,1.301464635,1,0.23582886352539062,1.8076222534179687,-11.188104357910156
4943888689674,1.304797916,1,0.2262520568847656,1.7669208251953124,-11.17852755126953
4943892021602,1.308129844,1,0.2262520568847656,1.7310078002929687,-11.206060870361327
4943895359831,1.311468073,1,0.2346317626953125,1.695094775390625,-11.117475408935546
4943898689727,1.314797969,1,0.1879448303222656,1.7369933044433592,-11.201272467041015
4943902023581,1.318131823,1,0.19871873779296872,1.714248388671875,-11.146205828857422
4943905355977,1.321464219,1,0.17238251953125,1.7621324218749999,-11.207257971191405
4943908688633,1.324796875,1,0.24779987182617186,1.7717092285156248,-11.124658013916015
4943912022747,1.328130989,1,0.20231004028320312,1.695094775390625,-11.133037719726563
4943915353841,1.331462083,1,0.1975216369628906,1.7429788085937499,-11.154585534667968
4943918687435,1.334795677,1,0.2549824768066406,1.715445489501953,-11.206060870361327
4943922023372,1.338131614,1,0.19991583862304688,1.753752716064453,-11.11508120727539
4943925356081,1.341464323,1,0.2561795776367187,1.714248388671875,-11.100715997314452
4943928688685,1.344796927,1,0.21068974609375,1.7489643127441405,-11.186907257080078
4943932021810,1.348130052,1,0.2059013427734375,1.7465701110839842,-11.251550701904296
4943935354049,1.351462291,1,0.2262520568847656,1.7597382202148437,-11.152191333007812
4943938688945,1.354797187,1,0.2501940734863281,1.7657237243652342,-11.250353601074218
4943942022591,1.358130833,1,0.25258827514648435,1.7872715393066405,-11.174936248779296
4943945355508,1.36146375,1,0.25737667846679685,1.7908628417968748,-11.171344946289063
4943948690664,1.364798906,1,0.25737667846679685,1.7214309936523438,-11.225214483642578
4943952023477,1.368131719,1,0.2454056701660156,1.6711527587890624,-11.200075366210937
4943955353737,1.371461979,1,0.2920926025390625,1.7310078002929687,-11.250353601074218
4943958688060,1.374796302,1,0.21787235107421873,1.7286135986328124,-11.146205828857422
4943962022279,1.378130521,1,0.20470424194335937,1.744175909423828,-11.202469567871093
4943965355924,1.381464166,1,0.239420166015625,1.7884686401367187,-11.036072552490234
4943968689466,1.384797708,1,0.18076222534179687,1.7130512878417967,-11.204863769531249
4943972022331,1.388130573,1,0.2166752502441406,1.7274164978027342,-11.222820281982422
4943975353477,1.391461719,1,0.22744915771484372,1.7465701110839842,-11.164162341308593
4943978687122,1.394795364,1,0.21906945190429686,1.7238251953125,-11.16057103881836
4943982022591,1.398130833,1,0.23822306518554687,1.7597382202148437,-11.202469567871093
4943985356445,1.401464687,1,0.23582886352539062,1.7872715393066405,-11.218031878662108
4943988690612,1.404798854,1,0.21787235107421873,1.7166425903320313,-11.18571015625
4943992022227,1.408130469,1,0.1771709228515625,1.7561469177246092,-11.177330450439452
4943995353424,1.411461666,1,0.2454056701660156,1.6903063720703124,-11.235988391113281
4943998686602,1.414794844,1,0.20709844360351562,1.7322049011230467,-11.200075366210937
4944002023060,1.418131302,1,0.22266075439453123,1.7549498168945312,-11.209652172851563
4944005356602,1.421464844,1,0.26695348510742184,1.7310078002929687,-11.247959399414063
4944008689883,1.424798125,1,0.27293898925781246,1.7489643127441405,-11.183315954589844
4944012022747,1.428130989,1,0.2214636535644531,1.6795324645996093,-11.232397088623046
4944015354310,1.431462552,1,0.23822306518554687,1.734599102783203,-11.166556542968749
4944018686445,1.434794687,1,0.17956512451171874,1.7741034301757812,-11.173739147949219
4944022023008,1.43813125,1,0.19871873779296872,1.7262193969726563,-11.167753643798827
4944025355716,1.441463958,1,0.23702596435546874,1.7310078002929687,-11.257536206054686
4944028689258,1.4447975,1,0.201112939453125,1.7393875061035156,-11.197681164550781
4944032022487,1.448130729,1,0.22385785522460935,1.7489643127441405,-11.203666668701171
4944035354258,1.4514625,1,0.23343466186523437,1.7477672119140624,-11.212046374511718
4944038687799,1.454796041,1,0.2609679809570312,1.7393875061035156,-11.16057103881836
4944042021654,1.458129896,1,0.201112939453125,1.7166425903320313,-11.107898602294922
4944045356393,1.461464635,1,0.23582886352539062,1.7334020019531249,-11.17852755126953
4944048689154,1.464797396,1,0.20829554443359374,1.7513585144042967,-11.127052215576171
4944052022435,1.468130677,1,0.2861070983886719,1.7489643127441405,-11.214440576171874
4944055353424,1.471461666,1,0.239420166015625,1.7477672119140624,-11.235988391113281
4944058687747,1.474795989,1,0.18076222534179687,1.6938976745605467,-11.202469567871093
4944062022747,1.478130989,1,0.22744915771484372,1.7477672119140624,-11.168950744628905
4944065355299,1.481463541,1,0.24899697265624998,1.7525556152343749,-11.218031878662108
4944068689570,1.484797812,1,0.24061726684570311,1.714248388671875,-11.21084927368164
4944072022279,1.488130521,1,0.18914193115234373,1.7501614135742187,-11.174936248779296
4944075354102,1.491462344,1,0.1867477294921875,1.705868682861328,-11.188104357910156
4944078687591,1.494795833,1,0.25737667846679685,1.7118541870117185,-11.179724652099608
4944082023424,1.498131666,1,0.21428104858398436,1.7298106994628906,-11.221623181152344
4944085355612,1.501463854,1,0.24181436767578124,1.686715069580078,-11.162965240478515
4944088689258,1.5047975,1,0.2861070983886719,1.7369933044433592,-11.158176837158203
4944092021549,1.508129791,1,0.1975216369628906,1.7202338928222656,-11.142614526367186
4944095353529,1.511461771,1,0.22505495605468748,1.7609353210449217,-11.257536206054686
4944098687435,1.514795677,1,0.2501940734863281,1.7106570861816406,-11.123460913085937
4944102022487,1.518130729,1,0.2597708801269531,1.7573440185546874,-11.190498559570312
4944105355768,1.52146401,1,0.28490999755859375,1.6986860778808592,-11.220426080322264
4944108689310,1.524797552,1,0.2501940734863281,1.7310078002929687,-11.156979736328124
4944112022331,1.528130573,1,0.19512743530273435,1.7417817077636717,-11.18571015625
4944115352956,1.531461198,1,0.25258827514648435,1.7298106994628906,-11.207257971191405
4944118687331,1.534795573,1,0.22026655273437498,1.7501614135742187,-11.240776794433593
4944122022851,1.538131093,1,0.22505495605468748,1.7310078002929687,-11.189301458740234
4944125356758,1.541465,1,0.22864625854492185,1.7106570861816406,-11.188104357910156
4944128689258,1.5447975,1,0.23223756103515625,1.734599102783203,-11.194089862060546
4944132022851,1.548131093,1,0.22864625854492185,1.7429788085937499,-11.197681164550781
4944135354101,1.551462343,1,0.22026655273437498,1.7453730102539062,-11.131840618896483
4944138687435,1.554795677,1,0.2154781494140625,1.7381904052734374,-11.186907257080078
4944142020820,1.558129062,1,0.24779987182617186,1.7381904052734374,-11.130643518066405
4944145355247,1.561463489,1,0.2166752502441406,1.7202338928222656,-11.162965240478515
4944148688581,1.564796823,1,0.2741360900878906,1.7597382202148437,-11.161768139648437
4944152022383,1.568130625,1,0.16639701538085935,1.7310078002929687,-11.176133349609374
4944155353268,1.57146151,1,0.20829554443359374,1.7118541870117185,-11.111489904785156
4944158686914,1.574795156,1,0.21308394775390624,1.6807295654296874,-11.207257971191405
4944162022226,1.578130468,1,0.22385785522460935,1.7130512878417967,-11.207257971191405
4944165356133,1.581464375,1,0.21428104858398436,1.7286135986328124,-11.200075366210937
4944168689414,1.584797656,1,0.23104046020507812,1.6927005737304686,-11.143811627197264
4944172023893,1.588132135,1,0.19393033447265623,1.7501614135742187,-11.03846675415039
4944175354570,1.591462812,1,0.3076549133300781,1.7274164978027342,-11.13423482055664
4944178686966,1.594795208,1,0.2597708801269531,1.7429788085937499,-11.200075366210937
4944182023424,1.598131666,1,0.28012159423828126,1.6807295654296874,-11.189301458740234
4944185355664,1.601463906,1,0.2597708801269531,1.7369933044433592,-11.202469567871093
4944188687174,1.604795416,1,0.2549824768066406,1.7513585144042967,-11.183315954589844
4944192022226,1.608130468,1,0.2741360900878906,1.7848773376464844,-11.182118853759764
4944195353060,1.611461302,1,0.2454056701660156,1.7262193969726563,-11.142614526367186
4944198686914,1.614795156,1,0.21906945190429686,1.7190367919921874,-11.232397088623046
4944202023008,1.61813125,1,0.19871873779296872,1.705868682861328,-11.332953558349608
4944205355768,1.62146401,1,0.2154781494140625,1.7238251953125,-11.2240173828125
4944208693164,1.624801406,1,0.22744915771484372,1.7609353210449217,-11.17852755126953
4944212023841,1.628132083,1,0.20231004028320312,1.7238251953125,-11.176133349609374
4944215353216,1.631461458,1,0.25737667846679685,1.7381904052734374,-11.221623181152344
4944218687487,1.634795729,1,0.22385785522460935,1.7573440185546874,-11.159373937988281
4944222022331,1.638130573,1,0.20470424194335937,1.7238251953125,-11.15338843383789
4944225356237,1.641464479,1,0.24301146850585936,1.7010802795410156,-11.257536206054686
4944228689101,1.644797343,1,0.229843359375,1.734599102783203,-11.18571015625
4944232022851,1.648131093,1,0.2645592834472656,1.7561469177246092,-11.244368096923827
4944235353633,1.651461875,1,0.19033903198242186,1.6927005737304686,-11.064802972412108
4944238687331,1.654795573,1,0.19153613281249998,1.7214309936523438,-11.192892761230468
4944242022695,1.658130937,1,0.2561795776367187,1.6843208679199217,-11.1474029296875
4944245355247,1.661463489,1,0.229843359375,1.697488977050781,-11.168950744628905
4944248689674,1.664797916,1,0.2442085693359375,1.7298106994628906,-11.17254204711914
4944252022799,1.668131041,1,0.18555062866210936,1.7190367919921874,-11.182118853759764
4944255354466,1.671462708,1,0.23343466186523437,1.7549498168945312,-11.186907257080078
4944258686810,1.674795052,1,0.21787235107421873,1.7106570861816406,-11.13423482055664
4944262022331,1.678130573,1,0.23822306518554687,1.7298106994628906,-11.186907257080078
4944265356289,1.681464531,1,0.21188684692382811,1.696291876220703,-11.170147845458983
4944268688893,1.684797135,1,0.229843359375,1.7669208251953124,-11.16057103881836
4944272022904,1.688131146,1,0.23822306518554687,1.7202338928222656,-11.222820281982422
4944275353320,1.691461562,1,0.229843359375,1.7405846069335937,-11.168950744628905
4944278687070,1.694795312,1,0.19033903198242186,1.7477672119140624,-11.219228979492186
4944282020820,1.698129062,1,0.19512743530273435,1.6795324645996093,-11.259930407714844
4944285356654,1.701464896,1,0.23223756103515625,1.70467158203125,-11.246762298583985
4944288688424,1.704796666,1,0.21787235107421873,1.7190367919921874,-11.200075366210937
4944292022643,1.708130885,1,0.23343466186523437,1.7082628845214842,-11.073182678222656
4944295353476,1.711461718,1,0.22505495605468748,1.7585411193847655,-11.17852755126953
4944298687331,1.714795573,1,0.24660277099609373,1.734599102783203,-11.200075366210937
4944302022956,1.718131198,1,0.28012159423828126,1.725022296142578,-11.154585534667968
4944305356601,1.721464843,1,0.21308394775390624,1.7094599853515624,-11.107898602294922
4944308686549,1.724794791,1,0.24061726684570311,1.7812860351562498,-11.2240173828125
4944312022591,1.728130833,1,0.21308394775390624,1.7238251953125,-11.235988391113281
4944315353320,1.731461562,1,0.20470424194335937,1.7405846069335937,-11.270704315185545
4944318687122,1.734795364,1,0.21906945190429686,1.7166425903320313,-11.177330450439452
4944322022435,1.738130677,1,0.25737667846679685,1.7393875061035156,-11.192892761230468
4944325356497,1.741464739,1,0.20350714111328125,1.7369933044433592,-11.1474029296875
4944328688997,1.744797239,1,0.23582886352539062,1.7106570861816406,-11.131840618896483
4944332022643,1.748130885,1,0.201112939453125,1.6998831787109374,-11.214440576171874
4944335353997,1.751462239,1,0.23104046020507812,1.7298106994628906,-11.196484063720703
4944338687174,1.754795416,1,0.19153613281249998,1.7573440185546874,-11.125855114746093
4944342022435,1.758130677,1,0.22744915771484372,1.7262193969726563,-11.158176837158203
4944345359310,1.761467552,1,0.23343466186523437,1.7669208251953124,-11.192892761230468
4944348689101,1.764797343,1,0.2214636535644531,1.7022773803710936,-11.221623181152344
4944352022070,1.768130312,1,0.1879448303222656,1.763329522705078,-11.19169566040039
4944355353789,1.771462031,1,0.27293898925781246,1.7465701110839842,-11.21084927368164
4944358688008,1.77479625,1,0.24301146850585936,1.7190367919921874,-11.218031878662108
4944362023372,1.778131614,1,0.258573779296875,1.6998831787109374,-11.219228979492186
4944365355247,1.781463489,1,0.17836802368164062,1.734599102783203,-11.247959399414063
4944368688945,1.784797187,1,0.1975216369628906,1.6927005737304686,-11.061211669921875
4944372022331,1.788130573,1,0.21906945190429686,1.7465701110839842,-11.19887826538086
4944375353581,1.791461823,1,0.22266075439453123,1.7322049011230467,-11.154585534667968
4944378687122,1.794795364,1,0.26695348510742184,1.7573440185546874,-11.251550701904296
4944382023008,1.79813125,1,0.21787235107421873,1.7393875061035156,-11.194089862060546
4944385355247,1.801463489,1,0.24181436767578124,1.7274164978027342,-11.206060870361327
4944388688737,1.804796979,1,0.20350714111328125,1.7417817077636717,-11.184513055419922
4944392022383,1.808130625,1,0.18914193115234373,1.7094599853515624,-11.269507214355468
4944395354726,1.811462968,1,0.19991583862304688,1.68551796875,-11.218031878662108
4944398687747,1.814795989,1,0.20829554443359374,1.70467158203125,-11.184513055419922
4944402022643,1.818130885,1,0.2561795776367187,1.66636435546875,-11.228805786132812
4944405355716,1.821463958,1,0.19153613281249998,1.7274164978027342,-11.218031878662108
4944408689049,1.824797291,1,0.23343466186523437,1.705868682861328,-11.283872424316405
4944412083424,1.828191666,1,0.23582886352539062,1.7178396911621092,-11.183315954589844
4944415354414,1.831462656,1,0.21787235107421873,1.782483135986328,-11.156979736328124
4944418687122,1.834795364,1,0.26815058593749996,1.7022773803710936,-11.21084927368164
4944422022851,1.838131093,1,0.26695348510742184,1.7405846069335937,-11.21084927368164
4944425355351,1.841463593,1,0.22385785522460935,1.763329522705078,-11.158176837158203
4944428689049,1.844797291,1,0.239420166015625,1.7178396911621092,-11.200075366210937
4944432022226,1.848130468,1,0.24660277099609373,1.7513585144042967,-11.231199987792968
4944435352956,1.851461198,1,0.2705447875976562,1.7130512878417967,-11.103110198974608
4944438686810,1.854795052,1,0.22385785522460935,1.6938976745605467,-11.212046374511718
4944442023060,1.858131302,1,0.22744915771484372,1.7118541870117185,-11.12226381225586
4944445354726,1.861462968,1,0.21308394775390624,1.6986860778808592,-11.197681164550781
4944448689987,1.864798229,1,0.229843359375,1.7513585144042967,-11.156979736328124
4944452023424,1.868131666,1,0.21428104858398436,1.7034744812011717,-11.209652172851563
4944455354362,1.871462604,1,0.22266075439453123,1.7369933044433592,-11.207257971191405
4944458687539,1.874795781,1,0.239420166015625,1.7561469177246092,-11.270704315185545
4944462023060,1.878131302,1,0.2609679809570312,1.7693150268554687,-11.243170996093749
4944465356289,1.881464531,1,0.22744915771484372,1.7357962036132812,-11.170147845458983
4944468688893,1.884797135,1,0.239420166015625,1.6986860778808592,-11.145008728027342
4944472022643,1.888130885,1,0.2705447875976562,1.7657237243652342,-11.179724652099608
4944475353528,1.89146177,1,0.2609679809570312,1.744175909423828,-11.18571015625
4944478687539,1.894795781,1,0.24181436767578124,1.7334020019531249,-11.171344946289063
4944482022539,1.898130781,1,0.296881005859375,1.70467158203125,-11.145008728027342
4944485355664,1.901463906,1,0.21308394775390624,1.7310078002929687,-11.231199987792968
4944488689883,1.904798125,1,0.23702596435546874,1.7310078002929687,-11.23000288696289
4944492023164,1.908131406,1,0.19632453613281248,1.7262193969726563,-11.21683477783203
4944495353164,1.911461406,1,0.23343466186523437,1.7609353210449217,-11.19169566040039
4944498687747,1.914795989,1,0.16519991455078123,1.7788918334960937,-11.176133349609374
4944502022851,1.918131093,1,0.2597708801269531,1.8255787658691405,-11.203666668701171
4944505355664,1.921463906,1,0.21068974609375,1.7453730102539062,-11.196484063720703
4944508686914,1.924795156,1,0.2561795776367187,1.7274164978027342,-11.142614526367186
4944512022122,1.928130364,1,0.24660277099609373,1.7357962036132812,-11.125855114746093
4944515353737,1.931461979,1,0.21428104858398436,1.7393875061035156,-11.143811627197264
4944518687539,1.934795781,1,0.2561795776367187,1.7477672119140624,-11.201272467041015
4944522030403,1.938138645,1,0.1867477294921875,1.7477672119140624,-11.1474029296875
4944525358737,1.941466979,1,0.2549824768066406,1.7741034301757812,-11.250353601074218
4944528687487,1.944795729,1,0.20350714111328125,1.7453730102539062,-11.310208642578125
4944532024153,1.948132395,1,0.20949264526367187,1.7274164978027342,-11.208455072021483
4944535353476,1.951461718,1,0.2980781066894531,1.7369933044433592,-11.214440576171874
4944538687591,1.954795833,1,0.19991583862304688,1.7764976318359373,-11.200075366210937
4944542022539,1.958130781,1,0.22266075439453123,1.705868682861328,-11.116278308105468
4944545356393,1.961464635,1,0.19393033447265623,1.686715069580078,-11.129446417236327
4944548690039,1.964798281,1,0.21068974609375,1.7082628845214842,-11.207257971191405
4944552023060,1.968131302,1,0.23582886352539062,1.7334020019531249,-11.192892761230468
4944555353841,1.971462083,1,0.20350714111328125,1.7130512878417967,-11.182118853759764
4944558687695,1.974795937,1,0.24660277099609373,1.7310078002929687,-11.177330450439452
4944562022591,1.978130833,1,0.23223756103515625,1.600523809814453,-11.23718549194336
4944565356601,1.981464843,1,0.17597382202148437,1.7082628845214842,-11.173739147949219
4944568688841,1.984797083,1,0.2154781494140625,1.7489643127441405,-11.286266625976562
4944572022591,1.988130833,1,0.181959326171875,1.697488977050781,-11.263521710205078
4944575353320,1.991461562,1,0.22266075439453123,1.7357962036132812,-11.183315954589844
4944578687487,1.994795729,1,0.18555062866210936,1.7369933044433592,-11.174936248779296
4944582023737,1.998131979,1,0.22505495605468748,1.7322049011230467,-11.161768139648437
4944585356653,2.001464895,1,0.19991583862304688,1.7334020019531249,-11.13423482055664
4944588689726,2.004797968,1,0.1867477294921875,1.7274164978027342,-11.127052215576171
4944592023372,2.008131614,1,0.26216508178710934,1.678335363769531,-11.200075366210937
4944595353008,2.01146125,1,0.26695348510742184,1.6927005737304686,-11.214440576171874
4944598687643,2.014795885,1,0.2609679809570312,1.7501614135742187,-11.209652172851563
4944602023841,2.018132083,1,0.21188684692382811,1.725022296142578,-11.221623181152344
4944605354310,2.021462552,1,0.2693476867675781,1.7381904052734374,-11.12226381225586
4944608688841,2.024797083,1,0.14604630126953125,1.7621324218749999,-11.226411584472656
4944612022435,2.028130677,1,0.1975216369628906,1.753752716064453,-11.180921752929686
4944615353633,2.031461875,1,0.22026655273437498,1.714248388671875,-11.176133349609374
4944618687851,2.034796093,1,0.23822306518554687,1.7417817077636717,-11.253944903564452
4944622023216,2.038131458,1,0.21308394775390624,1.7034744812011717,-11.184513055419922
4944625355820,2.041464062,1,0.24779987182617186,1.6891092712402342,-11.245565197753905
4944628689049,2.044797291,1,0.26815058593749996,1.7298106994628906,-11.225214483642578
4944632022174,2.048130416,1,0.2501940734863281,1.7860744384765623,-11.228805786132812
4944635353164,2.051461406,1,0.23343466186523437,1.7597382202148437,-11.166556542968749
4944638692226,2.054800468,1,0.22864625854492185,1.7369933044433592,-11.220426080322264
4944642025768,2.05813401,1,0.20829554443359374,1.7621324218749999,-11.146205828857422
4944645356601,2.061464843,1,0.2861070983886719,1.7166425903320313,-11.136629022216797
4944648689518,2.06479776,1,0.2442085693359375,1.7429788085937499,-11.158176837158203
4944652022799,2.068131041,1,0.19153613281249998,1.7334020019531249,-11.200075366210937
4944655353685,2.071461927,1,0.2537853759765625,1.7310078002929687,-11.204863769531249
4944658687070,2.074795312,1,0.22266075439453123,1.7202338928222656,-11.2240173828125
4944662022383,2.078130625,1,0.239420166015625,1.6998831787109374,-11.23000288696289
4944665356445,2.081464687,1,0.21068974609375,1.7429788085937499,-11.209652172851563
4944668689049,2.084797291,1,0.20949264526367187,1.734599102783203,-11.182118853759764
4944672022487,2.088130729,1,0.258573779296875,1.714248388671875,-11.212046374511718
4944675353789,2.091462031,1,0.2154781494140625,1.7369933044433592,-11.170147845458983
4944678686966,2.094795208,1,0.20709844360351562,1.7669208251953124,-11.271901416015623
4944682021705,2.098129947,1,0.20350714111328125,1.7214309936523438,-11.194089862060546
4944685356237,2.101464479,1,0.24181436767578124,1.7369933044433592,-11.112687005615234
4944688689362,2.104797604,1,0.21906945190429686,1.70467158203125,-11.21683477783203
4944692023268,2.10813151,1,0.2537853759765625,1.715445489501953,-11.19169566040039
4944695353476,2.111461718,1,0.30047230834960936,1.7573440185546874,-11.162965240478515
4944698687174,2.114795416,1,0.20829554443359374,1.7286135986328124,-11.188104357910156
4944702021080,2.118129322,1,0.2501940734863281,1.7369933044433592,-11.21084927368164
4944705357174,2.121465416,1,0.22266075439453123,1.6998831787109374,-11.137826123046874
4944708689778,2.12479802,1,0.22266075439453123,1.7501614135742187,-11.156979736328124
4944712023580,2.128131822,1,0.20470424194335937,1.725022296142578,-11.170147845458983
4944715353737,2.131461979,1,0.2166752502441406,1.7214309936523438,-11.135431921386719
4944718687330,2.134795572,1,0.2825157958984375,1.7238251953125,-11.206060870361327
4944722022643,2.138130885,1,0.17477672119140625,1.7417817077636717,-11.215637677001952
4944725355716,2.141463958,1,0.21188684692382811,1.7286135986328124,-11.176133349609374
4944728689153,2.144797395,1,0.2346317626953125,1.7513585144042967,-11.19169566040039
4944732074153,2.148182395,1,0.201112939453125,1.715445489501953,-11.180921752929686
4944735354570,2.151462812,1,0.23223756103515625,1.7286135986328124,-11.326968054199218
4944738687695,2.154795937,1,0.22744915771484372,1.7130512878417967,-11.176133349609374
4944742022278,2.15813052,1,0.2501940734863281,1.715445489501953,-11.206060870361327
4944745354258,2.1614625,1,0.1927332336425781,1.707065783691406,-11.173739147949219
4944748689570,2.164797812,1,0.229843359375,1.7477672119140624,-11.155782635498046
4944752023268,2.16813151,1,0.2549824768066406,1.7262193969726563,-11.173739147949219
4944755353476,2.171461718,1,0.20350714111328125,1.7357962036132812,-11.177330450439452
4944758687174,2.174795416,1,0.25737667846679685,1.6998831787109374,-11.184513055419922
4944762022747,2.178130989,1,0.2501940734863281,1.7417817077636717,-11.165359442138671
4944765356080,2.181464322,1,0.24301146850585936,1.7513585144042967,-11.058817468261719
4944768689049,2.184797291,1,0.19991583862304688,1.7166425903320313,-11.106701501464842
4944772022903,2.188131145,1,0.18914193115234373,1.7405846069335937,-11.276689819335937
4944775353424,2.191461666,1,0.22864625854492185,1.6998831787109374,-11.179724652099608
4944778687018,2.19479526,1,0.2262520568847656,1.7501614135742187,-11.252747802734374
4944782023007,2.198131249,1,0.21188684692382811,1.763329522705078,-11.222820281982422
4944785356237,2.201464479,1,0.22864625854492185,1.7489643127441405,-11.202469567871093
4944788689257,2.204797499,1,0.16160861206054686,1.7322049011230467,-11.207257971191405
4944792022695,2.208130937,1,0.23104046020507812,1.7741034301757812,-11.25514200439453
4944795353112,2.211461354,1,0.21068974609375,1.70467158203125,-11.075576879882812
4944798687695,2.214795937,1,0.21308394775390624,1.7381904052734374,-11.158176837158203
4944802023372,2.218131614,1,0.25258827514648435,1.6831237670898436,-11.173739147949219
4944805356393,2.221464635,1,0.22505495605468748,1.7465701110839842,-11.202469567871093
4944808689257,2.224797499,1,0.2154781494140625,1.7381904052734374,-11.125855114746093
4944812022695,2.228130937,1,0.258573779296875,1.7130512878417967,-11.142614526367186
4944815353997,2.231462239,1,0.2753331909179687,1.7417817077636717,-11.1474029296875
4944818687226,2.234795468,1,0.2262520568847656,1.7477672119140624,-11.17852755126953
4944822022955,2.238131197,1,0.19033903198242186,1.7334020019531249,-11.219228979492186
4944825356445,2.241464687,1,0.23702596435546874,1.7034744812011717,-11.19887826538086
4944828689466,2.244797708,1,0.24181436767578124,1.7597382202148437,-11.218031878662108
4944832022643,2.248130885,1,0.2861070983886719,1.7393875061035156,-11.152191333007812
4944835353893,2.251462135,1,0.2645592834472656,1.734599102783203,-11.165359442138671
4944838686810,2.254795052,1,0.19153613281249998,1.7262193969726563,-11.21084927368164
4944842022487,2.258130729,1,0.2214636535644531,1.7417817077636717,-11.228805786132812
4944845355820,2.261464062,1,0.2166752502441406,1.7286135986328124,-11.117475408935546
4944848689414,2.264797656,1,0.22385785522460935,1.7489643127441405,-11.174936248779296
4944852022591,2.268130833,1,0.26216508178710934,1.7357962036132812,-11.080365283203124
4944855353424,2.271461666,1,0.1927332336425781,1.7465701110839842,-11.310208642578125
4944858688320,2.274796562,1,0.17956512451171874,1.7501614135742187,-11.165359442138671
4944862023737,2.278131979,1,0.24899697265624998,1.7405846069335937,-11.213243475341796
4944865357122,2.281465364,1,0.23582886352539062,1.7274164978027342,-11.168950744628905
4944868689414,2.284797656,1,0.29089550170898437,1.7357962036132812,-11.243170996093749
4944872022278,2.28813052,1,0.25139117431640623,1.753752716064453,-11.161768139648437
4944875353685,2.291461927,1,0.2346317626953125,1.7381904052734374,-11.203666668701171
4944878687851,2.294796093,1,0.22864625854492185,1.6927005737304686,-11.137826123046874
4944882022591,2.298130833,1,0.2154781494140625,1.6795324645996093,-11.196484063720703
4944885356185,2.301464427,1,0.2154781494140625,1.697488977050781,-11.259930407714844
4944888689570,2.304797812,1,0.19153613281249998,1.725022296142578,-11.252747802734374
4944892022903,2.308131145,1,0.22266075439453123,1.7405846069335937,-11.166556542968749
4944895352851,2.311461093,1,0.23223756103515625,1.7178396911621092,-11.173739147949219
4944898687955,2.314796197,1,0.239420166015625,1.753752716064453,-11.14022032470703
4944902023268,2.31813151,1,0.22505495605468748,1.7322049011230467,-11.194089862060546
4944905356549,2.321464791,1,0.22505495605468748,1.7298106994628906,-11.133037719726563
4944908688997,2.324797239,1,0.19632453613281248,1.753752716064453,-11.200075366210937
4944912023112,2.328131354,1,0.14604630126953125,1.7334020019531249,-11.195286962890624
4944915353632,2.331461874,1,0.2442085693359375,1.7202338928222656,-11.145008728027342
4944918687278,2.33479552,1,0.21428104858398436,1.7082628845214842,-11.162965240478515
4944922022799,2.338131041,1,0.2537853759765625,1.7393875061035156,-11.119869610595703
4944925355820,2.341464062,1,0.2442085693359375,1.7202338928222656,-11.231199987792968
4944928689414,2.344797656,1,0.2346317626953125,1.7717092285156248,-11.18571015625
4944932022018,2.34813026,1,0.2442085693359375,1.7202338928222656,-11.116278308105468
4944935353216,2.351461458,1,0.19991583862304688,1.714248388671875,-11.155782635498046
4944938687539,2.354795781,1,0.2154781494140625,1.7130512878417967,-11.176133349609374
4944942022851,2.358131093,1,0.2657563842773437,1.7393875061035156,-11.146205828857422
4944945355560,2.361463802,1,0.2501940734863281,1.7094599853515624,-11.245565197753905
4944948689049,2.364797291,1,0.24899697265624998,1.695094775390625,-11.154585534667968
4944952022330,2.368130572,1,0.2442085693359375,1.714248388671875,-11.215637677001952
4944955358632,2.371466874,1,0.2597708801269531,1.753752716064453,-11.207257971191405
4944958690091,2.374798333,1,0.27293898925781246,1.7286135986328124,-11.18571015625
4944962023580,2.378131822,1,0.24181436767578124,1.7381904052734374,-11.204863769531249
4944965355455,2.381463697,1,0.21068974609375,1.7357962036132812,-11.17852755126953
4944968689101,2.384797343,1,0.23822306518554687,1.7082628845214842,-11.192892761230468
4944972023372,2.388131614,1,0.23343466186523437,1.705868682861328,-11.166556542968749
4944975353372,2.391461614,1,0.21068974609375,1.695094775390625,-11.162965240478515
4944978687382,2.394795624,1,0.23104046020507812,1.7310078002929687,-11.21683477783203
4944982022695,2.398130937,1,0.23343466186523437,1.763329522705078,-11.15338843383789
4944985355455,2.401463697,1,0.21428104858398436,1.7381904052734374,-11.270704315185545
4944988688997,2.404797239,1,0.20709844360351562,1.7118541870117185,-11.164162341308593
4944992022487,2.408130729,1,0.18076222534179687,1.714248388671875,-11.19169566040039
4944995353789,2.411462031,1,0.22266075439453123,1.7166425903320313,-11.130643518066405
4944998687070,2.414795312,1,0.24660277099609373,1.7357962036132812,-11.17852755126953
4945002022591,2.418130833,1,0.2609679809570312,1.7417817077636717,-11.176133349609374
4945005355820,2.421464062,1,0.23343466186523437,1.696291876220703,-11.17852755126953
4945008689987,2.424798229,1,0.19393033447265623,1.7118541870117185,-11.21084927368164
4945012021757,2.428129999,1,0.21428104858398436,1.715445489501953,-11.188104357910156
4945015353007,2.431461249,1,0.20709844360351562,1.7334020019531249,-11.124658013916015
4945018687799,2.434796041,1,0.21068974609375,1.707065783691406,-11.119869610595703
4945022023372,2.438131614,1,0.20709844360351562,1.7010802795410156,-11.197681164550781
4945025354830,2.441463072,1,0.23822306518554687,1.7465701110839842,-11.192892761230468
4945028689466,2.444797708,1,0.17118541870117188,1.7130512878417967,-11.164162341308593
4945032023216,2.448131458,1,0.21787235107421873,1.6938976745605467,-11.127052215576171
4945035353737,2.451461979,1,0.19991583862304688,1.707065783691406,-11.184513055419922
4945038687018,2.45479526,1,0.22505495605468748,1.7334020019531249,-11.295843432617186
4945042022539,2.458130781,1,0.1484405029296875,1.7501614135742187,-11.11508120727539
4945045355507,2.461463749,1,0.1927332336425781,1.705868682861328,-11.220426080322264
4945048688737,2.464796979,1,0.2549824768066406,1.7166425903320313,-11.208455072021483
4945052022539,2.468130781,1,0.17477672119140625,1.7369933044433592,-11.215637677001952
4945055353737,2.471461979,1,0.24181436767578124,1.687912170410156,-11.129446417236327
4945058687070,2.474795312,1,0.2501940734863281,1.7621324218749999,-11.159373937988281
4945062022487,2.478130729,1,0.2262520568847656,1.7453730102539062,-11.074379779052734
4945065355351,2.481463593,1,0.2741360900878906,1.705868682861328,-11.190498559570312
4945068688372,2.484796614,1,0.2059013427734375,1.7130512878417967,-11.173739147949219
4945072022747,2.488130989,1,0.2657563842773437,1.7226280944824217,-11.188104357910156
4945075353059,2.491461301,1,0.21787235107421873,1.7597382202148437,-11.150994232177734
4945078687018,2.49479526,1,0.21188684692382811,1.7178396911621092,-11.208455072021483
4945082022278,2.49813052,1,0.22864625854492185,1.7357962036132812,-11.137826123046874
4945085356653,2.501464895,1,0.19512743530273435,1.7489643127441405,-11.228805786132812
4945088689414,2.504797656,1,0.20709844360351562,1.7764976318359373,-11.136629022216797
4945092022747,2.508130989,1,0.24061726684570311,1.7094599853515624,-11.182118853759764
4945095353007,2.511461249,1,0.16759411621093748,1.7082628845214842,-11.208455072021483
4945098687070,2.514795312,1,0.18555062866210936,1.7238251953125,-11.109095703125
4945102022539,2.518130781,1,0.23104046020507812,1.6903063720703124,-11.110292803955078
4945105356132,2.521464374,1,0.2454056701660156,1.7645266235351562,-11.219228979492186
4945108689726,2.524797968,1,0.20231004028320312,1.7944541442871094,-11.15338843383789
4945112022643,2.528130885,1,0.1592144104003906,1.7238251953125,-11.128249316406249
4945115353945,2.531462187,1,0.239420166015625,1.7178396911621092,-11.161768139648437
4945118687591,2.534795833,1,0.2657563842773437,1.7262193969726563,-11.085153686523437
4945122022695,2.538130937,1,0.21787235107421873,1.7465701110839842,-11.334150659179686
4945125356549,2.541464791,1,0.22505495605468748,1.7561469177246092,-11.269507214355468
4945128689049,2.544797291,1,0.23822306518554687,1.714248388671875,-11.165359442138671
4945132022278,2.54813052,1,0.18315642700195311,1.7417817077636717,-11.133037719726563
4945135353737,2.551461979,1,0.239420166015625,1.7477672119140624,-11.113884106445312
4945138687487,2.554795729,1,0.22266075439453123,1.6819266662597656,-11.112687005615234
4945142023268,2.55813151,1,0.2597708801269531,1.68551796875,-11.164162341308593
4945145356237,2.561464479,1,0.19871873779296872,1.714248388671875,-11.16057103881836
4945148688580,2.564796822,1,0.20231004028320312,1.7190367919921874,-11.238382592773437
4945152022539,2.568130781,1,0.23702596435546874,1.7310078002929687,-11.168950744628905
4945155353268,2.57146151,1,0.2741360900878906,1.7357962036132812,-11.202469567871093
4945158687382,2.574795624,1,0.2346317626953125,1.734599102783203,-11.209652172851563
4945162022643,2.578130885,1,0.24660277099609373,1.7334020019531249,-11.19169566040039
4945165355612,2.581463854,1,0.2059013427734375,1.705868682861328,-11.206060870361327
4945168689830,2.584798072,1,0.27293898925781246,1.7298106994628906,-11.201272467041015
4945172021914,2.588130156,1,0.2059013427734375,1.7118541870117185,-11.202469567871093
4945175353372,2.591461614,1,0.2214636535644531,1.7274164978027342,-11.139023223876952
4945178688580,2.594796822,1,0.277727392578125,1.7334020019531249,-11.19169566040039
4945182023372,2.598131614,1,0.2454056701660156,1.7106570861816406,-11.158176837158203
4945185355455,2.601463697,1,0.26695348510742184,1.7417817077636717,-11.206060870361327
4945188689101,2.604797343,1,0.22385785522460935,1.7298106994628906,-11.23000288696289
4945192022174,2.608130416,1,0.2166752502441406,1.7130512878417967,-11.164162341308593
4945195353268,2.61146151,1,0.20470424194335937,1.714248388671875,-11.165359442138671
4945198687799,2.614796041,1,0.2609679809570312,1.7417817077636717,-11.194089862060546
4945202021809,2.618130051,1,0.26815058593749996,1.6986860778808592,-11.19887826538086
4945205355195,2.621463437,1,0.23582886352539062,1.7609353210449217,-11.154585534667968
4945208689049,2.624797291,1,0.28730419921875,1.7214309936523438,-11.200075366210937
4945212021184,2.628129426,1,0.19991583862304688,1.734599102783203,-11.154585534667968
4945215354101,2.631462343,1,0.239420166015625,1.6986860778808592,-11.103110198974608
4945218688007,2.634796249,1,0.2346317626953125,1.7429788085937499,-11.19169566040039
4945222022799,2.638131041,1,0.2609679809570312,1.7693150268554687,-11.188104357910156
4945225356132,2.641464374,1,0.239420166015625,1.7310078002929687,-11.202469567871093
4945228689049,2.644797291,1,0.18914193115234373,1.7274164978027342,-11.173739147949219
4945232022695,2.648130937,1,0.21308394775390624,1.7657237243652342,-11.201272467041015
4945235353789,2.651462031,1,0.15322890625,1.7561469177246092,-11.246762298583985
4945238687382,2.654795624,1,0.2549824768066406,1.7753005310058592,-11.103110198974608
4945242022382,2.658130624,1,0.20949264526367187,1.7286135986328124,-11.192892761230468
4945245356549,2.661464791,1,0.21068974609375,1.7130512878417967,-11.188104357910156
4945248688893,2.664797135,1,0.2609679809570312,1.7645266235351562,-11.143811627197264
4945252022226,2.668130468,1,0.2609679809570312,1.7010802795410156,-11.275492718505859
4945255353632,2.671461874,1,0.24301146850585936,1.6927005737304686,-11.225214483642578
4945258688059,2.674796301,1,0.22266075439453123,1.7190367919921874,-11.188104357910156
4945262022486,2.678130728,1,0.22385785522460935,1.7393875061035156,-11.19887826538086
4945265355351,2.681463593,1,0.23223756103515625,1.7381904052734374,-11.15338843383789
4945268695143,2.684803385,1,0.21068974609375,1.725022296142578,-11.167753643798827
4945272023059,2.688131301,1,0.2741360900878906,1.7357962036132812,-11.222820281982422
4945275354466,2.691462708,1,0.23822306518554687,1.7669208251953124,-11.14022032470703
4945278687278,2.69479552,1,0.22026655273437498,1.7357962036132812,-11.164162341308593
4945282022695,2.698130937,1,0.16879121704101563,1.763329522705078,-11.119869610595703
4945285356236,2.701464478,1,0.2549824768066406,1.7118541870117185,-11.161768139648437
4945288687903,2.704796145,1,0.2059013427734375,1.7022773803710936,-11.219228979492186
4945292022747,2.708130989,1,0.26216508178710934,1.7681179260253905,-11.179724652099608
4945295353997,2.711462239,1,0.22744915771484372,1.7417817077636717,-11.195286962890624
4945298687643,2.714795885,1,0.21787235107421873,1.7393875061035156,-11.19169566040039
4945302022278,2.71813052,1,0.201112939453125,1.7130512878417967,-11.251550701904296
4945305355716,2.721463958,1,0.20829554443359374,1.7310078002929687,-11.196484063720703
4945308689257,2.724797499,1,0.19393033447265623,1.7453730102539062,-11.164162341308593
4945312023111,2.728131353,1,0.20470424194335937,1.705868682861328,-11.195286962890624
4945315353424,2.731461666,1,0.22026655273437498,1.725022296142578,-11.1474029296875
4945318687070,2.734795312,1,0.229843359375,1.6938976745605467,-11.142614526367186
4945322022330,2.738130572,1,0.19632453613281248,1.7621324218749999,-11.228805786132812
4945325355924,2.741464166,1,0.22385785522460935,1.7549498168945312,-11.18571015625
4945328689466,2.744797708,1,0.201112939453125,1.7357962036132812,-11.214440576171874
4945332022695,2.748130937,1,0.19871873779296872,1.7178396911621092,-11.202469567871093
4945335352799,2.751461041,1,0.26216508178710934,1.763329522705078,-11.164162341308593
4945338686757,2.754794999,1,0.20231004028320312,1.7381904052734374,-11.189301458740234
4945342022486,2.758130728,1,0.24061726684570311,1.675941162109375,-11.203666668701171
4945345355716,2.761463958,1,0.21906945190429686,1.7082628845214842,-11.273098516845703
4945348687747,2.764795989,1,0.19393033447265623,1.744175909423828,-11.203666668701171
4945352021966,2.768130208,1,0.19991583862304688,1.7190367919921874,-11.218031878662108
4945355352799,2.771461041,1,0.20470424194335937,1.7453730102539062,-11.197681164550781
4945358688632,2.774796874,1,0.22505495605468748,1.7513585144042967,-11.058817468261719
4945362022591,2.778130833,1,0.20709844360351562,1.7501614135742187,-11.21084927368164
4945365356757,2.781464999,1,0.20949264526367187,1.7513585144042967,-11.180921752929686
4945368688997,2.784797239,1,0.28969840087890625,1.7334020019531249,-11.190498559570312
4945372021914,2.788130156,1,0.2561795776367187,1.6938976745605467,-11.155782635498046
4945375353268,2.79146151,1,0.22505495605468748,1.7609353210449217,-11.200075366210937
4945378687174,2.794795416,1,0.24660277099609373,1.7214309936523438,-11.119869610595703
4945382022539,2.798130781,1,0.22744915771484372,1.7190367919921874,-11.135431921386719
4945385355195,2.801463437,1,0.2262520568847656,1.7381904052734374,-11.200075366210937
4945388688476,2.804796718,1,0.20709844360351562,1.7238251953125,-11.235988391113281
4945392022539,2.808130781,1,0.24301146850585936,1.7202338928222656,-11.2240173828125
4945395352643,2.811460885,1,0.24301146850585936,1.7369933044433592,-11.261127508544922
4945398686445,2.814794687,1,0.23702596435546874,1.714248388671875,-11.215637677001952
4945402023268,2.81813151,1,0.25258827514648435,1.7190367919921874,-11.130643518066405
4945405355507,2.821463749,1,0.2454056701660156,1.7513585144042967,-11.137826123046874
4945408688893,2.824797135,1,0.1867477294921875,1.6998831787109374,-11.21683477783203
4945412022174,2.828130416,1,0.20949264526367187,1.6998831787109374,-11.17852755126953
4945415353424,2.831461666,1,0.19393033447265623,1.7489643127441405,-11.208455072021483
4945418687278,2.83479552,1,0.19871873779296872,1.7465701110839842,-11.322179650878905
4945422023059,2.838131301,1,0.2346317626953125,1.7465701110839842,-11.209652172851563
4945425355559,2.841463801,1,0.24301146850585936,1.7118541870117185,-11.258733306884764
4945428689101,2.844797343,1,0.2597708801269531,1.68551796875,-11.19169566040039
4945432022174,2.848130416,1,0.239420166015625,1.7489643127441405,-11.19169566040039
4945435350507,2.851458749,1,0.2609679809570312,1.714248388671875,-11.200075366210937
4945438687278,2.85479552,1,0.22026655273437498,1.7334020019531249,-11.231199987792968
4945442022799,2.858131041,1,0.23582886352539062,1.7393875061035156,-11.166556542968749
4945445355403,2.861463645,1,0.23582886352539062,1.8076222534179687,-11.186907257080078
4945448688528,2.86479677,1,0.19991583862304688,1.7453730102539062,-11.195286962890624
4945452021757,2.868129999,1,0.21308394775390624,1.7609353210449217,-11.166556542968749
4945455353424,2.871461666,1,0.21906945190429686,1.7381904052734374,-11.184513055419922
4945458687174,2.874795416,1,0.24779987182617186,1.7477672119140624,-11.173739147949219
4945462022122,2.878130364,1,0.17357962036132812,1.7489643127441405,-11.118672509765624
4945465356341,2.881464583,1,0.2214636535644531,1.6831237670898436,-11.24915650024414
4945468686861,2.884795103,1,0.28730419921875,1.7609353210449217,-11.219228979492186
4945472022434,2.888130676,1,0.23582886352539062,1.7453730102539062,-11.139023223876952
4945475353424,2.891461666,1,0.22385785522460935,1.7262193969726563,-11.204863769531249
4945478687643,2.894795885,1,0.21308394775390624,1.707065783691406,-11.196484063720703
4945482022955,2.898131197,1,0.23104046020507812,1.6986860778808592,-11.319785449218749
4945485355247,2.901463489,1,0.2609679809570312,1.7357962036132812,-11.207257971191405
4945488689361,2.904797603,1,0.2454056701660156,1.7836802368164062,-11.195286962890624
4945492022070,2.908130312,1,0.239420166015625,1.7585411193847655,-11.226411584472656
4945495353788,2.91146203,1,0.19991583862304688,1.734599102783203,-11.201272467041015
4945498687695,2.914795937,1,0.21188684692382811,1.7645266235351562,-11.133037719726563
4945502022330,2.918130572,1,0.239420166015625,1.6903063720703124,-11.274295617675781
4945505355195,2.921463437,1,0.19991583862304688,1.7238251953125,-11.159373937988281
4945508688684,2.924796926,1,0.2154781494140625,1.695094775390625,-11.166556542968749
4945512021966,2.928130208,1,0.16879121704101563,1.705868682861328,-11.299434735107422
4945515353736,2.931461978,1,0.21308394775390624,1.7705121276855467,-11.091139190673827
4945518687538,2.93479578,1,0.23822306518554687,1.7226280944824217,-11.156979736328124
4945522020924,2.938129166,1,0.2980781066894531,1.697488977050781,-11.149797131347656
4945525356184,2.941464426,1,0.17118541870117188,1.7573440185546874,-11.156979736328124
4945528688163,2.944796405,1,0.21068974609375,1.7357962036132812,-11.200075366210937
4945532022174,2.948130416,1,0.26336218261718747,1.7310078002929687,-11.192892761230468
4945535354153,2.951462395,1,0.2501940734863281,1.7310078002929687,-11.192892761230468
4945538686861,2.954795103,1,0.2442085693359375,1.7286135986328124,-11.174936248779296
4945542022903,2.958131145,1,0.23343466186523437,1.7381904052734374,-11.196484063720703
4945545355455,2.961463697,1,0.23822306518554687,1.7322049011230467,-11.177330450439452
4945548689413,2.964797655,1,0.229843359375,1.7453730102539062,-11.215637677001952
4945552022747,2.968130989,1,0.2262520568847656,1.7417817077636717,-11.231199987792968
4945555353684,2.971461926,1,0.23104046020507812,1.7214309936523438,-11.165359442138671
4945558687330,2.974795572,1,0.18555062866210936,1.7357962036132812,-11.215637677001952
4945562022643,2.978130885,1,0.2549824768066406,1.678335363769531,-11.226411584472656
4945565355403,2.981463645,1,0.23343466186523437,1.70467158203125,-11.226411584472656
4945568688528,2.98479677,1,0.1879448303222656,1.7106570861816406,-11.176133349609374
4945572022851,2.988131093,1,0.24779987182617186,1.7226280944824217,-11.183315954589844
4945575352799,2.991461041,1,0.201112939453125,1.7262193969726563,-11.231199987792968
4945578687278,2.99479552,1,0.26695348510742184,1.705868682861328,-11.17254204711914
4945582028580,2.998136822,1,0.25258827514648435,1.7705121276855467,-11.225214483642578
4945585358111,3.001466353,1,0.22744915771484372,1.7334020019531249,-11.11508120727539
4945588689986,3.004798228,1,0.20829554443359374,1.7693150268554687,-11.221623181152344
4945592022747,3.008130989,1,0.24779987182617186,1.7477672119140624,-11.23718549194336
4945595353216,3.011461458,1,0.24301146850585936,1.7501614135742187,-11.19887826538086
4945598686809,3.014795051,1,0.2454056701660156,1.7800889343261719,-11.204863769531249
4945602022070,3.018130312,1,0.26336218261718747,1.7513585144042967,-11.207257971191405
4945605355403,3.021463645,1,0.229843359375,1.7298106994628906,-11.171344946289063
4945608689101,3.024797343,1,0.22385785522460935,1.714248388671875,-11.19887826538086
4945612037382,3.028145624,1,0.24061726684570311,1.70467158203125,-11.143811627197264
4945615354257,3.031462499,1,0.2645592834472656,1.7561469177246092,-11.118672509765624
4945618687226,3.034795468,1,0.18555062866210936,1.7274164978027342,-11.231199987792968
4945622023163,3.038131405,1,0.2549824768066406,1.7357962036132812,-11.212046374511718
4945625356341,3.041464583,1,0.17836802368164062,1.7393875061035156,-11.17254204711914
4945628689726,3.044797968,1,0.22505495605468748,1.7286135986328124,-11.200075366210937
4945632022382,3.048130624,1,0.25258827514648435,1.7477672119140624,-11.155782635498046
4945635353320,3.051461562,1,0.2537853759765625,1.7322049011230467,-11.156979736328124
4945638686132,3.054794374,1,0.27174188842773433,1.7286135986328124,-11.177330450439452
4945642022695,3.058130937,1,0.21787235107421873,1.7585411193847655,-11.226411584472656
4945645356340,3.061464582,1,0.23822306518554687,1.7357962036132812,-11.225214483642578
4945648689778,3.06479802,1,0.22385785522460935,1.7896657409667969,-11.182118853759764
4945652023007,3.068131249,1,0.21308394775390624,1.7274164978027342,-11.201272467041015
4945655353528,3.07146177,1,0.2346317626953125,1.7585411193847655,-11.064802972412108
4945658686965,3.074795207,1,0.21188684692382811,1.7190367919921874,-11.188104357910156
4945662022851,3.078131093,1,0.22026655273437498,1.7513585144042967,-11.214440576171874
4945665355976,3.081464218,1,0.27892449340820313,1.696291876220703,-11.195286962890624
4945668688528,3.08479677,1,0.2549824768066406,1.7286135986328124,-11.139023223876952
4945672021965,3.088130207,1,0.22266075439453123,1.7262193969726563,-11.146205828857422
4945675353424,3.091461666,1,0.25258827514648435,1.7417817077636717,-11.200075366210937
4945678687330,3.094795572,1,0.2501940734863281,1.7034744812011717,-11.220426080322264
4945682022799,3.098131041,1,0.2346317626953125,1.6998831787109374,-11.168950744628905
4945685356028,3.10146427,1,0.22266075439453123,1.7118541870117185,-11.034875451660156
4945688688476,3.104796718,1,0.2214636535644531,1.7405846069335937,-11.133037719726563
4945692022747,3.108130989,1,0.22266075439453123,1.7693150268554687,-11.168950744628905
4945695352851,3.111461093,1,0.229843359375,1.68551796875,-11.125855114746093
4945698687070,3.114795312,1,0.21308394775390624,1.7082628845214842,-11.204863769531249
4945702022018,3.11813026,1,0.21906945190429686,1.7298106994628906,-11.243170996093749
4945705355038,3.12146328,1,0.1927332336425781,1.7106570861816406,-11.23718549194336
4945708689101,3.124797343,1,0.24181436767578124,1.695094775390625,-11.212046374511718
4945712023007,3.128131249,1,0.229843359375,1.7561469177246092,-11.176133349609374
4945715353788,3.13146203,1,0.16160861206054686,1.7597382202148437,-11.094730493164063
4945718687747,3.134795989,1,0.23223756103515625,1.7190367919921874,-11.179724652099608
4945722022122,3.138130364,1,0.316034619140625,1.7106570861816406,-11.201272467041015
4945725354465,3.141462707,1,0.2705447875976562,1.7202338928222656,-11.18571015625
4945728689674,3.144797916,1,0.2214636535644531,1.734599102783203,-11.180921752929686
4945732022643,3.148130885,1,0.181959326171875,1.7226280944824217,-11.170147845458983
4945735353268,3.15146151,1,0.26336218261718747,1.7369933044433592,-11.214440576171874
4945738686809,3.154795051,1,0.2501940734863281,1.7477672119140624,-11.235988391113281
4945742021861,3.158130103,1,0.22266075439453123,1.7369933044433592,-11.267113012695312
4945745355976,3.161464218,1,0.23702596435546874,1.772906329345703,-11.158176837158203
4945748688736,3.164796978,1,0.15682020874023436,1.7214309936523438,-11.204863769531249
4945752022382,3.168130624,1,0.19033903198242186,1.744175909423828,-11.141417425537108
4945755350768,3.17145901,1,0.23223756103515625,1.7417817077636717,-11.194089862060546
4945758688320,3.174796562,1,0.15562310791015624,1.7082628845214842,-11.146205828857422
4945762023580,3.178131822,1,0.2346317626953125,1.7429788085937499,-11.244368096923827
4945765356132,3.181464374,1,0.19153613281249998,1.7381904052734374,-11.186907257080078
4945768687382,3.184795624,1,0.23822306518554687,1.7274164978027342,-11.190498559570312
4945772023215,3.188131457,1,0.2214636535644531,1.7357962036132812,-11.17852755126953
4945775353580,3.191461822,1,0.29568390502929687,1.7776947326660155,-11.171344946289063
4945778687486,3.194795728,1,0.17956512451171874,1.7561469177246092,-11.166556542968749
4945782022695,3.198130937,1,0.1975216369628906,1.7405846069335937,-11.204863769531249
4945785355247,3.201463489,1,0.2262520568847656,1.7501614135742187,-11.235988391113281
4945788688632,3.204796874,1,0.20470424194335937,1.7429788085937499,-11.219228979492186
4945792022486,3.208130728,1,0.21428104858398436,1.7465701110839842,-11.171344946289063
4945795353476,3.211461718,1,0.23822306518554687,1.7298106994628906,-11.164162341308593
4945798687747,3.214795989,1,0.20470424194335937,1.7489643127441405,-11.232397088623046
4945802022695,3.218130937,1,0.19033903198242186,1.7465701110839842,-11.225214483642578
4945805355924,3.221464166,1,0.15442600708007811,1.7489643127441405,-11.19887826538086
4945808689361,3.224797603,1,0.17597382202148437,1.7429788085937499,-11.136629022216797
4945812022538,3.22813078,1,0.19991583862304688,1.7106570861816406,-11.213243475341796
4945815353424,3.231461666,1,0.19991583862304688,1.7489643127441405,-11.166556542968749
4945818687538,3.23479578,1,0.21787235107421873,1.668758557128906,-11.15338843383789
4945822021861,3.238130103,1,0.23343466186523437,1.7369933044433592,-11.180921752929686
4945825354934,3.241463176,1,0.24061726684570311,1.7334020019531249,-11.19169566040039
4945828688372,3.244796614,1,0.25258827514648435,1.68551796875,-11.182118853759764
4945832021705,3.248129947,1,0.23702596435546874,1.7489643127441405,-11.200075366210937
4945835354049,3.251462291,1,0.24899697265624998,1.753752716064453,-11.17254204711914
4945838687955,3.254796197,1,0.24061726684570311,1.7992425476074219,-11.23718549194336
4945842022695,3.258130937,1,0.229843359375,1.7262193969726563,-11.186907257080078
4945845355507,3.261463749,1,0.16998831787109375,1.7298106994628906,-11.164162341308593
4945848689257,3.264797499,1,0.19871873779296872,1.734599102783203,-11.180921752929686
4945852022695,3.268130937,1,0.22385785522460935,1.753752716064453,-11.143811627197264
4945855353267,3.271461509,1,0.2705447875976562,1.763329522705078,-11.14022032470703
4945858687486,3.274795728,1,0.2501940734863281,1.7190367919921874,-11.233594189453123
4945862022226,3.278130468,1,0.26336218261718747,1.7561469177246092,-11.192892761230468
4945865355142,3.281463384,1,0.21428104858398436,1.744175909423828,-11.195286962890624
4945868689726,3.284797968,1,0.21787235107421873,1.7968483459472655,-11.207257971191405
4945872023267,3.288131509,1,0.25139117431640623,1.7214309936523438,-11.137826123046874
4945875353007,3.291461249,1,0.21068974609375,1.725022296142578,-11.168950744628905
4945878686861,3.294795103,1,0.23104046020507812,1.7513585144042967,-11.171344946289063
4945882022434,3.298130676,1,0.18435352783203124,1.7369933044433592,-11.18571015625
4945885357278,3.30146552,1,0.239420166015625,1.696291876220703,-11.159373937988281
4945888691757,3.304799999,1,0.21906945190429686,1.7262193969726563,-11.131840618896483
4945892022538,3.30813078,1,0.2885013000488281,1.7681179260253905,-11.146205828857422
4945895357486,3.311465728,1,0.20231004028320312,1.7645266235351562,-11.127052215576171
4945898688945,3.314797187,1,0.22385785522460935,1.734599102783203,-11.183315954589844
4945902022799,3.318131041,1,0.23104046020507812,1.7489643127441405,-11.133037719726563
4945905356340,3.321464582,1,0.2166752502441406,1.734599102783203,-11.206060870361327
4945908688580,3.324796822,1,0.2166752502441406,1.7477672119140624,-11.212046374511718
4945912021705,3.328129947,1,0.2561795776367187,1.734599102783203,-11.262324609375
4945915353528,3.33146177,1,0.21308394775390624,1.7381904052734374,-11.241973895263671
4945918687538,3.33479578,1,0.23223756103515625,1.7190367919921874,-11.2240173828125
4945922022070,3.338130312,1,0.21428104858398436,1.7417817077636717,-11.15338843383789
4945925355403,3.341463645,1,0.24779987182617186,1.7645266235351562,-11.17254204711914
4945928688007,3.344796249,1,0.2059013427734375,1.705868682861328,-11.196484063720703
4945932021861,3.348130103,1,0.21906945190429686,1.7405846069335937,-11.176133349609374
4945935354101,3.351462343,1,0.2693476867675781,1.8136077575683593,-11.156979736328124
4945938687174,3.354795416,1,0.23104046020507812,1.6831237670898436,-11.19887826538086
4945942022903,3.358131145,1,0.20470424194335937,1.7381904052734374,-11.23718549194336
4945945355403,3.361463645,1,0.22744915771484372,1.7334020019531249,-11.168950744628905
4945948688632,3.364796874,1,0.22505495605468748,1.7489643127441405,-11.165359442138671
4945952022799,3.368131041,1,0.27892449340820313,1.7202338928222656,-11.313799945068359
4945955352486,3.371460728,1,0.22385785522460935,1.7429788085937499,-11.149797131347656
4945958686653,3.374794895,1,0.2549824768066406,1.7010802795410156,-11.167753643798827
4945962022851,3.378131093,1,0.18315642700195311,1.7741034301757812,-11.18571015625
4945965355247,3.381463489,1,0.19153613281249998,1.696291876220703,-11.189301458740234
4945968688267,3.384796509,1,0.239420166015625,1.7178396911621092,-11.18571015625
4945972022590,3.388130832,1,0.22266075439453123,1.7393875061035156,-11.180921752929686
4945975352955,3.391461197,1,0.17477672119140625,1.697488977050781,-11.189301458740234
4945978685820,3.394794062,1,0.26815058593749996,1.7106570861816406,-11.143811627197264
4945982021288,3.39812953,1,0.20470424194335937,1.7645266235351562,-11.179724652099608
4945985356028,3.40146427,1,0.2166752502441406,1.7262193969726563,-11.23000288696289
4945988688267,3.404796509,1,0.2262520568847656,1.7501614135742187,-11.212046374511718
4945992021913,3.408130155,1,0.19871873779296872,1.7214309936523438,-11.155782635498046
4945995352851,3.411461093,1,0.24660277099609373,1.7022773803710936,-11.204863769531249
4945998687642,3.414795884,1,0.24301146850585936,1.7764976318359373,-11.155782635498046
4946002164101,3.418272343,1,0.2741360900878906,1.744175909423828,-11.214440576171874
4946005352017,3.421460259,1,0.2059013427734375,1.7118541870117185,-11.215637677001952
4946008684361,3.424792603,1,0.1771709228515625,1.7453730102539062,-11.17852755126953
4946012037278,3.42814552,1,0.2262520568847656,1.7513585144042967,-11.155782635498046
4946015351392,3.431459634,1,0.22026655273437498,1.744175909423828,-11.225214483642578
4946018688788,3.43479703,1,0.23104046020507812,1.70467158203125,-11.228805786132812
4946022022799,3.438131041,1,0.239420166015625,1.7322049011230467,-11.209652172851563
4946025355820,3.441464062,1,0.22744915771484372,1.7310078002929687,-11.15338843383789
4946028690455,3.444798697,1,0.21428104858398436,1.7214309936523438,-11.1474029296875
4946032023163,3.448131405,1,0.2059013427734375,1.7573440185546874,-11.218031878662108
4946035354153,3.451462395,1,0.22266075439453123,1.763329522705078,-11.197681164550781
4946038688059,3.454796301,1,0.25737667846679685,1.7190367919921874,-11.17852755126953
4946042022486,3.458130728,1,0.22385785522460935,1.7238251953125,-11.190498559570312
4946045355299,3.461463541,1,0.24899697265624998,1.7393875061035156,-11.171344946289063
4946048688580,3.464796822,1,0.3016694091796875,1.7429788085937499,-11.200075366210937
4946052022799,3.468131041,1,0.239420166015625,1.7238251953125,-11.159373937988281
4946055352903,3.471461145,1,0.2214636535644531,1.714248388671875,-11.167753643798827
4946058686965,3.474795207,1,0.229843359375,1.7238251953125,-11.155782635498046
4946062022122,3.478130364,1,0.24181436767578124,1.7262193969726563,-11.145008728027342
4946065356028,3.48146427,1,0.2454056701660156,1.7812860351562498,-11.103110198974608
4946068688684,3.484796926,1,0.24181436767578124,1.7369933044433592,-11.226411584472656
4946072022590,3.488130832,1,0.2166752502441406,1.7585411193847655,-11.173739147949219
4946075353424,3.491461666,1,0.26695348510742184,1.714248388671875,-11.2240173828125
4946078686757,3.494794999,1,0.23582886352539062,1.753752716064453,-11.170147845458983
4946082022382,3.498130624,1,0.2609679809570312,1.6938976745605467,-11.209652172851563
4946085355559,3.501463801,1,0.21188684692382811,1.6627730529785156,-11.16057103881836
4946088688840,3.504797082,1,0.23822306518554687,1.686715069580078,-11.208455072021483
4946092022903,3.508131145,1,0.19033903198242186,1.7010802795410156,-11.135431921386719
4946095353997,3.511462239,1,0.23582886352539062,1.6998831787109374,-11.173739147949219
4946098686861,3.514795103,1,0.16998831787109375,1.7310078002929687,-11.11508120727539
4946102022382,3.518130624,1,0.258573779296875,1.7226280944824217,-11.170147845458983
4946105355715,3.521463957,1,0.20709844360351562,1.7705121276855467,-11.206060870361327
4946108688997,3.524797239,1,0.27293898925781246,1.7549498168945312,-11.150994232177734
4946112022747,3.528130989,1,0.23702596435546874,1.7334020019531249,-11.125855114746093
4946115353476,3.531461718,1,0.2442085693359375,1.7381904052734374,-11.292252130126952
4946118687747,3.534795989,1,0.24061726684570311,1.714248388671875,-11.203666668701171
4946122094986,3.538203228,1,0.23104046020507812,1.7214309936523438,-11.221623181152344
4946125372538,3.54148078,1,0.20470424194335937,1.7609353210449217,-11.253944903564452
4946128703528,3.54481177,1,0.2154781494140625,1.7082628845214842,-11.184513055419922
4946132035611,3.548143853,1,0.22864625854492185,1.590947003173828,-11.148600030517578
4946135365924,3.551474166,1,0.21308394775390624,1.7585411193847655,-11.184513055419922
4946138700247,3.554808489,1,0.21906945190429686,1.7645266235351562,-11.177330450439452
4946142033372,3.558141614,1,0.2501940734863281,1.6807295654296874,-11.206060870361327
4946145369674,3.561477916,1,0.2214636535644531,1.697488977050781,-11.171344946289063
4946148702590,3.564810832,1,0.24660277099609373,1.7238251953125,-11.155782635498046
4946152037069,3.568145311,1,0.2657563842773437,1.7262193969726563,-11.180921752929686
4946155367694,3.571475936,1,0.24061726684570311,1.7262193969726563,-11.127052215576171
4946158700403,3.574808645,1,0.1927332336425781,1.695094775390625,-11.19169566040039
4946162033892,3.578142134,1,0.22505495605468748,1.7741034301757812,-11.23000288696289
4946165369465,3.581477707,1,0.2501940734863281,1.7334020019531249,-11.190498559570312
4946168702069,3.584810311,1,0.22505495605468748,1.7094599853515624,-11.136629022216797
4946172035924,3.588144166,1,0.17597382202148437,1.714248388671875,-11.168950744628905
4946175366236,3.591474478,1,0.25258827514648435,1.697488977050781,-11.154585534667968
4946178700247,3.594808489,1,0.22864625854492185,1.7525556152343749,-11.130643518066405
4946182032434,3.598140676,1,0.2454056701660156,1.7286135986328124,-11.243170996093749
4946185369153,3.601477395,1,0.2597708801269531,1.7489643127441405,-11.194089862060546
4946188703788,3.60481203,1,0.18914193115234373,1.7465701110839842,-11.21084927368164
4946192035715,3.608143957,1,0.22744915771484372,1.7489643127441405,-11.159373937988281
4946195367590,3.611475832,1,0.24181436767578124,1.707065783691406,-11.252747802734374
4946198700715,3.614808957,1,0.2214636535644531,1.7094599853515624,-11.207257971191405
4946202033580,3.618141822,1,0.24301146850585936,1.7669208251953124,-11.161768139648437
4946205369465,3.621477707,1,0.27892449340820313,1.7753005310058592,-11.18571015625
4946208706497,3.624814739,1,0.2166752502441406,1.7310078002929687,-11.261127508544922
4946212038059,3.628146301,1,0.21906945190429686,1.7322049011230467,-11.105504400634764
4946215366653,3.631474895,1,0.18435352783203124,1.7405846069335937,-11.328165155029296
4946218700715,3.634808957,1,0.22385785522460935,1.6831237670898436,-11.194089862060546
4946222077955,3.638186197,1,0.201112939453125,1.7022773803710936,-11.168950744628905
4946225371184,3.641479426,1,0.24899697265624998,1.7322049011230467,-11.161768139648437
4946228702799,3.644811041,1,0.2537853759765625,1.6927005737304686,-11.208455072021483
4946232037590,3.648145832,1,0.21188684692382811,1.7657237243652342,-11.162965240478515
4946235365872,3.651474114,1,0.21188684692382811,1.7190367919921874,-11.197681164550781
4946238700403,3.654808645,1,0.25737667846679685,1.7357962036132812,-11.179724652099608
4946242034309,3.658142551,1,0.21428104858398436,1.7381904052734374,-11.171344946289063
4946245369205,3.661477447,1,0.2501940734863281,1.744175909423828,-11.139023223876952
4946248702538,3.66481078,1,0.22505495605468748,1.7178396911621092,-11.159373937988281
4946252036809,3.668145051,1,0.19033903198242186,1.7178396911621092,-11.125855114746093
4946255367590,3.671475832,1,0.24779987182617186,1.7465701110839842,-11.184513055419922
4946258700090,3.674808332,1,0.30526071166992186,1.7836802368164062,-11.165359442138671
4946262034517,3.678142759,1,0.2454056701660156,1.7334020019531249,-11.233594189453123
4946265367642,3.681475884,1,0.229843359375,1.7022773803710936,-11.173739147949219
4946268703215,3.684811457,1,0.24660277099609373,1.7393875061035156,-11.168950744628905
4946272036184,3.688144426,1,0.2537853759765625,1.7130512878417967,-11.226411584472656
4946275366653,3.691474895,1,0.24779987182617186,1.7322049011230467,-11.123460913085937
4946278700142,3.694808384,1,0.25258827514648435,1.6903063720703124,-11.130643518066405
4946282033007,3.698141249,1,0.2597708801269531,1.7525556152343749,-11.23000288696289
4946285369049,3.701477291,1,0.23223756103515625,1.7860744384765623,-11.162965240478515
4946288703163,3.704811405,1,0.2059013427734375,1.7585411193847655,-11.194089862060546
4946292036236,3.708144478,1,0.23822306518554687,1.7884686401367187,-11.2240173828125
4946295366444,3.711474686,1,0.2454056701660156,1.70467158203125,-11.196484063720703
4946298699934,3.714808176,1,0.22744915771484372,1.7549498168945312,-11.195286962890624
4946302033319,3.718141561,1,0.2741360900878906,1.7573440185546874,-11.174936248779296
4946305368944,3.721477186,1,0.22505495605468748,1.7525556152343749,-11.218031878662108
4946308703059,3.724811301,1,0.22385785522460935,1.7334020019531249,-11.203666668701171
4946312037278,3.72814552,1,0.2059013427734375,1.7693150268554687,-11.251550701904296
4946315368007,3.731476249,1,0.21428104858398436,1.7465701110839842,-11.220426080322264
4946318699517,3.734807759,1,0.2609679809570312,1.7166425903320313,-11.143811627197264
4946322033007,3.738141249,1,0.20709844360351562,1.7513585144042967,-11.164162341308593
4946325372278,3.74148052,1,0.2705447875976562,1.7310078002929687,-11.167753643798827
4946328703007,3.744811249,1,0.25139117431640623,1.725022296142578,-11.179724652099608
4946332036653,3.748144895,1,0.21188684692382811,1.725022296142578,-11.228805786132812
4946335366653,3.751474895,1,0.2442085693359375,1.753752716064453,-11.081562384033202
4946338699674,3.754807916,1,0.1879448303222656,1.7202338928222656,-11.219228979492186
4946342033632,3.758141874,1,0.19991583862304688,1.7130512878417967,-11.159373937988281
4946345369830,3.761478072,1,0.239420166015625,1.7298106994628906,-11.16057103881836
4946348703788,3.76481203,1,0.25737667846679685,1.7202338928222656,-11.117475408935546
4946352036653,3.768144895,1,0.2537853759765625,1.7800889343261719,-11.195286962890624
4946355365663,3.771473905,1,0.19033903198242186,1.7130512878417967,-11.246762298583985
4946358700090,3.774808332,1,0.2262520568847656,1.7178396911621092,-11.196484063720703
4946362033684,3.778141926,1,0.23223756103515625,1.7238251953125,-11.164162341308593
4946365369621,3.781477863,1,0.23104046020507812,1.7513585144042967,-11.299434735107422
4946368702017,3.784810259,1,0.27174188842773433,1.715445489501953,-11.168950744628905
4946372036340,3.788144582,1,0.17836802368164062,1.6891092712402342,-11.159373937988281
4946375366288,3.79147453,1,0.2549824768066406,1.725022296142578,-11.176133349609374
4946378699726,3.794807968,1,0.229843359375,1.7393875061035156,-11.201272467041015
4946382033944,3.798142186,1,0.22744915771484372,1.7645266235351562,-11.162965240478515
4946385369465,3.801477707,1,0.22026655273437498,1.7465701110839842,-11.168950744628905
4946388706132,3.804814374,1,0.25258827514648435,1.7118541870117185,-11.173739147949219
4946392036288,3.80814453,1,0.19871873779296872,1.7310078002929687,-11.201272467041015
4946395362486,3.811470728,1,0.19991583862304688,1.6915034729003906,-11.141417425537108
4946398701549,3.814809791,1,0.23822306518554687,1.7262193969726563,-11.11508120727539
4946402033684,3.818141926,1,0.21787235107421873,1.7381904052734374,-11.11508120727539
4946405369726,3.821477968,1,0.19393033447265623,1.725022296142578,-11.19169566040039
4946408701913,3.824810155,1,0.24061726684570311,1.7381904052734374,-11.218031878662108
4946412036809,3.828145051,1,0.2561795776367187,1.7705121276855467,-11.129446417236327
4946415365663,3.831473905,1,0.22864625854492185,1.70467158203125,-11.225214483642578
4946418700715,3.834808957,1,0.25258827514648435,1.7178396911621092,-11.17254204711914
4946422033684,3.838141926,1,0.2454056701660156,1.7130512878417967,-11.100715997314452
4946425374413,3.841482655,1,0.2501940734863281,1.7465701110839842,-11.176133349609374
4946428706184,3.844814426,1,0.23104046020507812,1.7477672119140624,-11.233594189453123
4946432039517,3.848147759,1,0.23343466186523437,1.7190367919921874,-11.190498559570312
4946435369830,3.851478072,1,0.20470424194335937,1.6891092712402342,-11.219228979492186
4946438703215,3.854811457,1,0.22266075439453123,1.696291876220703,-11.184513055419922
4946442037278,3.85814552,1,0.239420166015625,1.7585411193847655,-11.129446417236327
4946445373580,3.861481822,1,0.26336218261718747,1.7274164978027342,-11.161768139648437
4946448706288,3.86481453,1,0.27892449340820313,1.7381904052734374,-11.183315954589844
4946452040351,3.868148593,1,0.22026655273437498,1.7465701110839842,-11.209652172851563
4946455369517,3.871477759,1,0.22385785522460935,1.7453730102539062,-11.194089862060546
4946458699569,3.874807811,1,0.23223756103515625,1.5729904907226562,-11.152191333007812
4946462037955,3.878146197,1,0.2262520568847656,1.70467158203125,-11.168950744628905
4946465373892,3.881482134,1,0.1640028137207031,1.70467158203125,-11.215637677001952
4946468705767,3.884814009,1,0.1867477294921875,1.7286135986328124,-11.226411584472656
4946472038424,3.888146666,1,0.2597708801269531,1.7381904052734374,-11.129446417236327
4946475368788,3.89147703,1,0.22266075439453123,1.7298106994628906,-11.155782635498046
4946478702851,3.894811093,1,0.2753331909179687,1.7645266235351562,-11.192892761230468
4946482036653,3.898144895,1,0.2561795776367187,1.7130512878417967,-11.188104357910156
4946485371809,3.901480051,1,0.27174188842773433,1.7561469177246092,-11.142614526367186
4946488705507,3.904813749,1,0.2154781494140625,1.7693150268554687,-11.106701501464842
4946492066444,3.908174686,1,0.19632453613281248,1.7477672119140624,-11.190498559570312
4946495369726,3.911477968,1,0.23702596435546874,1.7106570861816406,-11.168950744628905
4946498702799,3.914811041,1,0.24301146850585936,1.7561469177246092,-11.128249316406249
4946502035715,3.918143957,1,0.21308394775390624,1.687912170410156,-11.190498559570312
4946505372486,3.921480728,1,0.1927332336425781,1.7202338928222656,-11.165359442138671
4946508705351,3.924813593,1,0.24899697265624998,1.725022296142578,-11.219228979492186
4946512052069,3.928160311,1,0.23582886352539062,1.7764976318359373,-11.33175645751953
4946515369101,3.931477343,1,0.22026655273437498,1.695094775390625,-11.186907257080078
4946518702486,3.934810728,1,0.23104046020507812,1.7585411193847655,-11.161768139648437
4946522040142,3.938148384,1,0.19512743530273435,1.7214309936523438,-11.19887826538086
4946525371548,3.94147979,1,0.22864625854492185,1.7238251953125,-11.226411584472656
4946528703528,3.94481177,1,0.24301146850585936,1.7094599853515624,-11.17852755126953
4946532040194,3.948148436,1,0.2154781494140625,1.7238251953125,-11.190498559570312
4946535369673,3.951477915,1,0.2059013427734375,1.7429788085937499,-11.215637677001952
4946538703163,3.954811405,1,0.2059013427734375,1.7286135986328124,-11.257536206054686
4946542036444,3.958144686,1,0.21906945190429686,1.705868682861328,-11.121066711425781
4946545373111,3.961481353,1,0.239420166015625,1.7573440185546874,-11.19887826538086
4946548705559,3.964813801,1,0.23223756103515625,1.7549498168945312,-11.190498559570312
4946552039361,3.968147603,1,0.23582886352539062,1.707065783691406,-11.154585534667968
4946555369101,3.971477343,1,0.22505495605468748,1.7178396911621092,-11.221623181152344
4946558702382,3.974810624,1,0.20709844360351562,1.7549498168945312,-11.173739147949219
4946562035923,3.978144165,1,0.22026655273437498,1.697488977050781,-11.158176837158203
4946565372590,3.981480832,1,0.23822306518554687,1.715445489501953,-11.228805786132812
4946568705298,3.98481354,1,0.2262520568847656,1.7022773803710936,-11.209652172851563
4946572039101,3.988147343,1,0.181959326171875,1.7166425903320313,-11.313799945068359
4946575368944,3.991477186,1,0.19153613281249998,1.7298106994628906,-11.201272467041015
4946578702955,3.994811197,1,0.21428104858398436,1.7262193969726563,-11.208455072021483
4946582035976,3.998144218,1,0.19871873779296872,1.7214309936523438,-11.143811627197264
4946585372382,4.001480624,1,0.23223756103515625,1.7645266235351562,-11.192892761230468
4946588705351,4.004813593,1,0.24181436767578124,1.6998831787109374,-11.23000288696289
4946592039621,4.008147863,1,0.258573779296875,1.7238251953125,-11.173739147949219
4946595369309,4.011477551,1,0.2741360900878906,1.7501614135742187,-11.14022032470703
4946598703580,4.014811822,1,0.21308394775390624,1.7118541870117185,-11.23718549194336
4946602035663,4.018143905,1,0.2262520568847656,1.7525556152343749,-11.048043560791015
4946605372330,4.021480572,1,0.201112939453125,1.7776947326660155,-11.197681164550781
4946608705767,4.024814009,1,0.22864625854492185,1.7166425903320313,-11.21084927368164
4946612039569,4.028147811,1,0.22266075439453123,1.6927005737304686,-11.176133349609374
4946615368215,4.031476457,1,0.239420166015625,1.7417817077636717,-11.202469567871093
4946618699048,4.03480729,1,0.16998831787109375,1.697488977050781,-11.206060870361327
4946622036340,4.038144582,1,0.2166752502441406,1.7621324218749999,-11.244368096923827
4946625408996,4.041517238,1,0.2813186950683594,1.6938976745605467,-11.133037719726563
4946628704517,4.044812759,1,0.2645592834472656,1.70467158203125,-11.244368096923827
4946632036653,4.048144895,1,0.24660277099609373,1.7381904052734374,-11.264718811035156
4946635366653,4.051474895,1,0.25139117431640623,1.7669208251953124,-11.201272467041015
4946638704257,4.054812499,1,0.2214636535644531,1.7609353210449217,-11.18571015625
4946642035976,4.058144218,1,0.23104046020507812,1.7489643127441405,-11.186907257080078
4946645370507,4.061478749,1,0.20829554443359374,1.707065783691406,-11.14022032470703
4946648702590,4.064810832,1,0.22266075439453123,1.6891092712402342,-11.212046374511718
4946652036913,4.068145155,1,0.23822306518554687,1.7034744812011717,-11.179724652099608
4946655368059,4.071476301,1,0.2561795776367187,1.7609353210449217,-11.116278308105468
4946658700142,4.074808384,1,0.25139117431640623,1.7190367919921874,-11.152191333007812
4946662034517,4.078142759,1,0.22744915771484372,1.725022296142578,-11.148600030517578
4946665371340,4.081479582,1,0.1975216369628906,1.714248388671875,-11.225214483642578
4946668703215,4.084811457,1,0.24181436767578124,1.7405846069335937,-11.189301458740234
4946672036288,4.08814453,1,0.23104046020507812,1.7082628845214842,-11.2240173828125
4946675365819,4.091474061,1,0.25258827514648435,1.734599102783203,-11.250353601074218
4946678700715,4.094808957,1,0.22505495605468748,1.697488977050781,-11.183315954589844
4946682033423,4.098141665,1,0.2537853759765625,1.7501614135742187,-11.206060870361327
4946685370194,4.101478436,1,0.2537853759765625,1.7214309936523438,-11.167753643798827
4946688703059,4.104811301,1,0.21787235107421873,1.7202338928222656,-11.161768139648437
4946692036236,4.108144478,1,0.23582886352539062,1.7357962036132812,-11.275492718505859
4946695366132,4.111474374,1,0.22505495605468748,1.7286135986328124,-11.174936248779296
4946698699673,4.114807915,1,0.22266075439453123,1.7082628845214842,-11.180921752929686
4946702033476,4.118141718,1,0.239420166015625,1.6986860778808592,-11.149797131347656
4946705370403,4.121478645,1,0.2609679809570312,1.7357962036132812,-11.207257971191405
4946708702486,4.124810728,1,0.20350714111328125,1.763329522705078,-11.203666668701171
4946712036236,4.128144478,1,0.23702596435546874,1.6819266662597656,-11.234791290283203
4946715366340,4.131474582,1,0.22026655273437498,1.744175909423828,-11.155782635498046
4946718701496,4.134809738,1,0.22385785522460935,1.7549498168945312,-11.213243475341796
4946722033996,4.138142238,1,0.2059013427734375,1.70467158203125,-11.12226381225586
4946725368944,4.141477186,1,0.21188684692382811,1.7465701110839842,-11.123460913085937
4946728704361,4.144812603,1,0.21068974609375,1.725022296142578,-11.186907257080078
4946732035715,4.148143957,1,0.21068974609375,1.7334020019531249,-11.180921752929686
4946735365871,4.151474113,1,0.24779987182617186,1.753752716064453,-11.206060870361327
4946738700455,4.154808697,1,0.2609679809570312,1.695094775390625,-11.142614526367186
4946742034257,4.158142499,1,0.18555062866210936,1.714248388671875,-11.118672509765624
4946745368840,4.161477082,1,0.2501940734863281,1.7034744812011717,-11.116278308105468
4946748701184,4.164809426,1,0.21068974609375,1.7190367919921874,-11.166556542968749
4946752037486,4.168145728,1,0.2597708801269531,1.7214309936523438,-11.233594189453123
4946755365767,4.171474009,1,0.2154781494140625,1.7477672119140624,-11.204863769531249
4946758699830,4.174808072,1,0.23822306518554687,1.7693150268554687,-11.179724652099608
4946762033684,4.178141926,1,0.1879448303222656,1.725022296142578,-11.19887826538086
4946765370246,4.181478488,1,0.21308394775390624,1.7693150268554687,-11.197681164550781
4946768702278,4.18481052,1,0.2442085693359375,1.7357962036132812,-11.21084927368164
4946772036028,4.18814427,1,0.2214636535644531,1.7022773803710936,-11.219228979492186
4946775366444,4.191474686,1,0.2166752502441406,1.7585411193847655,-11.235988391113281
4946778696548,4.19480479,1,0.24301146850585936,1.734599102783203,-11.23000288696289
4946782036288,4.19814453,1,0.20709844360351562,1.7417817077636717,-11.171344946289063
4946785371080,4.201479322,1,0.1640028137207031,1.7286135986328124,-11.19887826538086
4946788702434,4.204810676,1,0.17597382202148437,1.763329522705078,-11.156979736328124
4946792036809,4.208145051,1,0.25139117431640623,1.7082628845214842,-11.177330450439452
4946795366913,4.211475155,1,0.2166752502441406,1.7238251953125,-11.200075366210937
4946798700455,4.214808697,1,0.20470424194335937,1.763329522705078,-11.21084927368164
4946802032903,4.218141145,1,0.22505495605468748,1.7322049011230467,-11.221623181152344
4946805369725,4.221477967,1,0.19153613281249998,1.6903063720703124,-11.201272467041015
4946808703423,4.224811665,1,0.2214636535644531,1.696291876220703,-11.335347760009764
4946812034882,4.228143124,1,0.17357962036132812,1.7214309936523438,-11.21683477783203
4946815366965,4.231475207,1,0.20709844360351562,1.7022773803710936,-11.232397088623046
4946818700142,4.234808384,1,0.19033903198242186,1.7884686401367187,-11.19887826538086
4946822032590,4.238140832,1,0.19991583862304688,1.7405846069335937,-11.197681164550781
4946825369569,4.241477811,1,0.22266075439453123,1.7405846069335937,-11.234791290283203
4946828702903,4.244811145,1,0.2501940734863281,1.7429788085937499,-11.146205828857422
4946832036496,4.248144738,1,0.2059013427734375,1.7262193969726563,-11.222820281982422
4946835366809,4.251475051,1,0.16879121704101563,1.725022296142578,-11.226411584472656
4946838699778,4.25480802,1,0.18914193115234373,1.7322049011230467,-11.050437762451171
4946842033111,4.258141353,1,0.24181436767578124,1.7573440185546874,-11.106701501464842
4946845369153,4.261477395,1,0.22505495605468748,1.7669208251953124,-11.206060870361327
4946848703059,4.264811301,1,0.21428104858398436,1.6831237670898436,-11.171344946289063
4946852037278,4.26814552,1,0.2166752502441406,1.7573440185546874,-11.212046374511718
4946855367278,4.27147552,1,0.19632453613281248,1.7322049011230467,-11.145008728027342
4946858699517,4.274807759,1,0.22385785522460935,1.744175909423828,-11.150994232177734
4946862033215,4.278141457,1,0.18555062866210936,1.7130512878417967,-11.168950744628905
4946865370350,4.281478592,1,0.1879448303222656,1.6998831787109374,-11.212046374511718
4946868703371,4.284811613,1,0.22744915771484372,1.7190367919921874,-11.156979736328124
4946872036548,4.28814479,1,0.2657563842773437,1.734599102783203,-11.201272467041015
4946875366080,4.291474322,1,0.2454056701660156,1.7645266235351562,-11.202469567871093
4946878700194,4.294808436,1,0.21188684692382811,1.7573440185546874,-11.194089862060546
4946882033632,4.298141874,1,0.21787235107421873,1.7609353210449217,-11.15338843383789
4946885370350,4.301478592,1,0.2549824768066406,1.7501614135742187,-11.16057103881836
4946888703319,4.304811561,1,0.23223756103515625,1.7226280944824217,-11.170147845458983
4946892037434,4.308145676,1,0.21188684692382811,1.7381904052734374,-11.232397088623046
4946895365767,4.311474009,1,0.2705447875976562,1.7298106994628906,-11.176133349609374
4946898699934,4.314808176,1,0.2657563842773437,1.6699556579589843,-11.077971081542968
4946902032694,4.318140936,1,0.22385785522460935,1.7238251953125,-11.17254204711914
4946905369569,4.321477811,1,0.21068974609375,1.707065783691406,-11.159373937988281
4946908700871,4.324809113,1,0.19153613281249998,1.7094599853515624,-11.201272467041015
4946912037590,4.328145832,1,0.26216508178710934,1.707065783691406,-11.221623181152344
4946915364934,4.331473176,1,0.18555062866210936,1.7190367919921874,-11.156979736328124
4946918698996,4.334807238,1,0.27293898925781246,1.7525556152343749,-11.263521710205078
4946922033163,4.338141405,1,0.22266075439453123,1.7202338928222656,-11.154585534667968
4946925370090,4.341478332,1,0.2454056701660156,1.763329522705078,-11.196484063720703
4946928706861,4.344815103,1,0.2537853759765625,1.7238251953125,-11.060014569091797
4946932039361,4.348147603,1,0.1867477294921875,1.7693150268554687,-11.212046374511718
4946935368892,4.351477134,1,0.23343466186523437,1.7094599853515624,-11.2240173828125
4946938702642,4.354810884,1,0.2741360900878906,1.7262193969726563,-11.190498559570312
4946942036652,4.358144894,1,0.2693476867675781,1.7190367919921874,-11.148600030517578
4946945374205,4.361482447,1,0.28371289672851563,1.7561469177246092,-11.131840618896483
4946948706600,4.364814842,1,0.16639701538085935,1.70467158203125,-11.15338843383789
4946952039621,4.368147863,1,0.239420166015625,1.7226280944824217,-11.113884106445312
4946955376548,4.37148479,1,0.21906945190429686,1.7621324218749999,-11.183315954589844
4946958705559,4.374813801,1,0.20829554443359374,1.734599102783203,-11.177330450439452
4946962036236,4.378144478,1,0.2214636535644531,1.7489643127441405,-11.17254204711914
4946965372850,4.381481092,1,0.21308394775390624,1.7429788085937499,-11.225214483642578
4946968704777,4.384813019,1,0.22744915771484372,1.7286135986328124,-11.177330450439452
4946972040194,4.388148436,1,0.23343466186523437,1.7381904052734374,-11.231199987792968
4946975368944,4.391477186,1,0.20470424194335937,1.7393875061035156,-11.201272467041015
4946978702902,4.394811144,1,0.20949264526367187,1.744175909423828,-11.2240173828125
4946982036496,4.398144738,1,0.2501940734863281,1.7417817077636717,-11.239579693603515
4946985372434,4.401480676,1,0.20829554443359374,1.7118541870117185,-11.135431921386719
4946988705402,4.404813644,1,0.20470424194335937,1.7334020019531249,-11.183315954589844
4946992038423,4.408146665,1,0.19512743530273435,1.7202338928222656,-11.135431921386719
4946995369048,4.41147729,1,0.22026655273437498,1.7549498168945312,-11.214440576171874
4946998702434,4.414810676,1,0.22385785522460935,1.7166425903320313,-11.21084927368164
4947002032798,4.41814104,1,0.1771709228515625,1.7166425903320313,-11.192892761230468
4947005364205,4.421472447,1,0.239420166015625,1.7597382202148437,-11.188104357910156
4947008701757,4.424809999,1,0.19871873779296872,1.7298106994628906,-11.190498559570312
4947012039465,4.428147707,1,0.2609679809570312,1.7501614135742187,-11.121066711425781
4947015369777,4.431478019,1,0.1975216369628906,1.7286135986328124,-11.232397088623046
4947018703319,4.434811561,1,0.21308394775390624,1.7501614135742187,-11.17254204711914
4947022036600,4.438144842,1,0.22864625854492185,1.7094599853515624,-11.212046374511718
4947025372434,4.441480676,1,0.2609679809570312,1.7369933044433592,-11.125855114746093
4947028705871,4.444814113,1,0.26216508178710934,1.7130512878417967,-11.17254204711914
4947032039621,4.448147863,1,0.1975216369628906,1.7501614135742187,-11.179724652099608
4947035369882,4.451478124,1,0.19871873779296872,1.7417817077636717,-11.209652172851563
4947038702590,4.454810832,1,0.24779987182617186,1.7453730102539062,-11.176133349609374
4947042036184,4.458144426,1,0.24660277099609373,1.675941162109375,-11.19169566040039
4947045373267,4.461481509,1,0.24301146850585936,1.7369933044433592,-11.19887826538086
4947048705663,4.464813905,1,0.20470424194335937,1.714248388671875,-11.11508120727539
4947052039621,4.468147863,1,0.24899697265624998,1.7741034301757812,-11.173739147949219
4947055369257,4.471477499,1,0.26336218261718747,1.696291876220703,-11.19169566040039
4947058702798,4.47481104,1,0.25737667846679685,1.7393875061035156,-11.184513055419922
4947062036288,4.47814453,1,0.21188684692382811,1.7262193969726563,-11.186907257080078
4947065372330,4.481480572,1,0.21428104858398436,1.7405846069335937,-11.194089862060546
4947068705038,4.48481328,1,0.2346317626953125,1.7429788085937499,-11.117475408935546
4947072038788,4.48814703,1,0.22505495605468748,1.7477672119140624,-11.165359442138671
4947075369569,4.491477811,1,0.24181436767578124,1.7764976318359373,-11.195286962890624
4947078702538,4.49481078,1,0.22385785522460935,1.7525556152343749,-11.131840618896483
4947082035663,4.498143905,1,0.23223756103515625,1.744175909423828,-11.203666668701171
4947085372746,4.501480988,1,0.2549824768066406,1.7585411193847655,-11.142614526367186
4947088705142,4.504813384,1,0.20709844360351562,1.7597382202148437,-11.270704315185545
4947092039361,4.508147603,1,0.22266075439453123,1.7465701110839842,-11.182118853759764
4947095368892,4.511477134,1,0.22744915771484372,1.7465701110839842,-11.23718549194336
4947098703527,4.514811769,1,0.1975216369628906,1.715445489501953,-11.19887826538086
4947102036548,4.51814479,1,0.23822306518554687,1.7585411193847655,-11.186907257080078
4947105372434,4.521480676,1,0.20470424194335937,1.7274164978027342,-11.034875451660156
4947108705715,4.524813957,1,0.23822306518554687,1.7645266235351562,-11.2240173828125
4947112039152,4.528147394,1,0.22744915771484372,1.7645266235351562,-11.15338843383789
4947115369205,4.531477447,1,0.20350714111328125,1.744175909423828,-11.183315954589844
4947118702590,4.534810832,1,0.2214636535644531,1.744175909423828,-11.188104357910156
4947122036705,4.538144947,1,0.25737667846679685,1.7393875061035156,-11.283872424316405
4947125372642,4.541480884,1,0.20949264526367187,1.6843208679199217,-11.206060870361327
4947128705507,4.544813749,1,0.1867477294921875,1.753752716064453,-11.1474029296875
4947132040507,4.548148749,1,0.25737667846679685,1.7202338928222656,-11.128249316406249
4947135369986,4.551478228,1,0.19512743530273435,1.7010802795410156,-11.275492718505859
4947138702642,4.554810884,1,0.23223756103515625,1.7034744812011717,-11.176133349609374
4947142035663,4.558143905,1,0.23104046020507812,1.7262193969726563,-11.208455072021483
4947145372017,4.561480259,1,0.22744915771484372,1.7190367919921874,-11.200075366210937
4947148705402,4.564813644,1,0.21188684692382811,1.7274164978027342,-11.195286962890624
4947152039413,4.568147655,1,0.2597708801269531,1.7238251953125,-11.18571015625
4947155368580,4.571476822,1,0.21068974609375,1.7369933044433592,-11.13423482055664
4947158702954,4.574811196,1,0.23822306518554687,1.7549498168945312,-11.251550701904296
4947162035715,4.578143957,1,0.2262520568847656,1.7477672119140624,-11.227608685302734
4947165373267,4.581481509,1,0.1975216369628906,1.7190367919921874,-11.155782635498046
4947168706079,4.584814321,1,0.2549824768066406,1.725022296142578,-11.146205828857422
4947172039986,4.588148228,1,0.21308394775390624,1.7393875061035156,-11.204863769531249
4947175369100,4.591477342,1,0.23343466186523437,1.7298106994628906,-11.170147845458983
4947178702329,4.594810571,1,0.23343466186523437,1.7010802795410156,-11.183315954589844
4947182036184,4.598144426,1,0.22266075439453123,1.7573440185546874,-11.143811627197264
4947185373007,4.601481249,1,0.20949264526367187,1.734599102783203,-11.197681164550781
4947188705142,4.604813384,1,0.23343466186523437,1.7274164978027342,-11.226411584472656
4947192039257,4.608147499,1,0.22505495605468748,1.7274164978027342,-11.13423482055664
4947195369465,4.611477707,1,0.24181436767578124,1.696291876220703,-11.071985577392578
4947198702434,4.614810676,1,0.2166752502441406,1.7262193969726563,-11.189301458740234
4947202035507,4.618143749,1,0.24660277099609373,1.7381904052734374,-11.164162341308593
4947205373215,4.621481457,1,0.24181436767578124,1.707065783691406,-11.18571015625
4947208705975,4.624814217,1,0.239420166015625,1.7202338928222656,-11.148600030517578
4947212040246,4.628148488,1,0.2705447875976562,1.7130512878417967,-11.271901416015623
4947215369621,4.631477863,1,0.2346317626953125,1.7322049011230467,-11.15338843383789
4947218703267,4.634811509,1,0.20231004028320312,1.6986860778808592,-11.121066711425781
4947222036704,4.638144946,1,0.19991583862304688,1.7417817077636717,-11.201272467041015
4947225373215,4.641481457,1,0.1927332336425781,1.7513585144042967,-11.215637677001952
4947228721757,4.644829999,1,0.17836802368164062,1.5693991882324219,-11.142614526367186
4947232039986,4.648148228,1,0.2741360900878906,1.7717092285156248,-11.177330450439452
4947235369569,4.651477811,1,0.20350714111328125,1.7681179260253905,-11.180921752929686
4947238702694,4.654810936,1,0.18435352783203124,1.7513585144042967,-11.174936248779296
4947242035923,4.658144165,1,0.2346317626953125,1.715445489501953,-11.127052215576171
4947245368996,4.661477238,1,0.229843359375,1.7836802368164062,-11.184513055419922
4947248705767,4.664814009,1,0.2262520568847656,1.7298106994628906,-11.192892761230468
4947252038684,4.668146926,1,0.25737667846679685,1.7513585144042967,-11.215637677001952
4947255364882,4.671473124,1,0.23343466186523437,1.7429788085937499,-11.283872424316405
4947258698267,4.674806509,1,0.23582886352539062,1.7405846069335937,-11.130643518066405
4947262036913,4.678145155,1,0.22744915771484372,1.7705121276855467,-11.176133349609374
4947265373475,4.681481717,1,0.19153613281249998,1.705868682861328,-11.19169566040039
4947268713267,4.684821509,1,0.19991583862304688,1.6915034729003906,-11.152191333007812
4947272042225,4.688150467,1,0.20709844360351562,1.7465701110839842,-11.226411584472656
4947275370663,4.691478905,1,0.26216508178710934,1.7322049011230467,-11.159373937988281
4947278703215,4.694811457,1,0.20949264526367187,1.70467158203125,-11.213243475341796
4947282036861,4.698145103,1,0.23223756103515625,1.734599102783203,-11.131840618896483
4947285371184,4.701479426,1,0.258573779296875,1.734599102783203,-11.206060870361327
4947288705142,4.704813384,1,0.23223756103515625,1.7166425903320313,-11.170147845458983
4947292039204,4.708147446,1,0.22505495605468748,1.7298106994628906,-11.180921752929686
4947295369257,4.711477499,1,0.239420166015625,1.7357962036132812,-11.161768139648437
