timestamp_ns,t_s,sensor_id,ax,ay,az,gx,gy,gz
3876275337842,0.173953906,1,0.22266075439453123,1.7298106994628906,-11.164162341308593,-0.7557251908396947,0.5267175572519084,-1.3206106870229009
3876285415707,0.184031771,1,0.23223756103515625,1.7381904052734374,-11.17254204711914,-0.8549618320610687,0.5419847328244275,-1.3129770992366412
3876295301644,0.193917708,1,0.20231004028320312,1.7178396911621092,-11.208455072021483,-0.8015267175572519,0.6183206106870229,-1.3206106870229009
3876305296957,0.203913021,1,0.22744915771484372,1.7226280944824217,-11.209652172851563,-0.8244274809160306,0.5648854961832062,-1.3358778625954197
3876315292634,0.213908698,1,0.22266075439453123,1.725022296142578,-11.164162341308593,-0.8015267175572519,0.5801526717557252,-1.3893129770992367
3876325295498,0.223911562,1,0.22266075439453123,1.7082628845214842,-11.18571015625,-0.8244274809160306,0.5801526717557252,-1.381679389312977
3876335296384,0.233912448,1,0.229843359375,1.7238251953125,-11.204863769531249,-0.7786259541984732,0.6183206106870229,-1.3435114503816794
3876345294717,0.243910781,1,0.23223756103515625,1.744175909423828,-11.227608685302734,-0.816793893129771,0.5725190839694656,-1.3129770992366412
3876355296644,0.253912708,1,0.20709844360351562,1.7525556152343749,-11.16057103881836,-0.8473282442748091,0.5801526717557252,-1.3358778625954197
3876365291436,0.2639075,1,0.23822306518554687,1.7214309936523438,-11.161768139648437,-0.8091603053435115,0.6259541984732825,-1.297709923664122
3876375295186,0.27391125,1,0.22026655273437498,1.7238251953125,-11.218031878662108,-0.8320610687022901,0.6030534351145038,-1.3053435114503817
3876385295186,0.28391125,1,0.2059013427734375,1.7034744812011717,-11.196484063720703,-0.8244274809160306,0.6106870229007634,-1.282442748091603
3876395293415,0.293909479,1,0.20709844360351562,1.7106570861816406,-11.168950744628905,-0.7938931297709924,0.6106870229007634,-1.3053435114503817
3876405295707,0.303911771,1,0.23822306518554687,1.7214309936523438,-11.186907257080078,-0.816793893129771,0.5801526717557252,-1.3053435114503817
3876415293050,0.313909114,1,0.229843359375,1.744175909423828,-11.238382592773437,-0.8396946564885496,0.549618320610687,-1.3282442748091603
3876425296332,0.323912396,1,0.22864625854492185,1.7453730102539062,-11.174936248779296,-0.8015267175572519,0.6030534351145038,-1.2900763358778626
3876435294717,0.333910781,1,0.22026655273437498,1.7118541870117185,-11.177330450439452,-0.8778625954198473,0.5877862595419847,-1.3435114503816794
3876445295134,0.343911198,1,0.21308394775390624,1.7477672119140624,-11.203666668701171,-0.7862595419847328,0.5343511450381679,-1.3282442748091603
3876455295290,0.353911354,1,0.19991583862304688,1.7381904052734374,-11.17254204711914,-0.8702290076335878,0.6030534351145038,-1.3511450381679388
3876465294769,0.363910833,1,0.2214636535644531,1.7178396911621092,-11.192892761230468,-0.8320610687022901,0.6106870229007634,-1.3587786259541985
3876475297478,0.373913542,1,0.21787235107421873,1.7405846069335937,-11.220426080322264,-0.8320610687022901,0.5877862595419847,-1.3282442748091603
3876485296280,0.383912344,1,0.22744915771484372,1.725022296142578,-11.209652172851563,-0.8244274809160306,0.549618320610687,-1.2748091603053435
3876495295186,0.39391125,1,0.23822306518554687,1.7310078002929687,-11.201272467041015,-0.816793893129771,0.5419847328244275,-1.3206106870229009
3876505295030,0.403911094,1,0.22864625854492185,1.7298106994628906,-11.155782635498046,-0.8015267175572519,0.5725190839694656,-1.3053435114503817
3876515295446,0.41391151,1,0.2262520568847656,1.7369933044433592,-11.201272467041015,-0.8091603053435115,0.5954198473282443,-1.3053435114503817
3876525294769,0.423910833,1,0.21906945190429686,1.7405846069335937,-11.18571015625,-0.8015267175572519,0.5954198473282443,-1.3053435114503817
3876535294821,0.433910885,1,0.2059013427734375,1.7298106994628906,-11.201272467041015,-0.8702290076335878,0.6030534351145038,-1.297709923664122
3876545296175,0.443912239,1,0.2346317626953125,1.7453730102539062,-11.197681164550781,-0.8244274809160306,0.5877862595419847,-1.2900763358778626
3876555292842,0.453908906,1,0.19512743530273435,1.7393875061035156,-11.219228979492186,-0.8091603053435115,0.5648854961832062,-1.3206106870229009
3876565295655,0.463911719,1,0.21787235107421873,1.7322049011230467,-11.201272467041015,-0.7862595419847328,0.5343511450381679,-1.297709923664122
3876575295759,0.473911823,1,0.2346317626953125,1.7118541870117185,-11.183315954589844,-0.8396946564885496,0.5648854961832062,-1.2900763358778626
3876585296540,0.483912604,1,0.19991583862304688,1.7549498168945312,-11.176133349609374,-0.7709923664122137,0.5954198473282443,-1.297709923664122
3876595295707,0.493911771,1,0.21906945190429686,1.7202338928222656,-11.207257971191405,-0.816793893129771,0.5572519083969466,-1.3282442748091603
3876605293884,0.503909948,1,0.23702596435546874,1.715445489501953,-11.190498559570312,-0.7633587786259542,0.5801526717557252,-1.3282442748091603
3876615295550,0.513911614,1,0.21428104858398436,1.7106570861816406,-11.174936248779296,-0.816793893129771,0.5648854961832062,-1.3435114503816794
3876625296175,0.523912239,1,0.24301146850585936,1.7178396911621092,-11.167753643798827,-0.8015267175572519,0.5877862595419847,-1.3129770992366412
3876635295134,0.533911198,1,0.21428104858398436,1.725022296142578,-11.145008728027342,-0.8396946564885496,0.5648854961832062,-1.3129770992366412
3876645296384,0.543912448,1,0.23223756103515625,1.725022296142578,-11.17254204711914,-0.7709923664122137,0.6335877862595419,-1.3511450381679388
3876655296592,0.553912656,1,0.26815058593749996,1.7202338928222656,-11.197681164550781,-0.8625954198473282,0.5801526717557252,-1.3511450381679388
3876665294873,0.563910937,1,0.23343466186523437,1.7286135986328124,-11.176133349609374,-0.8549618320610687,0.5801526717557252,-1.282442748091603
3876675297113,0.573913177,1,0.2645592834472656,1.7238251953125,-11.204863769531249,-0.8473282442748091,0.5572519083969466,-1.2748091603053435
3876685297165,0.583913229,1,0.2537853759765625,1.7166425903320313,-11.189301458740234,-0.8320610687022901,0.5267175572519084,-1.3129770992366412
3876695296592,0.593912656,1,0.22266075439453123,1.7561469177246092,-11.174936248779296,-0.8244274809160306,0.5419847328244275,-1.2671755725190839
3876705295707,0.603911771,1,0.2454056701660156,1.7405846069335937,-11.206060870361327,-0.8396946564885496,0.5877862595419847,-1.2900763358778626
3876715292582,0.613908646,1,0.21906945190429686,1.7286135986328124,-11.18571015625,-0.816793893129771,0.5648854961832062,-1.3129770992366412
3876725295915,0.623911979,1,0.2154781494140625,1.7334020019531249,-11.17254204711914,-0.8091603053435115,0.5725190839694656,-1.3358778625954197
3876735294821,0.633910885,1,0.23223756103515625,1.7322049011230467,-11.192892761230468,-0.8244274809160306,0.5648854961832062,-1.3206106870229009
3876745296436,0.6439125,1,0.2059013427734375,1.7214309936523438,-11.212046374511718,-0.8778625954198473,0.6106870229007634,-1.3587786259541985
3876755294925,0.653910989,1,0.24779987182617186,1.7465701110839842,-11.159373937988281,-0.9083969465648855,0.5648854961832062,-1.297709923664122
3876765295759,0.663911823,1,0.23343466186523437,1.7334020019531249,-11.176133349609374,-0.8549618320610687,0.5801526717557252,-1.2671755725190839
3876775294040,0.673910104,1,0.22385785522460935,1.7226280944824217,-11.179724652099608,-0.816793893129771,0.5267175572519084,-1.2900763358778626
3876785296279,0.683912343,1,0.2549824768066406,1.7405846069335937,-11.180921752929686,-0.816793893129771,0.5725190839694656,-1.3358778625954197
3876795295498,0.693911562,1,0.22266075439453123,1.7477672119140624,-11.195286962890624,-0.8091603053435115,0.6183206106870229,-1.3129770992366412
3876805295029,0.703911093,1,0.21787235107421873,1.7369933044433592,-11.18571015625,-0.8473282442748091,0.5877862595419847,-1.3282442748091603
3876815295082,0.713911146,1,0.21188684692382811,1.7429788085937499,-11.190498559570312,-0.8396946564885496,0.5419847328244275,-1.282442748091603
3876825295967,0.723912031,1,0.2346317626953125,1.7453730102539062,-11.167753643798827,-0.8244274809160306,0.5343511450381679,-1.3587786259541985
3876835303154,0.733919218,1,0.23104046020507812,1.7262193969726563,-11.176133349609374,-0.8015267175572519,0.5419847328244275,-1.366412213740458
3876845301175,0.743917239,1,0.22385785522460935,1.7405846069335937,-11.192892761230468,-0.8396946564885496,0.5725190839694656,-1.3358778625954197
3876855302529,0.753918593,1,0.20949264526367187,1.7310078002929687,-11.190498559570312,-0.8702290076335878,0.5572519083969466,-1.282442748091603
3876865295707,0.763911771,1,0.23104046020507812,1.7178396911621092,-11.192892761230468,-0.8854961832061069,0.6183206106870229,-1.3206106870229009
3876875296019,0.773912083,1,0.2166752502441406,1.7202338928222656,-11.194089862060546,-0.8244274809160306,0.6030534351145038,-1.2900763358778626
3876885295550,0.783911614,1,0.2442085693359375,1.7106570861816406,-11.19169566040039,-0.8549618320610687,0.6030534351145038,-1.3129770992366412
3876895296279,0.793912343,1,0.22505495605468748,1.7393875061035156,-11.179724652099608,-0.816793893129771,0.5419847328244275,-1.297709923664122
3876905297113,0.803913177,1,0.24779987182617186,1.7298106994628906,-11.204863769531249,-0.8625954198473282,0.5343511450381679,-1.3053435114503817
3876915294925,0.813910989,1,0.2262520568847656,1.7417817077636717,-11.192892761230468,-0.8320610687022901,0.5419847328244275,-1.3129770992366412
3876925293102,0.823909166,1,0.24181436767578124,1.7190367919921874,-11.212046374511718,-0.9083969465648855,0.5648854961832062,-1.3282442748091603
3876935295602,0.833911666,1,0.2166752502441406,1.7501614135742187,-11.213243475341796,-0.8854961832061069,0.5877862595419847,-1.297709923664122
3876945295186,0.84391125,1,0.22744915771484372,1.7238251953125,-11.213243475341796,-0.8549618320610687,0.5419847328244275,-1.3129770992366412
3876955295290,0.853911354,1,0.21308394775390624,1.7214309936523438,-11.19887826538086,-0.816793893129771,0.5572519083969466,-1.282442748091603
3876965294977,0.863911041,1,0.2214636535644531,1.7202338928222656,-11.192892761230468,-0.8244274809160306,0.5648854961832062,-1.3053435114503817
3876975292790,0.873908854,1,0.258573779296875,1.7381904052734374,-11.192892761230468,-0.7786259541984732,0.549618320610687,-1.3587786259541985
3876985294509,0.883910573,1,0.20829554443359374,1.7513585144042967,-11.177330450439452,-0.8702290076335878,0.5801526717557252,-1.2900763358778626
3876995295498,0.893911562,1,0.239420166015625,1.7465701110839842,-11.189301458740234,-0.8320610687022901,0.6030534351145038,-1.3129770992366412
3877005295706,0.90391177,1,0.24181436767578124,1.7298106994628906,-11.186907257080078,-0.8091603053435115,0.6030534351145038,-1.3282442748091603
3877015294092,0.913910156,1,0.21068974609375,1.7214309936523438,-11.19887826538086,-0.8091603053435115,0.5801526717557252,-1.3358778625954197
3877025293571,0.923909635,1,0.24779987182617186,1.725022296142578,-11.19169566040039,-0.8473282442748091,0.6030534351145038,-1.3206106870229009
3877035295134,0.933911198,1,0.21188684692382811,1.7501614135742187,-11.189301458740234,-0.7938931297709924,0.5419847328244275,-1.3053435114503817
3877045295915,0.943911979,1,0.2262520568847656,1.714248388671875,-11.174936248779296,-0.8778625954198473,0.549618320610687,-1.3435114503816794
3877055295134,0.953911198,1,0.22505495605468748,1.7166425903320313,-11.197681164550781,-0.8091603053435115,0.5648854961832062,-1.3053435114503817
3877065295550,0.963911614,1,0.22266075439453123,1.7477672119140624,-11.18571015625,-0.8320610687022901,0.5648854961832062,-1.3206106870229009
3877075294925,0.973910989,1,0.22026655273437498,1.7190367919921874,-11.215637677001952,-0.8625954198473282,0.549618320610687,-1.3053435114503817
3877085295134,0.983911198,1,0.22266075439453123,1.7453730102539062,-11.19887826538086,-0.8244274809160306,0.5954198473282443,-1.3129770992366412
3877095295134,0.993911198,1,0.22026655273437498,1.7322049011230467,-11.182118853759764,-0.816793893129771,0.5419847328244275,-1.3053435114503817
3877105296071,1.003912135,1,0.22744915771484372,1.7298106994628906,-11.204863769531249,-0.8702290076335878,0.6183206106870229,-1.3206106870229009
3877115294925,1.013910989,1,0.24181436767578124,1.714248388671875,-11.215637677001952,-0.8549618320610687,0.5801526717557252,-1.3206106870229009
3877125294561,1.023910625,1,0.2561795776367187,1.7489643127441405,-11.201272467041015,-0.8702290076335878,0.5877862595419847,-1.3358778625954197
3877135292738,1.033908802,1,0.2346317626953125,1.7262193969726563,-11.19169566040039,-0.8320610687022901,0.4961832061068702,-1.3282442748091603
3877145296279,1.043912343,1,0.239420166015625,1.7357962036132812,-11.190498559570312,-0.8015267175572519,0.5572519083969466,-1.3282442748091603
3877155295394,1.053911458,1,0.21906945190429686,1.7381904052734374,-11.184513055419922,-0.7633587786259542,0.5725190839694656,-1.3129770992366412
3877165296540,1.063912604,1,0.23104046020507812,1.7190367919921874,-11.206060870361327,-0.8549618320610687,0.5801526717557252,-1.251908396946565
3877175294613,1.073910677,1,0.2346317626953125,1.7405846069335937,-11.188104357910156,-0.8091603053435115,0.5190839694656488,-1.3129770992366412
3877185296540,1.083912604,1,0.23582886352539062,1.7381904052734374,-11.170147845458983,-0.8702290076335878,0.5801526717557252,-1.282442748091603
3877195296383,1.093912447,1,0.22744915771484372,1.7262193969726563,-11.173739147949219,-0.8091603053435115,0.5343511450381679,-1.282442748091603
3877205295602,1.103911666,1,0.23582886352539062,1.7286135986328124,-11.171344946289063,-0.8473282442748091,0.5725190839694656,-1.3435114503816794
3877215295498,1.113911562,1,0.239420166015625,1.7262193969726563,-11.19169566040039,-0.8320610687022901,0.5572519083969466,-1.3282442748091603
3877225295446,1.12391151,1,0.2442085693359375,1.7310078002929687,-11.215637677001952,-0.8549618320610687,0.6183206106870229,-1.297709923664122
3877235296019,1.133912083,1,0.21308394775390624,1.7334020019531249,-11.209652172851563,-0.8396946564885496,0.5572519083969466,-1.2748091603053435
3877245295811,1.143911875,1,0.22505495605468748,1.7369933044433592,-11.190498559570312,-0.8473282442748091,0.5954198473282443,-1.297709923664122
3877255295029,1.153911093,1,0.24899697265624998,1.7393875061035156,-11.207257971191405,-0.7480916030534351,0.5572519083969466,-1.3282442748091603
3877265296071,1.163912135,1,0.239420166015625,1.7381904052734374,-11.204863769531249,-0.7557251908396947,0.5419847328244275,-1.3129770992366412
3877275294613,1.173910677,1,0.2645592834472656,1.7118541870117185,-11.186907257080078,-0.8320610687022901,0.5877862595419847,-1.3358778625954197
3877285294248,1.183910312,1,0.21188684692382811,1.7106570861816406,-11.208455072021483,-0.8931297709923665,0.549618320610687,-1.3053435114503817
3877295292529,1.193908593,1,0.24061726684570311,1.7094599853515624,-11.213243475341796,-0.8549618320610687,0.5725190839694656,-1.297709923664122
3877305295186,1.20391125,1,0.2346317626953125,1.7453730102539062,-11.228805786132812,-0.8625954198473282,0.5572519083969466,-1.3129770992366412
3877315296227,1.213912291,1,0.239420166015625,1.7130512878417967,-11.190498559570312,-0.7786259541984732,0.6106870229007634,-1.3053435114503817
3877325295915,1.223911979,1,0.239420166015625,1.7561469177246092,-11.196484063720703,-0.7709923664122137,0.5801526717557252,-1.251908396946565
3877335294040,1.233910104,1,0.23343466186523437,1.7334020019531249,-11.220426080322264,-0.8091603053435115,0.6259541984732825,-1.3435114503816794
3877345294456,1.24391052,1,0.24301146850585936,1.7262193969726563,-11.19887826538086,-0.8244274809160306,0.5954198473282443,-1.3358778625954197
3877355296071,1.253912135,1,0.2442085693359375,1.7214309936523438,-11.213243475341796,-0.7404580152671756,0.5877862595419847,-1.2748091603053435
3877365296123,1.263912187,1,0.21068974609375,1.7585411193847655,-11.19887826538086,-0.7938931297709924,0.5648854961832062,-1.3206106870229009
3877375295915,1.273911979,1,0.2262520568847656,1.7238251953125,-11.207257971191405,-0.8091603053435115,0.6183206106870229,-1.3206106870229009
3877385301331,1.283917395,1,0.20709844360351562,1.725022296142578,-11.174936248779296,-0.8396946564885496,0.5877862595419847,-1.381679389312977
3877395297894,1.293913958,1,0.22505495605468748,1.7597382202148437,-11.203666668701171,-0.7709923664122137,0.6030534351145038,-1.3435114503816794
3877405297477,1.303913541,1,0.22744915771484372,1.7453730102539062,-11.201272467041015,-0.8091603053435115,0.549618320610687,-1.3358778625954197
3877415296592,1.313912656,1,0.2166752502441406,1.744175909423828,-11.176133349609374,-0.8702290076335878,0.6106870229007634,-1.3206106870229009
3877425301071,1.323917135,1,0.22026655273437498,1.7286135986328124,-11.173739147949219,-0.816793893129771,0.549618320610687,-1.366412213740458
3877435295915,1.333911979,1,0.23223756103515625,1.7334020019531249,-11.195286962890624,-0.8396946564885496,0.5648854961832062,-1.3206106870229009
3877445295654,1.343911718,1,0.22026655273437498,1.715445489501953,-11.156979736328124,-0.8320610687022901,0.5267175572519084,-1.3206106870229009
3877455292842,1.353908906,1,0.201112939453125,1.7214309936523438,-11.215637677001952,-0.816793893129771,0.5725190839694656,-1.2748091603053435
3877465296956,1.36391302,1,0.16519991455078123,1.697488977050781,-11.220426080322264,-0.7709923664122137,0.5343511450381679,-1.282442748091603
3877475295498,1.373911562,1,0.22744915771484372,1.7238251953125,-11.197681164550781,-0.8702290076335878,0.6106870229007634,-1.297709923664122
3877485295185,1.383911249,1,0.21068974609375,1.7357962036132812,-11.177330450439452,-0.816793893129771,0.5801526717557252,-1.297709923664122
3877495295967,1.393912031,1,0.23702596435546874,1.7262193969726563,-11.23718549194336,-0.816793893129771,0.5801526717557252,-1.3206106870229009
3877505295602,1.403911666,1,0.239420166015625,1.7214309936523438,-11.214440576171874,-0.7480916030534351,0.5801526717557252,-1.3358778625954197
3877515296019,1.413912083,1,0.20231004028320312,1.7310078002929687,-11.218031878662108,-0.7862595419847328,0.5801526717557252,-1.3206106870229009
3877525295758,1.423911822,1,0.22864625854492185,1.6998831787109374,-11.176133349609374,-0.7862595419847328,0.5190839694656488,-1.2595419847328244
3877535294769,1.433910833,1,0.19512743530273435,1.7334020019531249,-11.195286962890624,-0.8244274809160306,0.648854961832061,-1.3053435114503817
3877545297321,1.443913385,1,0.20470424194335937,1.7465701110839842,-11.202469567871093,-0.7404580152671756,0.5267175572519084,-1.3587786259541985
3877555294873,1.453910937,1,0.229843359375,1.7381904052734374,-11.177330450439452,-0.8473282442748091,0.5877862595419847,-1.3206106870229009
3877565294769,1.463910833,1,0.22505495605468748,1.7393875061035156,-11.171344946289063,-0.8244274809160306,0.5572519083969466,-1.3511450381679388
3877575294717,1.473910781,1,0.22026655273437498,1.7262193969726563,-11.203666668701171,-0.8702290076335878,0.5877862595419847,-1.297709923664122
3877585294925,1.483910989,1,0.20350714111328125,1.7369933044433592,-11.192892761230468,-0.816793893129771,0.5419847328244275,-1.3358778625954197
3877595295238,1.493911302,1,0.22864625854492185,1.7226280944824217,-11.156979736328124,-0.8473282442748091,0.5725190839694656,-1.3129770992366412
3877605302321,1.503918385,1,0.2454056701660156,1.7310078002929687,-11.155782635498046,-0.8473282442748091,0.5343511450381679,-1.3282442748091603
3877615301540,1.513917604,1,0.2154781494140625,1.7334020019531249,-11.18571015625,-0.8396946564885496,0.48854961832061067,-1.3206106870229009
3877625296644,1.523912708,1,0.20470424194335937,1.7034744812011717,-11.200075366210937,-0.8091603053435115,0.5190839694656488,-1.3587786259541985
3877635293362,1.533909426,1,0.20350714111328125,1.7381904052734374,-11.183315954589844,-0.8396946564885496,0.5801526717557252,-1.3206106870229009
3877645296331,1.543912395,1,0.23343466186523437,1.725022296142578,-11.209652172851563,-0.8244274809160306,0.5419847328244275,-1.282442748091603
3877655295446,1.55391151,1,0.23822306518554687,1.7525556152343749,-11.215637677001952,-0.8244274809160306,0.5190839694656488,-1.2900763358778626
3877665295081,1.563911145,1,0.2262520568847656,1.7334020019531249,-11.17852755126953,-0.7633587786259542,0.5572519083969466,-1.3587786259541985
3877675296644,1.573912708,1,0.23223756103515625,1.715445489501953,-11.200075366210937,-0.8473282442748091,0.6030534351145038,-1.3282442748091603
3877685295029,1.583911093,1,0.21906945190429686,1.7357962036132812,-11.180921752929686,-0.7786259541984732,0.6183206106870229,-1.3358778625954197
3877695294144,1.593910208,1,0.2346317626953125,1.7310078002929687,-11.186907257080078,-0.8396946564885496,0.5954198473282443,-1.2900763358778626
3877705296644,1.603912708,1,0.21787235107421873,1.725022296142578,-11.182118853759764,-0.8244274809160306,0.5954198473282443,-1.3053435114503817
3877715291748,1.613907812,1,0.2059013427734375,1.7405846069335937,-11.203666668701171,-0.8549618320610687,0.5877862595419847,-1.297709923664122
3877725293987,1.623910051,1,0.20709844360351562,1.7310078002929687,-11.170147845458983,-0.7709923664122137,0.5419847328244275,-1.3511450381679388
3877735294456,1.63391052,1,0.2214636535644531,1.7214309936523438,-11.166556542968749,-0.8549618320610687,0.5572519083969466,-1.3435114503816794
3877745296331,1.643912395,1,0.20829554443359374,1.7130512878417967,-11.189301458740234,-0.8091603053435115,0.5877862595419847,-1.3053435114503817
3877755295237,1.653911301,1,0.21428104858398436,1.7238251953125,-11.202469567871093,-0.8396946564885496,0.5801526717557252,-1.3282442748091603
3877765295550,1.663911614,1,0.22026655273437498,1.7357962036132812,-11.201272467041015,-0.7786259541984732,0.5877862595419847,-1.3206106870229009
3877775294612,1.673910676,1,0.21906945190429686,1.7334020019531249,-11.19169566040039,-0.7786259541984732,0.5648854961832062,-1.3282442748091603
3877785295237,1.683911301,1,0.20829554443359374,1.7405846069335937,-11.19887826538086,-0.8091603053435115,0.5954198473282443,-1.366412213740458
3877795294977,1.693911041,1,0.22385785522460935,1.7214309936523438,-11.170147845458983,-0.7938931297709924,0.6030534351145038,-1.2671755725190839
3877805296383,1.703912447,1,0.19512743530273435,1.7417817077636717,-11.158176837158203,-0.8244274809160306,0.5648854961832062,-1.3282442748091603
3877815295498,1.713911562,1,0.23343466186523437,1.7262193969726563,-11.19169566040039,-0.8778625954198473,0.5801526717557252,-1.3282442748091603
3877825294352,1.723910416,1,0.22864625854492185,1.753752716064453,-11.196484063720703,-0.7786259541984732,0.6717557251908397,-1.282442748091603
3877835295810,1.733911874,1,0.23223756103515625,1.6927005737304686,-11.170147845458983,-0.8015267175572519,0.5419847328244275,-1.3282442748091603
3877845294664,1.743910728,1,0.2262520568847656,1.707065783691406,-11.239579693603515,-0.8320610687022901,0.549618320610687,-1.3282442748091603
3877855294821,1.753910885,1,0.22266075439453123,1.7286135986328124,-11.17852755126953,-0.8396946564885496,0.5572519083969466,-1.3206106870229009
3877865297998,1.763914062,1,0.19871873779296872,1.725022296142578,-11.21084927368164,-0.8549618320610687,0.6183206106870229,-1.282442748091603
3877875292217,1.773908281,1,0.19871873779296872,1.734599102783203,-11.150994232177734,-0.7938931297709924,0.549618320610687,-1.2748091603053435
3877885295498,1.783911562,1,0.2154781494140625,1.7489643127441405,-11.21084927368164,-0.8091603053435115,0.5877862595419847,-1.3206106870229009
3877895295498,1.793911562,1,0.2214636535644531,1.7274164978027342,-11.196484063720703,-0.8091603053435115,0.5267175572519084,-1.3206106870229009
3877905295654,1.803911718,1,0.21787235107421873,1.734599102783203,-11.18571015625,-0.8396946564885496,0.5954198473282443,-1.3129770992366412
3877915294977,1.813911041,1,0.23582886352539062,1.7166425903320313,-11.226411584472656,-0.7862595419847328,0.5572519083969466,-1.3435114503816794
3877925295185,1.823911249,1,0.22505495605468748,1.7226280944824217,-11.202469567871093,-0.8015267175572519,0.5648854961832062,-1.3358778625954197
3877935301956,1.83391802,1,0.20949264526367187,1.7322049011230467,-11.201272467041015,-0.816793893129771,0.5572519083969466,-1.3282442748091603
3877945296279,1.843912343,1,0.22744915771484372,1.7310078002929687,-11.21084927368164,-0.8244274809160306,0.5877862595419847,-1.3053435114503817
3877955297998,1.853914062,1,0.24061726684570311,1.7298106994628906,-11.171344946289063,-0.8015267175572519,0.549618320610687,-1.2900763358778626
3877965300758,1.863916822,1,0.22744915771484372,1.7417817077636717,-11.23718549194336,-0.916030534351145,0.6259541984732825,-1.2900763358778626
3877975298883,1.873914947,1,0.20829554443359374,1.7405846069335937,-11.220426080322264,-0.8396946564885496,0.5801526717557252,-1.282442748091603
3877985296956,1.88391302,1,0.229843359375,1.7453730102539062,-11.173739147949219,-0.8931297709923665,0.5801526717557252,-1.3129770992366412
3877995297008,1.893913072,1,0.239420166015625,1.7238251953125,-11.183315954589844,-0.8244274809160306,0.5648854961832062,-1.297709923664122
3878005294352,1.903910416,1,0.2262520568847656,1.7274164978027342,-11.184513055419922,-0.8778625954198473,0.6030534351145038,-1.3511450381679388
3878015294508,1.913910572,1,0.23223756103515625,1.7322049011230467,-11.183315954589844,-0.7862595419847328,0.549618320610687,-1.3435114503816794
3878025297998,1.923914062,1,0.20709844360351562,1.7573440185546874,-11.202469567871093,-0.8702290076335878,0.6412213740458015,-1.3206106870229009
3878035295810,1.933911874,1,0.23343466186523437,1.744175909423828,-11.206060870361327,-0.8396946564885496,0.5877862595419847,-1.2748091603053435
3878045294664,1.943910728,1,0.21787235107421873,1.7298106994628906,-11.202469567871093,-0.8625954198473282,0.5954198473282443,-1.3282442748091603
3878055296071,1.953912135,1,0.20829554443359374,1.7274164978027342,-11.196484063720703,-0.8091603053435115,0.5343511450381679,-1.3587786259541985
3878065295550,1.963911614,1,0.23223756103515625,1.7238251953125,-11.201272467041015,-0.8702290076335878,0.6564885496183206,-1.3053435114503817
3878075296279,1.973912343,1,0.2442085693359375,1.7226280944824217,-11.161768139648437,-0.7175572519083969,0.5725190839694656,-1.3282442748091603
3878085295446,1.98391151,1,0.2262520568847656,1.714248388671875,-11.197681164550781,-0.8396946564885496,0.6106870229007634,-1.3587786259541985
3878095295289,1.993911353,1,0.21787235107421873,1.7094599853515624,-11.194089862060546,-0.8396946564885496,0.5572519083969466,-1.3129770992366412
3878105295758,2.003911822,1,0.21068974609375,1.7357962036132812,-11.202469567871093,-0.8931297709923665,0.5725190839694656,-1.2900763358778626
3878115295289,2.013911353,1,0.22266075439453123,1.7094599853515624,-11.171344946289063,-0.8396946564885496,0.5954198473282443,-1.3053435114503817
3878125295654,2.023911718,1,0.21068974609375,1.744175909423828,-11.183315954589844,-0.8320610687022901,0.6335877862595419,-1.3206106870229009
3878135293258,2.033909322,1,0.2346317626953125,1.7501614135742187,-11.16057103881836,-0.7709923664122137,0.5648854961832062,-1.3587786259541985
3878145295289,2.043911353,1,0.23582886352539062,1.7357962036132812,-11.179724652099608,-0.8396946564885496,0.5801526717557252,-1.3206106870229009
3878155294873,2.053910937,1,0.229843359375,1.7417817077636717,-11.177330450439452,-0.8473282442748091,0.5801526717557252,-1.3129770992366412
3878165298362,2.063914426,1,0.22864625854492185,1.7549498168945312,-11.201272467041015,-0.816793893129771,0.6183206106870229,-1.282442748091603
3878175296435,2.073912499,1,0.23702596435546874,1.7393875061035156,-11.200075366210937,-0.7862595419847328,0.5419847328244275,-1.3282442748091603
3878185296331,2.083912395,1,0.21308394775390624,1.7034744812011717,-11.19887826538086,-0.8854961832061069,0.5038167938931297,-1.3206106870229009
3878195295446,2.09391151,1,0.2262520568847656,1.7393875061035156,-11.200075366210937,-0.7862595419847328,0.5877862595419847,-1.4045801526717556
3878205293623,2.103909687,1,0.20350714111328125,1.7298106994628906,-11.204863769531249,-0.7862595419847328,0.5954198473282443,-1.3587786259541985
3878215302425,2.113918489,1,0.20829554443359374,1.7286135986328124,-11.197681164550781,-0.8244274809160306,0.6412213740458015,-1.3587786259541985
3878225297321,2.123913385,1,0.22864625854492185,1.7453730102539062,-11.165359442138671,-0.8320610687022901,0.6412213740458015,-1.3511450381679388
3878235292737,2.133908801,1,0.21308394775390624,1.714248388671875,-11.194089862060546,-0.8244274809160306,0.6030534351145038,-1.3435114503816794
3878245295550,2.143911614,1,0.20470424194335937,1.7525556152343749,-11.195286962890624,-0.8549618320610687,0.6030534351145038,-1.3435114503816794
3878255295289,2.153911353,1,0.2442085693359375,1.7334020019531249,-11.184513055419922,-0.7862595419847328,0.5725190839694656,-1.3511450381679388
3878265295914,2.163911978,1,0.21308394775390624,1.7393875061035156,-11.204863769531249,-0.8244274809160306,0.6030534351145038,-1.3206106870229009
3878275302008,2.173918072,1,0.20949264526367187,1.70467158203125,-11.221623181152344,-0.816793893129771,0.5725190839694656,-1.3358778625954197
3878285296227,2.183912291,1,0.20829554443359374,1.705868682861328,-11.206060870361327,-0.8625954198473282,0.5419847328244275,-1.297709923664122
3878295296852,2.193912916,1,0.229843359375,1.7298106994628906,-11.200075366210937,-0.8396946564885496,0.5267175572519084,-1.3206106870229009
3878305295966,2.20391203,1,0.22026655273437498,1.7274164978027342,-11.192892761230468,-0.8473282442748091,0.5801526717557252,-1.297709923664122
3878315296018,2.213912082,1,0.20350714111328125,1.7190367919921874,-11.225214483642578,-0.816793893129771,0.5954198473282443,-1.3740458015267176
3878325295237,2.223911301,1,0.2154781494140625,1.7214309936523438,-11.18571015625,-0.7709923664122137,0.6259541984732825,-1.3053435114503817
3878335296487,2.233912551,1,0.23104046020507812,1.7226280944824217,-11.197681164550781,-0.8320610687022901,0.549618320610687,-1.3358778625954197
3878345297060,2.243913124,1,0.22744915771484372,1.734599102783203,-11.162965240478515,-0.8015267175572519,0.549618320610687,-1.2900763358778626
3878355296383,2.253912447,1,0.24899697265624998,1.7202338928222656,-11.194089862060546,-0.8396946564885496,0.5954198473282443,-1.2748091603053435
3878365296071,2.263912135,1,0.22744915771484372,1.7322049011230467,-11.184513055419922,-0.7786259541984732,0.5114503816793893,-1.2595419847328244
3878375295393,2.273911457,1,0.24181436767578124,1.7190367919921874,-11.189301458740234,-0.816793893129771,0.5343511450381679,-1.3511450381679388
3878385296696,2.28391276,1,0.21308394775390624,1.725022296142578,-11.222820281982422,-0.8625954198473282,0.5801526717557252,-1.297709923664122
3878395296383,2.293912447,1,0.21068974609375,1.7310078002929687,-11.190498559570312,-0.8396946564885496,0.5419847328244275,-1.3206106870229009
3878405295393,2.303911457,1,0.201112939453125,1.7381904052734374,-11.179724652099608,-0.8320610687022901,0.549618320610687,-1.2900763358778626
3878415295289,2.313911353,1,0.24181436767578124,1.7262193969726563,-11.19169566040039,-0.8549618320610687,0.6335877862595419,-1.3358778625954197
3878425295185,2.323911249,1,0.22505495605468748,1.7393875061035156,-11.19169566040039,-0.8702290076335878,0.5801526717557252,-1.282442748091603
3878435296956,2.33391302,1,0.20470424194335937,1.7202338928222656,-11.218031878662108,-0.8473282442748091,0.549618320610687,-1.3511450381679388
3878445295550,2.343911614,1,0.2454056701660156,1.7166425903320313,-11.203666668701171,-0.7709923664122137,0.5419847328244275,-1.2900763358778626
3878455295446,2.35391151,1,0.19512743530273435,1.7405846069335937,-11.206060870361327,-0.8396946564885496,0.6183206106870229,-1.282442748091603
3878465297008,2.363913072,1,0.229843359375,1.7238251953125,-11.164162341308593,-0.816793893129771,0.549618320610687,-1.3206106870229009
3878475295602,2.373911666,1,0.23104046020507812,1.7597382202148437,-11.201272467041015,-0.8702290076335878,0.5801526717557252,-1.3511450381679388
3878485295654,2.383911718,1,0.22266075439453123,1.7429788085937499,-11.16057103881836,-0.7938931297709924,0.5725190839694656,-1.3587786259541985
3878495295133,2.393911197,1,0.2346317626953125,1.7178396911621092,-11.194089862060546,-0.8702290076335878,0.6106870229007634,-1.3358778625954197
3878505297060,2.403913124,1,0.25139117431640623,1.7334020019531249,-11.158176837158203,-0.8091603053435115,0.5419847328244275,-1.2900763358778626
3878515295237,2.413911301,1,0.2214636535644531,1.7549498168945312,-11.17852755126953,-0.8320610687022901,0.5877862595419847,-1.3358778625954197
3878525295602,2.423911666,1,0.22505495605468748,1.7106570861816406,-11.203666668701171,-0.8396946564885496,0.5801526717557252,-1.3053435114503817
3878535294768,2.433910832,1,0.20709844360351562,1.7298106994628906,-11.17852755126953,-0.8320610687022901,0.5725190839694656,-1.297709923664122
3878545293987,2.443910051,1,0.22744915771484372,1.7262193969726563,-11.196484063720703,-0.8244274809160306,0.4961832061068702,-1.3282442748091603
3878555297112,2.453913176,1,0.23702596435546874,1.7357962036132812,-11.18571015625,-0.8320610687022901,0.5267175572519084,-1.3206106870229009
3878565295966,2.46391203,1,0.23223756103515625,1.7214309936523438,-11.18571015625,-0.7938931297709924,0.6335877862595419,-1.3511450381679388
3878575296643,2.473912707,1,0.21188684692382811,1.7190367919921874,-11.166556542968749,-0.9007633587786259,0.6183206106870229,-1.3358778625954197
3878585296279,2.483912343,1,0.21308394775390624,1.725022296142578,-11.213243475341796,-0.7938931297709924,0.5725190839694656,-1.3435114503816794
3878595296123,2.493912187,1,0.21308394775390624,1.7525556152343749,-11.200075366210937,-0.8549618320610687,0.5877862595419847,-1.3740458015267176
3878605296070,2.503912134,1,0.20231004028320312,1.7166425903320313,-11.208455072021483,-0.7938931297709924,0.5419847328244275,-1.3206106870229009
3878615296539,2.513912603,1,0.21188684692382811,1.7286135986328124,-11.206060870361327,-0.8854961832061069,0.5954198473282443,-1.3511450381679388
3878625293727,2.523909791,1,0.23582886352539062,1.7274164978027342,-11.156979736328124,-0.8244274809160306,0.549618320610687,-1.381679389312977
3878635296070,2.533912134,1,0.18555062866210936,1.7357962036132812,-11.219228979492186,-0.8473282442748091,0.6106870229007634,-1.2900763358778626
3878645295289,2.543911353,1,0.20829554443359374,1.7322049011230467,-11.23718549194336,-0.8320610687022901,0.5343511450381679,-1.3511450381679388
3878655292373,2.553908437,1,0.23104046020507812,1.7381904052734374,-11.204863769531249,-0.8778625954198473,0.5954198473282443,-1.366412213740458
3878665296331,2.563912395,1,0.23223756103515625,1.7429788085937499,-11.171344946289063,-0.7480916030534351,0.6183206106870229,-1.3511450381679388
3878675294873,2.573910937,1,0.2346317626953125,1.7178396911621092,-11.177330450439452,-0.8320610687022901,0.6717557251908397,-1.3129770992366412
3878685295550,2.583911614,1,0.22026655273437498,1.7238251953125,-11.182118853759764,-0.8244274809160306,0.6106870229007634,-1.3358778625954197
3878695294716,2.59391078,1,0.24899697265624998,1.7166425903320313,-11.17852755126953,-0.8778625954198473,0.5572519083969466,-1.3358778625954197
3878705295862,2.603911926,1,0.2346317626953125,1.7405846069335937,-11.226411584472656,-0.7709923664122137,0.5419847328244275,-1.3511450381679388
3878715296331,2.613912395,1,0.22744915771484372,1.7453730102539062,-11.190498559570312,-0.8015267175572519,0.5419847328244275,-1.3129770992366412
3878725297112,2.623913176,1,0.21188684692382811,1.7190367919921874,-11.183315954589844,-0.8473282442748091,0.5572519083969466,-1.2900763358778626
3878735298935,2.633914999,1,0.21308394775390624,1.7274164978027342,-11.18571015625,-0.8854961832061069,0.5725190839694656,-1.3129770992366412
3878745297581,2.643913645,1,0.25737667846679685,1.744175909423828,-11.17254204711914,-0.7786259541984732,0.6106870229007634,-1.3206106870229009
3878755297216,2.65391328,1,0.20829554443359374,1.7094599853515624,-11.218031878662108,-0.8549618320610687,0.6030534351145038,-1.2748091603053435
3878765295081,2.663911145,1,0.21906945190429686,1.7226280944824217,-11.18571015625,-0.7633587786259542,0.5419847328244275,-1.3511450381679388
3878775294195,2.673910259,1,0.21308394775390624,1.7130512878417967,-11.202469567871093,-0.8320610687022901,0.549618320610687,-1.3129770992366412
3878785295497,2.683911561,1,0.2609679809570312,1.7369933044433592,-11.192892761230468,-0.8015267175572519,0.5419847328244275,-1.3740458015267176
3878795303779,2.693919843,1,0.2561795776367187,1.7178396911621092,-11.180921752929686,-0.8244274809160306,0.6030534351145038,-1.3587786259541985
3878805296331,2.703912395,1,0.2059013427734375,1.7214309936523438,-11.17254204711914,-0.8396946564885496,0.5648854961832062,-1.3358778625954197
3878815296070,2.713912134,1,0.2166752502441406,1.734599102783203,-11.202469567871093,-0.8549618320610687,0.549618320610687,-1.3587786259541985
3878825296956,2.72391302,1,0.24660277099609373,1.7369933044433592,-11.166556542968749,-0.8396946564885496,0.5725190839694656,-1.3206106870229009
3878835305706,2.73392177,1,0.24660277099609373,1.7274164978027342,-11.182118853759764,-0.7938931297709924,0.5801526717557252,-1.3435114503816794
3878845297372,2.743913436,1,0.23702596435546874,1.7166425903320313,-11.18571015625,-0.8549618320610687,0.6030534351145038,-1.3206106870229009
3878855296956,2.75391302,1,0.2154781494140625,1.7118541870117185,-11.179724652099608,-0.8702290076335878,0.5725190839694656,-1.3740458015267176
3878865296122,2.763912186,1,0.2262520568847656,1.7310078002929687,-11.194089862060546,-0.8320610687022901,0.6030534351145038,-1.366412213740458
3878875292789,2.773908853,1,0.2262520568847656,1.7202338928222656,-11.213243475341796,-0.7786259541984732,0.5572519083969466,-1.3282442748091603
3878885295914,2.783911978,1,0.2501940734863281,1.7166425903320313,-11.19887826538086,-0.8702290076335878,0.5572519083969466,-1.3511450381679388
3878895296383,2.793912447,1,0.21068974609375,1.7166425903320313,-11.194089862060546,-0.8473282442748091,0.6106870229007634,-1.3587786259541985
3878905295654,2.803911718,1,0.19632453613281248,1.725022296142578,-11.221623181152344,-0.8549618320610687,0.6106870229007634,-1.297709923664122
3878915292477,2.813908541,1,0.22266075439453123,1.7274164978027342,-11.203666668701171,-0.8015267175572519,0.5267175572519084,-1.2442748091603053
3878925296070,2.823912134,1,0.20231004028320312,1.7310078002929687,-11.17852755126953,-0.8854961832061069,0.5954198473282443,-1.3282442748091603
3878935295914,2.833911978,1,0.23582886352539062,1.7238251953125,-11.195286962890624,-0.8549618320610687,0.5648854961832062,-1.282442748091603
3878945295185,2.843911249,1,0.23702596435546874,1.7369933044433592,-11.180921752929686,-0.8320610687022901,0.6030534351145038,-1.3282442748091603
3878955296331,2.853912395,1,0.2262520568847656,1.7190367919921874,-11.207257971191405,-0.8091603053435115,0.5267175572519084,-1.3282442748091603
3878965294456,2.86391052,1,0.21428104858398436,1.714248388671875,-11.231199987792968,-0.8473282442748091,0.5572519083969466,-1.3053435114503817
3878975292685,2.873908749,1,0.2154781494140625,1.715445489501953,-11.207257971191405,-0.7938931297709924,0.5267175572519084,-1.3129770992366412
3878985295341,2.883911405,1,0.23104046020507812,1.744175909423828,-11.192892761230468,-0.8473282442748091,0.5801526717557252,-1.3053435114503817
3878995295289,2.893911353,1,0.23104046020507812,1.7465701110839842,-11.190498559570312,-0.8396946564885496,0.5572519083969466,-1.3358778625954197
3879005295914,2.903911978,1,0.22385785522460935,1.7322049011230467,-11.195286962890624,-0.9007633587786259,0.6183206106870229,-1.3053435114503817
3879015295029,2.913911093,1,0.2214636535644531,1.7310078002929687,-11.195286962890624,-0.7938931297709924,0.5954198473282443,-1.2748091603053435
3879025296331,2.923912395,1,0.26695348510742184,1.7417817077636717,-11.212046374511718,-0.8015267175572519,0.5801526717557252,-1.2748091603053435
3879035295393,2.933911457,1,0.19991583862304688,1.7310078002929687,-11.190498559570312,-0.8244274809160306,0.6030534351145038,-1.297709923664122
3879045295445,2.943911509,1,0.22026655273437498,1.7166425903320313,-11.19169566040039,-0.9083969465648855,0.6183206106870229,-1.3435114503816794
3879055295862,2.953911926,1,0.229843359375,1.7034744812011717,-11.190498559570312,-0.816793893129771,0.549618320610687,-1.3206106870229009
3879065294143,2.963910207,1,0.2454056701660156,1.7310078002929687,-11.189301458740234,-0.8625954198473282,0.6412213740458015,-1.2748091603053435
3879075295706,2.97391177,1,0.2262520568847656,1.7202338928222656,-11.174936248779296,-0.7633587786259542,0.5954198473282443,-1.282442748091603
3879085295654,2.983911718,1,0.23702596435546874,1.734599102783203,-11.19169566040039,-0.8320610687022901,0.6030534351145038,-1.3587786259541985
3879095295497,2.993911561,1,0.21428104858398436,1.696291876220703,-11.19887826538086,-0.7786259541984732,0.5267175572519084,-1.3282442748091603
3879105295081,3.003911145,1,0.21188684692382811,1.7381904052734374,-11.177330450439452,-0.9083969465648855,0.5877862595419847,-1.297709923664122
3879115296018,3.013912082,1,0.24061726684570311,1.7429788085937499,-11.189301458740234,-0.8091603053435115,0.6793893129770993,-1.282442748091603
3879125296227,3.023912291,1,0.22864625854492185,1.753752716064453,-11.190498559570312,-0.8854961832061069,0.5954198473282443,-1.282442748091603
3879135295497,3.033911561,1,0.21308394775390624,1.7322049011230467,-11.186907257080078,-0.8549618320610687,0.5419847328244275,-1.3435114503816794
3879145296174,3.043912238,1,0.2442085693359375,1.7178396911621092,-11.17852755126953,-0.8625954198473282,0.6183206106870229,-1.366412213740458
3879155294872,3.053910936,1,0.21188684692382811,1.7453730102539062,-11.212046374511718,-0.7862595419847328,0.5725190839694656,-1.3206106870229009
3879165295966,3.06391203,1,0.23582886352539062,1.7465701110839842,-11.209652172851563,-0.8625954198473282,0.5801526717557252,-1.3511450381679388
3879175291643,3.073907707,1,0.23702596435546874,1.7082628845214842,-11.203666668701171,-0.7633587786259542,0.5343511450381679,-1.297709923664122
3879185295758,3.083911822,1,0.239420166015625,1.7202338928222656,-11.180921752929686,-0.8396946564885496,0.6106870229007634,-1.282442748091603
3879195294195,3.093910259,1,0.23343466186523437,1.7310078002929687,-11.212046374511718,-0.8473282442748091,0.5877862595419847,-1.3511450381679388
3879205295029,3.103911093,1,0.21188684692382811,1.7501614135742187,-11.170147845458983,-0.8778625954198473,0.5648854961832062,-1.3282442748091603
3879215296122,3.113912186,1,0.21787235107421873,1.7226280944824217,-11.212046374511718,-0.8702290076335878,0.5877862595419847,-1.3435114503816794
3879225295237,3.123911301,1,0.25258827514648435,1.7238251953125,-11.202469567871093,-0.8854961832061069,0.5954198473282443,-1.2595419847328244
3879235296956,3.13391302,1,0.25258827514648435,1.7118541870117185,-11.21683477783203,-0.8625954198473282,0.5190839694656488,-1.2595419847328244
3879245296487,3.143912551,1,0.22505495605468748,1.7082628845214842,-11.207257971191405,-0.8244274809160306,0.5114503816793893,-1.2671755725190839
3879255295758,3.153911822,1,0.239420166015625,1.7513585144042967,-11.215637677001952,-0.8244274809160306,0.4961832061068702,-1.3282442748091603
3879265296174,3.163912238,1,0.22505495605468748,1.725022296142578,-11.218031878662108,-0.816793893129771,0.5725190839694656,-1.3129770992366412
3879275295966,3.17391203,1,0.2214636535644531,1.7202338928222656,-11.219228979492186,-0.7938931297709924,0.5648854961832062,-1.2748091603053435
3879285294716,3.18391078,1,0.24660277099609373,1.7298106994628906,-11.19169566040039,-0.8549618320610687,0.5343511450381679,-1.2442748091603053
3879295296018,3.193912082,1,0.22864625854492185,1.734599102783203,-11.177330450439452,-0.8244274809160306,0.5801526717557252,-1.3053435114503817
3879305297216,3.20391328,1,0.24660277099609373,1.7274164978027342,-11.190498559570312,-0.9083969465648855,0.5954198473282443,-1.3282442748091603
3879315295862,3.213911926,1,0.21428104858398436,1.70467158203125,-11.19887826538086,-0.8320610687022901,0.6106870229007634,-1.297709923664122
3879325295133,3.223911197,1,0.24899697265624998,1.715445489501953,-11.206060870361327,-0.9083969465648855,0.6030534351145038,-1.297709923664122
3879335291591,3.233907655,1,0.2346317626953125,1.7322049011230467,-11.2240173828125,-0.8320610687022901,0.549618320610687,-1.2900763358778626
3879345295497,3.243911561,1,0.23104046020507812,1.7322049011230467,-11.23000288696289,-0.7862595419847328,0.5343511450381679,-1.2900763358778626
3879355295497,3.253911561,1,0.21906945190429686,1.7202338928222656,-11.194089862060546,-0.7862595419847328,0.5572519083969466,-1.3206106870229009
3879365299403,3.263915467,1,0.2442085693359375,1.7286135986328124,-11.165359442138671,-0.7938931297709924,0.5801526717557252,-1.3435114503816794
3879375297581,3.273913645,1,0.2214636535644531,1.7274164978027342,-11.202469567871093,-0.8244274809160306,0.6030534351145038,-1.3129770992366412
3879385301122,3.283917186,1,0.2442085693359375,1.7369933044433592,-11.179724652099608,-0.7938931297709924,0.5572519083969466,-1.3053435114503817
3879395297268,3.293913332,1,0.22026655273437498,1.7286135986328124,-11.21084927368164,-0.8244274809160306,0.5114503816793893,-1.282442748091603
3879405295810,3.303911874,1,0.229843359375,1.7214309936523438,-11.188104357910156,-0.8244274809160306,0.4961832061068702,-1.3206106870229009
3879415295810,3.313911874,1,0.23343466186523437,1.7286135986328124,-11.189301458740234,-0.8625954198473282,0.5648854961832062,-1.3511450381679388
3879425296174,3.323912238,1,0.2442085693359375,1.7322049011230467,-11.162965240478515,-0.8015267175572519,0.549618320610687,-1.3282442748091603
3879435293049,3.333909113,1,0.2166752502441406,1.7381904052734374,-11.155782635498046,-0.8473282442748091,0.5801526717557252,-1.3206106870229009
3879445295497,3.343911561,1,0.258573779296875,1.7322049011230467,-11.192892761230468,-0.816793893129771,0.5114503816793893,-1.3206106870229009
3879455293570,3.353909634,1,0.20709844360351562,1.7513585144042967,-11.207257971191405,-0.816793893129771,0.5954198473282443,-1.3206106870229009
3879465298206,3.36391427,1,0.2262520568847656,1.715445489501953,-11.203666668701171,-0.8778625954198473,0.5648854961832062,-1.282442748091603
3879475294664,3.373910728,1,0.19991583862304688,1.7238251953125,-11.186907257080078,-0.8625954198473282,0.6030534351145038,-1.2595419847328244
3879485292737,3.383908801,1,0.23702596435546874,1.7369933044433592,-11.182118853759764,-0.8549618320610687,0.5725190839694656,-1.3282442748091603
3879495296539,3.393912603,1,0.24061726684570311,1.7106570861816406,-11.214440576171874,-0.8473282442748091,0.5877862595419847,-1.3129770992366412
3879505294195,3.403910259,1,0.23343466186523437,1.7417817077636717,-11.17852755126953,-0.7633587786259542,0.5419847328244275,-1.2900763358778626
3879515296018,3.413912082,1,0.2346317626953125,1.7369933044433592,-11.19169566040039,-0.8702290076335878,0.6106870229007634,-1.297709923664122
3879525295028,3.423911092,1,0.2454056701660156,1.734599102783203,-11.202469567871093,-0.7938931297709924,0.5801526717557252,-1.3129770992366412
3879535295966,3.43391203,1,0.24660277099609373,1.7106570861816406,-11.186907257080078,-0.8778625954198473,0.5343511450381679,-1.3282442748091603
3879545296018,3.443912082,1,0.19991583862304688,1.7429788085937499,-11.197681164550781,-0.7633587786259542,0.5572519083969466,-1.3129770992366412
3879555295028,3.453911092,1,0.2154781494140625,1.7405846069335937,-11.19887826538086,-0.8320610687022901,0.5877862595419847,-1.3206106870229009
3879565313362,3.463929426,1,0.23223756103515625,1.7322049011230467,-11.201272467041015,-0.8091603053435115,0.5877862595419847,-1.3358778625954197
3879575307997,3.473924061,1,0.21068974609375,1.7453730102539062,-11.166556542968749,-0.916030534351145,0.5725190839694656,-1.3282442748091603
3879585310497,3.483926561,1,0.2346317626953125,1.7214309936523438,-11.182118853759764,-0.8473282442748091,0.6183206106870229,-1.3282442748091603
3879595306591,3.493922655,1,0.2059013427734375,1.7369933044433592,-11.182118853759764,-0.8396946564885496,0.6412213740458015,-1.3129770992366412
3879605310028,3.503926092,1,0.21308394775390624,1.7214309936523438,-11.173739147949219,-0.8244274809160306,0.5572519083969466,-1.3206106870229009
3879615303726,3.51391979,1,0.2346317626953125,1.7489643127441405,-11.225214483642578,-0.8396946564885496,0.5267175572519084,-1.366412213740458
3879625312008,3.523928072,1,0.23223756103515625,1.7274164978027342,-11.202469567871093,-0.7862595419847328,0.5419847328244275,-1.3358778625954197
3879635306122,3.533922186,1,0.21787235107421873,1.7166425903320313,-11.180921752929686,-0.8473282442748091,0.5877862595419847,-1.3282442748091603
3879645308362,3.543924426,1,0.239420166015625,1.7130512878417967,-11.180921752929686,-0.8625954198473282,0.5419847328244275,-1.3358778625954197
3879655308830,3.553924894,1,0.19033903198242186,1.7393875061035156,-11.209652172851563,-0.8931297709923665,0.648854961832061,-1.3129770992366412
3879665313570,3.563929634,1,0.2166752502441406,1.7202338928222656,-11.196484063720703,-0.8091603053435115,0.6335877862595419,-1.3282442748091603
3879675306695,3.573922759,1,0.23223756103515625,1.7274164978027342,-11.208455072021483,-0.8702290076335878,0.5648854961832062,-1.3282442748091603
3879685306643,3.583922707,1,0.2166752502441406,1.7322049011230467,-11.192892761230468,-0.8473282442748091,0.5190839694656488,-1.3053435114503817
3879695307580,3.593923644,1,0.2262520568847656,1.7393875061035156,-11.219228979492186,-0.8473282442748091,0.5419847328244275,-1.3435114503816794
3879705309976,3.60392604,1,0.23223756103515625,1.7489643127441405,-11.182118853759764,-0.8320610687022901,0.6030534351145038,-1.3129770992366412
3879715307112,3.613923176,1,0.21308394775390624,1.7465701110839842,-11.180921752929686,-0.8702290076335878,0.6259541984732825,-1.3206106870229009
3879725311278,3.623927342,1,0.22385785522460935,1.7429788085937499,-11.21683477783203,-0.8091603053435115,0.6183206106870229,-1.297709923664122
3879735307372,3.633923436,1,0.22266075439453123,1.7262193969726563,-11.155782635498046,-0.7862595419847328,0.5877862595419847,-1.3358778625954197
3879745312008,3.643928072,1,0.22505495605468748,1.7453730102539062,-11.186907257080078,-0.8015267175572519,0.5801526717557252,-1.3053435114503817
3879755307945,3.653924009,1,0.23822306518554687,1.7214309936523438,-11.19169566040039,-0.7786259541984732,0.6106870229007634,-1.3282442748091603
3879765313830,3.663929894,1,0.2214636535644531,1.7202338928222656,-11.161768139648437,-0.7938931297709924,0.5954198473282443,-1.3206106870229009
3879775309455,3.673925519,1,0.23822306518554687,1.7118541870117185,-11.197681164550781,-0.8473282442748091,0.5648854961832062,-1.3129770992366412
3879785311539,3.683927603,1,0.23702596435546874,1.7405846069335937,-11.170147845458983,-0.8015267175572519,0.5114503816793893,-1.3053435114503817
3879795307060,3.693923124,1,0.25139117431640623,1.7417817077636717,-11.152191333007812,-0.8320610687022901,0.5725190839694656,-1.3129770992366412
3879805310132,3.703926196,1,0.23343466186523437,1.7477672119140624,-11.208455072021483,-0.7633587786259542,0.5572519083969466,-1.282442748091603
3879815308466,3.71392453,1,0.24181436767578124,1.7286135986328124,-11.16057103881836,-0.8320610687022901,0.5648854961832062,-1.3129770992366412
3879825311591,3.723927655,1,0.2166752502441406,1.7262193969726563,-11.173739147949219,-0.816793893129771,0.5725190839694656,-1.3358778625954197
3879835306695,3.733922759,1,0.24779987182617186,1.705868682861328,-11.166556542968749,-0.7862595419847328,0.5725190839694656,-1.3206106870229009
3879845310705,3.743926769,1,0.2214636535644531,1.7298106994628906,-11.184513055419922,-0.8625954198473282,0.5801526717557252,-1.297709923664122
3879855312685,3.753928749,1,0.24301146850585936,1.7238251953125,-11.182118853759764,-0.8015267175572519,0.5190839694656488,-1.3206106870229009
3879865309560,3.763925624,1,0.23223756103515625,1.7357962036132812,-11.19887826538086,-0.8015267175572519,0.6106870229007634,-1.3435114503816794
3879875307164,3.773923228,1,0.239420166015625,1.7334020019531249,-11.220426080322264,-0.816793893129771,0.549618320610687,-1.3282442748091603
3879885311330,3.783927394,1,0.20949264526367187,1.7286135986328124,-11.209652172851563,-0.8320610687022901,0.5267175572519084,-1.3053435114503817
3879895306747,3.793922811,1,0.2059013427734375,1.7118541870117185,-11.154585534667968,-0.8473282442748091,0.5343511450381679,-1.3129770992366412
3879905313674,3.803929738,1,0.22505495605468748,1.744175909423828,-11.202469567871093,-0.8244274809160306,0.5725190839694656,-1.2595419847328244
3879915306122,3.813922186,1,0.201112939453125,1.70467158203125,-11.194089862060546,-0.8015267175572519,0.5648854961832062,-1.3282442748091603
3879925311435,3.823927499,1,0.21906945190429686,1.7393875061035156,-11.170147845458983,-0.7938931297709924,0.5648854961832062,-1.3206106870229009
3879935314039,3.833930103,1,0.23702596435546874,1.7513585144042967,-11.192892761230468,-0.8015267175572519,0.5267175572519084,-1.3129770992366412
3879945314039,3.843930103,1,0.24660277099609373,1.7238251953125,-11.195286962890624,-0.8702290076335878,0.5801526717557252,-1.3206106870229009
3879955307945,3.853924009,1,0.20949264526367187,1.707065783691406,-11.190498559570312,-0.8473282442748091,0.5419847328244275,-1.366412213740458
3879965312580,3.863928644,1,0.2442085693359375,1.734599102783203,-11.173739147949219,-0.8778625954198473,0.5801526717557252,-1.3511450381679388
3879975307685,3.873923749,1,0.2501940734863281,1.7262193969726563,-11.196484063720703,-0.8625954198473282,0.4961832061068702,-1.2671755725190839
3879985310862,3.883926926,1,0.20350714111328125,1.7381904052734374,-11.218031878662108,-0.8702290076335878,0.5954198473282443,-1.2748091603053435
3879995304716,3.89392078,1,0.2262520568847656,1.7381904052734374,-11.202469567871093,-0.7862595419847328,0.549618320610687,-1.3206106870229009
3880005387007,3.904003071,1,0.22266075439453123,1.7501614135742187,-11.17852755126953,-0.8625954198473282,0.5725190839694656,-1.282442748091603
3880015315862,3.913931926,1,0.23104046020507812,1.7286135986328124,-11.195286962890624,-0.8015267175572519,0.5801526717557252,-1.282442748091603
3880025307737,3.923923801,1,0.23104046020507812,1.7106570861816406,-11.158176837158203,-0.8549618320610687,0.6564885496183206,-1.2748091603053435
3880035306799,3.933922863,1,0.2262520568847656,1.725022296142578,-11.176133349609374,-0.7709923664122137,0.6030534351145038,-1.3053435114503817
3880045312841,3.943928905,1,0.2501940734863281,1.753752716064453,-11.149797131347656,-0.8702290076335878,0.6564885496183206,-1.297709923664122
3880055308257,3.953924321,1,0.2262520568847656,1.7262193969726563,-11.196484063720703,-0.816793893129771,0.6030534351145038,-1.3358778625954197
3880065309091,3.963925155,1,0.2442085693359375,1.734599102783203,-11.189301458740234,-0.9083969465648855,0.6106870229007634,-1.2748091603053435
3880075301747,3.973917811,1,0.21428104858398436,1.6998831787109374,-11.207257971191405,-0.8244274809160306,0.5801526717557252,-1.3053435114503817
3880085304768,3.983920832,1,0.1975216369628906,1.725022296142578,-11.156979736328124,-0.8778625954198473,0.5954198473282443,-1.3129770992366412
3880095301955,3.993918019,1,0.23702596435546874,1.7202338928222656,-11.195286962890624,-0.816793893129771,0.549618320610687,-1.3282442748091603
3880105304039,4.003920103,1,0.20709844360351562,1.744175909423828,-11.218031878662108,-0.8778625954198473,0.5877862595419847,-1.3129770992366412
3880115302372,4.013918436,1,0.19512743530273435,1.7118541870117185,-11.204863769531249,-0.8473282442748091,0.549618320610687,-1.3053435114503817
3880125305132,4.023921196,1,0.229843359375,1.7585411193847655,-11.162965240478515,-0.8244274809160306,0.5801526717557252,-1.282442748091603
3880135302684,4.033918748,1,0.229843359375,1.707065783691406,-11.156979736328124,-0.8015267175572519,0.5114503816793893,-1.2900763358778626
3880145304091,4.043920155,1,0.24660277099609373,1.744175909423828,-11.186907257080078,-0.8549618320610687,0.5877862595419847,-1.297709923664122
3880155302216,4.05391828,1,0.23104046020507812,1.7274164978027342,-11.182118853759764,-0.8091603053435115,0.5419847328244275,-1.2900763358778626
3880165314247,4.063930311,1,0.21188684692382811,1.7190367919921874,-11.204863769531249,-0.8396946564885496,0.5954198473282443,-1.3129770992366412
3880175312580,4.073928644,1,0.21787235107421873,1.7501614135742187,-11.19169566040039,-0.7709923664122137,0.6030534351145038,-1.3358778625954197
3880185315705,4.083931769,1,0.21428104858398436,1.7214309936523438,-11.194089862060546,-0.816793893129771,0.6106870229007634,-1.3358778625954197
3880195311122,4.093927186,1,0.229843359375,1.7369933044433592,-11.194089862060546,-0.8396946564885496,0.5648854961832062,-1.3358778625954197
3880205314351,4.103930415,1,0.22026655273437498,1.7298106994628906,-11.21084927368164,-0.8625954198473282,0.6183206106870229,-1.3129770992366412
3880215314507,4.113930571,1,0.2154781494140625,1.7226280944824217,-11.165359442138671,-0.816793893129771,0.5343511450381679,-1.3435114503816794
3880225315132,4.123931196,1,0.2537853759765625,1.714248388671875,-11.182118853759764,-0.8244274809160306,0.5572519083969466,-1.3435114503816794
3880235311486,4.13392755,1,0.21787235107421873,1.7393875061035156,-11.150994232177734,-0.7786259541984732,0.6106870229007634,-1.3206106870229009
3880245310914,4.143926978,1,0.2214636535644531,1.7334020019531249,-11.201272467041015,-0.8015267175572519,0.5725190839694656,-1.3282442748091603
3880255309559,4.153925623,1,0.23702596435546874,1.7322049011230467,-11.194089862060546,-0.8320610687022901,0.5572519083969466,-1.3358778625954197
3880265304091,4.163920155,1,0.23223756103515625,1.734599102783203,-11.171344946289063,-0.8625954198473282,0.5572519083969466,-1.2671755725190839
3880275315236,4.1739313,1,0.23822306518554687,1.7202338928222656,-11.208455072021483,-0.8244274809160306,0.5190839694656488,-1.2671755725190839
3880285309403,4.183925467,1,0.21787235107421873,1.7477672119140624,-11.196484063720703,-0.8549618320610687,0.5343511450381679,-1.2595419847328244
3880295306018,4.193922082,1,0.2609679809570312,1.7405846069335937,-11.204863769531249,-0.8320610687022901,0.5267175572519084,-1.297709923664122
3880305308518,4.203924582,1,0.23582886352539062,1.7429788085937499,-11.190498559570312,-0.8396946564885496,0.6183206106870229,-1.366412213740458
3880315304143,4.213920207,1,0.22026655273437498,1.7334020019531249,-11.195286962890624,-0.8320610687022901,0.6259541984732825,-1.297709923664122
3880325309091,4.223925155,1,0.23822306518554687,1.7334020019531249,-11.21683477783203,-0.8473282442748091,0.5572519083969466,-1.3053435114503817
3880335304091,4.233920155,1,0.2609679809570312,1.7178396911621092,-11.219228979492186,-0.8015267175572519,0.5267175572519084,-1.3435114503816794
3880345306747,4.243922811,1,0.21428104858398436,1.714248388671875,-11.221623181152344,-0.8320610687022901,0.5419847328244275,-1.3511450381679388
3880355303309,4.253919373,1,0.21787235107421873,1.7298106994628906,-11.227608685302734,-0.7938931297709924,0.6030534351145038,-1.3587786259541985
3880365310445,4.263926509,1,0.2346317626953125,1.7106570861816406,-11.168950744628905,-0.816793893129771,0.5954198473282443,-1.3129770992366412
3880375311330,4.273927394,1,0.22385785522460935,1.7310078002929687,-11.240776794433593,-0.7862595419847328,0.5648854961832062,-1.3358778625954197
3880385314820,4.283930884,1,0.23582886352539062,1.7513585144042967,-11.214440576171874,-0.8015267175572519,0.5648854961832062,-1.3206106870229009
3880395310184,4.293926248,1,0.24301146850585936,1.7298106994628906,-11.180921752929686,-0.8244274809160306,0.5419847328244275,-1.3435114503816794
3880405313726,4.30392979,1,0.25258827514648435,1.7334020019531249,-11.196484063720703,-0.8320610687022901,0.5648854961832062,-1.3053435114503817
3880415311382,4.313927446,1,0.2166752502441406,1.7166425903320313,-11.19887826538086,-0.8091603053435115,0.6106870229007634,-1.3358778625954197
3880425309664,4.323925728,1,0.21428104858398436,1.7190367919921874,-11.203666668701171,-0.7786259541984732,0.6183206106870229,-1.3206106870229009
3880435310757,4.333926821,1,0.23343466186523437,1.7238251953125,-11.183315954589844,-0.8320610687022901,0.5801526717557252,-1.297709923664122
3880445315080,4.343931144,1,0.23702596435546874,1.7369933044433592,-11.197681164550781,-0.8091603053435115,0.5877862595419847,-1.3206106870229009
3880455310445,4.353926509,1,0.23582886352539062,1.7477672119140624,-11.154585534667968,-0.8244274809160306,0.6259541984732825,-1.3511450381679388
3880465305445,4.363921509,1,0.229843359375,1.7286135986328124,-11.180921752929686,-0.8015267175572519,0.5877862595419847,-1.3282442748091603
3880475300653,4.373916717,1,0.26695348510742184,1.7429788085937499,-11.174936248779296,-0.8854961832061069,0.6030534351145038,-1.3129770992366412
3880485308674,4.383924738,1,0.20470424194335937,1.7094599853515624,-11.19887826538086,-0.8625954198473282,0.5572519083969466,-1.3893129770992367
3880495304403,4.393920467,1,0.21068974609375,1.7393875061035156,-11.202469567871093,-0.7938931297709924,0.6183206106870229,-1.2900763358778626
3880505308466,4.40392453,1,0.229843359375,1.7166425903320313,-11.196484063720703,-0.8549618320610687,0.6106870229007634,-1.3129770992366412
3880515306122,4.413922186,1,0.22864625854492185,1.7393875061035156,-11.201272467041015,-0.8931297709923665,0.5877862595419847,-1.2748091603053435
3880525307320,4.423923384,1,0.2346317626953125,1.7298106994628906,-11.212046374511718,-0.8244274809160306,0.5343511450381679,-1.2748091603053435
3880535303986,4.43392005,1,0.23223756103515625,1.7130512878417967,-11.225214483642578,-0.9007633587786259,0.549618320610687,-1.297709923664122
3880545307320,4.443923384,1,0.22385785522460935,1.7226280944824217,-11.200075366210937,-0.816793893129771,0.5419847328244275,-1.3129770992366412
3880555304507,4.453920571,1,0.2214636535644531,1.7166425903320313,-11.202469567871093,-0.7557251908396947,0.5419847328244275,-1.2900763358778626
3880565312320,4.463928384,1,0.2154781494140625,1.725022296142578,-11.171344946289063,-0.7862595419847328,0.5648854961832062,-1.3129770992366412
3880575311538,4.473927602,1,0.22266075439453123,1.7322049011230467,-11.221623181152344,-0.816793893129771,0.5801526717557252,-1.3053435114503817
3880585313830,4.483929894,1,0.21906945190429686,1.7405846069335937,-11.165359442138671,-0.816793893129771,0.5877862595419847,-1.2900763358778626
3880595310601,4.493926665,1,0.229843359375,1.7082628845214842,-11.190498559570312,-0.9007633587786259,0.5725190839694656,-1.3053435114503817
3880605314195,4.503930259,1,0.26336218261718747,1.7561469177246092,-11.21683477783203,-0.8702290076335878,0.5877862595419847,-1.3358778625954197
3880615309976,4.51392604,1,0.2597708801269531,1.7369933044433592,-11.180921752929686,-0.8549618320610687,0.6335877862595419,-1.282442748091603
3880625313986,4.52393005,1,0.21906945190429686,1.7298106994628906,-11.165359442138671,-0.8320610687022901,0.6030534351145038,-1.3206106870229009
3880635310809,4.533926873,1,0.23104046020507812,1.7369933044433592,-11.204863769531249,-0.8473282442748091,0.5801526717557252,-1.3511450381679388
3880645314663,4.543930727,1,0.22864625854492185,1.7417817077636717,-11.167753643798827,-0.8244274809160306,0.5114503816793893,-1.3129770992366412
3880655309455,4.553925519,1,0.24181436767578124,1.7417817077636717,-11.164162341308593,-0.8244274809160306,0.5725190839694656,-1.3053435114503817
3880665307841,4.563923905,1,0.23702596435546874,1.7417817077636717,-11.167753643798827,-0.8244274809160306,0.5572519083969466,-1.3129770992366412
3880675305340,4.573921404,1,0.2214636535644531,1.7310078002929687,-11.189301458740234,-0.8320610687022901,0.6030534351145038,-1.297709923664122
3880685307632,4.583923696,1,0.20949264526367187,1.7369933044433592,-11.196484063720703,-0.816793893129771,0.5801526717557252,-1.3282442748091603
3880695303570,4.593919634,1,0.19871873779296872,1.715445489501953,-11.179724652099608,-0.8625954198473282,0.6106870229007634,-1.297709923664122
3880705306590,4.603922654,1,0.25139117431640623,1.7334020019531249,-11.203666668701171,-0.816793893129771,0.5572519083969466,-1.251908396946565
3880715305393,4.613921457,1,0.2154781494140625,1.7357962036132812,-11.183315954589844,-0.9083969465648855,0.5419847328244275,-1.3053435114503817
3880725307320,4.623923384,1,0.20231004028320312,1.7369933044433592,-11.251550701904296,-0.8091603053435115,0.5877862595419847,-1.3740458015267176
3880735307736,4.6339238,1,0.19512743530273435,1.7357962036132812,-11.167753643798827,-0.8396946564885496,0.6030534351145038,-1.3435114503816794
3880745307320,4.643923384,1,0.2154781494140625,1.7322049011230467,-11.156979736328124,-0.8015267175572519,0.5801526717557252,-1.3435114503816794
3880755304038,4.653920102,1,0.2262520568847656,1.7106570861816406,-11.173739147949219,-0.8625954198473282,0.5190839694656488,-1.3587786259541985
3880765311538,4.663927602,1,0.21308394775390624,1.7022773803710936,-11.213243475341796,-0.8396946564885496,0.6259541984732825,-1.3053435114503817
3880775311174,4.673927238,1,0.20709844360351562,1.7298106994628906,-11.189301458740234,-0.8091603053435115,0.6106870229007634,-1.2213740458015268
3880785314195,4.683930259,1,0.24779987182617186,1.7334020019531249,-11.202469567871093,-0.8015267175572519,0.4961832061068702,-1.2748091603053435
3880795310913,4.693926977,1,0.23223756103515625,1.7453730102539062,-11.209652172851563,-0.9312977099236641,0.5648854961832062,-1.282442748091603
3880805311070,4.703927134,1,0.1975216369628906,1.7357962036132812,-11.190498559570312,-0.8549618320610687,0.648854961832061,-1.282442748091603
3880815311955,4.713928019,1,0.2154781494140625,1.763329522705078,-11.227608685302734,-0.8854961832061069,0.5801526717557252,-1.2900763358778626
3880825314195,4.723930259,1,0.23702596435546874,1.7310078002929687,-11.208455072021483,-0.8549618320610687,0.5801526717557252,-1.3053435114503817
3880835322893,4.733938957,1,0.2154781494140625,1.7286135986328124,-11.165359442138671,-0.8854961832061069,0.5954198473282443,-1.3282442748091603
3880845315132,4.743931196,1,0.21068974609375,1.725022296142578,-11.174936248779296,-0.8244274809160306,0.6030534351145038,-1.3129770992366412
3880855305705,4.753921769,1,0.24061726684570311,1.7310078002929687,-11.188104357910156,-0.7938931297709924,0.5648854961832062,-1.3053435114503817
3880865408934,4.764024998,1,0.2166752502441406,1.7298106994628906,-11.221623181152344,-0.8015267175572519,0.5190839694656488,-1.3358778625954197
3880875305340,4.773921404,1,0.23343466186523437,1.7298106994628906,-11.177330450439452,-0.8091603053435115,0.5267175572519084,-1.3206106870229009
3880885308361,4.783924425,1,0.2442085693359375,1.7118541870117185,-11.177330450439452,-0.8091603053435115,0.5343511450381679,-1.3511450381679388
3880895304507,4.793920571,1,0.2262520568847656,1.7322049011230467,-11.201272467041015,-0.8244274809160306,0.5572519083969466,-1.297709923664122
3880905306851,4.803922915,1,0.2262520568847656,1.7322049011230467,-11.197681164550781,-0.8778625954198473,0.5343511450381679,-1.2748091603053435
3880915303517,4.813919581,1,0.22505495605468748,1.7118541870117185,-11.18571015625,-0.8091603053435115,0.5419847328244275,-1.2900763358778626
3880925307580,4.823923644,1,0.23343466186523437,1.7298106994628906,-11.194089862060546,-0.8091603053435115,0.5038167938931297,-1.3435114503816794
3880935304559,4.833920623,1,0.2262520568847656,1.7238251953125,-11.168950744628905,-0.8091603053435115,0.5190839694656488,-1.2900763358778626
3880945307215,4.843923279,1,0.24779987182617186,1.7118541870117185,-11.204863769531249,-0.8473282442748091,0.6106870229007634,-1.3053435114503817
3880955303153,4.853919217,1,0.22266075439453123,1.7286135986328124,-11.177330450439452,-0.8702290076335878,0.5877862595419847,-1.282442748091603
3880965307736,4.8639238,1,0.2166752502441406,1.7322049011230467,-11.190498559570312,-0.8244274809160306,0.5725190839694656,-1.2671755725190839
3880975312528,4.873928592,1,0.19393033447265623,1.7214309936523438,-11.206060870361327,-0.816793893129771,0.5343511450381679,-1.2595419847328244
3880985314195,4.883930259,1,0.2154781494140625,1.7214309936523438,-11.17254204711914,-0.8549618320610687,0.5801526717557252,-1.282442748091603
3880995309142,4.893925206,1,0.21308394775390624,1.7393875061035156,-11.177330450439452,-0.8015267175572519,0.5572519083969466,-1.3129770992366412
3881005318934,4.903934998,1,0.21068974609375,1.7405846069335937,-11.177330450439452,-0.8015267175572519,0.5572519083969466,-1.2900763358778626
3881015600549,4.914216613,1,0.23822306518554687,1.7453730102539062,-11.184513055419922,-0.8625954198473282,0.5877862595419847,-1.3129770992366412
3881025313622,4.923929686,1,0.2442085693359375,1.725022296142578,-11.180921752929686,-0.8549618320610687,0.5877862595419847,-1.3511450381679388
3881035312736,4.9339288,1,0.20231004028320312,1.7274164978027342,-11.17254204711914,-0.8320610687022901,0.549618320610687,-1.3435114503816794
3881045310392,4.943926456,1,0.21787235107421873,1.7393875061035156,-11.17852755126953,-0.8549618320610687,0.5877862595419847,-1.282442748091603
3881055311278,4.953927342,1,0.23343466186523437,1.7501614135742187,-11.221623181152344,-0.8473282442748091,0.5725190839694656,-1.297709923664122
3881065310392,4.963926456,1,0.2154781494140625,1.7238251953125,-11.19169566040039,-0.8473282442748091,0.5877862595419847,-1.251908396946565
3881075306695,4.973922759,1,0.2154781494140625,1.7178396911621092,-11.176133349609374,-0.8091603053435115,0.5725190839694656,-1.251908396946565
3881085308986,4.98392505,1,0.258573779296875,1.7214309936523438,-11.179724652099608,-0.8473282442748091,0.6106870229007634,-1.3206106870229009
3881095304611,4.993920675,1,0.229843359375,1.7238251953125,-11.204863769531249,-0.8396946564885496,0.6106870229007634,-1.3511450381679388
3881105304455,5.003920519,1,0.2262520568847656,1.715445489501953,-11.17852755126953,-0.8854961832061069,0.6030534351145038,-1.3053435114503817
3881115304559,5.013920623,1,0.19871873779296872,1.7465701110839842,-11.154585534667968,-0.8244274809160306,0.5954198473282443,-1.297709923664122
3881125308569,5.023924633,1,0.2442085693359375,1.7405846069335937,-11.167753643798827,-0.8549618320610687,0.5801526717557252,-1.3053435114503817
3881135304715,5.033920779,1,0.239420166015625,1.734599102783203,-11.19169566040039,-0.8244274809160306,0.5954198473282443,-1.3435114503816794
3881145304090,5.043920154,1,0.22385785522460935,1.7214309936523438,-11.186907257080078,-0.8549618320610687,0.5877862595419847,-1.3358778625954197
3881155305028,5.053921092,1,0.23104046020507812,1.7298106994628906,-11.200075366210937,-0.8625954198473282,0.5190839694656488,-1.3206106870229009
3881165308049,5.063924113,1,0.24061726684570311,1.725022296142578,-11.158176837158203,-0.8244274809160306,0.5801526717557252,-1.3053435114503817
3881175313413,5.073929477,1,0.23104046020507812,1.7369933044433592,-11.194089862060546,-0.816793893129771,0.5954198473282443,-1.3511450381679388
3881185311017,5.083927081,1,0.21906945190429686,1.7405846069335937,-11.184513055419922,-0.8091603053435115,0.5725190839694656,-1.3511450381679388
3881195311330,5.093927394,1,0.20949264526367187,1.7286135986328124,-11.162965240478515,-0.8091603053435115,0.5801526717557252,-1.3358778625954197
3881205310288,5.103926352,1,0.21188684692382811,1.7322049011230467,-11.136629022216797,-0.8244274809160306,0.6717557251908397,-1.3435114503816794
3881215310340,5.113926404,1,0.24061726684570311,1.725022296142578,-11.194089862060546,-0.8549618320610687,0.5877862595419847,-1.3435114503816794
3881225310705,5.123926769,1,0.23582886352539062,1.7262193969726563,-11.183315954589844,-0.8473282442748091,0.549618320610687,-1.3053435114503817
3881235311694,5.133927758,1,0.2214636535644531,1.7178396911621092,-11.202469567871093,-0.816793893129771,0.4961832061068702,-1.2900763358778626
3881245310080,5.143926144,1,0.20470424194335937,1.7477672119140624,-11.188104357910156,-0.8396946564885496,0.5267175572519084,-1.282442748091603
3881255310757,5.153926821,1,0.23223756103515625,1.7369933044433592,-11.194089862060546,-0.8778625954198473,0.6335877862595419,-1.297709923664122
3881265318205,5.163934269,1,0.22026655273437498,1.7453730102539062,-11.188104357910156,-0.8854961832061069,0.6259541984732825,-1.3053435114503817
3881275305236,5.1739213,1,0.23582886352539062,1.744175909423828,-11.201272467041015,-0.8473282442748091,0.5954198473282443,-1.3282442748091603
3881285305288,5.183921352,1,0.22385785522460935,1.714248388671875,-11.19169566040039,-0.8091603053435115,0.6412213740458015,-1.297709923664122
3881295314351,5.193930415,1,0.22864625854492185,1.705868682861328,-11.18571015625,-0.8091603053435115,0.5572519083969466,-1.3053435114503817
3881305308309,5.203924373,1,0.22864625854492185,1.7190367919921874,-11.196484063720703,-0.8625954198473282,0.5648854961832062,-1.3282442748091603
3881315301122,5.213917186,1,0.2166752502441406,1.734599102783203,-11.171344946289063,-0.8244274809160306,0.5343511450381679,-1.3358778625954197
3881325304871,5.223920935,1,0.22505495605468748,1.7453730102539062,-11.215637677001952,-0.8549618320610687,0.5877862595419847,-1.3129770992366412
3881335302476,5.23391854,1,0.2154781494140625,1.7585411193847655,-11.238382592773437,-0.8015267175572519,0.5877862595419847,-1.3053435114503817
3881345304924,5.243920988,1,0.23223756103515625,1.7453730102539062,-11.19887826538086,-0.8778625954198473,0.5877862595419847,-1.3282442748091603
3881355301642,5.253917706,1,0.23702596435546874,1.7334020019531249,-11.177330450439452,-0.8320610687022901,0.5877862595419847,-1.3053435114503817
3881365313049,5.263929113,1,0.22505495605468748,1.734599102783203,-11.165359442138671,-0.8396946564885496,0.6030534351145038,-1.3206106870229009
3881375312788,5.273928852,1,0.2166752502441406,1.7322049011230467,-11.218031878662108,-0.8396946564885496,0.5954198473282443,-1.282442748091603
3881385318101,5.283934165,1,0.1975216369628906,1.7226280944824217,-11.215637677001952,-0.8396946564885496,0.6183206106870229,-1.3282442748091603
3881395310340,5.293926404,1,0.239420166015625,1.7166425903320313,-11.220426080322264,-0.7786259541984732,0.5954198473282443,-1.3129770992366412
3881405312163,5.303928227,1,0.2346317626953125,1.7166425903320313,-11.177330450439452,-0.8320610687022901,0.5190839694656488,-1.3282442748091603
3881415308153,5.313924217,1,0.22744915771484372,1.70467158203125,-11.19169566040039,-0.8320610687022901,0.5343511450381679,-1.3053435114503817
3881425310444,5.323926508,1,0.23104046020507812,1.725022296142578,-11.201272467041015,-0.8854961832061069,0.5954198473282443,-1.3358778625954197
3881435308413,5.333924477,1,0.21068974609375,1.714248388671875,-11.164162341308593,-0.8396946564885496,0.5419847328244275,-1.3129770992366412
3881445312528,5.343928592,1,0.19512743530273435,1.7190367919921874,-11.145008728027342,-0.8702290076335878,0.5572519083969466,-1.3282442748091603
3881455308205,5.353924269,1,0.2454056701660156,1.7166425903320313,-11.208455072021483,-0.8854961832061069,0.5801526717557252,-1.3435114503816794
3881465313257,5.363929321,1,0.2262520568847656,1.734599102783203,-11.171344946289063,-0.8244274809160306,0.6030534351145038,-1.3129770992366412
3881475309090,5.373925154,1,0.23343466186523437,1.7417817077636717,-11.17254204711914,-0.7938931297709924,0.549618320610687,-1.3053435114503817
3881485312007,5.383928071,1,0.24779987182617186,1.7405846069335937,-11.197681164550781,-0.8549618320610687,0.5648854961832062,-1.3435114503816794
3881495308361,5.393924425,1,0.2454056701660156,1.7429788085937499,-11.196484063720703,-0.8091603053435115,0.5419847328244275,-1.3206106870229009
3881505313986,5.40393005,1,0.22026655273437498,1.7381904052734374,-11.180921752929686,-0.8549618320610687,0.5954198473282443,-1.2900763358778626
3881515308101,5.413924165,1,0.2262520568847656,1.734599102783203,-11.177330450439452,-0.8931297709923665,0.6183206106870229,-1.3206106870229009
3881525312319,5.423928383,1,0.2262520568847656,1.7322049011230467,-11.231199987792968,-0.8396946564885496,0.6183206106870229,-1.3435114503816794
3881535308413,5.433924477,1,0.20350714111328125,1.7393875061035156,-11.206060870361327,-0.816793893129771,0.549618320610687,-1.3053435114503817
3881545311955,5.443928019,1,0.21308394775390624,1.7118541870117185,-11.136629022216797,-0.8244274809160306,0.5801526717557252,-1.3282442748091603
3881555308309,5.453924373,1,0.20350714111328125,1.7214309936523438,-11.180921752929686,-0.8320610687022901,0.5877862595419847,-1.3129770992366412
3881565311434,5.463927498,1,0.2166752502441406,1.7298106994628906,-11.179724652099608,-0.8320610687022901,0.5038167938931297,-1.3358778625954197
3881575307319,5.473923383,1,0.20709844360351562,1.7310078002929687,-11.188104357910156,-0.8244274809160306,0.5877862595419847,-1.297709923664122
3881585311798,5.483927862,1,0.2262520568847656,1.725022296142578,-11.146205828857422,-0.8244274809160306,0.6106870229007634,-1.2595419847328244
3881595307319,5.493923383,1,0.21068974609375,1.7214309936523438,-11.173739147949219,-0.7862595419847328,0.5419847328244275,-1.2900763358778626
3881605312580,5.503928644,1,0.21188684692382811,1.7226280944824217,-11.215637677001952,-0.8015267175572519,0.5190839694656488,-1.366412213740458
3881615308726,5.51392479,1,0.22744915771484372,1.7262193969726563,-11.183315954589844,-0.7938931297709924,0.5801526717557252,-1.3511450381679388
3881625312736,5.5239288,1,0.22864625854492185,1.7274164978027342,-11.131840618896483,-0.816793893129771,0.5954198473282443,-1.3511450381679388
3881635308153,5.533924217,1,0.24181436767578124,1.7453730102539062,-11.18571015625,-0.8396946564885496,0.5419847328244275,-1.3587786259541985
3881645310705,5.543926769,1,0.2154781494140625,1.7238251953125,-11.206060870361327,-0.8320610687022901,0.549618320610687,-1.3587786259541985
3881655307892,5.553923956,1,0.1975216369628906,1.7262193969726563,-11.200075366210937,-0.8549618320610687,0.648854961832061,-1.381679389312977
3881665312163,5.563928227,1,0.22744915771484372,1.7322049011230467,-11.183315954589844,-0.816793893129771,0.6030534351145038,-1.381679389312977
3881675309455,5.573925519,1,0.22026655273437498,1.7513585144042967,-11.182118853759764,-0.8473282442748091,0.5725190839694656,-1.3358778625954197
3881685310861,5.583926925,1,0.21308394775390624,1.715445489501953,-11.166556542968749,-0.7633587786259542,0.6335877862595419,-1.3129770992366412
3881695308517,5.593924581,1,0.20350714111328125,1.7381904052734374,-11.21683477783203,-0.8091603053435115,0.5801526717557252,-1.2442748091603053
3881705311330,5.603927394,1,0.2537853759765625,1.7429788085937499,-11.168950744628905,-0.8091603053435115,0.5725190839694656,-1.3129770992366412
3881715307528,5.613923592,1,0.22505495605468748,1.7381904052734374,-11.165359442138671,-0.8320610687022901,0.5190839694656488,-1.282442748091603
3881725311121,5.623927185,1,0.2262520568847656,1.7405846069335937,-11.203666668701171,-0.8625954198473282,0.6335877862595419,-1.3435114503816794
3881735308621,5.633924685,1,0.19512743530273435,1.7178396911621092,-11.180921752929686,-0.8854961832061069,0.5419847328244275,-1.3282442748091603
3881745311851,5.643927915,1,0.24061726684570311,1.7094599853515624,-11.186907257080078,-0.8549618320610687,0.5954198473282443,-1.3129770992366412
3881755307632,5.653923696,1,0.2442085693359375,1.7238251953125,-11.164162341308593,-0.8320610687022901,0.5648854961832062,-1.3358778625954197
3881765312632,5.663928696,1,0.23223756103515625,1.7178396911621092,-11.200075366210937,-0.816793893129771,0.5877862595419847,-1.3435114503816794
3881775309246,5.67392531,1,0.2214636535644531,1.7274164978027342,-11.164162341308593,-0.816793893129771,0.5725190839694656,-1.3053435114503817
3881785312580,5.683928644,1,0.20470424194335937,1.7334020019531249,-11.213243475341796,-0.9465648854961832,0.5801526717557252,-1.2900763358778626
3881795308309,5.693924373,1,0.21308394775390624,1.7573440185546874,-11.215637677001952,-0.8320610687022901,0.5419847328244275,-1.3206106870229009
3881805312059,5.703928123,1,0.2214636535644531,1.6986860778808592,-11.212046374511718,-0.8244274809160306,0.5877862595419847,-1.3511450381679388
3881815307111,5.713923175,1,0.2262520568847656,1.725022296142578,-11.18571015625,-0.8244274809160306,0.6183206106870229,-1.3129770992366412
3881825314038,5.723930102,1,0.22505495605468748,1.6986860778808592,-11.195286962890624,-0.816793893129771,0.6412213740458015,-1.3740458015267176
3881835307371,5.733923435,1,0.23104046020507812,1.7010802795410156,-11.164162341308593,-0.816793893129771,0.6106870229007634,-1.3435114503816794
3881845312215,5.743928279,1,0.20829554443359374,1.7334020019531249,-11.207257971191405,-0.8396946564885496,0.549618320610687,-1.3129770992366412
3881855311538,5.753927602,1,0.21188684692382811,1.7262193969726563,-11.161768139648437,-0.816793893129771,0.5267175572519084,-1.297709923664122
3881865312892,5.763928956,1,0.2214636535644531,1.7310078002929687,-11.194089862060546,-0.8778625954198473,0.5877862595419847,-1.282442748091603
3881875309038,5.773925102,1,0.2537853759765625,1.734599102783203,-11.19887826538086,-0.8091603053435115,0.5877862595419847,-1.3511450381679388
3881885311850,5.783927914,1,0.22026655273437498,1.705868682861328,-11.174936248779296,-0.7480916030534351,0.6412213740458015,-1.3053435114503817
3881895310548,5.793926612,1,0.20949264526367187,1.7429788085937499,-11.19169566040039,-0.7557251908396947,0.5801526717557252,-1.3206106870229009
3881905313569,5.803929633,1,0.19393033447265623,1.734599102783203,-11.226411584472656,-0.816793893129771,0.6183206106870229,-1.3053435114503817
3881915307996,5.81392406,1,0.2442085693359375,1.7477672119140624,-11.19169566040039,-0.7862595419847328,0.5954198473282443,-1.3435114503816794
3881925312319,5.823928383,1,0.2214636535644531,1.7369933044433592,-11.196484063720703,-0.8702290076335878,0.6183206106870229,-1.3511450381679388
3881935318205,5.833934269,1,0.2262520568847656,1.7322049011230467,-11.173739147949219,-0.8702290076335878,0.549618320610687,-1.3129770992366412
3881945310705,5.843926769,1,0.21308394775390624,1.7381904052734374,-11.203666668701171,-0.8549618320610687,0.549618320610687,-1.297709923664122
3881955308153,5.853924217,1,0.23223756103515625,1.7106570861816406,-11.190498559570312,-0.7862595419847328,0.5419847328244275,-1.3358778625954197
3881965310236,5.8639263,1,0.2166752502441406,1.7357962036132812,-11.13423482055664,-0.8091603053435115,0.5725190839694656,-1.3053435114503817
3881975309142,5.873925206,1,0.23223756103515625,1.7262193969726563,-11.128249316406249,-0.8396946564885496,0.5190839694656488,-1.366412213740458
3881985312423,5.883928487,1,0.23702596435546874,1.7369933044433592,-11.231199987792968,-0.916030534351145,0.5343511450381679,-1.3129770992366412
3881995307944,5.893924008,1,0.2262520568847656,1.734599102783203,-11.184513055419922,-0.8625954198473282,0.549618320610687,-1.3053435114503817
3882005312580,5.903928644,1,0.21188684692382811,1.7525556152343749,-11.17254204711914,-0.8396946564885496,0.5801526717557252,-1.3511450381679388
3882015306434,5.913922498,1,0.21308394775390624,1.7322049011230467,-11.180921752929686,-0.816793893129771,0.5801526717557252,-1.3435114503816794
3882025312423,5.923928487,1,0.20949264526367187,1.7465701110839842,-11.232397088623046,-0.8244274809160306,0.6412213740458015,-1.3129770992366412
3882035308882,5.933924946,1,0.21308394775390624,1.7166425903320313,-11.207257971191405,-0.8015267175572519,0.5954198473282443,-1.366412213740458
3882045308830,5.943924894,1,0.20829554443359374,1.7405846069335937,-11.180921752929686,-0.7938931297709924,0.5267175572519084,-1.3053435114503817
3882055308986,5.95392505,1,0.22266075439453123,1.7274164978027342,-11.180921752929686,-0.7938931297709924,0.5877862595419847,-1.3282442748091603
3882065312423,5.963928487,1,0.1975216369628906,1.7214309936523438,-11.206060870361327,-0.7938931297709924,0.5954198473282443,-1.3587786259541985
3882075308673,5.973924737,1,0.22385785522460935,1.7381904052734374,-11.2240173828125,-0.7938931297709924,0.5419847328244275,-1.3511450381679388
3882085314298,5.983930362,1,0.23702596435546874,1.7357962036132812,-11.2240173828125,-0.8091603053435115,0.5648854961832062,-1.3282442748091603
3882095307840,5.993923904,1,0.22026655273437498,1.734599102783203,-11.200075366210937,-0.8091603053435115,0.549618320610687,-1.282442748091603
3882105311955,6.003928019,1,0.22385785522460935,1.7274164978027342,-11.330559356689452,-0.8702290076335878,0.5419847328244275,-1.2595419847328244
3882115308569,6.013924633,1,0.23582886352539062,1.7286135986328124,-11.05762036743164,-0.8549618320610687,0.5725190839694656,-1.3282442748091603
3882125311017,6.023927081,1,0.2454056701660156,1.7489643127441405,-11.202469567871093,-0.8091603053435115,0.6030534351145038,-1.2900763358778626
3882135308205,6.033924269,1,0.21906945190429686,1.7274164978027342,-11.221623181152344,-0.8320610687022901,0.5725190839694656,-1.3358778625954197
3882145311850,6.043927914,1,0.23223756103515625,1.7369933044433592,-11.329362255859374,-0.8091603053435115,0.5419847328244275,-1.3206106870229009
3882155306955,6.053923019,1,0.22864625854492185,1.744175909423828,-11.051634863281249,-0.8549618320610687,0.6030534351145038,-1.3282442748091603
3882165315288,6.063931352,1,0.22266075439453123,1.7357962036132812,-11.318588348388671,-0.816793893129771,0.5877862595419847,-1.297709923664122
3882175310600,6.073926664,1,0.2262520568847656,1.7465701110839842,-11.040860955810546,-0.8854961832061069,0.6183206106870229,-1.3206106870229009
3882185309038,6.083925102,1,0.21787235107421873,1.7286135986328124,-11.203666668701171,-0.8320610687022901,0.6030534351145038,-1.3129770992366412
3882195308100,6.093924164,1,0.201112939453125,1.7298106994628906,-11.307814440917968,-0.8625954198473282,0.648854961832061,-1.3282442748091603
3882205312215,6.103928279,1,0.22026655273437498,1.7166425903320313,-11.042058056640624,-0.816793893129771,0.6106870229007634,-1.2900763358778626
3882215307736,6.1139238,1,0.24181436767578124,1.696291876220703,-11.323376751708985,-0.8702290076335878,0.5801526717557252,-1.3358778625954197
3882225317475,6.123933539,1,0.2154781494140625,1.7286135986328124,-11.049240661621093,-0.8244274809160306,0.5648854961832062,-1.3358778625954197
3882235308986,6.13392505,1,0.23343466186523437,1.7310078002929687,-11.21683477783203,-0.8396946564885496,0.5725190839694656,-1.3206106870229009
3882245310496,6.14392656,1,0.201112939453125,1.7286135986328124,-11.200075366210937,-0.7938931297709924,0.5572519083969466,-1.3129770992366412
3882255308204,6.153924268,1,0.22505495605468748,1.695094775390625,-11.192892761230468,-0.8320610687022901,0.6106870229007634,-1.297709923664122
3882265311798,6.163927862,1,0.21188684692382811,1.7022773803710936,-11.203666668701171,-0.8091603053435115,0.6183206106870229,-1.3282442748091603
3882275316902,6.173932966,1,0.21428104858398436,1.707065783691406,-11.219228979492186,-0.8091603053435115,0.6030534351145038,-1.3282442748091603
3882285312632,6.183928696,1,0.2166752502441406,1.7262193969726563,-11.21084927368164,-0.8244274809160306,0.5648854961832062,-1.3129770992366412
3882295308725,6.193924789,1,0.21308394775390624,1.7405846069335937,-11.184513055419922,-0.8396946564885496,0.6030534351145038,-1.3435114503816794
3882305312267,6.203928331,1,0.22266075439453123,1.7286135986328124,-11.159373937988281,-0.8320610687022901,0.5572519083969466,-1.297709923664122
3882315308048,6.213924112,1,0.23104046020507812,1.7322049011230467,-11.19169566040039,-0.8625954198473282,0.6183206106870229,-1.3206106870229009
3882325313048,6.223929112,1,0.23822306518554687,1.7585411193847655,-11.173739147949219,-0.8244274809160306,0.5572519083969466,-1.3206106870229009
3882335307059,6.233923123,1,0.2549824768066406,1.7501614135742187,-11.183315954589844,-0.8854961832061069,0.5725190839694656,-1.3206106870229009
3882345307579,6.243923643,1,0.22864625854492185,1.7322049011230467,-11.204863769531249,-0.816793893129771,0.5877862595419847,-1.282442748091603
3882355307996,6.25392406,1,0.23822306518554687,1.734599102783203,-11.176133349609374,-0.8091603053435115,0.5572519083969466,-1.3358778625954197
3882365312527,6.263928591,1,0.23104046020507812,1.7561469177246092,-11.23000288696289,-0.8091603053435115,0.5725190839694656,-1.3511450381679388
3882375309246,6.27392531,1,0.23822306518554687,1.7465701110839842,-11.226411584472656,-0.8473282442748091,0.6259541984732825,-1.297709923664122
3882385312007,6.283928071,1,0.24779987182617186,1.6903063720703124,-11.196484063720703,-0.7709923664122137,0.6106870229007634,-1.3053435114503817
3882395307527,6.293923591,1,0.23223756103515625,1.7274164978027342,-11.215637677001952,-0.8473282442748091,0.6335877862595419,-1.3435114503816794
3882405311850,6.303927914,1,0.22505495605468748,1.725022296142578,-11.190498559570312,-0.7938931297709924,0.5954198473282443,-1.3282442748091603
3882415308673,6.313924737,1,0.23702596435546874,1.744175909423828,-11.167753643798827,-0.8854961832061069,0.6259541984732825,-1.3206106870229009
3882425311642,6.323927706,1,0.22744915771484372,1.7262193969726563,-11.192892761230468,-0.816793893129771,0.5801526717557252,-1.3435114503816794
3882435308413,6.333924477,1,0.19153613281249998,1.7405846069335937,-11.220426080322264,-0.8931297709923665,0.5877862595419847,-1.2900763358778626
3882445311798,6.343927862,1,0.22026655273437498,1.7573440185546874,-11.129446417236327,-0.8244274809160306,0.5648854961832062,-1.2748091603053435
3882455308309,6.353924373,1,0.20829554443359374,1.7477672119140624,-11.166556542968749,-0.8778625954198473,0.549618320610687,-1.3129770992366412
3882465313204,6.363929268,1,0.22385785522460935,1.7477672119140624,-11.182118853759764,-0.7709923664122137,0.5190839694656488,-1.3053435114503817
3882475309402,6.373925466,1,0.1975216369628906,1.7597382202148437,-11.183315954589844,-0.8473282442748091,0.5419847328244275,-1.3129770992366412
3882485312059,6.383928123,1,0.21068974609375,1.7561469177246092,-11.180921752929686,-0.8473282442748091,0.549618320610687,-1.3053435114503817
3882495309298,6.393925362,1,0.22385785522460935,1.7429788085937499,-11.174936248779296,-0.8320610687022901,0.5419847328244275,-1.3435114503816794
3882505312319,6.403928383,1,0.2214636535644531,1.7501614135742187,-11.170147845458983,-0.7709923664122137,0.5343511450381679,-1.3435114503816794
3882515305444,6.413921508,1,0.19512743530273435,1.7381904052734374,-11.17852755126953,-0.8091603053435115,0.5572519083969466,-1.3282442748091603
3882525309611,6.423925675,1,0.2262520568847656,1.7166425903320313,-11.194089862060546,-0.7633587786259542,0.5725190839694656,-1.2595419847328244
3882535308517,6.433924581,1,0.22266075439453123,1.7262193969726563,-11.15338843383789,-0.8396946564885496,0.5725190839694656,-1.2900763358778626
3882545311017,6.443927081,1,0.22744915771484372,1.7513585144042967,-11.231199987792968,-0.8320610687022901,0.6335877862595419,-1.282442748091603
3882555308517,6.453924581,1,0.23822306518554687,1.7465701110839842,-11.222820281982422,-0.8625954198473282,0.5648854961832062,-1.3435114503816794
3882565313204,6.463929268,1,0.2059013427734375,1.7202338928222656,-11.209652172851563,-0.8396946564885496,0.5801526717557252,-1.3511450381679388
3882575309142,6.473925206,1,0.2597708801269531,1.734599102783203,-11.184513055419922,-0.8549618320610687,0.5801526717557252,-1.3358778625954197
3882585312267,6.483928331,1,0.25737667846679685,1.7262193969726563,-11.18571015625,-0.8473282442748091,0.5725190839694656,-1.3282442748091603
3882595308673,6.493924737,1,0.20231004028320312,1.7178396911621092,-11.182118853759764,-0.8244274809160306,0.5572519083969466,-1.2900763358778626
3882605311694,6.503927758,1,0.21068974609375,1.7262193969726563,-11.196484063720703,-0.8625954198473282,0.6259541984732825,-1.3282442748091603
3882615306017,6.513922081,1,0.2442085693359375,1.7429788085937499,-11.17254204711914,-0.8473282442748091,0.5648854961832062,-1.2748091603053435
3882625312111,6.523928175,1,0.2059013427734375,1.7274164978027342,-11.186907257080078,-0.8931297709923665,0.6259541984732825,-1.3282442748091603
3882635307319,6.533923383,1,0.24899697265624998,1.7298106994628906,-11.194089862060546,-0.8931297709923665,0.5877862595419847,-1.3053435114503817
3882645312058,6.543928122,1,0.23822306518554687,1.7609353210449217,-11.214440576171874,-0.8702290076335878,0.6030534351145038,-1.3053435114503817
3882655307892,6.553923956,1,0.23582886352539062,1.7405846069335937,-11.232397088623046,-0.8015267175572519,0.5114503816793893,-1.3053435114503817
3882665310965,6.563927029,1,0.229843359375,1.7310078002929687,-11.208455072021483,-0.8396946564885496,0.5648854961832062,-1.297709923664122
3882675352423,6.573968487,1,0.2059013427734375,1.7262193969726563,-11.184513055419922,-0.7938931297709924,0.4961832061068702,-1.282442748091603
3882685312371,6.583928435,1,0.2166752502441406,1.7286135986328124,-11.197681164550781,-0.7938931297709924,0.5114503816793893,-1.3511450381679388
3882695306798,6.593922862,1,0.22864625854492185,1.7130512878417967,-11.207257971191405,-0.8091603053435115,0.5343511450381679,-1.3358778625954197
3882705312683,6.603928747,1,0.21428104858398436,1.7357962036132812,-11.200075366210937,-0.8473282442748091,0.6335877862595419,-1.3358778625954197
3882715307840,6.613923904,1,0.2214636535644531,1.744175909423828,-11.188104357910156,-0.8396946564885496,0.5648854961832062,-1.3435114503816794
3882725313986,6.62393005,1,0.23104046020507812,1.725022296142578,-11.15338843383789,-0.8702290076335878,0.5954198473282443,-1.3053435114503817
3882735310861,6.633926925,1,0.22385785522460935,1.7334020019531249,-11.165359442138671,-0.8625954198473282,0.5877862595419847,-1.3511450381679388
3882745313725,6.643929789,1,0.24301146850585936,1.7477672119140624,-11.184513055419922,-0.8320610687022901,0.6183206106870229,-1.3053435114503817
3882755307423,6.653923487,1,0.24181436767578124,1.7190367919921874,-11.182118853759764,-0.7557251908396947,0.5725190839694656,-1.3053435114503817
3882765311694,6.663927758,1,0.21308394775390624,1.7262193969726563,-11.218031878662108,-0.8778625954198473,0.6030534351145038,-1.2748091603053435
3882775354506,6.67397057,1,0.22505495605468748,1.7310078002929687,-11.184513055419922,-0.8091603053435115,0.5877862595419847,-1.2595419847328244
3882785312163,6.683928227,1,0.21428104858398436,1.7130512878417967,-11.182118853759764,-0.8396946564885496,0.5343511450381679,-1.3358778625954197
3882795306902,6.693922966,1,0.23104046020507812,1.7286135986328124,-11.208455072021483,-0.8549618320610687,0.5419847328244275,-1.3206106870229009
3882805319454,6.703935518,1,0.24181436767578124,1.734599102783203,-11.171344946289063,-0.916030534351145,0.549618320610687,-1.3435114503816794
3882815308100,6.713924164,1,0.22505495605468748,1.7214309936523438,-11.2240173828125,-0.816793893129771,0.5572519083969466,-1.3206106870229009
3882825311746,6.72392781,1,0.23104046020507812,1.7334020019531249,-11.189301458740234,-0.8473282442748091,0.6335877862595419,-1.3358778625954197
3882835314923,6.733930987,1,0.1867477294921875,1.7334020019531249,-11.159373937988281,-0.7862595419847328,0.5725190839694656,-1.3206106870229009
3882845310131,6.743926195,1,0.1867477294921875,1.7298106994628906,-11.195286962890624,-0.8396946564885496,0.5877862595419847,-1.3511450381679388
3882855308725,6.753924789,1,0.20350714111328125,1.7238251953125,-11.189301458740234,-0.8015267175572519,0.5190839694656488,-1.3129770992366412
3882865311277,6.763927341,1,0.2501940734863281,1.7465701110839842,-11.196484063720703,-0.7862595419847328,0.5801526717557252,-1.2900763358778626
3882875308204,6.773924268,1,0.24660277099609373,1.7202338928222656,-11.2240173828125,-0.8015267175572519,0.5343511450381679,-1.3129770992366412
3882885312996,6.78392906,1,0.2059013427734375,1.7465701110839842,-11.177330450439452,-0.8473282442748091,0.5343511450381679,-1.3358778625954197
3882895307267,6.793923331,1,0.19512743530273435,1.7178396911621092,-11.212046374511718,-0.8320610687022901,0.5038167938931297,-1.3587786259541985
3882905311485,6.803927549,1,0.21787235107421873,1.7286135986328124,-11.208455072021483,-0.8320610687022901,0.5190839694656488,-1.3893129770992367
3882915308048,6.813924112,1,0.23223756103515625,1.7357962036132812,-11.21084927368164,-0.7557251908396947,0.5038167938931297,-1.3282442748091603
3882925311381,6.823927445,1,0.21787235107421873,1.7262193969726563,-11.180921752929686,-0.7938931297709924,0.549618320610687,-1.3129770992366412
3882935307631,6.833923695,1,0.2454056701660156,1.7453730102539062,-11.214440576171874,-0.7938931297709924,0.5267175572519084,-1.2900763358778626
3882945311850,6.843927914,1,0.19991583862304688,1.7393875061035156,-11.222820281982422,-0.8778625954198473,0.6030534351145038,-1.3129770992366412
3882955307735,6.853923799,1,0.2214636535644531,1.725022296142578,-11.165359442138671,-0.7938931297709924,0.5801526717557252,-1.3206106870229009
3882965311694,6.863927758,1,0.21428104858398436,1.697488977050781,-11.166556542968749,-0.8549618320610687,0.5190839694656488,-1.3282442748091603
3882975308465,6.873924529,1,0.1975216369628906,1.7286135986328124,-11.203666668701171,-0.816793893129771,0.5038167938931297,-1.3206106870229009
3882985312579,6.883928643,1,0.22864625854492185,1.744175909423828,-11.207257971191405,-0.8473282442748091,0.6335877862595419,-1.3358778625954197
3882995307579,6.893923643,1,0.229843359375,1.734599102783203,-11.164162341308593,-0.8396946564885496,0.6030534351145038,-1.3053435114503817
3883005311173,6.903927237,1,0.23223756103515625,1.7190367919921874,-11.168950744628905,-0.8320610687022901,0.5343511450381679,-1.2748091603053435
3883015307058,6.913923122,1,0.20829554443359374,1.7130512878417967,-11.18571015625,-0.7938931297709924,0.5267175572519084,-1.2748091603053435
3883025311902,6.923927966,1,0.21308394775390624,1.763329522705078,-11.176133349609374,-0.8396946564885496,0.5190839694656488,-1.3129770992366412
3883035307840,6.933923904,1,0.23702596435546874,1.7298106994628906,-11.197681164550781,-0.7633587786259542,0.5725190839694656,-1.3511450381679388
3883045309038,6.943925102,1,0.21308394775390624,1.7190367919921874,-11.155782635498046,-0.8320610687022901,0.5648854961832062,-1.3129770992366412
3883055307371,6.953923435,1,0.2166752502441406,1.7298106994628906,-11.143811627197264,-0.816793893129771,0.5877862595419847,-1.366412213740458
3883065311485,6.963927549,1,0.22744915771484372,1.7106570861816406,-11.177330450439452,-0.8244274809160306,0.6030534351145038,-1.2900763358778626
3883075308569,6.973924633,1,0.20949264526367187,1.7381904052734374,-11.218031878662108,-0.8091603053435115,0.549618320610687,-1.3206106870229009
3883085310079,6.983926143,1,0.21428104858398436,1.7310078002929687,-11.215637677001952,-0.8320610687022901,0.5877862595419847,-1.366412213740458
3883095308517,6.993924581,1,0.22266075439453123,1.7369933044433592,-11.196484063720703,-0.8244274809160306,0.6259541984732825,-1.366412213740458
3883105311433,7.003927497,1,0.25737667846679685,1.7298106994628906,-11.166556542968749,-0.8396946564885496,0.5954198473282443,-1.3358778625954197
3883115307423,7.013923487,1,0.2537853759765625,1.7190367919921874,-11.183315954589844,-0.8320610687022901,0.5648854961832062,-1.282442748091603
3883125312996,7.02392906,1,0.24660277099609373,1.7369933044433592,-11.194089862060546,-0.8702290076335878,0.5648854961832062,-1.2900763358778626
3883135307996,7.03392406,1,0.23104046020507812,1.7369933044433592,-11.190498559570312,-0.8473282442748091,0.6030534351145038,-1.3053435114503817
3883145312475,7.043928539,1,0.25139117431640623,1.7190367919921874,-11.204863769531249,-0.8244274809160306,0.6335877862595419,-1.3435114503816794
3883155307631,7.053923695,1,0.2442085693359375,1.7130512878417967,-11.176133349609374,-0.816793893129771,0.5954198473282443,-1.3206106870229009
3883165310548,7.063926612,1,0.23582886352539062,1.7274164978027342,-11.218031878662108,-0.8091603053435115,0.549618320610687,-1.3053435114503817
3883175307423,7.073923487,1,0.22864625854492185,1.715445489501953,-11.203666668701171,-0.8244274809160306,0.5725190839694656,-1.3358778625954197
3883185313048,7.083929112,1,0.21068974609375,1.7357962036132812,-11.17254204711914,-0.8396946564885496,0.549618320610687,-1.3282442748091603
3883195308621,7.093924685,1,0.2442085693359375,1.705868682861328,-11.182118853759764,-0.8244274809160306,0.5725190839694656,-1.3511450381679388
3883205311746,7.10392781,1,0.22744915771484372,1.7166425903320313,-11.16057103881836,-0.8244274809160306,0.5648854961832062,-1.297709923664122
3883215307735,7.113923799,1,0.22744915771484372,1.7381904052734374,-11.19887826538086,-0.8320610687022901,0.6259541984732825,-1.3053435114503817
3883225312162,7.123928226,1,0.24660277099609373,1.7429788085937499,-11.19887826538086,-0.7938931297709924,0.6183206106870229,-1.3282442748091603
3883235307683,7.133923747,1,0.20829554443359374,1.734599102783203,-11.225214483642578,-0.8396946564885496,0.6030534351145038,-1.3740458015267176
3883245311017,7.143927081,1,0.22864625854492185,1.7334020019531249,-11.180921752929686,-0.7633587786259542,0.5801526717557252,-1.3053435114503817
3883255307162,7.153923226,1,0.239420166015625,1.7357962036132812,-11.182118853759764,-0.8396946564885496,0.6030534351145038,-1.2900763358778626
3883265311954,7.163928018,1,0.239420166015625,1.7286135986328124,-11.149797131347656,-0.816793893129771,0.5038167938931297,-1.2900763358778626
3883275308048,7.173924112,1,0.19991583862304688,1.725022296142578,-11.142614526367186,-0.8396946564885496,0.5801526717557252,-1.3129770992366412
3883285312631,7.183928695,1,0.21906945190429686,1.7357962036132812,-11.174936248779296,-0.8549618320610687,0.5038167938931297,-1.3206106870229009
3883295311537,7.193927601,1,0.2537853759765625,1.7417817077636717,-11.177330450439452,-0.8473282442748091,0.6106870229007634,-1.3358778625954197
3883305312162,7.203928226,1,0.21906945190429686,1.7286135986328124,-11.180921752929686,-0.8320610687022901,0.5725190839694656,-1.3206106870229009
3883315308673,7.213924737,1,0.25258827514648435,1.744175909423828,-11.171344946289063,-0.8854961832061069,0.5954198473282443,-1.3511450381679388
3883325307631,7.223923695,1,0.22385785522460935,1.7214309936523438,-11.194089862060546,-0.8320610687022901,0.5725190839694656,-1.3587786259541985
3883335308412,7.233924476,1,0.23343466186523437,1.7513585144042967,-11.219228979492186,-0.8473282442748091,0.5954198473282443,-1.282442748091603
3883345312110,7.243928174,1,0.2166752502441406,1.7262193969726563,-11.154585534667968,-0.7786259541984732,0.5419847328244275,-1.3206106870229009
3883355308048,7.253924112,1,0.20829554443359374,1.7513585144042967,-11.189301458740234,-0.7709923664122137,0.648854961832061,-1.3206106870229009
3883365311329,7.263927393,1,0.2262520568847656,1.7298106994628906,-11.220426080322264,-0.7633587786259542,0.6106870229007634,-1.3511450381679388
3883375312944,7.273929008,1,0.2214636535644531,1.7429788085937499,-11.174936248779296,-0.8244274809160306,0.5877862595419847,-1.3206106870229009
3883385322631,7.283938695,1,0.21188684692382811,1.7262193969726563,-11.183315954589844,-0.8244274809160306,0.6106870229007634,-1.3358778625954197
3883395308048,7.293924112,1,0.2166752502441406,1.714248388671875,-11.19169566040039,-0.8625954198473282,0.6259541984732825,-1.282442748091603
3883405311225,7.303927289,1,0.19512743530273435,1.714248388671875,-11.150994232177734,-0.8015267175572519,0.5190839694656488,-1.282442748091603
3883415307267,7.313923331,1,0.19871873779296872,1.7322049011230467,-11.182118853759764,-0.8320610687022901,0.5725190839694656,-1.3129770992366412
3883425310704,7.323926768,1,0.20231004028320312,1.705868682861328,-11.173739147949219,-0.8015267175572519,0.6183206106870229,-1.3053435114503817
3883435307006,7.33392307,1,0.21428104858398436,1.7753005310058592,-11.189301458740234,-0.8625954198473282,0.5648854961832062,-1.2748091603053435
3883445312267,7.343928331,1,0.2154781494140625,1.7405846069335937,-11.17852755126953,-0.8396946564885496,0.5114503816793893,-1.3358778625954197
3883455307267,7.353923331,1,0.20231004028320312,1.7238251953125,-11.150994232177734,-0.9007633587786259,0.549618320610687,-1.3282442748091603
3883465313048,7.363929112,1,0.22026655273437498,1.7226280944824217,-11.197681164550781,-0.8549618320610687,0.5572519083969466,-1.3129770992366412
3883475307319,7.373923383,1,0.229843359375,1.7130512878417967,-11.218031878662108,-0.8702290076335878,0.5572519083969466,-1.3358778625954197
3883485311798,7.383927862,1,0.23702596435546874,1.7226280944824217,-11.202469567871093,-0.8015267175572519,0.5572519083969466,-1.3358778625954197
3883495306746,7.39392281,1,0.2454056701660156,1.7477672119140624,-11.203666668701171,-0.8778625954198473,0.5954198473282443,-1.3206106870229009
3883505311694,7.403927758,1,0.19991583862304688,1.7298106994628906,-11.194089862060546,-0.8854961832061069,0.6106870229007634,-1.3358778625954197
3883515307423,7.413923487,1,0.22744915771484372,1.7166425903320313,-11.154585534667968,-0.8625954198473282,0.5801526717557252,-1.3129770992366412
3883525311225,7.423927289,1,0.21068974609375,1.714248388671875,-11.194089862060546,-0.8854961832061069,0.6335877862595419,-1.3282442748091603
3883535308412,7.433924476,1,0.22026655273437498,1.7417817077636717,-11.188104357910156,-0.8625954198473282,0.6106870229007634,-1.282442748091603
3883545312214,7.443928278,1,0.21308394775390624,1.7286135986328124,-11.188104357910156,-0.8015267175572519,0.5954198473282443,-1.3358778625954197
3883555309923,7.453925987,1,0.21308394775390624,1.7525556152343749,-11.161768139648437,-0.8625954198473282,0.5648854961832062,-1.2671755725190839
3883565311433,7.463927497,1,0.21906945190429686,1.7130512878417967,-11.179724652099608,-0.8244274809160306,0.5877862595419847,-1.2900763358778626
3883575306641,7.473922705,1,0.24181436767578124,1.7334020019531249,-11.213243475341796,-0.8244274809160306,0.5801526717557252,-1.2671755725190839
3883585308360,7.483924424,1,0.2561795776367187,1.7082628845214842,-11.225214483642578,-0.8244274809160306,0.5801526717557252,-1.2595419847328244
3883595307371,7.493923435,1,0.19632453613281248,1.7274164978027342,-11.225214483642578,-0.8702290076335878,0.5572519083969466,-1.2900763358778626
3883605311173,7.503927237,1,0.18914193115234373,1.7381904052734374,-11.170147845458983,-0.8320610687022901,0.6183206106870229,-1.3358778625954197
3883615308100,7.513924164,1,0.239420166015625,1.7166425903320313,-11.173739147949219,-0.8396946564885496,0.5725190839694656,-1.3053435114503817
3883625311589,7.523927653,1,0.2346317626953125,1.7322049011230467,-11.190498559570312,-0.8549618320610687,0.5877862595419847,-1.3358778625954197
3883635308100,7.533924164,1,0.2645592834472656,1.7322049011230467,-11.21683477783203,-0.8091603053435115,0.5725190839694656,-1.3053435114503817
3883645312266,7.54392833,1,0.2166752502441406,1.7262193969726563,-11.192892761230468,-0.8778625954198473,0.6030534351145038,-1.3435114503816794
3883655305131,7.553921195,1,0.21308394775390624,1.7465701110839842,-11.176133349609374,-0.7709923664122137,0.5419847328244275,-1.3435114503816794
3883665310964,7.563927028,1,0.23343466186523437,1.7334020019531249,-11.214440576171874,-0.8091603053435115,0.6183206106870229,-1.3282442748091603
3883675307579,7.573923643,1,0.23104046020507812,1.7262193969726563,-11.190498559570312,-0.816793893129771,0.5801526717557252,-1.3282442748091603
3883685312475,7.583928539,1,0.21188684692382811,1.7381904052734374,-11.192892761230468,-0.8244274809160306,0.549618320610687,-1.3129770992366412
3883695307006,7.59392307,1,0.2166752502441406,1.7417817077636717,-11.196484063720703,-0.8473282442748091,0.5801526717557252,-1.3129770992366412
3883705312735,7.603928799,1,0.2262520568847656,1.7298106994628906,-11.176133349609374,-0.8473282442748091,0.5801526717557252,-1.3435114503816794
3883715308152,7.613924216,1,0.2166752502441406,1.7298106994628906,-11.190498559570312,-0.8091603053435115,0.5954198473282443,-1.3282442748091603
3883725311277,7.623927341,1,0.24181436767578124,1.7477672119140624,-11.180921752929686,-0.8320610687022901,0.6183206106870229,-1.3282442748091603
3883735307787,7.633923851,1,0.23104046020507812,1.715445489501953,-11.179724652099608,-0.7633587786259542,0.5877862595419847,-1.381679389312977
3883745311954,7.643928018,1,0.2214636535644531,1.7393875061035156,-11.203666668701171,-0.8702290076335878,0.6183206106870229,-1.3358778625954197
3883755307891,7.653923955,1,0.2262520568847656,1.7298106994628906,-11.173739147949219,-0.8473282442748091,0.549618320610687,-1.3358778625954197
3883765313152,7.663929216,1,0.229843359375,1.744175909423828,-11.206060870361327,-0.8244274809160306,0.5648854961832062,-1.3206106870229009
3883775308204,7.673924268,1,0.20231004028320312,1.697488977050781,-11.170147845458983,-0.8549618320610687,0.5419847328244275,-1.2748091603053435
3883785312475,7.683928539,1,0.21188684692382811,1.7190367919921874,-11.192892761230468,-0.8778625954198473,0.5648854961832062,-1.3511450381679388
3883795307631,7.693923695,1,0.25258827514648435,1.7202338928222656,-11.196484063720703,-0.8549618320610687,0.5419847328244275,-1.2900763358778626
3883805311277,7.703927341,1,0.20709844360351562,1.7190367919921874,-11.214440576171874,-0.8549618320610687,0.5954198473282443,-1.3053435114503817
3883815307266,7.71392333,1,0.22505495605468748,1.70467158203125,-11.21084927368164,-0.8320610687022901,0.5725190839694656,-1.3435114503816794
3883825312162,7.723928226,1,0.22505495605468748,1.7477672119140624,-11.186907257080078,-0.8549618320610687,0.5725190839694656,-1.3435114503816794
3883835308360,7.733924424,1,0.2346317626953125,1.7489643127441405,-11.18571015625,-0.8320610687022901,0.5801526717557252,-1.3053435114503817
3883845311485,7.743927549,1,0.23223756103515625,1.7262193969726563,-11.19169566040039,-0.9083969465648855,0.6030534351145038,-1.297709923664122
3883855311277,7.753927341,1,0.24181436767578124,1.7417817077636717,-11.221623181152344,-0.8320610687022901,0.5419847328244275,-1.3587786259541985
3883865312475,7.763928539,1,0.229843359375,1.7322049011230467,-11.192892761230468,-0.9007633587786259,0.5725190839694656,-1.3358778625954197
3883875310443,7.773926507,1,0.23822306518554687,1.70467158203125,-11.17254204711914,-0.816793893129771,0.5801526717557252,-1.3511450381679388
3883885311433,7.783927497,1,0.23104046020507812,1.7214309936523438,-11.155782635498046,-0.8854961832061069,0.5801526717557252,-1.2671755725190839
3883895307006,7.79392307,1,0.21787235107421873,1.7262193969726563,-11.180921752929686,-0.8244274809160306,0.549618320610687,-1.3206106870229009
3883905310808,7.803926872,1,0.2154781494140625,1.7417817077636717,-11.16057103881836,-0.8473282442748091,0.5954198473282443,-1.3587786259541985
3883915307943,7.813924007,1,0.24061726684570311,1.7549498168945312,-11.149797131347656,-0.816793893129771,0.549618320610687,-1.381679389312977
3883925312735,7.823928799,1,0.24181436767578124,1.7334020019531249,-11.212046374511718,-0.8854961832061069,0.6106870229007634,-1.2900763358778626
3883935316850,7.833932914,1,0.21787235107421873,1.7513585144042967,-11.204863769531249,-0.8091603053435115,0.5877862595419847,-1.3053435114503817
3883945320183,7.843936247,1,0.23343466186523437,1.7202338928222656,-11.225214483642578,-0.8854961832061069,0.6106870229007634,-1.3358778625954197
3883955308568,7.853924632,1,0.2501940734863281,1.7453730102539062,-11.180921752929686,-0.7862595419847328,0.5267175572519084,-1.3129770992366412
3883965310443,7.863926507,1,0.21308394775390624,1.753752716064453,-11.188104357910156,-0.7862595419847328,0.6030534351145038,-1.3206106870229009
3883975308100,7.873924164,1,0.21308394775390624,1.744175909423828,-11.192892761230468,-0.7938931297709924,0.5572519083969466,-1.3129770992366412
3883985313256,7.88392932,1,0.22744915771484372,1.715445489501953,-11.188104357910156,-0.8473282442748091,0.5648854961832062,-1.3053435114503817
3883995307787,7.893923851,1,0.201112939453125,1.7310078002929687,-11.17852755126953,-0.7938931297709924,0.6259541984732825,-1.3206106870229009
3884005311641,7.903927705,1,0.22026655273437498,1.753752716064453,-11.155782635498046,-0.7938931297709924,0.5572519083969466,-1.3435114503816794
3884015307995,7.913924059,1,0.22505495605468748,1.7214309936523438,-11.200075366210937,-0.7557251908396947,0.5343511450381679,-1.3358778625954197
3884025312006,7.92392807,1,0.23822306518554687,1.7226280944824217,-11.167753643798827,-0.7786259541984732,0.5648854961832062,-1.3282442748091603
3884035307943,7.933924007,1,0.20709844360351562,1.7322049011230467,-11.174936248779296,-0.7633587786259542,0.5954198473282443,-1.3206106870229009
3884045311173,7.943927237,1,0.22026655273437498,1.7405846069335937,-11.148600030517578,-0.8625954198473282,0.5648854961832062,-1.3206106870229009
3884055307058,7.953923122,1,0.20709844360351562,1.715445489501953,-11.186907257080078,-0.8320610687022901,0.5954198473282443,-1.3282442748091603
3884065312266,7.96392833,1,0.2059013427734375,1.7357962036132812,-11.202469567871093,-0.8549618320610687,0.5725190839694656,-1.2671755725190839
3884075308777,7.973924841,1,0.24301146850585936,1.7238251953125,-11.200075366210937,-0.7938931297709924,0.5801526717557252,-1.3740458015267176
3884085312995,7.983929059,1,0.21787235107421873,1.707065783691406,-11.174936248779296,-0.8091603053435115,0.6106870229007634,-1.3435114503816794
3884095309245,7.993925309,1,0.25258827514648435,1.7585411193847655,-11.201272467041015,-0.8320610687022901,0.6335877862595419,-1.3129770992366412
3884105313152,8.003929216,1,0.22744915771484372,1.734599102783203,-11.183315954589844,-0.8549618320610687,0.6183206106870229,-1.3358778625954197
3884115307214,8.013923278,1,0.22026655273437498,1.7298106994628906,-11.154585534667968,-0.8091603053435115,0.5954198473282443,-1.3129770992366412
3884125310495,8.023926559,1,0.2214636535644531,1.7274164978027342,-11.219228979492186,-0.8091603053435115,0.5572519083969466,-1.3053435114503817
3884135307631,8.033923695,1,0.21428104858398436,1.7274164978027342,-11.158176837158203,-0.8396946564885496,0.6030534351145038,-1.3282442748091603
3884145311850,8.043927914,1,0.22864625854492185,1.715445489501953,-11.161768139648437,-0.8473282442748091,0.5572519083969466,-1.2595419847328244
3884155308568,8.053924632,1,0.23702596435546874,1.714248388671875,-11.19169566040039,-0.8625954198473282,0.6259541984732825,-1.2595419847328244
3884165311693,8.063927757,1,0.2154781494140625,1.715445489501953,-11.21084927368164,-0.8473282442748091,0.4961832061068702,-1.3053435114503817
3884175312527,8.073928591,1,0.23104046020507812,1.7453730102539062,-11.161768139648437,-0.7938931297709924,0.5419847328244275,-1.2900763358778626
3884185313152,8.083929216,1,0.24181436767578124,1.7310078002929687,-11.158176837158203,-0.816793893129771,0.5725190839694656,-1.2900763358778626
3884195307787,8.093923851,1,0.22266075439453123,1.7274164978027342,-11.182118853759764,-0.7633587786259542,0.5801526717557252,-1.3435114503816794
3884205311693,8.103927757,1,0.2154781494140625,1.7513585144042967,-11.190498559570312,-0.8320610687022901,0.5648854961832062,-1.3129770992366412
3884215308672,8.113924736,1,0.23223756103515625,1.7298106994628906,-11.244368096923827,-0.8320610687022901,0.6717557251908397,-1.3587786259541985
3884225308100,8.123924164,1,0.2154781494140625,1.7238251953125,-11.2240173828125,-0.8015267175572519,0.5954198473282443,-1.282442748091603
3884235313985,8.133930049,1,0.22266075439453123,1.7357962036132812,-11.195286962890624,-0.8320610687022901,0.5419847328244275,-1.2671755725190839
3884245311745,8.143927809,1,0.2262520568847656,1.7226280944824217,-11.167753643798827,-0.7862595419847328,0.5877862595419847,-1.3358778625954197
3884255308308,8.153924372,1,0.22385785522460935,1.7453730102539062,-11.158176837158203,-0.8091603053435115,0.6335877862595419,-1.3206106870229009
3884265310495,8.163926559,1,0.21906945190429686,1.7405846069335937,-11.194089862060546,-0.8396946564885496,0.5267175572519084,-1.3358778625954197
3884275308412,8.173924476,1,0.23582886352539062,1.744175909423828,-11.190498559570312,-0.9312977099236641,0.6183206106870229,-1.3053435114503817
3884285314037,8.183930101,1,0.23223756103515625,1.7022773803710936,-11.17254204711914,-0.8244274809160306,0.5572519083969466,-1.3206106870229009
3884295309037,8.193925101,1,0.21787235107421873,1.7274164978027342,-11.19887826538086,-0.8625954198473282,0.5419847328244275,-1.3053435114503817
3884305312891,8.203928955,1,0.22505495605468748,1.7322049011230467,-11.206060870361327,-0.7709923664122137,0.5343511450381679,-1.3587786259541985
3884315308308,8.213924372,1,0.23702596435546874,1.7489643127441405,-11.12226381225586,-0.8549618320610687,0.6183206106870229,-1.3129770992366412
3884325312995,8.223929059,1,0.23343466186523437,1.7405846069335937,-11.155782635498046,-0.7862595419847328,0.5648854961832062,-1.3206106870229009
3884335307735,8.233923799,1,0.22505495605468748,1.7298106994628906,-11.155782635498046,-0.8625954198473282,0.6259541984732825,-1.3129770992366412
3884345311797,8.243927861,1,0.22266075439453123,1.7417817077636717,-11.204863769531249,-0.7938931297709924,0.5419847328244275,-1.3053435114503817
3884355309089,8.253925153,1,0.22385785522460935,1.7381904052734374,-11.186907257080078,-0.8931297709923665,0.5877862595419847,-1.2900763358778626
3884365311016,8.26392708,1,0.239420166015625,1.7190367919921874,-11.159373937988281,-0.816793893129771,0.5343511450381679,-1.297709923664122
3884375308516,8.27392458,1,0.23104046020507812,1.744175909423828,-11.194089862060546,-0.8549618320610687,0.6106870229007634,-1.3129770992366412
3884385313777,8.283929841,1,0.23582886352539062,1.7226280944824217,-11.207257971191405,-0.7862595419847328,0.549618320610687,-1.2748091603053435
3884395308152,8.293924216,1,0.22744915771484372,1.7417817077636717,-11.19169566040039,-0.8702290076335878,0.5801526717557252,-1.2900763358778626
3884405312474,8.303928538,1,0.22266075439453123,1.7393875061035156,-11.190498559570312,-0.7786259541984732,0.5572519083969466,-1.282442748091603
3884415307474,8.313923538,1,0.24899697265624998,1.7298106994628906,-11.219228979492186,-0.8854961832061069,0.5572519083969466,-1.3282442748091603
3884425311849,8.323927913,1,0.24899697265624998,1.7238251953125,-11.203666668701171,-0.8396946564885496,0.6564885496183206,-1.3435114503816794
3884435307318,8.333923382,1,0.23822306518554687,1.70467158203125,-11.201272467041015,-0.8320610687022901,0.6259541984732825,-1.3358778625954197
3884445312214,8.343928278,1,0.23582886352539062,1.7477672119140624,-11.183315954589844,-0.8091603053435115,0.5877862595419847,-1.297709923664122
3884455307839,8.353923903,1,0.2059013427734375,1.734599102783203,-11.186907257080078,-0.8396946564885496,0.5954198473282443,-1.3129770992366412
3884465312318,8.363928382,1,0.20829554443359374,1.7082628845214842,-11.202469567871093,-0.816793893129771,0.549618320610687,-1.3358778625954197
3884475309141,8.373925205,1,0.2501940734863281,1.7118541870117185,-11.174936248779296,-0.8396946564885496,0.5038167938931297,-1.2595419847328244
3884485311485,8.383927549,1,0.2442085693359375,1.7429788085937499,-11.184513055419922,-0.7938931297709924,0.5419847328244275,-1.3129770992366412
3884495307839,8.393923903,1,0.20949264526367187,1.7381904052734374,-11.23000288696289,-0.8625954198473282,0.5648854961832062,-1.3129770992366412
3884505312474,8.403928538,1,0.23223756103515625,1.7357962036132812,-11.18571015625,-0.8244274809160306,0.549618320610687,-1.3282442748091603
3884515308568,8.413924632,1,0.22744915771484372,1.7369933044433592,-11.155782635498046,-0.8320610687022901,0.5877862595419847,-1.3282442748091603
3884525311589,8.423927653,1,0.19153613281249998,1.7226280944824217,-11.189301458740234,-0.8244274809160306,0.5343511450381679,-1.282442748091603
3884535306954,8.433923018,1,0.21188684692382811,1.7214309936523438,-11.17254204711914,-0.8549618320610687,0.5572519083969466,-1.297709923664122
3884545312006,8.44392807,1,0.201112939453125,1.744175909423828,-11.21683477783203,-0.8320610687022901,0.5877862595419847,-1.297709923664122
3884555307474,8.453923538,1,0.24660277099609373,1.7489643127441405,-11.19169566040039,-0.8549618320610687,0.6106870229007634,-1.297709923664122
