timestamp_ns,t_s,sensor_id,ax,ay,az,gx,gy,gz
3876277464821,0.176080885,2,7.97388862915039,5.738901379394531,0.6931213806152343,-1.7099236641221374,0.3282442748091603,-1.6030534351145038
3876287431644,0.186047708,2,8.135497241210937,5.741295581054687,0.7338228088378905,-1.717557251908397,0.22137404580152673,-1.5648854961832062
3876297252269,0.195868333,2,8.135497241210937,5.7137622619628905,0.7254431030273437,-1.7633587786259541,0.2748091603053435,-1.5725190839694656
3876307222061,0.205838125,2,8.134300140380859,5.754463690185546,0.7386112121582031,-1.748091603053435,0.2595419847328244,-1.5648854961832062
3876317223103,0.215839167,2,8.12711753540039,5.755660791015624,0.718260498046875,-1.7099236641221374,0.3053435114503817,-1.5725190839694656
3876327228467,0.225844531,2,8.111555224609374,5.7508723876953125,0.7637503295898437,-1.7557251908396947,0.2595419847328244,-1.6106870229007633
3876337227634,0.235843698,2,8.111555224609374,5.754463690185546,0.7170633972167968,-1.717557251908397,0.2595419847328244,-1.5572519083969465
3876347222686,0.24583875,2,8.118737829589843,5.741295581054687,0.729034405517578,-1.786259541984733,0.19083969465648856,-1.5038167938931297
3876357222009,0.255838073,2,8.136694342041014,5.743689782714843,0.7158662963867187,-1.748091603053435,0.22900763358778625,-1.549618320610687
3876367221228,0.265837292,2,8.10197841796875,5.781997009277344,0.7433996154785156,-1.7099236641221374,0.21374045801526717,-1.5954198473282444
3876377224665,0.275840729,2,8.122329132080077,5.754463690185546,0.7541735229492187,-1.7786259541984732,0.17557251908396945,-1.5954198473282444
3876387230498,0.285846562,2,8.259995727539062,5.7700260009765625,0.7062894897460937,-1.7709923664122138,0.20610687022900764,-1.618320610687023
3876397229665,0.295845729,2,8.104372619628906,5.7508723876953125,0.7350199096679687,-1.7633587786259541,0.24427480916030533,-1.5877862595419847
3876407227009,0.305843073,2,8.116343627929687,5.744886883544922,0.7517793212890624,-1.717557251908397,0.2824427480916031,-1.618320610687023
3876417240394,0.315856458,2,7.970297326660156,5.735310076904296,0.7266402038574218,-1.717557251908397,0.29770992366412213,-1.549618320610687
3876427228363,0.325844427,2,8.137891442871092,5.746083984375,0.7326257080078125,-1.786259541984733,0.24427480916030533,-1.6488549618320612
3876437224769,0.335840833,2,8.273163836669921,5.7520694885253905,0.6931213806152343,-1.7404580152671756,0.24427480916030533,-1.6412213740458015
3876447222478,0.345838542,2,7.982268334960937,5.753266589355468,0.7026981872558593,-1.7251908396946565,0.21374045801526717,-1.5725190839694656
3876457249144,0.355865208,2,8.136694342041014,5.738901379394531,0.7266402038574218,-1.7404580152671756,0.183206106870229,-1.6030534351145038
3876467225967,0.365842031,2,8.141482745361328,5.734112976074218,0.7386112121582031,-1.7251908396946565,0.2595419847328244,-1.5648854961832062
3876477226436,0.3758425,2,8.112752325439452,5.7508723876953125,0.7218518005371093,-1.717557251908397,0.20610687022900764,-1.5648854961832062
3876487229717,0.385845781,2,8.12113203125,5.748478186035156,0.7146691955566405,-1.717557251908397,0.2748091603053435,-1.5572519083969465
3876497221175,0.395837239,2,8.104372619628906,5.755660791015624,0.7158662963867187,-1.717557251908397,0.24427480916030533,-1.5572519083969465
3876507222321,0.405838385,2,8.109161022949218,5.741295581054687,0.70868369140625,-1.717557251908397,0.29770992366412213,-1.633587786259542
3876517224665,0.415840729,2,8.086416107177733,5.756857891845703,0.7218518005371093,-1.7786259541984732,0.2824427480916031,-1.5877862595419847
3876527222790,0.425838854,2,8.105569720458984,5.728127471923828,0.7781155395507812,-1.717557251908397,0.2900763358778626,-1.5801526717557253
3876537220811,0.435836875,2,8.113949426269532,5.728127471923828,0.7481880187988281,-1.748091603053435,0.2748091603053435,-1.5954198473282444
3876547225759,0.445841823,2,8.145074047851562,5.7508723876953125,0.7589619262695312,-1.7328244274809161,0.2900763358778626,-1.5954198473282444
3876557225498,0.455841562,2,8.119934930419921,5.7700260009765625,0.7505822204589844,-1.7328244274809161,0.25190839694656486,-1.5648854961832062
3876567231696,0.46584776,2,8.105569720458984,5.729324572753906,0.7266402038574218,-1.7709923664122138,0.2900763358778626,-1.5954198473282444
3876577222061,0.475838125,2,8.104372619628906,5.781997009277344,0.7338228088378905,-1.702290076335878,0.1984732824427481,-1.5877862595419847
3876587227269,0.485843333,2,8.106766821289062,5.778405706787109,0.7362170104980469,-1.7251908396946565,0.1984732824427481,-1.5877862595419847
3876597221748,0.495837812,2,8.111555224609374,5.761646295166015,0.7422025146484375,-1.7633587786259541,0.21374045801526717,-1.6106870229007633
3876607220030,0.505836094,2,8.093598712158203,5.738901379394531,0.7493851196289062,-1.7633587786259541,0.24427480916030533,-1.6106870229007633
3876617232373,0.515848437,2,8.103175518798828,5.718550665283203,0.7110778930664062,-1.786259541984733,0.1297709923664122,-1.5801526717557253
3876627222321,0.525838385,2,8.11514652709961,5.761646295166015,0.7589619262695312,-1.7557251908396947,0.2595419847328244,-1.5572519083969465
3876637196748,0.535812812,2,8.097190014648437,5.778405706787109,0.7218518005371093,-1.717557251908397,0.20610687022900764,-1.5419847328244274
3876647232113,0.545848177,2,8.112752325439452,5.7329158752441405,0.718260498046875,-1.7709923664122138,0.2595419847328244,-1.5648854961832062
3876657229457,0.555845521,2,8.10796392211914,5.741295581054687,0.6871358764648438,-1.748091603053435,0.22137404580152673,-1.5954198473282444
3876667185134,0.565801198,2,8.116343627929687,5.776011505126953,0.6871358764648438,-1.7938931297709924,0.2900763358778626,-1.6030534351145038
3876677228102,0.575844166,2,8.129511737060547,5.7508723876953125,0.7146691955566405,-1.786259541984733,0.13740458015267176,-1.6106870229007633
3876687225446,0.58584151,2,8.135497241210937,5.725733270263672,0.70868369140625,-1.748091603053435,0.29770992366412213,-1.633587786259542
3876697201696,0.59581776,2,8.105569720458984,5.734112976074218,0.718260498046875,-1.7328244274809161,0.20610687022900764,-1.5801526717557253
3876707225655,0.605841719,2,8.109161022949218,5.722141967773437,0.70868369140625,-1.7251908396946565,0.24427480916030533,-1.5648854961832062
3876717227009,0.615843073,2,8.135497241210937,5.72693037109375,0.718260498046875,-1.6793893129770991,0.22137404580152673,-1.6106870229007633
3876727221800,0.625837864,2,8.136694342041014,5.728127471923828,0.7146691955566405,-1.748091603053435,0.2824427480916031,-1.549618320610687
3876737220654,0.635836718,2,8.131905938720703,5.754463690185546,0.689530078125,-1.7709923664122138,0.22137404580152673,-1.6488549618320612
3876747253259,0.645869323,2,8.141482745361328,5.756857891845703,0.7362170104980469,-1.748091603053435,0.22900763358778625,-1.5954198473282444
3876757221436,0.6558375,2,8.110358123779296,5.748478186035156,0.737414111328125,-1.748091603053435,0.2366412213740458,-1.6030534351145038
3876767232217,0.665848281,2,8.116343627929687,5.761646295166015,0.7625532287597656,-1.7404580152671756,0.25190839694656486,-1.6412213740458015
3876777228102,0.675844166,2,8.105569720458984,5.7520694885253905,0.7864952453613281,-1.717557251908397,0.22137404580152673,-1.5877862595419847
3876787225134,0.685841198,2,8.109161022949218,5.744886883544922,0.7709329345703124,-1.7557251908396947,0.2366412213740458,-1.6106870229007633
3876797225238,0.695841302,2,8.093598712158203,5.756857891845703,0.7230489013671875,-1.717557251908397,0.20610687022900764,-1.5572519083969465
3876807227686,0.70584375,2,8.08881030883789,5.741295581054687,0.7242460021972655,-1.7938931297709924,0.2900763358778626,-1.5877862595419847
3876817226436,0.7158425,2,8.130708837890625,5.749675286865234,0.7445967163085937,-1.8015267175572518,0.2595419847328244,-1.618320610687023
3876827228988,0.725845052,2,8.125920434570313,5.7508723876953125,0.7206546997070312,-1.8015267175572518,0.25190839694656486,-1.5190839694656488
3876837345134,0.735961198,2,8.145074047851562,5.749675286865234,0.7170633972167968,-1.8091603053435115,0.22137404580152673,-1.6030534351145038
3876847237477,0.745853541,2,8.116343627929687,5.7317187744140625,0.737414111328125,-1.7404580152671756,0.19083969465648856,-1.6106870229007633
3876857242529,0.755858593,2,8.118737829589843,5.7508723876953125,0.7314286071777343,-1.748091603053435,0.1984732824427481,-1.6488549618320612
3876867227321,0.765843385,2,8.093598712158203,5.744886883544922,0.7637503295898437,-1.748091603053435,0.1984732824427481,-1.6106870229007633
3876877221279,0.775837343,2,8.099584216308592,5.761646295166015,0.6907271789550781,-1.748091603053435,0.22900763358778625,-1.6106870229007633
3876887179925,0.785795989,2,8.122329132080077,5.760449194335937,0.7625532287597656,-1.748091603053435,0.26717557251908397,-1.6030534351145038
3876897225811,0.795841875,2,8.117540728759765,5.729324572753906,0.7038952880859375,-1.7938931297709924,0.26717557251908397,-1.5801526717557253
3876907227738,0.805843802,2,8.113949426269532,5.762843395996094,0.7254431030273437,-1.7786259541984732,0.2366412213740458,-1.5877862595419847
3876917228415,0.815844479,2,8.111555224609374,5.753266589355468,0.7158662963867187,-1.7709923664122138,0.22900763358778625,-1.5877862595419847
3876927233675,0.825849739,2,8.12113203125,5.749675286865234,0.7493851196289062,-1.7709923664122138,0.25190839694656486,-1.5648854961832062
3876937226279,0.835842343,2,8.122329132080077,5.753266589355468,0.7529764221191406,-1.816793893129771,0.19083969465648856,-1.618320610687023
3876947223415,0.845839479,2,8.134300140380859,5.735310076904296,0.7122749938964843,-1.7786259541984732,0.22137404580152673,-1.6106870229007633
3876957222269,0.855838333,2,8.098387115478515,5.7508723876953125,0.7026981872558593,-1.7328244274809161,0.2824427480916031,-1.6412213740458015
3876967231748,0.865847812,2,8.109161022949218,5.748478186035156,0.689530078125,-1.7328244274809161,0.16793893129770993,-1.6030534351145038
3876977226644,0.875842708,2,8.08881030883789,5.760449194335937,0.6811503723144531,-1.7404580152671756,0.20610687022900764,-1.6030534351145038
3876987221748,0.885837812,2,8.086416107177733,5.748478186035156,0.7242460021972655,-1.7328244274809161,0.25190839694656486,-1.5801526717557253
3876997224613,0.895840677,2,8.105569720458984,5.749675286865234,0.7134720947265625,-1.7633587786259541,0.2824427480916031,-1.633587786259542
3877007226696,0.90584276,2,8.131905938720703,5.760449194335937,0.7350199096679687,-1.748091603053435,0.22137404580152673,-1.5572519083969465
3877017224404,0.915840468,2,8.128314636230469,5.760449194335937,0.7805097412109374,-1.7557251908396947,0.2900763358778626,-1.6106870229007633
3877027223311,0.925839375,2,8.112752325439452,5.759252093505859,0.737414111328125,-1.7251908396946565,0.2748091603053435,-1.5725190839694656
3877037221331,0.935837395,2,8.098387115478515,5.756857891845703,0.718260498046875,-1.7251908396946565,0.2366412213740458,-1.5877862595419847
3877047222009,0.945838073,2,8.12113203125,5.748478186035156,0.6979097839355468,-1.7099236641221374,0.17557251908396945,-1.5801526717557253
3877057222373,0.955838437,2,8.110358123779296,5.729324572753906,0.7350199096679687,-1.717557251908397,0.25190839694656486,-1.6106870229007633
3877067235029,0.965851093,2,8.112752325439452,5.730521673583984,0.7254431030273437,-1.7633587786259541,0.25190839694656486,-1.5648854961832062
3877077226227,0.975842291,2,8.105569720458984,5.766434698486328,0.7649474304199219,-1.7404580152671756,0.24427480916030533,-1.5954198473282444
3877087222946,0.98583901,2,8.093598712158203,5.741295581054687,0.729034405517578,-1.7786259541984732,0.1984732824427481,-1.5648854961832062
3877097227373,0.995843437,2,8.116343627929687,5.7329158752441405,0.7410054138183594,-1.7938931297709924,0.2824427480916031,-1.5648854961832062
3877107228206,1.00584427,2,8.122329132080077,5.758054992675781,0.719457598876953,-1.7709923664122138,0.16030534351145037,-1.5954198473282444
3877117228311,1.015844375,2,8.129511737060547,5.758054992675781,0.7338228088378905,-1.7786259541984732,0.21374045801526717,-1.5801526717557253
3877127227998,1.025844062,2,8.109161022949218,5.725733270263672,0.6967126831054687,-1.786259541984733,0.17557251908396945,-1.618320610687023
3877137215238,1.035831302,2,8.122329132080077,5.7508723876953125,0.6572083557128906,-1.7709923664122138,0.22900763358778625,-1.6030534351145038
3877147226384,1.045842448,2,8.110358123779296,5.759252093505859,0.70868369140625,-1.7709923664122138,0.1984732824427481,-1.5877862595419847
3877157224769,1.055840833,2,8.098387115478515,5.7700260009765625,0.7422025146484375,-1.7251908396946565,0.2366412213740458,-1.6106870229007633
3877167224665,1.065840729,2,8.105569720458984,5.767631799316406,0.7122749938964843,-1.7633587786259541,0.22137404580152673,-1.5190839694656488
3877177213154,1.075829218,2,8.12113203125,5.7317187744140625,0.7769184387207031,-1.8091603053435115,0.22137404580152673,-1.5572519083969465
3877187229352,1.085845416,2,8.119934930419921,5.754463690185546,0.7302315063476562,-1.7557251908396947,0.19083969465648856,-1.5801526717557253
3877197230081,1.095846145,2,8.112752325439452,5.767631799316406,0.7529764221191406,-1.7328244274809161,0.26717557251908397,-1.6259541984732824
3877207227946,1.10584401,2,8.12711753540039,5.741295581054687,0.7457938171386719,-1.7404580152671756,0.15267175572519084,-1.6030534351145038
3877217232998,1.115849062,2,8.112752325439452,5.7329158752441405,0.709880792236328,-1.7404580152671756,0.22137404580152673,-1.5801526717557253
3877227225967,1.125842031,2,8.129511737060547,5.7329158752441405,0.7026981872558593,-1.702290076335878,0.183206106870229,-1.618320610687023
3877237228988,1.135845052,2,8.08881030883789,5.736507177734374,0.7302315063476562,-1.7633587786259541,0.24427480916030533,-1.618320610687023
3877247224769,1.145840833,2,8.118737829589843,5.736507177734374,0.7062894897460937,-1.7328244274809161,0.25190839694656486,-1.6412213740458015
3877257228102,1.155844166,2,8.122329132080077,5.760449194335937,0.7266402038574218,-1.7786259541984732,0.24427480916030533,-1.5877862595419847
3877267227686,1.16584375,2,8.119934930419921,5.749675286865234,0.6775590698242188,-1.7709923664122138,0.15267175572519084,-1.5725190839694656
3877277223727,1.175839791,2,8.125920434570313,5.766434698486328,0.7541735229492187,-1.7633587786259541,0.2595419847328244,-1.5648854961832062
3877287227373,1.185843437,2,8.09479581298828,5.7520694885253905,0.7505822204589844,-1.8091603053435115,0.20610687022900764,-1.5801526717557253
3877297220186,1.19583625,2,8.104372619628906,5.754463690185546,0.7505822204589844,-1.748091603053435,0.24427480916030533,-1.5954198473282444
3877307224040,1.205840104,2,8.12711753540039,5.7700260009765625,0.7218518005371093,-1.748091603053435,0.21374045801526717,-1.5648854961832062
3877317229352,1.215845416,2,8.119934930419921,5.761646295166015,0.7254431030273437,-1.7557251908396947,0.26717557251908397,-1.633587786259542
3877327227008,1.225843072,2,8.093598712158203,5.742492681884765,0.7350199096679687,-1.786259541984733,0.24427480916030533,-1.5725190839694656
3877337221383,1.235837447,2,8.104372619628906,5.754463690185546,0.7422025146484375,-1.748091603053435,0.2595419847328244,-1.534351145038168
3877347252165,1.245868229,2,8.161833459472655,5.753266589355468,0.7062894897460937,-1.7709923664122138,0.1984732824427481,-1.5954198473282444
3877357225290,1.255841354,2,8.131905938720703,5.756857891845703,0.7553706237792969,-1.702290076335878,0.1984732824427481,-1.618320610687023
3877367227686,1.26584375,2,8.10796392211914,5.754463690185546,0.7278373046875,-1.786259541984733,0.21374045801526717,-1.5801526717557253
3877377223519,1.275839583,2,8.110358123779296,5.738901379394531,0.7709329345703124,-1.7557251908396947,0.22137404580152673,-1.5725190839694656
3877387272738,1.285888802,2,8.12711753540039,5.736507177734374,0.7146691955566405,-1.7633587786259541,0.16030534351145037,-1.6030534351145038
3877397233206,1.29584927,2,8.139088543701172,5.749675286865234,0.7278373046875,-1.6641221374045803,0.2366412213740458,-1.5877862595419847
3877407254873,1.305870937,2,8.111555224609374,5.762843395996094,0.7613561279296874,-1.7633587786259541,0.22137404580152673,-1.5572519083969465
3877417233831,1.315849895,2,8.122329132080077,5.747281085205078,0.7242460021972655,-1.7328244274809161,0.2595419847328244,-1.5572519083969465
3877427236227,1.325852291,2,8.084021905517577,5.760449194335937,0.7457938171386719,-1.7557251908396947,0.2595419847328244,-1.5648854961832062
3877437221592,1.335837656,2,8.109161022949218,5.760449194335937,0.6955155822753906,-1.7328244274809161,0.21374045801526717,-1.6106870229007633
3877447233050,1.345849114,2,8.12711753540039,5.758054992675781,0.7170633972167968,-1.786259541984733,0.19083969465648856,-1.6106870229007633
3877457226123,1.355842187,2,8.119934930419921,5.767631799316406,0.7350199096679687,-1.7786259541984732,0.183206106870229,-1.5725190839694656
3877467229613,1.365845677,2,8.111555224609374,5.754463690185546,0.7110778930664062,-1.7709923664122138,0.22137404580152673,-1.5190839694656488
3877477225238,1.375841302,2,8.097190014648437,5.748478186035156,0.7398083129882812,-1.7404580152671756,0.15267175572519084,-1.5038167938931297
3877487228258,1.385844322,2,8.110358123779296,5.744886883544922,0.6847416748046875,-1.748091603053435,0.2748091603053435,-1.618320610687023
3877497226331,1.395842395,2,8.119934930419921,5.7508723876953125,0.7230489013671875,-1.717557251908397,0.22137404580152673,-1.5801526717557253
3877507223206,1.40583927,2,8.123526232910155,5.755660791015624,0.7302315063476562,-1.7251908396946565,0.2748091603053435,-1.6030534351145038
3877517230394,1.415846458,2,8.122329132080077,5.753266589355468,0.7553706237792969,-1.717557251908397,0.21374045801526717,-1.618320610687023
3877527228571,1.425844635,2,8.105569720458984,5.766434698486328,0.7206546997070312,-1.748091603053435,0.25190839694656486,-1.6030534351145038
3877537220967,1.435837031,2,8.139088543701172,5.773617303466796,0.6919242797851562,-1.7251908396946565,0.24427480916030533,-1.5572519083969465
3877547231852,1.445847916,2,8.14028564453125,5.758054992675781,0.718260498046875,-1.7709923664122138,0.29770992366412213,-1.5801526717557253
3877557226435,1.455842499,2,8.124723333740233,5.748478186035156,0.7326257080078125,-1.7404580152671756,0.22900763358778625,-1.5572519083969465
3877567230081,1.465846145,2,8.111555224609374,5.7317187744140625,0.6763619689941406,-1.7251908396946565,0.26717557251908397,-1.549618320610687
3877577229144,1.475845208,2,8.110358123779296,5.761646295166015,0.7529764221191406,-1.7557251908396947,0.1984732824427481,-1.5877862595419847
3877587224665,1.485840729,2,8.11514652709961,5.76523759765625,0.7422025146484375,-1.7633587786259541,0.2748091603053435,-1.6564885496183206
3877597268467,1.495884531,2,8.130708837890625,5.734112976074218,0.7110778930664062,-1.7251908396946565,0.19083969465648856,-1.6564885496183206
3877607306071,1.505922135,2,8.095992913818359,5.725733270263672,0.7302315063476562,-1.7557251908396947,0.2900763358778626,-1.618320610687023
3877617239248,1.515855312,2,8.13310303955078,5.735310076904296,0.7433996154785156,-1.7709923664122138,0.2366412213740458,-1.618320610687023
3877627224821,1.525840885,2,8.093598712158203,5.762843395996094,0.7350199096679687,-1.748091603053435,0.2748091603053435,-1.5954198473282444
3877637231800,1.535847864,2,8.104372619628906,5.741295581054687,0.6931213806152343,-1.7709923664122138,0.15267175572519084,-1.618320610687023
3877647228258,1.545844322,2,8.111555224609374,5.746083984375,0.7074865905761718,-1.7251908396946565,0.2900763358778626,-1.5801526717557253
3877657224248,1.555840312,2,8.111555224609374,5.725733270263672,0.7398083129882812,-1.7633587786259541,0.25190839694656486,-1.5725190839694656
3877667227790,1.565843854,2,8.125920434570313,5.772420202636718,0.7386112121582031,-1.717557251908397,0.2366412213740458,-1.618320610687023
3877677228883,1.575844947,2,8.103175518798828,5.734112976074218,0.7050923889160156,-1.702290076335878,0.16793893129770993,-1.5801526717557253
3877687227529,1.585843593,2,8.10197841796875,5.746083984375,0.7805097412109374,-1.7251908396946565,0.3053435114503817,-1.5877862595419847
3877697236331,1.595852395,2,8.118737829589843,5.758054992675781,0.729034405517578,-1.7709923664122138,0.25190839694656486,-1.6259541984732824
3877707228310,1.605844374,2,8.13310303955078,5.778405706787109,0.7445967163085937,-1.6946564885496183,0.33587786259541985,-1.5725190839694656
3877717222477,1.615838541,2,8.103175518798828,5.736507177734374,0.7338228088378905,-1.7404580152671756,0.19083969465648856,-1.5648854961832062
3877727231800,1.625847864,2,8.125920434570313,5.748478186035156,0.7362170104980469,-1.7633587786259541,0.31297709923664124,-1.618320610687023
3877737227112,1.635843176,2,8.12113203125,5.754463690185546,0.7026981872558593,-1.7404580152671756,0.15267175572519084,-1.5648854961832062
3877747225654,1.645841718,2,8.12113203125,5.72693037109375,0.7338228088378905,-1.7328244274809161,0.21374045801526717,-1.618320610687023
3877757223935,1.655839999,2,8.099584216308592,5.72693037109375,0.719457598876953,-1.748091603053435,0.12213740458015267,-1.6259541984732824
3877767231800,1.665847864,2,8.098387115478515,5.724536169433593,0.7266402038574218,-1.6946564885496183,0.22137404580152673,-1.6106870229007633
3877777222581,1.675838645,2,8.100781317138672,5.767631799316406,0.719457598876953,-1.7404580152671756,0.22137404580152673,-1.6030534351145038
3877787225498,1.685841562,2,8.131905938720703,5.744886883544922,0.7362170104980469,-1.748091603053435,0.3282442748091603,-1.5572519083969465
3877797202217,1.695818281,2,8.105569720458984,5.725733270263672,0.7170633972167968,-1.7633587786259541,0.22900763358778625,-1.5725190839694656
3877807232633,1.705848697,2,8.134300140380859,5.761646295166015,0.7146691955566405,-1.748091603053435,0.2748091603053435,-1.5725190839694656
3877817227946,1.71584401,2,8.10796392211914,5.735310076904296,0.7709329345703124,-1.7557251908396947,0.22137404580152673,-1.5648854961832062
3877827222060,1.725838124,2,8.110358123779296,5.760449194335937,0.7457938171386719,-1.7557251908396947,0.2824427480916031,-1.5801526717557253
3877837220862,1.735836926,2,8.11514652709961,5.766434698486328,0.7170633972167968,-1.7786259541984732,0.25190839694656486,-1.6030534351145038
3877847223987,1.745840051,2,8.122329132080077,5.774814404296874,0.7398083129882812,-1.7938931297709924,0.26717557251908397,-1.5954198473282444
3877857224508,1.755840572,2,8.103175518798828,5.759252093505859,0.6979097839355468,-1.7633587786259541,0.2900763358778626,-1.5725190839694656
3877867233831,1.765849895,2,8.100781317138672,5.734112976074218,0.7062894897460937,-1.8091603053435115,0.2366412213740458,-1.6488549618320612
3877877201904,1.775817968,2,8.125920434570313,5.744886883544922,0.7050923889160156,-1.7633587786259541,0.29770992366412213,-1.6106870229007633
3877887231071,1.785847135,2,8.106766821289062,5.730521673583984,0.689530078125,-1.7557251908396947,0.31297709923664124,-1.5648854961832062
3877897228258,1.795844322,2,8.095992913818359,5.758054992675781,0.709880792236328,-1.7938931297709924,0.26717557251908397,-1.5648854961832062
3877907226487,1.805842551,2,8.095992913818359,5.741295581054687,0.7206546997070312,-1.6946564885496183,0.2366412213740458,-1.5801526717557253
3877917222477,1.815838541,2,8.104372619628906,5.754463690185546,0.7493851196289062,-1.717557251908397,0.2595419847328244,-1.5877862595419847
3877927230446,1.82584651,2,8.110358123779296,5.729324572753906,0.7146691955566405,-1.7633587786259541,0.1984732824427481,-1.5725190839694656
3877937294821,1.835910885,2,8.137891442871092,5.767631799316406,0.6967126831054687,-1.717557251908397,0.1984732824427481,-1.5877862595419847
3877947192269,1.845808333,2,8.119934930419921,5.740098480224609,0.7003039855957031,-1.7557251908396947,0.22137404580152673,-1.6030534351145038
3877957230758,1.855846822,2,8.113949426269532,5.753266589355468,0.7625532287597656,-1.816793893129771,0.31297709923664124,-1.5725190839694656
3877967236331,1.865852395,2,8.112752325439452,5.749675286865234,0.7529764221191406,-1.7557251908396947,0.21374045801526717,-1.618320610687023
3877977300914,1.875916978,2,8.141482745361328,5.759252093505859,0.7170633972167968,-1.7557251908396947,0.25190839694656486,-1.5648854961832062
3877987231279,1.885847343,2,8.112752325439452,5.759252093505859,0.7350199096679687,-1.7938931297709924,0.16793893129770993,-1.6030534351145038
3877997239300,1.895855364,2,8.12113203125,5.758054992675781,0.7242460021972655,-1.7251908396946565,0.22900763358778625,-1.6030534351145038
3878007246956,1.90586302,2,8.11514652709961,5.767631799316406,0.729034405517578,-1.748091603053435,0.1984732824427481,-1.5877862595419847
3878017235185,1.915851249,2,8.072050897216796,5.728127471923828,0.7410054138183594,-1.7786259541984732,0.2366412213740458,-1.6106870229007633
3878027237425,1.925853489,2,8.112752325439452,5.742492681884765,0.7003039855957031,-1.717557251908397,0.2900763358778626,-1.5725190839694656
3878037221644,1.935837708,2,8.12113203125,5.746083984375,0.7003039855957031,-1.7709923664122138,0.2824427480916031,-1.5954198473282444
3878047234456,1.94585052,2,8.111555224609374,5.7700260009765625,0.7661445312499999,-1.7633587786259541,0.22900763358778625,-1.5877862595419847
3878057228727,1.955844791,2,8.10796392211914,5.762843395996094,0.7314286071777343,-1.748091603053435,0.2366412213740458,-1.6106870229007633
3878067233831,1.965849895,2,8.092401611328125,5.7317187744140625,0.7410054138183594,-1.7633587786259541,0.19083969465648856,-1.6564885496183206
3878077223362,1.975839426,2,8.119934930419921,5.756857891845703,0.7110778930664062,-1.7938931297709924,0.33587786259541985,-1.618320610687023
3878087221019,1.985837083,2,8.111555224609374,5.783194110107422,0.737414111328125,-1.8244274809160306,0.26717557251908397,-1.5954198473282444
3878097219612,1.995835676,2,8.129511737060547,5.736507177734374,0.7493851196289062,-1.7633587786259541,0.31297709923664124,-1.5648854961832062
3878107225185,2.005841249,2,8.109161022949218,5.744886883544922,0.7230489013671875,-1.786259541984733,0.20610687022900764,-1.549618320610687
3878117218206,2.01583427,2,8.14627114868164,5.777208605957031,0.7338228088378905,-1.7633587786259541,0.24427480916030533,-1.6106870229007633
3878127186748,2.025802812,2,8.099584216308592,5.7520694885253905,0.709880792236328,-1.7786259541984732,0.22900763358778625,-1.6259541984732824
3878137222373,2.035838437,2,8.106766821289062,5.724536169433593,0.7003039855957031,-1.7404580152671756,0.31297709923664124,-1.6106870229007633
3878147220341,2.045836405,2,8.135497241210937,5.748478186035156,0.7206546997070312,-1.7786259541984732,0.15267175572519084,-1.5877862595419847
3878157221852,2.055837916,2,8.09479581298828,5.77122310180664,0.7481880187988281,-1.7404580152671756,0.25190839694656486,-1.5954198473282444
3878167231175,2.065847239,2,8.097190014648437,5.746083984375,0.7254431030273437,-1.6488549618320612,0.13740458015267176,-1.5954198473282444
3878177224456,2.07584052,2,8.119934930419921,5.7508723876953125,0.7230489013671875,-1.748091603053435,0.25190839694656486,-1.5877862595419847
3878187226435,2.085842499,2,8.117540728759765,5.749675286865234,0.709880792236328,-1.748091603053435,0.16030534351145037,-1.5648854961832062
3878197223414,2.095839478,2,8.113949426269532,5.746083984375,0.7266402038574218,-1.786259541984733,0.3435114503816794,-1.6259541984732824
3878207224300,2.105840364,2,8.124723333740233,5.737704278564453,0.719457598876953,-1.7251908396946565,0.21374045801526717,-1.5877862595419847
3878217242946,2.11585901,2,8.111555224609374,5.7149593627929685,0.7577648254394531,-1.7251908396946565,0.2595419847328244,-1.6030534351145038
3878227225081,2.125841145,2,8.125920434570313,5.753266589355468,0.6967126831054687,-1.8473282442748091,0.25190839694656486,-1.5725190839694656
3878237218623,2.135834687,2,8.113949426269532,5.744886883544922,0.6919242797851562,-1.7557251908396947,0.3511450381679389,-1.5648854961832062
3878247224716,2.14584078,2,8.116343627929687,5.773617303466796,0.6871358764648438,-1.7328244274809161,0.17557251908396945,-1.5801526717557253
3878257220341,2.155836405,2,8.137891442871092,5.764040496826172,0.7230489013671875,-1.7938931297709924,0.2595419847328244,-1.618320610687023
3878267217998,2.165834062,2,8.125920434570313,5.779602807617187,0.7026981872558593,-1.7709923664122138,0.21374045801526717,-1.6564885496183206
3878277258258,2.175874322,2,8.110358123779296,5.761646295166015,0.7230489013671875,-1.7557251908396947,0.22137404580152673,-1.5572519083969465
3878287220602,2.185836666,2,8.118737829589843,5.7329158752441405,0.6979097839355468,-1.7557251908396947,0.21374045801526717,-1.5877862595419847
3878297224821,2.195840885,2,8.10197841796875,5.756857891845703,0.7721300354003906,-1.748091603053435,0.19083969465648856,-1.6030534351145038
3878307222164,2.205838228,2,8.113949426269532,5.762843395996094,0.6871358764648438,-1.7786259541984732,0.20610687022900764,-1.6259541984732824
3878317224352,2.215840416,2,8.097190014648437,5.742492681884765,0.7326257080078125,-1.748091603053435,0.25190839694656486,-1.5419847328244274
3878327216227,2.225832291,2,8.10796392211914,5.740098480224609,0.6811503723144531,-1.7251908396946565,0.20610687022900764,-1.5954198473282444
3878337222633,2.235838697,2,8.109161022949218,5.7520694885253905,0.7433996154785156,-1.7557251908396947,0.22900763358778625,-1.534351145038168
3878347226123,2.245842187,2,8.134300140380859,5.742492681884765,0.7505822204589844,-1.7786259541984732,0.2748091603053435,-1.5801526717557253
3878357221800,2.255837864,2,8.119934930419921,5.729324572753906,0.7206546997070312,-1.7099236641221374,0.2748091603053435,-1.6030534351145038
3878367223831,2.265839895,2,8.12711753540039,5.735310076904296,0.6715735656738281,-1.748091603053435,0.2824427480916031,-1.618320610687023
3878377218779,2.275834843,2,8.116343627929687,5.780799908447265,0.6883329772949218,-1.7938931297709924,0.25190839694656486,-1.6030534351145038
3878387227321,2.285843385,2,8.131905938720703,5.772420202636718,0.7062894897460937,-1.748091603053435,0.25190839694656486,-1.5419847328244274
3878397223987,2.295840051,2,8.125920434570313,5.7520694885253905,0.729034405517578,-1.702290076335878,0.20610687022900764,-1.5954198473282444
3878407223987,2.305840051,2,8.123526232910155,5.759252093505859,0.7158662963867187,-1.7404580152671756,0.2366412213740458,-1.618320610687023
3878417221904,2.315837968,2,8.11514652709961,5.730521673583984,0.7003039855957031,-1.6793893129770991,0.22137404580152673,-1.5725190839694656
3878427185393,2.325801457,2,8.093598712158203,5.743689782714843,0.7003039855957031,-1.7251908396946565,0.32061068702290074,-1.5267175572519085
3878437225133,2.335841197,2,8.12113203125,5.755660791015624,0.709880792236328,-1.7404580152671756,0.26717557251908397,-1.5877862595419847
3878447223518,2.345839582,2,8.09479581298828,5.753266589355468,0.7122749938964843,-1.7938931297709924,0.2366412213740458,-1.5572519083969465
3878457198206,2.35581427,2,8.125920434570313,5.730521673583984,0.7517793212890624,-1.7633587786259541,0.22900763358778625,-1.5801526717557253
3878467225914,2.365841978,2,8.085219006347655,5.742492681884765,0.7422025146484375,-1.7633587786259541,0.2824427480916031,-1.5648854961832062
3878477226904,2.375842968,2,8.122329132080077,5.77122310180664,0.6919242797851562,-1.7328244274809161,0.22137404580152673,-1.5648854961832062
3878487222216,2.38583828,2,8.111555224609374,5.749675286865234,0.7278373046875,-1.7786259541984732,0.2366412213740458,-1.6030534351145038
3878497219352,2.395835416,2,8.10197841796875,5.759252093505859,0.7266402038574218,-1.786259541984733,0.17557251908396945,-1.5954198473282444
3878507228570,2.405844634,2,8.098387115478515,5.759252093505859,0.7350199096679687,-1.7557251908396947,0.22900763358778625,-1.633587786259542
3878517219925,2.415835989,2,8.117540728759765,5.768828900146484,0.7338228088378905,-1.7251908396946565,0.17557251908396945,-1.6106870229007633
3878527216123,2.425832187,2,8.10796392211914,5.741295581054687,0.7278373046875,-1.7633587786259541,0.25190839694656486,-1.6030534351145038
3878537220810,2.435836874,2,8.128314636230469,5.755660791015624,0.7386112121582031,-1.7404580152671756,0.17557251908396945,-1.5648854961832062
3878547236591,2.445852655,2,8.11514652709961,5.756857891845703,0.7326257080078125,-1.7786259541984732,0.25190839694656486,-1.5648854961832062
3878557223362,2.455839426,2,8.111555224609374,5.729324572753906,0.7481880187988281,-1.7557251908396947,0.183206106870229,-1.5954198473282444
3878567230185,2.465846249,2,8.109161022949218,5.724536169433593,0.7541735229492187,-1.717557251908397,0.2748091603053435,-1.6488549618320612
3878577224716,2.47584078,2,8.111555224609374,5.744886883544922,0.709880792236328,-1.7786259541984732,0.22137404580152673,-1.633587786259542
3878587223987,2.485840051,2,8.109161022949218,5.764040496826172,0.7493851196289062,-1.7786259541984732,0.35877862595419846,-1.6412213740458015
3878597221018,2.495837082,2,8.106766821289062,5.741295581054687,0.7362170104980469,-1.8015267175572518,0.2748091603053435,-1.5801526717557253
3878607225445,2.505841509,2,8.112752325439452,5.77122310180664,0.7242460021972655,-1.7404580152671756,0.2595419847328244,-1.6488549618320612
3878617220654,2.515836718,2,8.12711753540039,5.747281085205078,0.6751648681640625,-1.8015267175572518,0.17557251908396945,-1.6106870229007633
3878627221800,2.525837864,2,8.109161022949218,5.760449194335937,0.74699091796875,-1.786259541984733,0.2824427480916031,-1.5725190839694656
3878637222893,2.535838957,2,8.157045056152343,5.768828900146484,0.7386112121582031,-1.7328244274809161,0.20610687022900764,-1.618320610687023
3878647224612,2.545840676,2,8.087613208007811,5.760449194335937,0.6967126831054687,-1.7709923664122138,0.29770992366412213,-1.618320610687023
3878657216487,2.555832551,2,8.111555224609374,5.760449194335937,0.6907271789550781,-1.786259541984733,0.19083969465648856,-1.5725190839694656
3878667224560,2.565840624,2,8.110358123779296,5.725733270263672,0.7266402038574218,-1.7633587786259541,0.29770992366412213,-1.5954198473282444
3878677219404,2.575835468,2,8.137891442871092,5.754463690185546,0.719457598876953,-1.7557251908396947,0.2748091603053435,-1.6641221374045803
3878687221904,2.585837968,2,8.078036401367187,5.740098480224609,0.7433996154785156,-1.7709923664122138,0.2824427480916031,-1.618320610687023
3878697221435,2.595837499,2,8.141482745361328,5.773617303466796,0.7206546997070312,-1.7557251908396947,0.20610687022900764,-1.6564885496183206
3878707223362,2.605839426,2,8.128314636230469,5.737704278564453,0.7410054138183594,-1.748091603053435,0.2824427480916031,-1.5877862595419847
3878717215862,2.615831926,2,8.13310303955078,5.755660791015624,0.7517793212890624,-1.786259541984733,0.2595419847328244,-1.618320610687023
3878727228675,2.625844739,2,8.110358123779296,5.740098480224609,0.7481880187988281,-1.702290076335878,0.2748091603053435,-1.6641221374045803
3878737228466,2.63584453,2,8.130708837890625,5.7508723876953125,0.689530078125,-1.786259541984733,0.183206106870229,-1.5801526717557253
3878747186800,2.645802864,2,8.116343627929687,5.749675286865234,0.6919242797851562,-1.7404580152671756,0.2824427480916031,-1.618320610687023
3878757228050,2.655844114,2,8.111555224609374,5.762843395996094,0.7122749938964843,-1.717557251908397,0.2900763358778626,-1.5801526717557253
3878767218935,2.665834999,2,8.131905938720703,5.7520694885253905,0.7242460021972655,-1.7786259541984732,0.2748091603053435,-1.549618320610687
3878777220706,2.67583677,2,8.106766821289062,5.780799908447265,0.7158662963867187,-1.816793893129771,0.1984732824427481,-1.5419847328244274
3878787216956,2.68583302,2,8.099584216308592,5.779602807617187,0.7110778930664062,-1.7938931297709924,0.2748091603053435,-1.6030534351145038
3878797239820,2.695855884,2,8.0828248046875,5.748478186035156,0.7517793212890624,-1.7251908396946565,0.21374045801526717,-1.6641221374045803
3878807223831,2.705839895,2,8.12113203125,5.716156463623046,0.7170633972167968,-1.7099236641221374,0.25190839694656486,-1.6030534351145038
3878817222112,2.715838176,2,8.118737829589843,5.723339068603515,0.7637503295898437,-1.7633587786259541,0.2366412213740458,-1.618320610687023
3878827225081,2.725841145,2,8.092401611328125,5.723339068603515,0.7637503295898437,-1.7633587786259541,0.2366412213740458,-1.534351145038168
3878837304768,2.735920832,2,8.117540728759765,5.755660791015624,0.7386112121582031,-1.7557251908396947,0.21374045801526717,-1.5725190839694656
3878847224664,2.745840728,2,8.119934930419921,5.718550665283203,0.7122749938964843,-1.748091603053435,0.2595419847328244,-1.5801526717557253
3878857226591,2.755842655,2,8.095992913818359,5.7700260009765625,0.7230489013671875,-1.786259541984733,0.19083969465648856,-1.5954198473282444
3878867222477,2.765838541,2,8.118737829589843,5.746083984375,0.7278373046875,-1.7557251908396947,0.1984732824427481,-1.6030534351145038
3878877229456,2.77584552,2,8.122329132080077,5.760449194335937,0.7003039855957031,-1.7938931297709924,0.20610687022900764,-1.5877862595419847
3878887229820,2.785845884,2,8.116343627929687,5.7329158752441405,0.6667851623535156,-1.7557251908396947,0.24427480916030533,-1.5648854961832062
3878897223570,2.795839634,2,8.11514652709961,5.7317187744140625,0.7302315063476562,-1.7404580152671756,0.2748091603053435,-1.6106870229007633
3878907216747,2.805832811,2,8.106766821289062,5.735310076904296,0.7433996154785156,-1.8091603053435115,0.2366412213740458,-1.618320610687023
3878917216122,2.815832186,2,8.12113203125,5.740098480224609,0.7122749938964843,-1.786259541984733,0.1984732824427481,-1.549618320610687
3878927227581,2.825843645,2,8.12113203125,5.759252093505859,0.7577648254394531,-1.7328244274809161,0.16030534351145037,-1.5648854961832062
3878937220237,2.835836301,2,8.095992913818359,5.768828900146484,0.719457598876953,-1.7633587786259541,0.26717557251908397,-1.633587786259542
3878947222216,2.84583828,2,8.124723333740233,5.734112976074218,0.7038952880859375,-1.7557251908396947,0.20610687022900764,-1.6564885496183206
3878957224456,2.85584052,2,8.130708837890625,5.759252093505859,0.7218518005371093,-1.8396946564885497,0.20610687022900764,-1.618320610687023
3878967223518,2.865839582,2,8.116343627929687,5.756857891845703,0.7230489013671875,-1.748091603053435,0.16793893129770993,-1.5954198473282444
3878977235185,2.875851249,2,8.095992913818359,5.767631799316406,0.7541735229492187,-1.7328244274809161,0.24427480916030533,-1.5877862595419847
3878987227216,2.88584328,2,8.110358123779296,5.759252093505859,0.7170633972167968,-1.7404580152671756,0.22137404580152673,-1.5801526717557253
3878997222841,2.895838905,2,8.098387115478515,5.743689782714843,0.719457598876953,-1.748091603053435,0.22900763358778625,-1.6564885496183206
3879007226591,2.905842655,2,8.0828248046875,5.737704278564453,0.6931213806152343,-1.748091603053435,0.24427480916030533,-1.5725190839694656
3879017225810,2.915841874,2,8.098387115478515,5.738901379394531,0.6619967590332031,-1.717557251908397,0.22137404580152673,-1.5877862595419847
3879027222685,2.925838749,2,8.105569720458984,5.7520694885253905,0.699106884765625,-1.7633587786259541,0.2595419847328244,-1.5801526717557253
3879037220914,2.935836978,2,8.110358123779296,5.760449194335937,0.6967126831054687,-1.7633587786259541,0.2824427480916031,-1.5877862595419847
3879047227320,2.945843384,2,8.105569720458984,5.778405706787109,0.7350199096679687,-1.7709923664122138,0.2366412213740458,-1.6106870229007633
3879057223102,2.955839166,2,8.106766821289062,5.76523759765625,0.7122749938964843,-1.7709923664122138,0.2366412213740458,-1.6030534351145038
3879067219039,2.965835103,2,8.116343627929687,5.758054992675781,0.7457938171386719,-1.7404580152671756,0.21374045801526717,-1.6106870229007633
3879077224247,2.975840311,2,8.080430603027343,5.764040496826172,0.7350199096679687,-1.7709923664122138,0.2748091603053435,-1.5954198473282444
3879087223622,2.985839686,2,8.110358123779296,5.7317187744140625,0.7110778930664062,-1.7709923664122138,0.16793893129770993,-1.5877862595419847
3879097222112,2.995838176,2,8.0828248046875,5.755660791015624,0.6943184814453125,-1.748091603053435,0.22900763358778625,-1.5419847328244274
3879107222841,3.005838905,2,8.12711753540039,5.755660791015624,0.6751648681640625,-1.7328244274809161,0.17557251908396945,-1.6030534351145038
3879117231956,3.01584802,2,8.109161022949218,5.754463690185546,0.7146691955566405,-1.7251908396946565,0.21374045801526717,-1.6030534351145038
3879127228466,3.02584453,2,8.10197841796875,5.747281085205078,0.7386112121582031,-1.7786259541984732,0.24427480916030533,-1.5801526717557253
3879137222216,3.03583828,2,8.100781317138672,5.760449194335937,0.6943184814453125,-1.7099236641221374,0.25190839694656486,-1.6030534351145038
3879147222320,3.045838384,2,8.104372619628906,5.756857891845703,0.7386112121582031,-1.748091603053435,0.19083969465648856,-1.6259541984732824
3879157221122,3.055837186,2,8.091204510498047,5.730521673583984,0.7050923889160156,-1.7328244274809161,0.2824427480916031,-1.6488549618320612
3879167224456,3.06584052,2,8.113949426269532,5.737704278564453,0.7074865905761718,-1.748091603053435,0.22137404580152673,-1.5954198473282444
3879177223935,3.075839999,2,8.10796392211914,5.749675286865234,0.7050923889160156,-1.7251908396946565,0.3282442748091603,-1.5954198473282444
3879187223310,3.085839374,2,8.091204510498047,5.759252093505859,0.7050923889160156,-1.7557251908396947,0.2748091603053435,-1.5572519083969465
3879197215549,3.095831613,2,8.130708837890625,5.749675286865234,0.7302315063476562,-1.7328244274809161,0.26717557251908397,-1.6259541984732824
3879207226904,3.105842968,2,8.109161022949218,5.7508723876953125,0.7146691955566405,-1.7557251908396947,0.16793893129770993,-1.618320610687023
3879217218883,3.115834947,2,8.104372619628906,5.7520694885253905,0.6919242797851562,-1.748091603053435,0.22137404580152673,-1.5419847328244274
3879227181331,3.125797395,2,8.123526232910155,5.748478186035156,0.6835445739746093,-1.8015267175572518,0.19083969465648856,-1.5419847328244274
3879237225081,3.135841145,2,8.130708837890625,5.773617303466796,0.74699091796875,-1.748091603053435,0.19083969465648856,-1.6106870229007633
3879247227320,3.145843384,2,8.122329132080077,5.764040496826172,0.7278373046875,-1.7099236641221374,0.32061068702290074,-1.549618320610687
3879257223362,3.155839426,2,8.104372619628906,5.756857891845703,0.709880792236328,-1.7328244274809161,0.29770992366412213,-1.5648854961832062
3879267221956,3.16583802,2,8.106766821289062,5.719747766113281,0.7026981872558593,-1.6946564885496183,0.24427480916030533,-1.534351145038168
3879277220237,3.175836301,2,8.110358123779296,5.736507177734374,0.7206546997070312,-1.7404580152671756,0.21374045801526717,-1.534351145038168
3879287223049,3.185839113,2,8.143876947021484,5.766434698486328,0.7266402038574218,-1.7633587786259541,0.2824427480916031,-1.5648854961832062
3879297232841,3.195848905,2,8.137891442871092,5.753266589355468,0.7601590270996094,-1.7557251908396947,0.26717557251908397,-1.549618320610687
3879307226904,3.205842968,2,8.086416107177733,5.740098480224609,0.6811503723144531,-1.7709923664122138,0.25190839694656486,-1.618320610687023
3879317219404,3.215835468,2,8.104372619628906,5.741295581054687,0.7433996154785156,-1.7709923664122138,0.22137404580152673,-1.5801526717557253
3879327222372,3.225838436,2,8.134300140380859,5.7508723876953125,0.7410054138183594,-1.8091603053435115,0.16030534351145037,-1.5267175572519085
3879337222372,3.235838436,2,8.13310303955078,5.730521673583984,0.7242460021972655,-1.7404580152671756,0.22137404580152673,-1.6030534351145038
3879347224091,3.245840155,2,8.099584216308592,5.755660791015624,0.7218518005371093,-1.7328244274809161,0.25190839694656486,-1.633587786259542
3879357219872,3.255835936,2,8.123526232910155,5.717353564453124,0.7158662963867187,-1.7633587786259541,0.21374045801526717,-1.5572519083969465
3879367199247,3.265815311,2,8.098387115478515,5.747281085205078,0.719457598876953,-1.7328244274809161,0.183206106870229,-1.5801526717557253
3879377229768,3.275845832,2,8.137891442871092,5.764040496826172,0.7218518005371093,-1.7251908396946565,0.22900763358778625,-1.618320610687023
3879387259403,3.285875467,2,8.106766821289062,5.734112976074218,0.7134720947265625,-1.7099236641221374,0.2824427480916031,-1.5648854961832062
3879397223362,3.295839426,2,8.123526232910155,5.756857891845703,0.699106884765625,-1.7404580152671756,0.2595419847328244,-1.5725190839694656
3879407225393,3.305841457,2,8.103175518798828,5.762843395996094,0.689530078125,-1.8091603053435115,0.26717557251908397,-1.5648854961832062
3879417218831,3.315834895,2,8.125920434570313,5.7317187744140625,0.7062894897460937,-1.7251908396946565,0.183206106870229,-1.6106870229007633
3879427225289,3.325841353,2,8.151059552001952,5.762843395996094,0.7433996154785156,-1.7557251908396947,0.2748091603053435,-1.6106870229007633
3879437223570,3.335839634,2,8.139088543701172,5.7329158752441405,0.6871358764648438,-1.7404580152671756,0.22900763358778625,-1.6259541984732824
3879447225133,3.345841197,2,8.087613208007811,5.740098480224609,0.7302315063476562,-1.7709923664122138,0.2595419847328244,-1.5648854961832062
3879457233778,3.355849842,2,8.098387115478515,5.7520694885253905,0.7709329345703124,-1.7557251908396947,0.1984732824427481,-1.5572519083969465
3879467223310,3.365839374,2,8.112752325439452,5.7508723876953125,0.7038952880859375,-1.748091603053435,0.2824427480916031,-1.618320610687023
3879477220706,3.37583677,2,8.10796392211914,5.747281085205078,0.7074865905761718,-1.7709923664122138,0.22137404580152673,-1.633587786259542
3879487223883,3.385839947,2,8.105569720458984,5.730521673583984,0.7350199096679687,-1.702290076335878,0.2900763358778626,-1.6564885496183206
3879497228049,3.395844113,2,8.119934930419921,5.758054992675781,0.7003039855957031,-1.7557251908396947,0.22137404580152673,-1.5725190839694656
3879507222476,3.40583854,2,8.145074047851562,5.740098480224609,0.699106884765625,-1.7709923664122138,0.2595419847328244,-1.5877862595419847
3879517217737,3.415833801,2,8.105569720458984,5.755660791015624,0.709880792236328,-1.7328244274809161,0.16793893129770993,-1.5954198473282444
3879527228622,3.425844686,2,8.130708837890625,5.759252093505859,0.7457938171386719,-1.7557251908396947,0.22137404580152673,-1.549618320610687
3879537224508,3.435840572,2,8.14028564453125,5.753266589355468,0.7266402038574218,-1.7633587786259541,0.17557251908396945,-1.5877862595419847
3879547225289,3.445841353,2,8.113949426269532,5.768828900146484,0.7206546997070312,-1.786259541984733,0.2900763358778626,-1.5801526717557253
3879557219143,3.455835207,2,8.129511737060547,5.7329158752441405,0.7254431030273437,-1.7709923664122138,0.19083969465648856,-1.6412213740458015
3879568066591,3.466682655,2,8.119934930419921,5.755660791015624,0.7326257080078125,-1.7709923664122138,0.2824427480916031,-1.618320610687023
3879578052789,3.476668853,2,8.084021905517577,5.7329158752441405,0.737414111328125,-1.7938931297709924,0.24427480916030533,-1.5877862595419847
3879588048362,3.486664426,2,8.106766821289062,5.7329158752441405,0.7565677246093749,-1.7557251908396947,0.22900763358778625,-1.5801526717557253
3879598045653,3.496661717,2,8.079233502197265,5.758054992675781,0.7661445312499999,-1.7404580152671756,0.11450381679389313,-1.5801526717557253
3879608052164,3.506668228,2,8.123526232910155,5.736507177734374,0.7350199096679687,-1.786259541984733,0.2900763358778626,-1.5801526717557253
3879618038883,3.516654947,2,8.118737829589843,5.749675286865234,0.7206546997070312,-1.7557251908396947,0.19083969465648856,-1.5801526717557253
3879628055080,3.526671144,2,8.090007409667969,5.76523759765625,0.7457938171386719,-1.7251908396946565,0.24427480916030533,-1.5648854961832062
3879638041747,3.536657811,2,8.105569720458984,5.773617303466796,0.7326257080078125,-1.7786259541984732,0.183206106870229,-1.5725190839694656
3879648057164,3.546673228,2,8.086416107177733,5.7317187744140625,0.7888894470214843,-1.7938931297709924,0.26717557251908397,-1.5725190839694656
3879658050133,3.556666197,2,8.113949426269532,5.725733270263672,0.7589619262695312,-1.7633587786259541,0.22900763358778625,-1.618320610687023
3879668051487,3.566667551,2,8.123526232910155,5.759252093505859,0.7110778930664062,-1.7328244274809161,0.25190839694656486,-1.6030534351145038
3879678044508,3.576660572,2,8.109161022949218,5.764040496826172,0.689530078125,-1.786259541984733,0.183206106870229,-1.549618320610687
3879688050966,3.58666703,2,8.117540728759765,5.742492681884765,0.7278373046875,-1.7633587786259541,0.2824427480916031,-1.5725190839694656
3879698041487,3.596657551,2,8.10197841796875,5.730521673583984,0.7493851196289062,-1.7786259541984732,0.26717557251908397,-1.633587786259542
3879708050653,3.606666717,2,8.091204510498047,5.730521673583984,0.7541735229492187,-1.7633587786259541,0.2900763358778626,-1.5725190839694656
3879718045653,3.616661717,2,8.10197841796875,5.746083984375,0.7362170104980469,-1.7404580152671756,0.24427480916030533,-1.6564885496183206
3879728053362,3.626669426,2,8.10796392211914,5.747281085205078,0.7218518005371093,-1.7251908396946565,0.31297709923664124,-1.5954198473282444
3879738002320,3.636618384,2,8.118737829589843,5.759252093505859,0.7410054138183594,-1.786259541984733,0.19083969465648856,-1.5648854961832062
3879748051695,3.646667759,2,8.106766821289062,5.738901379394531,0.7457938171386719,-1.7786259541984732,0.25190839694656486,-1.633587786259542
3879758043466,3.65665953,2,8.118737829589843,5.742492681884765,0.7338228088378905,-1.7786259541984732,0.22137404580152673,-1.5648854961832062
3879768060341,3.666676405,2,8.098387115478515,5.753266589355468,0.7003039855957031,-1.7328244274809161,0.29770992366412213,-1.5877862595419847
3879778048935,3.676664999,2,8.109161022949218,5.7508723876953125,0.7050923889160156,-1.7938931297709924,0.26717557251908397,-1.5877862595419847
3879788046747,3.686662811,2,8.104372619628906,5.7700260009765625,0.7206546997070312,-1.7633587786259541,0.2595419847328244,-1.5801526717557253
3879798044143,3.696660207,2,8.113949426269532,5.753266589355468,0.7242460021972655,-1.816793893129771,0.2824427480916031,-1.5954198473282444
3879808061435,3.706677499,2,8.131905938720703,5.767631799316406,0.689530078125,-1.7251908396946565,0.25190839694656486,-1.5648854961832062
3879818043310,3.716659374,2,8.104372619628906,5.719747766113281,0.6943184814453125,-1.7557251908396947,0.2748091603053435,-1.5801526717557253
3879828057685,3.726673749,2,8.099584216308592,5.7520694885253905,0.7445967163085937,-1.7557251908396947,0.2900763358778626,-1.5801526717557253
3879838041070,3.736657134,2,8.10197841796875,5.7508723876953125,0.7457938171386719,-1.7328244274809161,0.22900763358778625,-1.5954198473282444
3879848045028,3.746661092,2,8.095992913818359,5.728127471923828,0.7481880187988281,-1.7709923664122138,0.2595419847328244,-1.5648854961832062
3879858027945,3.756644009,2,8.112752325439452,5.753266589355468,0.7003039855957031,-1.786259541984733,0.22900763358778625,-1.5572519083969465
3879868049143,3.766665207,2,8.068459594726562,5.740098480224609,0.7062894897460937,-1.7404580152671756,0.2748091603053435,-1.5572519083969465
3879878048414,3.776664478,2,8.097190014648437,5.738901379394531,0.7242460021972655,-1.8396946564885497,0.21374045801526717,-1.5954198473282444
3879888049403,3.786665467,2,8.117540728759765,5.7329158752441405,0.7302315063476562,-1.7557251908396947,0.2366412213740458,-1.6564885496183206
3879898004247,3.796620311,2,8.10197841796875,5.743689782714843,0.7134720947265625,-1.7938931297709924,0.32061068702290074,-1.6564885496183206
3879908057112,3.806673176,2,8.123526232910155,5.767631799316406,0.718260498046875,-1.748091603053435,0.32061068702290074,-1.5725190839694656
3879918046539,3.816662603,2,8.13310303955078,5.766434698486328,0.7410054138183594,-1.786259541984733,0.26717557251908397,-1.5572519083969465
3879928056226,3.82667229,2,8.091204510498047,5.7508723876953125,0.7074865905761718,-1.7557251908396947,0.2824427480916031,-1.5190839694656488
3879938078726,3.83669479,2,8.117540728759765,5.740098480224609,0.737414111328125,-1.7633587786259541,0.2824427480916031,-1.549618320610687
3879948059820,3.846675884,2,8.098387115478515,5.747281085205078,0.7038952880859375,-1.6946564885496183,0.2748091603053435,-1.534351145038168
3879958047528,3.856663592,2,8.091204510498047,5.754463690185546,0.737414111328125,-1.7328244274809161,0.2595419847328244,-1.6030534351145038
3879968056174,3.866672238,2,8.12711753540039,5.7329158752441405,0.7481880187988281,-1.7404580152671756,0.24427480916030533,-1.5801526717557253
3879978041226,3.87665729,2,8.130708837890625,5.747281085205078,0.7134720947265625,-1.748091603053435,0.2366412213740458,-1.5725190839694656
3879988067632,3.886683696,2,8.143876947021484,5.758054992675781,0.6919242797851562,-1.786259541984733,0.22900763358778625,-1.6717557251908397
3879998043987,3.896660051,2,8.11514652709961,5.7329158752441405,0.7242460021972655,-1.7709923664122138,0.22900763358778625,-1.5954198473282444
3880008270549,3.906886613,2,8.10197841796875,5.749675286865234,0.7433996154785156,-1.748091603053435,0.31297709923664124,-1.5877862595419847
3880018057216,3.91667328,2,8.105569720458984,5.738901379394531,0.7146691955566405,-1.748091603053435,0.31297709923664124,-1.5877862595419847
3880028064143,3.926680207,2,8.145074047851562,5.744886883544922,0.7015010864257812,-1.7633587786259541,0.22137404580152673,-1.5877862595419847
3880038011851,3.936627915,2,8.098387115478515,5.738901379394531,0.7541735229492187,-1.748091603053435,0.25190839694656486,-1.6030534351145038
3880048059403,3.946675467,2,8.100781317138672,5.730521673583984,0.7206546997070312,-1.7709923664122138,0.2366412213740458,-1.5801526717557253
3880058007424,3.956623488,2,8.110358123779296,5.730521673583984,0.7278373046875,-1.7633587786259541,0.25190839694656486,-1.5801526717557253
3880067715601,3.966331665,2,8.135497241210937,5.744886883544922,0.7410054138183594,-1.7633587786259541,0.24427480916030533,-1.5801526717557253
3880077706539,3.976322603,2,8.124723333740233,5.764040496826172,0.7122749938964843,-1.7404580152671756,0.25190839694656486,-1.6488549618320612
3880087694872,3.986310936,2,8.117540728759765,5.743689782714843,0.6811503723144531,-1.7709923664122138,0.1450381679389313,-1.6030534351145038
3880097694924,3.996310988,2,8.105569720458984,5.719747766113281,0.7230489013671875,-1.7633587786259541,0.1984732824427481,-1.5877862595419847
3880107693570,4.006309634,2,8.123526232910155,5.776011505126953,0.6727706665039062,-1.7099236641221374,0.21374045801526717,-1.5419847328244274
3880117699872,4.016315936,2,8.109161022949218,5.746083984375,0.7864952453613281,-1.7938931297709924,0.2900763358778626,-1.5954198473282444
3880127693257,4.026309321,2,8.106766821289062,5.756857891845703,0.737414111328125,-1.786259541984733,0.16793893129770993,-1.5877862595419847
3880137698466,4.03631453,2,8.087613208007811,5.742492681884765,0.729034405517578,-1.7557251908396947,0.24427480916030533,-1.6412213740458015
3880147695757,4.046311821,2,8.130708837890625,5.762843395996094,0.6943184814453125,-1.7251908396946565,0.21374045801526717,-1.5877862595419847
3880157699507,4.056315571,2,8.110358123779296,5.741295581054687,0.7338228088378905,-1.7633587786259541,0.2824427480916031,-1.618320610687023
3880168096434,4.066712498,2,8.116343627929687,5.76523759765625,0.7026981872558593,-1.7938931297709924,0.25190839694656486,-1.5954198473282444
3880178073882,4.076689946,2,8.105569720458984,5.780799908447265,0.737414111328125,-1.7633587786259541,0.16793893129770993,-1.633587786259542
3880188075757,4.086691821,2,8.119934930419921,5.768828900146484,0.7601590270996094,-1.7786259541984732,0.1984732824427481,-1.5725190839694656
3880198063987,4.096680051,2,8.119934930419921,5.747281085205078,0.74699091796875,-1.748091603053435,0.1984732824427481,-1.549618320610687
3880208077945,4.106694009,2,8.116343627929687,5.764040496826172,0.7362170104980469,-1.7099236641221374,0.24427480916030533,-1.6030534351145038
3880218049403,4.116665467,2,8.099584216308592,5.741295581054687,0.7015010864257812,-1.7404580152671756,0.20610687022900764,-1.6564885496183206
3880228082164,4.126698228,2,8.134300140380859,5.717353564453124,0.7362170104980469,-1.748091603053435,0.2900763358778626,-1.618320610687023
3880238070132,4.136686196,2,8.10197841796875,5.768828900146484,0.7577648254394531,-1.717557251908397,0.2366412213740458,-1.534351145038168
3880248068049,4.146684113,2,8.097190014648437,5.743689782714843,0.7158662963867187,-1.8091603053435115,0.19083969465648856,-1.5801526717557253
3880258071434,4.156687498,2,8.12113203125,5.747281085205078,0.7134720947265625,-1.8015267175572518,0.2366412213740458,-1.5877862595419847
3880267716434,4.166332498,2,8.110358123779296,5.764040496826172,0.6823474731445313,-1.8015267175572518,0.2366412213740458,-1.6030534351145038
3880277806695,4.176422759,2,8.123526232910155,5.736507177734374,0.6763619689941406,-1.786259541984733,0.22900763358778625,-1.5419847328244274
3880287705861,4.186321925,2,8.122329132080077,5.744886883544922,0.7170633972167968,-1.7938931297709924,0.1984732824427481,-1.5572519083969465
3880297707164,4.196323228,2,8.099584216308592,5.742492681884765,0.7026981872558593,-1.7404580152671756,0.2824427480916031,-1.5267175572519085
3880307706382,4.206322446,2,8.106766821289062,5.767631799316406,0.7517793212890624,-1.717557251908397,0.22900763358778625,-1.5114503816793894
3880317710028,4.216326092,2,8.112752325439452,5.762843395996094,0.70868369140625,-1.748091603053435,0.16793893129770993,-1.5572519083969465
3880327709247,4.226325311,2,8.122329132080077,5.764040496826172,0.7110778930664062,-1.7251908396946565,0.2366412213740458,-1.618320610687023
3880337707684,4.236323748,2,8.11514652709961,5.741295581054687,0.7266402038574218,-1.7786259541984732,0.22137404580152673,-1.6030534351145038
3880347710705,4.246326769,2,8.110358123779296,5.749675286865234,0.7433996154785156,-1.7328244274809161,0.2366412213740458,-1.6488549618320612
3880357673622,4.256289686,2,8.119934930419921,5.7329158752441405,0.7242460021972655,-1.7328244274809161,0.2595419847328244,-1.5954198473282444
3880368094664,4.266710728,2,8.143876947021484,5.724536169433593,0.7350199096679687,-1.702290076335878,0.21374045801526717,-1.618320610687023
3880378073466,4.27668953,2,8.104372619628906,5.728127471923828,0.7805097412109374,-1.748091603053435,0.2824427480916031,-1.633587786259542
3880388075601,4.286691665,2,8.100781317138672,5.767631799316406,0.7553706237792969,-1.786259541984733,0.24427480916030533,-1.6259541984732824
3880398077320,4.296693384,2,8.113949426269532,5.755660791015624,0.7433996154785156,-1.786259541984733,0.25190839694656486,-1.5954198473282444
3880408070601,4.306686665,2,8.148665350341796,5.720944866943359,0.729034405517578,-1.7633587786259541,0.2748091603053435,-1.6488549618320612
3880418044976,4.31666104,2,8.128314636230469,5.746083984375,0.7338228088378905,-1.7557251908396947,0.22137404580152673,-1.5877862595419847
3880428071799,4.326687863,2,8.119934930419921,5.728127471923828,0.7050923889160156,-1.7251908396946565,0.21374045801526717,-1.618320610687023
3880438069403,4.336685467,2,8.136694342041014,5.743689782714843,0.729034405517578,-1.7786259541984732,0.25190839694656486,-1.6412213740458015
3880448073570,4.346689634,2,8.10197841796875,5.6958057495117185,0.718260498046875,-1.7938931297709924,0.22137404580152673,-1.5572519083969465
3880458066382,4.356682446,2,8.147468249511718,5.7508723876953125,0.6883329772949218,-1.7633587786259541,0.2824427480916031,-1.5572519083969465
3880467713466,4.36632953,2,8.09479581298828,5.744886883544922,0.7433996154785156,-1.7633587786259541,0.22900763358778625,-1.5648854961832062
3880477712841,4.376328905,2,8.093598712158203,5.7329158752441405,0.7338228088378905,-1.7557251908396947,0.22900763358778625,-1.5877862595419847
3880487710080,4.386326144,2,8.122329132080077,5.755660791015624,0.7314286071777343,-1.7251908396946565,0.26717557251908397,-1.6259541984732824
3880497704820,4.396320884,2,8.124723333740233,5.744886883544922,0.7302315063476562,-1.748091603053435,0.29770992366412213,-1.6030534351145038
3880507661955,4.406278019,2,8.091204510498047,5.736507177734374,0.7278373046875,-1.7633587786259541,0.2366412213740458,-1.5877862595419847
3880517709663,4.416325727,2,8.105569720458984,5.719747766113281,0.7529764221191406,-1.7557251908396947,0.2366412213740458,-1.5572519083969465
3880527708049,4.426324113,2,8.119934930419921,5.741295581054687,0.7122749938964843,-1.7709923664122138,0.22137404580152673,-1.5801526717557253
3880537706747,4.436322811,2,8.14028564453125,5.772420202636718,0.7266402038574218,-1.7557251908396947,0.24427480916030533,-1.5419847328244274
3880547706695,4.446322759,2,8.116343627929687,5.736507177734374,0.7314286071777343,-1.717557251908397,0.1984732824427481,-1.5572519083969465
3880557708518,4.456324582,2,8.098387115478515,5.749675286865234,0.7134720947265625,-1.717557251908397,0.24427480916030533,-1.5801526717557253
3880568087476,4.46670354,2,8.103175518798828,5.77122310180664,0.7314286071777343,-1.7557251908396947,0.1984732824427481,-1.5877862595419847
3880578068049,4.476684113,2,8.123526232910155,5.740098480224609,0.6883329772949218,-1.7404580152671756,0.3053435114503817,-1.6030534351145038
3880588067163,4.486683227,2,8.106766821289062,5.761646295166015,0.7362170104980469,-1.7251908396946565,0.26717557251908397,-1.5572519083969465
3880598062632,4.496678696,2,8.13310303955078,5.747281085205078,0.7314286071777343,-1.748091603053435,0.24427480916030533,-1.5877862595419847
3880607976330,4.506592394,2,8.113949426269532,5.761646295166015,0.7338228088378905,-1.717557251908397,0.22137404580152673,-1.5419847328244274
3880618063882,4.516679946,2,8.10197841796875,5.747281085205078,0.7074865905761718,-1.7557251908396947,0.2900763358778626,-1.5725190839694656
3880628070653,4.526686717,2,8.10197841796875,5.760449194335937,0.6775590698242188,-1.7251908396946565,0.17557251908396945,-1.6106870229007633
3880638059820,4.536675884,2,8.14028564453125,5.7508723876953125,0.7457938171386719,-1.7404580152671756,0.26717557251908397,-1.534351145038168
3880648067163,4.546683227,2,8.109161022949218,5.744886883544922,0.7553706237792969,-1.8091603053435115,0.22137404580152673,-1.5954198473282444
3880658060288,4.556676352,2,8.117540728759765,5.749675286865234,0.7493851196289062,-1.7709923664122138,0.22900763358778625,-1.6030534351145038
3880667678778,4.566294842,2,8.112752325439452,5.766434698486328,0.7493851196289062,-1.7786259541984732,0.25190839694656486,-1.6030534351145038
3880677713153,4.576329217,2,8.10796392211914,5.740098480224609,0.7457938171386719,-1.748091603053435,0.1984732824427481,-1.5725190839694656
3880687704924,4.586320988,2,8.10197841796875,5.756857891845703,0.689530078125,-1.7404580152671756,0.16793893129770993,-1.5114503816793894
3880697701590,4.596317654,2,8.100781317138672,5.734112976074218,0.7517793212890624,-1.748091603053435,0.22900763358778625,-1.6412213740458015
3880707705080,4.606321144,2,8.130708837890625,5.749675286865234,0.7505822204589844,-1.7709923664122138,0.22900763358778625,-1.5648854961832062
3880717708986,4.61632505,2,8.113949426269532,5.743689782714843,0.729034405517578,-1.7404580152671756,0.29770992366412213,-1.5954198473282444
3880727706955,4.626323019,2,8.10796392211914,5.749675286865234,0.7134720947265625,-1.7557251908396947,0.21374045801526717,-1.6106870229007633
3880737718101,4.636334165,2,8.128314636230469,5.718550665283203,0.6943184814453125,-1.7709923664122138,0.1984732824427481,-1.618320610687023
3880747711538,4.646327602,2,8.106766821289062,5.744886883544922,0.7266402038574218,-1.7328244274809161,0.26717557251908397,-1.549618320610687
3880757714559,4.656330623,2,8.119934930419921,5.774814404296874,0.70868369140625,-1.748091603053435,0.3053435114503817,-1.5648854961832062
3880768096747,4.666712811,2,8.136694342041014,5.754463690185546,0.7326257080078125,-1.7404580152671756,0.2366412213740458,-1.534351145038168
3880778070340,4.676686404,2,8.118737829589843,5.741295581054687,0.7266402038574218,-1.7938931297709924,0.25190839694656486,-1.5801526717557253
3880788074611,4.686690675,2,8.117540728759765,5.762843395996094,0.7876923461914062,-1.83206106870229,0.1984732824427481,-1.6412213740458015
3880798158361,4.696774425,2,8.10796392211914,5.723339068603515,0.7302315063476562,-1.786259541984733,0.29770992366412213,-1.5648854961832062
3880808066955,4.706683019,2,8.113949426269532,5.764040496826172,0.7517793212890624,-1.7786259541984732,0.2366412213740458,-1.6106870229007633
3880818071330,4.716687394,2,8.12711753540039,5.747281085205078,0.7146691955566405,-1.7404580152671756,0.2595419847328244,-1.633587786259542
3880828080445,4.726696509,2,8.122329132080077,5.758054992675781,0.6979097839355468,-1.748091603053435,0.24427480916030533,-1.618320610687023
3880838099768,4.736715832,2,8.14028564453125,5.76523759765625,0.699106884765625,-1.7633587786259541,0.2595419847328244,-1.6106870229007633
3880848077997,4.746694061,2,8.09479581298828,5.744886883544922,0.7481880187988281,-1.7557251908396947,0.26717557251908397,-1.6106870229007633
3880858061538,4.756677602,2,8.10796392211914,5.737704278564453,0.7218518005371093,-1.8396946564885497,0.24427480916030533,-1.5725190839694656
3880867975601,4.766591665,2,8.116343627929687,5.747281085205078,0.7158662963867187,-1.8244274809160306,0.25190839694656486,-1.5954198473282444
3880877710288,4.776326352,2,8.099584216308592,5.747281085205078,0.6967126831054687,-1.7633587786259541,0.24427480916030533,-1.6106870229007633
3880887705028,4.786321092,2,8.12113203125,5.753266589355468,0.7565677246093749,-1.7328244274809161,0.21374045801526717,-1.534351145038168
3880897708674,4.796324738,2,8.110358123779296,5.717353564453124,0.7457938171386719,-1.748091603053435,0.17557251908396945,-1.5954198473282444
3880907711799,4.806327863,2,8.109161022949218,5.761646295166015,0.7242460021972655,-1.786259541984733,0.17557251908396945,-1.6259541984732824
3880917704247,4.816320311,2,8.124723333740233,5.767631799316406,0.7218518005371093,-1.7251908396946565,0.22900763358778625,-1.6106870229007633
3880927735132,4.826351196,2,8.12711753540039,5.734112976074218,0.7026981872558593,-1.7404580152671756,0.19083969465648856,-1.5954198473282444
3880937700392,4.836316456,2,8.130708837890625,5.737704278564453,0.718260498046875,-1.7404580152671756,0.19083969465648856,-1.6030534351145038
3880947706122,4.846322186,2,8.090007409667969,5.720944866943359,0.7158662963867187,-1.7938931297709924,0.22137404580152673,-1.5877862595419847
3880957699507,4.856315571,2,8.113949426269532,5.705382556152343,0.6919242797851562,-1.786259541984733,0.183206106870229,-1.6106870229007633
3880967872163,4.866488227,2,8.106766821289062,5.754463690185546,0.7278373046875,-1.748091603053435,0.22900763358778625,-1.6259541984732824
3880978066382,4.876682446,2,8.11514652709961,5.767631799316406,0.7122749938964843,-1.8015267175572518,0.2366412213740458,-1.6488549618320612
3880988064038,4.886680102,2,8.129511737060547,5.741295581054687,0.689530078125,-1.7786259541984732,0.22900763358778625,-1.618320610687023
3880998059299,4.896675363,2,8.119934930419921,5.761646295166015,0.7398083129882812,-1.702290076335878,0.24427480916030533,-1.6106870229007633
3881008833726,4.90744979,2,8.104372619628906,5.760449194335937,0.6859387756347656,-1.7709923664122138,0.22137404580152673,-1.633587786259542
3881018492007,4.917108071,2,8.135497241210937,5.783194110107422,0.7134720947265625,-1.7786259541984732,0.22137404580152673,-1.6488549618320612
3881028073726,4.92668979,2,8.254010223388672,5.777208605957031,0.6943184814453125,-1.7709923664122138,0.2366412213740458,-1.618320610687023
3881038064872,4.936680936,2,8.103175518798828,5.735310076904296,0.7529764221191406,-1.717557251908397,0.25190839694656486,-1.6106870229007633
3881048074090,4.946690154,2,8.11514652709961,5.746083984375,0.718260498046875,-1.8244274809160306,0.17557251908396945,-1.633587786259542
3881058040913,4.956656977,2,8.112752325439452,5.748478186035156,0.7158662963867187,-1.7709923664122138,0.24427480916030533,-1.6106870229007633
3881068160965,4.966777029,2,8.097190014648437,5.749675286865234,0.74699091796875,-1.7328244274809161,0.25190839694656486,-1.5648854961832062
3881077718674,4.976334738,2,8.097190014648437,5.747281085205078,0.7314286071777343,-1.7557251908396947,0.2748091603053435,-1.6259541984732824
3881087715965,4.986332029,2,8.084021905517577,5.76523759765625,0.7254431030273437,-1.748091603053435,0.32061068702290074,-1.6030534351145038
3881097706278,4.996322342,2,8.10796392211914,5.753266589355468,0.7398083129882812,-1.717557251908397,0.2900763358778626,-1.5954198473282444
3881107706590,5.006322654,2,8.124723333740233,5.741295581054687,0.7493851196289062,-1.7709923664122138,0.2748091603053435,-1.5877862595419847
3881117702528,5.016318592,2,8.123526232910155,5.746083984375,0.7050923889160156,-1.7328244274809161,0.22900763358778625,-1.6030534351145038
3881127704194,5.026320258,2,8.145074047851562,5.761646295166015,0.70868369140625,-1.7404580152671756,0.2366412213740458,-1.5801526717557253
3881137710392,5.036326456,2,8.116343627929687,5.753266589355468,0.7110778930664062,-1.8091603053435115,0.20610687022900764,-1.5954198473282444
3881147716069,5.046332133,2,8.12711753540039,5.7508723876953125,0.7254431030273437,-1.7709923664122138,0.21374045801526717,-1.6106870229007633
3881157711382,5.056327446,2,8.07683930053711,5.72693037109375,0.7122749938964843,-1.748091603053435,0.19083969465648856,-1.5954198473282444
3881167795288,5.066411352,2,8.10197841796875,5.748478186035156,0.679953271484375,-1.8015267175572518,0.26717557251908397,-1.6488549618320612
3881178074819,5.076690883,2,8.141482745361328,5.748478186035156,0.7146691955566405,-1.7557251908396947,0.21374045801526717,-1.5801526717557253
3881188070184,5.086686248,2,8.125920434570313,5.734112976074218,0.7134720947265625,-1.7404580152671756,0.3282442748091603,-1.5801526717557253
3881198073830,5.096689894,2,8.125920434570313,5.756857891845703,0.7386112121582031,-1.8244274809160306,0.20610687022900764,-1.5572519083969465
3881208060653,5.106676717,2,8.118737829589843,5.767631799316406,0.74699091796875,-1.748091603053435,0.21374045801526717,-1.5648854961832062
3881218076642,5.116692706,2,8.124723333740233,5.741295581054687,0.7577648254394531,-1.7099236641221374,0.16793893129770993,-1.5954198473282444
3881228080913,5.126696977,2,8.104372619628906,5.746083984375,0.74699091796875,-1.6946564885496183,0.2748091603053435,-1.5572519083969465
3881238073622,5.136689686,2,8.116343627929687,5.762843395996094,0.729034405517578,-1.7404580152671756,0.16030534351145037,-1.5725190839694656
3881248058049,5.146674113,2,8.124723333740233,5.758054992675781,0.7350199096679687,-1.786259541984733,0.22137404580152673,-1.5954198473282444
3881258068465,5.156684529,2,8.122329132080077,5.766434698486328,0.7445967163085937,-1.786259541984733,0.25190839694656486,-1.6030534351145038
3881268119872,5.166735936,2,8.124723333740233,5.760449194335937,0.7314286071777343,-1.7938931297709924,0.22900763358778625,-1.5725190839694656
3881277700132,5.176316196,2,8.231265307617187,5.772420202636718,0.7493851196289062,-1.8473282442748091,0.2595419847328244,-1.5954198473282444
3881287687111,5.186303175,2,8.086416107177733,5.72693037109375,0.7218518005371093,-1.786259541984733,0.24427480916030533,-1.5725190839694656
3881297826851,5.196442915,2,8.10197841796875,5.746083984375,0.729034405517578,-1.7557251908396947,0.21374045801526717,-1.5572519083969465
3881307692788,5.206308852,2,8.118737829589843,5.738901379394531,0.7481880187988281,-1.7557251908396947,0.20610687022900764,-1.633587786259542
3881317686174,5.216302238,2,8.106766821289062,5.753266589355468,0.7422025146484375,-1.7709923664122138,0.16030534351145037,-1.6412213740458015
3881327684559,5.226300623,2,8.10796392211914,5.758054992675781,0.7206546997070312,-1.7557251908396947,0.19083969465648856,-1.5648854961832062
3881337690757,5.236306821,2,8.098387115478515,5.742492681884765,0.7158662963867187,-1.8015267175572518,0.2595419847328244,-1.6488549618320612
3881347692580,5.246308644,2,8.098387115478515,5.72693037109375,0.6751648681640625,-1.7404580152671756,0.24427480916030533,-1.5877862595419847
3881357690288,5.256306352,2,8.117540728759765,5.725733270263672,0.7074865905761718,-1.7404580152671756,0.22137404580152673,-1.534351145038168
3881367711330,5.266327394,2,8.11514652709961,5.755660791015624,0.7625532287597656,-1.717557251908397,0.25190839694656486,-1.549618320610687
3881378055861,5.276671925,2,8.10796392211914,5.754463690185546,0.6967126831054687,-1.7786259541984732,0.22900763358778625,-1.534351145038168
3881388098726,5.28671479,2,8.11514652709961,5.747281085205078,0.6907271789550781,-1.7709923664122138,0.26717557251908397,-1.5954198473282444
3881398063674,5.296679738,2,8.100781317138672,5.729324572753906,0.7350199096679687,-1.7328244274809161,0.1984732824427481,-1.5725190839694656
3881408056278,5.306672342,2,8.116343627929687,5.753266589355468,0.719457598876953,-1.7633587786259541,0.20610687022900764,-1.5801526717557253
3881418044507,5.316660571,2,8.109161022949218,5.760449194335937,0.7625532287597656,-1.748091603053435,0.24427480916030533,-1.6259541984732824
3881428048049,5.326664113,2,8.141482745361328,5.735310076904296,0.7362170104980469,-1.8091603053435115,0.25190839694656486,-1.6030534351145038
3881438039507,5.336655571,2,8.119934930419921,5.742492681884765,0.7505822204589844,-1.7938931297709924,0.2366412213740458,-1.5114503816793894
3881448057528,5.346673592,2,8.125920434570313,5.740098480224609,0.6907271789550781,-1.83206106870229,0.16030534351145037,-1.5648854961832062
3881458035705,5.356651769,2,8.12113203125,5.72693037109375,0.7003039855957031,-1.748091603053435,0.17557251908396945,-1.5801526717557253
3881468048726,5.36666479,2,8.110358123779296,5.7508723876953125,0.7230489013671875,-1.7786259541984732,0.20610687022900764,-1.618320610687023
3881478056538,5.376672602,2,8.090007409667969,5.737704278564453,0.7134720947265625,-1.6641221374045803,0.21374045801526717,-1.5648854961832062
3881488048257,5.386664321,2,8.118737829589843,5.741295581054687,0.7110778930664062,-1.7251908396946565,0.2366412213740458,-1.6259541984732824
3881498011174,5.396627238,2,8.125920434570313,5.779602807617187,0.7362170104980469,-1.7251908396946565,0.29770992366412213,-1.6030534351145038
3881508055392,5.406671456,2,8.103175518798828,5.764040496826172,0.7805097412109374,-1.7404580152671756,0.21374045801526717,-1.6564885496183206
3881518042632,5.416658696,2,8.117540728759765,5.755660791015624,0.6679822631835937,-1.7938931297709924,0.21374045801526717,-1.6106870229007633
3881528049976,5.42666604,2,8.093598712158203,5.7317187744140625,0.6919242797851562,-1.7938931297709924,0.2595419847328244,-1.5877862595419847
3881538046069,5.436662133,2,8.09479581298828,5.767631799316406,0.70868369140625,-1.8015267175572518,0.24427480916030533,-1.5801526717557253
3881548056486,5.44667255,2,8.12711753540039,5.755660791015624,0.70868369140625,-1.7786259541984732,0.19083969465648856,-1.5801526717557253
3881558048934,5.456664998,2,8.130708837890625,5.755660791015624,0.7062894897460937,-1.7328244274809161,0.26717557251908397,-1.6259541984732824
3881568046538,5.466662602,2,8.122329132080077,5.746083984375,0.7146691955566405,-1.717557251908397,0.22137404580152673,-1.6030534351145038
3881578053882,5.476669946,2,8.111555224609374,5.736507177734374,0.689530078125,-1.7709923664122138,0.22137404580152673,-1.6106870229007633
3881588053257,5.486669321,2,8.110358123779296,5.749675286865234,0.7278373046875,-1.786259541984733,0.2366412213740458,-1.618320610687023
3881598006434,5.496622498,2,8.087613208007811,5.744886883544922,0.7026981872558593,-1.717557251908397,0.24427480916030533,-1.6106870229007633
3881608046017,5.506662081,2,8.099584216308592,5.742492681884765,0.7110778930664062,-1.748091603053435,0.15267175572519084,-1.5572519083969465
3881618054298,5.516670362,2,8.104372619628906,5.716156463623046,0.7242460021972655,-1.7786259541984732,0.2824427480916031,-1.618320610687023
3881628052215,5.526668279,2,8.105569720458984,5.7317187744140625,0.699106884765625,-1.786259541984733,0.2595419847328244,-1.5648854961832062
3881638041642,5.536657706,2,8.142679846191406,5.723339068603515,0.7230489013671875,-1.7633587786259541,0.31297709923664124,-1.6412213740458015
3881648061173,5.546677237,2,8.136694342041014,5.744886883544922,0.7026981872558593,-1.7938931297709924,0.1984732824427481,-1.6106870229007633
3881658041382,5.556657446,2,8.148665350341796,5.741295581054687,0.6943184814453125,-1.786259541984733,0.2595419847328244,-1.5190839694656488
3881668054298,5.566670362,2,8.125920434570313,5.7520694885253905,0.719457598876953,-1.8091603053435115,0.24427480916030533,-1.5267175572519085
3881678042476,5.57665854,2,8.117540728759765,5.748478186035156,0.7326257080078125,-1.8015267175572518,0.2824427480916031,-1.5190839694656488
3881688058465,5.586674529,2,8.11514652709961,5.741295581054687,0.7122749938964843,-1.8015267175572518,0.2748091603053435,-1.5801526717557253
3881698043830,5.596659894,2,8.123526232910155,5.744886883544922,0.7565677246093749,-1.786259541984733,0.2595419847328244,-1.6106870229007633
3881708047423,5.606663487,2,8.112752325439452,5.759252093505859,0.7505822204589844,-1.7709923664122138,0.2748091603053435,-1.6259541984732824
3881718040757,5.616656821,2,8.124723333740233,5.760449194335937,0.7254431030273437,-1.7633587786259541,0.2366412213740458,-1.6488549618320612
3881728047111,5.626663175,2,8.136694342041014,5.767631799316406,0.7218518005371093,-1.717557251908397,0.2366412213740458,-1.6106870229007633
3881738041590,5.636657654,2,8.099584216308592,5.736507177734374,0.7481880187988281,-1.748091603053435,0.2595419847328244,-1.6030534351145038
3881748054298,5.646670362,2,8.119934930419921,5.748478186035156,0.7410054138183594,-1.7328244274809161,0.22900763358778625,-1.5725190839694656
3881758042944,5.656659008,2,8.112752325439452,5.738901379394531,0.709880792236328,-1.7938931297709924,0.2366412213740458,-1.5572519083969465
3881768054559,5.666670623,2,8.099584216308592,5.748478186035156,0.6883329772949218,-1.7938931297709924,0.2366412213740458,-1.5877862595419847
3881778042632,5.676658696,2,8.130708837890625,5.767631799316406,0.7589619262695312,-1.7633587786259541,0.29770992366412213,-1.5877862595419847
3881787959923,5.686575987,2,8.117540728759765,5.768828900146484,0.7338228088378905,-1.702290076335878,0.24427480916030533,-1.5725190839694656
3881798055236,5.6966713,2,8.139088543701172,5.7520694885253905,0.7003039855957031,-1.7709923664122138,0.19083969465648856,-1.5954198473282444
3881808047215,5.706663279,2,8.099584216308592,5.740098480224609,0.7445967163085937,-1.7404580152671756,0.20610687022900764,-1.6030534351145038
3881818004455,5.716620519,2,8.129511737060547,5.749675286865234,0.6739677673339843,-1.717557251908397,0.22900763358778625,-1.5801526717557253
3881828061642,5.726677706,2,8.139088543701172,5.758054992675781,0.729034405517578,-1.7251908396946565,0.2748091603053435,-1.5648854961832062
3881838037788,5.736653852,2,8.10197841796875,5.743689782714843,0.7230489013671875,-1.7557251908396947,0.31297709923664124,-1.618320610687023
3881847961746,5.74657781,2,8.151059552001952,5.756857891845703,0.7206546997070312,-1.8091603053435115,0.22900763358778625,-1.5877862595419847
3881858046642,5.756662706,2,8.119934930419921,5.756857891845703,0.719457598876953,-1.8091603053435115,0.2900763358778626,-1.6030534351145038
3881868041225,5.766657289,2,8.104372619628906,5.734112976074218,0.7505822204589844,-1.7786259541984732,0.24427480916030533,-1.5648854961832062
3881878029038,5.776645102,2,8.105569720458984,5.736507177734374,0.7146691955566405,-1.748091603053435,0.29770992366412213,-1.5877862595419847
3881888036590,5.786652654,2,8.14627114868164,5.754463690185546,0.7026981872558593,-1.8091603053435115,0.22137404580152673,-1.5877862595419847
3881898036798,5.796652862,2,8.143876947021484,5.753266589355468,0.7230489013671875,-1.7251908396946565,0.22900763358778625,-1.6030534351145038
3881908046330,5.806662394,2,8.104372619628906,5.738901379394531,0.74699091796875,-1.7404580152671756,0.22900763358778625,-1.5572519083969465
3881918027111,5.816643175,2,8.105569720458984,5.742492681884765,0.7218518005371093,-1.717557251908397,0.2748091603053435,-1.5725190839694656
3881928037892,5.826653956,2,8.129511737060547,5.759252093505859,0.7493851196289062,-1.748091603053435,0.22900763358778625,-1.5877862595419847
3881938062892,5.836678956,2,8.124723333740233,5.747281085205078,0.719457598876953,-1.7633587786259541,0.22900763358778625,-1.6030534351145038
3881948058621,5.846674685,2,8.09479581298828,5.759252093505859,0.718260498046875,-1.7557251908396947,0.2748091603053435,-1.5801526717557253
3881958037215,5.856653279,2,8.098387115478515,5.744886883544922,0.7326257080078125,-1.6870229007633588,0.2366412213740458,-1.6030534351145038
3881968034142,5.866650206,2,8.111555224609374,5.760449194335937,0.7062894897460937,-1.748091603053435,0.15267175572519084,-1.6412213740458015
3881978036850,5.876652914,2,8.095992913818359,5.743689782714843,0.7218518005371093,-1.717557251908397,0.24427480916030533,-1.618320610687023
3881988037840,5.886653904,2,8.129511737060547,5.748478186035156,0.7242460021972655,-1.7328244274809161,0.2366412213740458,-1.5572519083969465
3881998032736,5.8966488,2,8.106766821289062,5.77122310180664,0.7074865905761718,-1.8549618320610688,0.183206106870229,-1.633587786259542
3882007989611,5.906605675,2,8.117540728759765,5.730521673583984,0.729034405517578,-1.7786259541984732,0.21374045801526717,-1.6488549618320612
3882017993465,5.916609529,2,8.13310303955078,5.743689782714843,0.7553706237792969,-1.7557251908396947,0.16793893129770993,-1.5801526717557253
3882028043621,5.926659685,2,8.10796392211914,5.728127471923828,0.7398083129882812,-1.748091603053435,0.24427480916030533,-1.5419847328244274
3882038049767,5.936665831,2,8.125920434570313,5.768828900146484,0.699106884765625,-1.7557251908396947,0.24427480916030533,-1.549618320610687
3882048055340,5.946671404,2,8.128314636230469,5.738901379394531,0.719457598876953,-1.7786259541984732,0.29770992366412213,-1.549618320610687
3882058046277,5.956662341,2,8.12711753540039,5.7520694885253905,0.6967126831054687,-1.7328244274809161,0.24427480916030533,-1.549618320610687
3882068047007,5.966663071,2,8.104372619628906,5.7520694885253905,0.74699091796875,-1.7404580152671756,0.3053435114503817,-1.5954198473282444
3882078060809,5.976676873,2,8.122329132080077,5.746083984375,0.7410054138183594,-1.748091603053435,0.22137404580152673,-1.6030534351145038
3882088053048,5.986669112,2,8.116343627929687,5.754463690185546,0.7230489013671875,-1.7786259541984732,0.2595419847328244,-1.5954198473282444
3882098056746,5.99667281,2,8.093598712158203,5.778405706787109,0.7888894470214843,-1.8244274809160306,0.183206106870229,-1.6488549618320612
3882108058413,6.006674477,2,8.11514652709961,5.764040496826172,0.6847416748046875,-1.7328244274809161,0.26717557251908397,-1.618320610687023
3882118061798,6.016677862,2,8.109161022949218,5.718550665283203,0.7146691955566405,-1.6870229007633588,0.19083969465648856,-1.534351145038168
3882128049298,6.026665362,2,8.112752325439452,5.72693037109375,0.7362170104980469,-1.7328244274809161,0.24427480916030533,-1.5648854961832062
3882138053673,6.036669737,2,8.119934930419921,5.759252093505859,0.737414111328125,-1.7709923664122138,0.2366412213740458,-1.5648854961832062
3882148061173,6.046677237,2,8.109161022949218,5.741295581054687,0.7721300354003906,-1.7404580152671756,0.2595419847328244,-1.618320610687023
3882158048465,6.056664529,2,8.119934930419921,5.754463690185546,0.6859387756347656,-1.7404580152671756,0.2366412213740458,-1.5725190839694656
3882168065080,6.066681144,2,8.128314636230469,5.768828900146484,0.6955155822753906,-1.702290076335878,0.3053435114503817,-1.618320610687023
3882178057007,6.076673071,2,8.113949426269532,5.748478186035156,0.7266402038574218,-1.786259541984733,0.22137404580152673,-1.6564885496183206
3882188059923,6.086675987,2,8.092401611328125,5.734112976074218,0.7326257080078125,-1.8015267175572518,0.3053435114503817,-1.534351145038168
3882198044767,6.096660831,2,8.099584216308592,5.743689782714843,0.6955155822753906,-1.7633587786259541,0.2366412213740458,-1.633587786259542
3882208059819,6.106675883,2,8.11514652709961,5.762843395996094,0.729034405517578,-1.7328244274809161,0.26717557251908397,-1.6106870229007633
3882218047579,6.116663643,2,8.116343627929687,5.760449194335937,0.7637503295898437,-1.748091603053435,0.22900763358778625,-1.5801526717557253
3882228077579,6.126693643,2,8.10796392211914,5.728127471923828,0.7457938171386719,-1.786259541984733,0.2366412213740458,-1.5877862595419847
3882238054298,6.136670362,2,8.11514652709961,5.747281085205078,0.7314286071777343,-1.7709923664122138,0.16793893129770993,-1.5648854961832062
3882248065965,6.146682029,2,8.12711753540039,5.755660791015624,0.7302315063476562,-1.7709923664122138,0.24427480916030533,-1.6030534351145038
3882258053777,6.156669841,2,8.131905938720703,5.762843395996094,0.7326257080078125,-1.748091603053435,0.16793893129770993,-1.5419847328244274
3882268070600,6.166686664,2,8.141482745361328,5.72693037109375,0.7362170104980469,-1.7633587786259541,0.2748091603053435,-1.5572519083969465
3882278065965,6.176682029,2,8.100781317138672,5.786785412597656,0.6871358764648438,-1.7404580152671756,0.1984732824427481,-1.5572519083969465
3882288057788,6.186673852,2,8.137891442871092,5.746083984375,0.7721300354003906,-1.7404580152671756,0.2748091603053435,-1.5725190839694656
3882298014871,6.196630935,2,8.125920434570313,5.758054992675781,0.7541735229492187,-1.7633587786259541,0.20610687022900764,-1.5572519083969465
3882308054454,6.206670518,2,8.125920434570313,5.749675286865234,0.7505822204589844,-1.7251908396946565,0.2366412213740458,-1.6030534351145038
3882318047632,6.216663696,2,8.141482745361328,5.746083984375,0.7230489013671875,-1.6946564885496183,0.183206106870229,-1.5954198473282444
3882328058777,6.226674841,2,8.130708837890625,5.749675286865234,0.7410054138183594,-1.7633587786259541,0.2824427480916031,-1.6030534351145038
3882338042944,6.236659008,2,8.119934930419921,5.761646295166015,0.7350199096679687,-1.7786259541984732,0.22900763358778625,-1.6106870229007633
3882348054611,6.246670675,2,8.111555224609374,5.738901379394531,0.7733271362304687,-1.7328244274809161,0.2748091603053435,-1.6412213740458015
3882358043204,6.256659268,2,8.100781317138672,5.722141967773437,0.7122749938964843,-1.7786259541984732,0.24427480916030533,-1.6030534351145038
3882368057319,6.266673383,2,8.117540728759765,5.737704278564453,0.7206546997070312,-1.7709923664122138,0.26717557251908397,-1.5648854961832062
3882378057371,6.276673435,2,8.124723333740233,5.747281085205078,0.7134720947265625,-1.717557251908397,0.22900763358778625,-1.5801526717557253
3882388047632,6.286663696,2,8.112752325439452,5.747281085205078,0.7302315063476562,-1.702290076335878,0.26717557251908397,-1.6106870229007633
3882398041382,6.296657446,2,8.10197841796875,5.762843395996094,0.74699091796875,-1.748091603053435,0.19083969465648856,-1.618320610687023
3882408059507,6.306675571,2,8.110358123779296,5.7508723876953125,0.7649474304199219,-1.7404580152671756,0.25190839694656486,-1.5725190839694656
3882418051954,6.316668018,2,8.106766821289062,5.748478186035156,0.7266402038574218,-1.7786259541984732,0.2824427480916031,-1.5648854961832062
3882428053725,6.326669789,2,8.130708837890625,5.7508723876953125,0.7134720947265625,-1.8091603053435115,0.2748091603053435,-1.618320610687023
3882438057423,6.336673487,2,8.137891442871092,5.743689782714843,0.7026981872558593,-1.8091603053435115,0.19083969465648856,-1.5954198473282444
3882448056850,6.346672914,2,8.13310303955078,5.7520694885253905,0.7206546997070312,-1.786259541984733,0.2366412213740458,-1.5572519083969465
3882458045131,6.356661195,2,8.110358123779296,5.760449194335937,0.729034405517578,-1.7938931297709924,0.22137404580152673,-1.6030534351145038
3882468059767,6.366675831,2,8.128314636230469,5.759252093505859,0.7218518005371093,-1.7633587786259541,0.22900763358778625,-1.5648854961832062
3882478068152,6.376684216,2,8.097190014648437,5.730521673583984,0.7398083129882812,-1.8015267175572518,0.17557251908396945,-1.5648854961832062
3882488059350,6.386675414,2,8.128314636230469,5.737704278564453,0.7661445312499999,-1.748091603053435,0.24427480916030533,-1.5954198473282444
3882498052319,6.396668383,2,8.106766821289062,5.761646295166015,0.6979097839355468,-1.8015267175572518,0.22137404580152673,-1.534351145038168
3882508052059,6.406668123,2,8.143876947021484,5.744886883544922,0.7110778930664062,-1.786259541984733,0.2366412213740458,-1.5954198473282444
3882518042319,6.416658383,2,8.113949426269532,5.754463690185546,0.7266402038574218,-1.7404580152671756,0.2366412213740458,-1.5801526717557253
3882528065496,6.42668156,2,8.099584216308592,5.730521673583984,0.7278373046875,-1.7633587786259541,0.22900763358778625,-1.5801526717557253
3882538049246,6.43666531,2,8.10796392211914,5.7317187744140625,0.7302315063476562,-1.8091603053435115,0.2824427480916031,-1.5648854961832062
3882548063204,6.446679268,2,8.124723333740233,5.761646295166015,0.737414111328125,-1.7633587786259541,0.22137404580152673,-1.618320610687023
3882558055913,6.456671977,2,8.112752325439452,5.762843395996094,0.7589619262695312,-1.7404580152671756,0.1984732824427481,-1.5877862595419847
3882568053100,6.466669164,2,8.10796392211914,5.766434698486328,0.7481880187988281,-1.7251908396946565,0.21374045801526717,-1.5725190839694656
3882578056173,6.476672237,2,8.106766821289062,5.747281085205078,0.7410054138183594,-1.748091603053435,0.22137404580152673,-1.5877862595419847
3882588048465,6.486664529,2,8.12113203125,5.749675286865234,0.7110778930664062,-1.717557251908397,0.20610687022900764,-1.5801526717557253
3882598051277,6.496667341,2,8.130708837890625,5.743689782714843,0.7050923889160156,-1.748091603053435,0.26717557251908397,-1.5648854961832062
3882608056538,6.506672602,2,8.112752325439452,5.729324572753906,0.7170633972167968,-1.717557251908397,0.25190839694656486,-1.633587786259542
3882618053256,6.51666932,2,8.10796392211914,5.724536169433593,0.7134720947265625,-1.748091603053435,0.2366412213740458,-1.6030534351145038
3882628052059,6.526668123,2,8.139088543701172,5.730521673583984,0.7110778930664062,-1.7328244274809161,0.21374045801526717,-1.5267175572519085
3882638047371,6.536663435,2,8.098387115478515,5.748478186035156,0.7050923889160156,-1.7099236641221374,0.24427480916030533,-1.6259541984732824
3882648058152,6.546674216,2,8.124723333740233,5.758054992675781,0.7158662963867187,-1.7709923664122138,0.16030534351145037,-1.5801526717557253
3882658046173,6.556662237,2,8.117540728759765,5.748478186035156,0.7338228088378905,-1.7404580152671756,0.3282442748091603,-1.5801526717557253
3882668044246,6.56666031,2,8.098387115478515,5.756857891845703,0.6967126831054687,-1.7404580152671756,0.22137404580152673,-1.549618320610687
3882678064454,6.576680518,2,8.131905938720703,5.737704278564453,0.7649474304199219,-1.816793893129771,0.29770992366412213,-1.5572519083969465
3882688057579,6.586673643,2,8.097190014648437,5.756857891845703,0.7649474304199219,-1.7938931297709924,0.1984732824427481,-1.5801526717557253
3882698047006,6.59666307,2,8.106766821289062,5.747281085205078,0.6931213806152343,-1.8091603053435115,0.31297709923664124,-1.549618320610687
3882708054402,6.606670466,2,8.100781317138672,5.730521673583984,0.7206546997070312,-1.7251908396946565,0.22137404580152673,-1.5877862595419847
3882718050913,6.616666977,2,8.136694342041014,5.761646295166015,0.7350199096679687,-1.7404580152671756,0.2824427480916031,-1.5954198473282444
3882728058204,6.626674268,2,8.097190014648437,5.724536169433593,0.7015010864257812,-1.7099236641221374,0.22137404580152673,-1.549618320610687
3882738074454,6.636690518,2,8.110358123779296,5.735310076904296,0.7529764221191406,-1.7786259541984732,0.29770992366412213,-1.5954198473282444
3882748062475,6.646678539,2,8.111555224609374,5.744886883544922,0.74699091796875,-1.7557251908396947,0.22900763358778625,-1.5801526717557253
3882758060079,6.656676143,2,8.104372619628906,5.756857891845703,0.7015010864257812,-1.7633587786259541,0.2595419847328244,-1.5877862595419847
3882768056746,6.66667281,2,8.117540728759765,5.749675286865234,0.7422025146484375,-1.7709923664122138,0.22900763358778625,-1.5954198473282444
3882778073673,6.676689737,2,8.099584216308592,5.743689782714843,0.7637503295898437,-1.7709923664122138,0.3282442748091603,-1.6412213740458015
3882788052058,6.686668122,2,8.145074047851562,5.766434698486328,0.7278373046875,-1.748091603053435,0.24427480916030533,-1.5801526717557253
3882798041173,6.696657237,2,8.12113203125,5.734112976074218,0.6943184814453125,-1.7404580152671756,0.26717557251908397,-1.633587786259542
3882808080236,6.7066963,2,8.142679846191406,5.753266589355468,0.7433996154785156,-1.7557251908396947,0.21374045801526717,-1.5877862595419847
3882818046850,6.716662914,2,8.093598712158203,5.779602807617187,0.7493851196289062,-1.7938931297709924,0.2595419847328244,-1.5725190839694656
3882828050704,6.726666768,2,8.12113203125,5.76523759765625,0.6847416748046875,-1.7786259541984732,0.22900763358778625,-1.5954198473282444
3882838028517,6.736644581,2,8.100781317138672,5.738901379394531,0.7673416320800781,-1.748091603053435,0.25190839694656486,-1.618320610687023
3882848065600,6.746681664,2,8.14028564453125,5.746083984375,0.7326257080078125,-1.717557251908397,0.183206106870229,-1.6030534351145038
3882858051017,6.756667081,2,8.116343627929687,5.749675286865234,0.6883329772949218,-1.717557251908397,0.2900763358778626,-1.5725190839694656
3882868059819,6.766675883,2,8.117540728759765,5.7520694885253905,0.7410054138183594,-1.7938931297709924,0.16793893129770993,-1.6106870229007633
3882878077371,6.776693435,2,8.113949426269532,5.737704278564453,0.7110778930664062,-1.7557251908396947,0.24427480916030533,-1.5648854961832062
3882888055392,6.786671456,2,8.123526232910155,5.737704278564453,0.7637503295898437,-1.8091603053435115,0.2595419847328244,-1.5954198473282444
3882898047892,6.796663956,2,8.10796392211914,5.736507177734374,0.6955155822753906,-1.7328244274809161,0.26717557251908397,-1.6488549618320612
3882908057215,6.806673279,2,8.11514652709961,5.734112976074218,0.7003039855957031,-1.717557251908397,0.17557251908396945,-1.5648854961832062
3882918045131,6.816661195,2,8.119934930419921,5.759252093505859,0.6871358764648438,-1.7251908396946565,0.22900763358778625,-1.6106870229007633
3882928054610,6.826670674,2,8.112752325439452,5.746083984375,0.7338228088378905,-1.7328244274809161,0.19083969465648856,-1.5419847328244274
3882938047944,6.836664008,2,8.142679846191406,5.738901379394531,0.7218518005371093,-1.7328244274809161,0.32061068702290074,-1.5801526717557253
3882948052996,6.84666906,2,8.130708837890625,5.746083984375,0.7673416320800781,-1.7404580152671756,0.24427480916030533,-1.633587786259542
3882958041538,6.856657602,2,8.100781317138672,5.723339068603515,0.7302315063476562,-1.748091603053435,0.2366412213740458,-1.6030534351145038
3882968062631,6.866678695,2,8.12711753540039,5.747281085205078,0.7170633972167968,-1.748091603053435,0.20610687022900764,-1.5877862595419847
3882978081069,6.876697133,2,8.124723333740233,5.774814404296874,0.7206546997070312,-1.7251908396946565,0.1984732824427481,-1.6030534351145038
3882988054142,6.886670206,2,8.11514652709961,5.768828900146484,0.7457938171386719,-1.7938931297709924,0.22137404580152673,-1.618320610687023
3882998048621,6.896664685,2,8.117540728759765,5.72693037109375,0.7254431030273437,-1.8091603053435115,0.24427480916030533,-1.6030534351145038
3883008057631,6.906673695,2,8.105569720458984,5.738901379394531,0.7685387329101562,-1.7404580152671756,0.2824427480916031,-1.5725190839694656
3883018045913,6.916661977,2,8.109161022949218,5.749675286865234,0.7362170104980469,-1.702290076335878,0.22900763358778625,-1.6412213740458015
3883028053725,6.926669789,2,8.12711753540039,5.766434698486328,0.7613561279296874,-1.7633587786259541,0.26717557251908397,-1.5648854961832062
3883038046694,6.936662758,2,8.111555224609374,5.756857891845703,0.7350199096679687,-1.7099236641221374,0.2366412213740458,-1.6030534351145038
3883048053465,6.946669529,2,8.118737829589843,5.741295581054687,0.7266402038574218,-1.7328244274809161,0.22900763358778625,-1.5877862595419847
3883058043933,6.956659997,2,8.125920434570313,5.777208605957031,0.7577648254394531,-1.7633587786259541,0.17557251908396945,-1.5725190839694656
3883067969038,6.966585102,2,8.136694342041014,5.755660791015624,0.6679822631835937,-1.7633587786259541,0.2748091603053435,-1.5725190839694656
3883078117371,6.976733435,2,8.116343627929687,5.760449194335937,0.729034405517578,-1.816793893129771,0.2595419847328244,-1.5954198473282444
3883088055704,6.986671768,2,8.099584216308592,5.761646295166015,0.7386112121582031,-1.7938931297709924,0.32061068702290074,-1.6106870229007633
3883098054246,6.99667031,2,8.09479581298828,5.761646295166015,0.6847416748046875,-1.7709923664122138,0.2595419847328244,-1.4961832061068703
3883108052683,7.006668747,2,8.123526232910155,5.772420202636718,0.6859387756347656,-1.7786259541984732,0.2748091603053435,-1.5648854961832062
3883118050287,7.016666351,2,8.122329132080077,5.7520694885253905,0.6979097839355468,-1.8244274809160306,0.22900763358778625,-1.5725190839694656
3883128058829,7.026674893,2,8.110358123779296,5.722141967773437,0.7601590270996094,-1.7404580152671756,0.3511450381679389,-1.5419847328244274
3883138045965,7.036662029,2,8.135497241210937,5.725733270263672,0.7230489013671875,-1.7099236641221374,0.17557251908396945,-1.5725190839694656
3883148054662,7.046670726,2,8.117540728759765,5.7329158752441405,0.7266402038574218,-1.7251908396946565,0.3053435114503817,-1.549618320610687
3883158044142,7.056660206,2,8.112752325439452,5.749675286865234,0.7422025146484375,-1.7328244274809161,0.19083969465648856,-1.5877862595419847
3883168048725,7.066664789,2,8.080430603027343,5.760449194335937,0.7445967163085937,-1.7557251908396947,0.25190839694656486,-1.618320610687023
3883178051590,7.076667654,2,8.109161022949218,5.744886883544922,0.7457938171386719,-1.7557251908396947,0.24427480916030533,-1.549618320610687
3883188064975,7.086681039,2,8.104372619628906,5.758054992675781,0.7170633972167968,-1.748091603053435,0.2900763358778626,-1.5801526717557253
3883198051433,7.096667497,2,8.117540728759765,5.754463690185546,0.70868369140625,-1.7557251908396947,0.19083969465648856,-1.5954198473282444
3883208054871,7.106670935,2,8.109161022949218,5.7508723876953125,0.6907271789550781,-1.748091603053435,0.2595419847328244,-1.5954198473282444
3883218050808,7.116666872,2,8.104372619628906,5.764040496826172,0.729034405517578,-1.8015267175572518,0.21374045801526717,-1.5648854961832062
3883228049298,7.126665362,2,8.109161022949218,5.741295581054687,0.729034405517578,-1.8091603053435115,0.31297709923664124,-1.5877862595419847
3883238043465,7.136659529,2,8.117540728759765,5.774814404296874,0.6871358764648438,-1.7557251908396947,0.22137404580152673,-1.5801526717557253
3883248057735,7.146673799,2,8.141482745361328,5.749675286865234,0.7278373046875,-1.748091603053435,0.29770992366412213,-1.6106870229007633
3883258047319,7.156663383,2,8.135497241210937,5.742492681884765,0.6871358764648438,-1.7709923664122138,0.2366412213740458,-1.6717557251908397
3883268049506,7.16666557,2,8.112752325439452,5.748478186035156,0.7074865905761718,-1.7709923664122138,0.25190839694656486,-1.5572519083969465
3883278046017,7.176662081,2,8.117540728759765,5.747281085205078,0.7122749938964843,-1.7557251908396947,0.24427480916030533,-1.5725190839694656
3883288053360,7.186669424,2,8.095992913818359,5.759252093505859,0.7445967163085937,-1.7251908396946565,0.26717557251908397,-1.6030534351145038
3883298073569,7.196689633,2,8.105569720458984,5.777208605957031,0.6859387756347656,-1.7251908396946565,0.1984732824427481,-1.6488549618320612
3883308054714,7.206670778,2,8.09479581298828,5.741295581054687,0.7326257080078125,-1.717557251908397,0.25190839694656486,-1.5954198473282444
3883318047735,7.216663799,2,8.103175518798828,5.7520694885253905,0.7362170104980469,-1.7404580152671756,0.19083969465648856,-1.6030534351145038
3883328054037,7.226670101,2,8.10796392211914,5.740098480224609,0.7781155395507812,-1.748091603053435,0.24427480916030533,-1.6106870229007633
3883338044402,7.236660466,2,8.113949426269532,5.7508723876953125,0.729034405517578,-1.7786259541984732,0.1984732824427481,-1.618320610687023
3883348064089,7.246680153,2,8.122329132080077,5.738901379394531,0.7637503295898437,-1.7404580152671756,0.24427480916030533,-1.6106870229007633
3883358048517,7.256664581,2,8.10197841796875,5.749675286865234,0.6979097839355468,-1.7251908396946565,0.16030534351145037,-1.5648854961832062
3883368048777,7.266664841,2,8.100781317138672,5.746083984375,0.7003039855957031,-1.7709923664122138,0.25190839694656486,-1.6106870229007633
3883378039506,7.27665557,2,8.111555224609374,5.734112976074218,0.7122749938964843,-1.8091603053435115,0.2748091603053435,-1.5877862595419847
3883388111121,7.286727185,2,8.093598712158203,5.755660791015624,0.737414111328125,-1.7938931297709924,0.29770992366412213,-1.549618320610687
3883398049142,7.296665206,2,8.090007409667969,5.759252093505859,0.70868369140625,-1.7709923664122138,0.2595419847328244,-1.549618320610687
3883408066485,7.306682549,2,8.145074047851562,5.736507177734374,0.70868369140625,-1.7786259541984732,0.3053435114503817,-1.5725190839694656
3883418049662,7.316665726,2,8.098387115478515,5.758054992675781,0.7134720947265625,-1.786259541984733,0.2748091603053435,-1.5877862595419847
3883428045860,7.326661924,2,8.11514652709961,5.760449194335937,0.7146691955566405,-1.7328244274809161,0.32061068702290074,-1.5648854961832062
3883438041381,7.336657445,2,8.12113203125,5.741295581054687,0.7326257080078125,-1.7251908396946565,0.2595419847328244,-1.5725190839694656
3883448063985,7.346680049,2,8.110358123779296,5.740098480224609,0.7529764221191406,-1.7328244274809161,0.21374045801526717,-1.5725190839694656
3883458059714,7.356675778,2,8.106766821289062,5.741295581054687,0.7302315063476562,-1.8091603053435115,0.2366412213740458,-1.5954198473282444
3883468052527,7.366668591,2,8.116343627929687,5.756857891845703,0.6931213806152343,-1.8244274809160306,0.2366412213740458,-1.6106870229007633
3883478056902,7.376672966,2,8.106766821289062,5.748478186035156,0.7206546997070312,-1.786259541984733,0.22137404580152673,-1.6106870229007633
3883488049767,7.386665831,2,8.08881030883789,5.741295581054687,0.6763619689941406,-1.7404580152671756,0.22137404580152673,-1.5877862595419847
3883498047475,7.396663539,2,8.091204510498047,5.766434698486328,0.7649474304199219,-1.7557251908396947,0.2366412213740458,-1.5572519083969465
3883508053777,7.406669841,2,8.11514652709961,5.743689782714843,0.7230489013671875,-1.7786259541984732,0.24427480916030533,-1.6030534351145038
3883518050339,7.416666403,2,8.095992913818359,5.760449194335937,0.74699091796875,-1.7633587786259541,0.21374045801526717,-1.5801526717557253
3883528058516,7.42667458,2,8.123526232910155,5.746083984375,0.6919242797851562,-1.7633587786259541,0.19083969465648856,-1.618320610687023
3883538048256,7.43666432,2,8.106766821289062,5.7520694885253905,0.7386112121582031,-1.7557251908396947,0.21374045801526717,-1.5954198473282444
3883547964298,7.446580362,2,8.079233502197265,5.755660791015624,0.7386112121582031,-1.748091603053435,0.1984732824427481,-1.6259541984732824
3883558040600,7.456656664,2,8.122329132080077,5.762843395996094,0.679953271484375,-1.7251908396946565,0.2748091603053435,-1.6259541984732824
3883568055287,7.466671351,2,8.14028564453125,5.756857891845703,0.6596025573730468,-1.7404580152671756,0.19083969465648856,-1.618320610687023
3883578008360,7.476624424,2,8.106766821289062,5.7700260009765625,0.7134720947265625,-1.786259541984733,0.22137404580152673,-1.5572519083969465
3883588052475,7.486668539,2,8.095992913818359,5.746083984375,0.6979097839355468,-1.7709923664122138,0.15267175572519084,-1.5801526717557253
3883598046641,7.496662705,2,8.105569720458984,5.735310076904296,0.7254431030273437,-1.7404580152671756,0.22900763358778625,-1.6488549618320612
3883608053308,7.506669372,2,8.124723333740233,5.760449194335937,0.679953271484375,-1.7557251908396947,0.2366412213740458,-1.6106870229007633
3883618057683,7.516673747,2,8.130708837890625,5.744886883544922,0.7613561279296874,-1.7557251908396947,0.26717557251908397,-1.5419847328244274
3883628060756,7.52667682,2,8.12711753540039,5.753266589355468,0.7218518005371093,-1.7938931297709924,0.16030534351145037,-1.5954198473282444
3883638044871,7.536660935,2,8.10197841796875,5.755660791015624,0.7062894897460937,-1.7938931297709924,0.20610687022900764,-1.549618320610687
3883648057475,7.546673539,2,8.134300140380859,5.767631799316406,0.7266402038574218,-1.7557251908396947,0.1297709923664122,-1.6106870229007633
3883658045079,7.556661143,2,8.100781317138672,5.758054992675781,0.7517793212890624,-1.7404580152671756,0.22900763358778625,-1.5877862595419847
3883668053985,7.566670049,2,8.10796392211914,5.740098480224609,0.7350199096679687,-1.7786259541984732,0.1984732824427481,-1.549618320610687
3883678043100,7.576659164,2,8.084021905517577,5.740098480224609,0.7278373046875,-1.717557251908397,0.26717557251908397,-1.5877862595419847
3883688050860,7.586666924,2,8.112752325439452,5.753266589355468,0.7457938171386719,-1.7633587786259541,0.1450381679389313,-1.6412213740458015
3883698053204,7.596669268,2,8.064868292236328,5.762843395996094,0.7206546997070312,-1.7709923664122138,0.2748091603053435,-1.6259541984732824
3883708058673,7.606674737,2,8.100781317138672,5.762843395996094,0.7206546997070312,-1.748091603053435,0.1984732824427481,-1.5648854961832062
3883718042996,7.61665906,2,8.119934930419921,5.760449194335937,0.729034405517578,-1.717557251908397,0.2824427480916031,-1.5877862595419847
3883728056173,7.626672237,2,8.12113203125,5.723339068603515,0.7481880187988281,-1.7328244274809161,0.16030534351145037,-1.5801526717557253
3883738045860,7.636661924,2,8.070853796386718,5.7329158752441405,0.7170633972167968,-1.7557251908396947,0.31297709923664124,-1.5954198473282444
3883748053412,7.646669476,2,8.081627703857421,5.744886883544922,0.7326257080078125,-1.7709923664122138,0.1984732824427481,-1.6259541984732824
3883758050027,7.656666091,2,8.128314636230469,5.749675286865234,0.7338228088378905,-1.7709923664122138,0.2748091603053435,-1.6259541984732824
3883768054610,7.666670674,2,8.135497241210937,5.76523759765625,0.7673416320800781,-1.7938931297709924,0.16793893129770993,-1.5877862595419847
3883778043308,7.676659372,2,8.12113203125,5.766434698486328,0.7146691955566405,-1.7786259541984732,0.2824427480916031,-1.618320610687023
3883788058568,7.686674632,2,8.081627703857421,5.749675286865234,0.70868369140625,-1.7557251908396947,0.19083969465648856,-1.5877862595419847
3883798040235,7.696656299,2,8.106766821289062,5.740098480224609,0.6859387756347656,-1.7404580152671756,0.3435114503816794,-1.5725190839694656
3883808050079,7.706666143,2,8.100781317138672,5.718550665283203,0.7493851196289062,-1.7328244274809161,0.2366412213740458,-1.5725190839694656
3883818047735,7.716663799,2,8.110358123779296,5.738901379394531,0.7110778930664062,-1.7251908396946565,0.2366412213740458,-1.6030534351145038
3883828055912,7.726671976,2,8.10796392211914,5.735310076904296,0.7146691955566405,-1.748091603053435,0.16030534351145037,-1.6259541984732824
3883838056589,7.736672653,2,8.100781317138672,5.738901379394531,0.7457938171386719,-1.7633587786259541,0.2824427480916031,-1.5725190839694656
3883848061016,7.74667708,2,8.10796392211914,5.742492681884765,0.7158662963867187,-1.7633587786259541,0.2366412213740458,-1.5801526717557253
3883858065235,7.756681299,2,8.134300140380859,5.749675286865234,0.7721300354003906,-1.7404580152671756,0.2748091603053435,-1.5954198473282444
3883867966746,7.76658281,2,8.11514652709961,5.749675286865234,0.7398083129882812,-1.7404580152671756,0.19083969465648856,-1.5725190839694656
3883878049558,7.776665622,2,8.122329132080077,5.7508723876953125,0.7589619262695312,-1.7328244274809161,0.2824427480916031,-1.6106870229007633
3883888058829,7.786674893,2,8.110358123779296,5.747281085205078,0.7433996154785156,-1.7328244274809161,0.2366412213740458,-1.534351145038168
3883898042891,7.796658955,2,8.13310303955078,5.743689782714843,0.7062894897460937,-1.7099236641221374,0.24427480916030533,-1.618320610687023
3883908058152,7.806674216,2,8.129511737060547,5.7520694885253905,0.6931213806152343,-1.7251908396946565,0.183206106870229,-1.6412213740458015
3883918047475,7.816663539,2,8.117540728759765,5.768828900146484,0.6751648681640625,-1.7709923664122138,0.16793893129770993,-1.5572519083969465
3883928051746,7.82666781,2,8.109161022949218,5.748478186035156,0.7038952880859375,-1.7328244274809161,0.22900763358778625,-1.5877862595419847
3883938068048,7.836684112,2,8.11514652709961,5.759252093505859,0.7170633972167968,-1.7557251908396947,0.25190839694656486,-1.6106870229007633
3883948098881,7.846714945,2,8.119934930419921,5.724536169433593,0.7110778930664062,-1.7404580152671756,0.3511450381679389,-1.6030534351145038
3883958054193,7.856670257,2,8.105569720458984,5.744886883544922,0.7134720947265625,-1.717557251908397,0.366412213740458,-1.618320610687023
3883968061641,7.866677705,2,8.109161022949218,5.764040496826172,0.7170633972167968,-1.7328244274809161,0.2824427480916031,-1.618320610687023
3883978064714,7.876680778,2,8.10796392211914,5.772420202636718,0.7314286071777343,-1.7251908396946565,0.2748091603053435,-1.6564885496183206
3883988058256,7.88667432,2,8.130708837890625,5.7700260009765625,0.7206546997070312,-1.6946564885496183,0.22900763358778625,-1.6106870229007633
3883998043725,7.896659789,2,8.095992913818359,5.741295581054687,0.7266402038574218,-1.717557251908397,0.25190839694656486,-1.549618320610687
3884008051173,7.906667237,2,8.12113203125,5.728127471923828,0.7254431030273437,-1.7633587786259541,0.2900763358778626,-1.618320610687023
3884018048620,7.916664684,2,8.119934930419921,5.748478186035156,0.7146691955566405,-1.7557251908396947,0.20610687022900764,-1.5648854961832062
3884028053204,7.926669268,2,8.091204510498047,5.76523759765625,0.7278373046875,-1.7786259541984732,0.25190839694656486,-1.5419847328244274
3884038047995,7.936664059,2,8.111555224609374,5.764040496826172,0.7266402038574218,-1.7557251908396947,0.24427480916030533,-1.5725190839694656
3884048062318,7.946678382,2,8.117540728759765,5.742492681884765,0.7410054138183594,-1.8091603053435115,0.2748091603053435,-1.6106870229007633
3884058045443,7.956661507,2,8.12711753540039,5.737704278564453,0.6967126831054687,-1.786259541984733,0.22137404580152673,-1.6412213740458015
3884068053204,7.966669268,2,8.122329132080077,5.767631799316406,0.7601590270996094,-1.7633587786259541,0.22900763358778625,-1.618320610687023
3884078009298,7.976625362,2,8.117540728759765,5.741295581054687,0.7338228088378905,-1.7328244274809161,0.15267175572519084,-1.5572519083969465
3884088056277,7.986672341,2,8.117540728759765,5.735310076904296,0.7003039855957031,-1.7557251908396947,0.2748091603053435,-1.5725190839694656
3884098047839,7.996663903,2,8.118737829589843,5.780799908447265,0.70868369140625,-1.7328244274809161,0.17557251908396945,-1.5419847328244274
3884108049089,8.006665153,2,8.119934930419921,5.737704278564453,0.7625532287597656,-1.7633587786259541,0.26717557251908397,-1.5954198473282444
3884118037214,8.016653278,2,8.12113203125,5.744886883544922,0.7206546997070312,-1.8091603053435115,0.16793893129770993,-1.5877862595419847
3884128049662,8.026665726,2,8.113949426269532,5.748478186035156,0.718260498046875,-1.7328244274809161,0.25190839694656486,-1.5725190839694656
3884138042475,8.036658539,2,8.106766821289062,5.755660791015624,0.7158662963867187,-1.7404580152671756,0.2366412213740458,-1.5267175572519085
3884148057006,8.04667307,2,8.081627703857421,5.742492681884765,0.7026981872558593,-1.8473282442748091,0.2900763358778626,-1.633587786259542
3884158039558,8.056655622,2,8.141482745361328,5.759252093505859,0.709880792236328,-1.8015267175572518,0.2366412213740458,-1.5801526717557253
3884168046797,8.066662861,2,8.12711753540039,5.742492681884765,0.7457938171386719,-1.7251908396946565,0.3435114503816794,-1.6564885496183206
3884178061329,8.076677393,2,8.116343627929687,5.741295581054687,0.7362170104980469,-1.7709923664122138,0.20610687022900764,-1.5877862595419847
3884188047839,8.086663903,2,8.097190014648437,5.743689782714843,0.7493851196289062,-1.7328244274809161,0.3053435114503817,-1.6412213740458015
3884198049506,8.09666557,2,8.10796392211914,5.760449194335937,0.7505822204589844,-1.7709923664122138,0.19083969465648856,-1.6030534351145038
3884208046068,8.106662132,2,8.105569720458984,5.754463690185546,0.7529764221191406,-1.748091603053435,0.32061068702290074,-1.5954198473282444
3884218042370,8.116658434,2,8.0828248046875,5.729324572753906,0.7122749938964843,-1.7786259541984732,0.20610687022900764,-1.6106870229007633
3884228046068,8.126662132,2,8.116343627929687,5.7329158752441405,0.7242460021972655,-1.83206106870229,0.24427480916030533,-1.5648854961832062
3884238039818,8.136655882,2,8.112752325439452,5.743689782714843,0.6871358764648438,-1.7938931297709924,0.16793893129770993,-1.5725190839694656
3884248051537,8.146667601,2,8.116343627929687,5.749675286865234,0.7218518005371093,-1.7633587786259541,0.24427480916030533,-1.618320610687023
3884258039089,8.156655153,2,8.117540728759765,5.748478186035156,0.7074865905761718,-1.7633587786259541,0.183206106870229,-1.5954198473282444
3884268061797,8.166677861,2,8.093598712158203,5.754463690185546,0.7122749938964843,-1.7557251908396947,0.29770992366412213,-1.633587786259542
3884278041693,8.176657757,2,8.103175518798828,5.747281085205078,0.718260498046875,-1.8091603053435115,0.21374045801526717,-1.5877862595419847
3884288078881,8.186694945,2,8.110358123779296,5.762843395996094,0.7422025146484375,-1.7557251908396947,0.25190839694656486,-1.5801526717557253
3884298050600,8.196666664,2,8.124723333740233,5.7520694885253905,0.6751648681640625,-1.786259541984733,0.22137404580152673,-1.5954198473282444
3884308044610,8.206660674,2,8.106766821289062,5.729324572753906,0.7050923889160156,-1.7709923664122138,0.2900763358778626,-1.6259541984732824
3884318034297,8.216650361,2,8.123526232910155,5.756857891845703,0.7122749938964843,-1.7709923664122138,0.24427480916030533,-1.6030534351145038
3884327963047,8.226579111,2,8.111555224609374,5.749675286865234,0.719457598876953,-1.7328244274809161,0.3053435114503817,-1.618320610687023
3884338043620,8.236659684,2,8.110358123779296,5.748478186035156,0.718260498046875,-1.748091603053435,0.22137404580152673,-1.6030534351145038
3884347961537,8.246577601,2,8.099584216308592,5.7520694885253905,0.7314286071777343,-1.7099236641221374,0.26717557251908397,-1.6106870229007633
3884358044870,8.256660934,2,8.099584216308592,5.742492681884765,0.7745242370605468,-1.7633587786259541,0.20610687022900764,-1.549618320610687
3884368043829,8.266659893,2,8.128314636230469,5.7329158752441405,0.7026981872558593,-1.7633587786259541,0.3282442748091603,-1.5954198473282444
3884378039662,8.276655726,2,8.058882788085937,5.747281085205078,0.729034405517578,-1.8091603053435115,0.22137404580152673,-1.5419847328244274
3884388062839,8.286678903,2,8.091204510498047,5.749675286865234,0.7410054138183594,-1.7633587786259541,0.25190839694656486,-1.6259541984732824
3884398040756,8.29665682,2,8.123526232910155,5.736507177734374,0.7326257080078125,-1.7709923664122138,0.2595419847328244,-1.6259541984732824
3884408053412,8.306669476,2,8.106766821289062,5.741295581054687,0.7134720947265625,-1.7328244274809161,0.25190839694656486,-1.5954198473282444
3884418047787,8.316663851,2,8.098387115478515,5.774814404296874,0.7062894897460937,-1.7633587786259541,0.2824427480916031,-1.5419847328244274
3884428048724,8.326664788,2,8.141482745361328,5.738901379394531,0.7445967163085937,-1.786259541984733,0.25190839694656486,-1.549618320610687
3884438038308,8.336654372,2,8.130708837890625,5.76523759765625,0.70868369140625,-1.8244274809160306,0.21374045801526717,-1.633587786259542
3884448051641,8.346667705,2,8.111555224609374,5.725733270263672,0.7230489013671875,-1.7557251908396947,0.17557251908396945,-1.633587786259542
3884458038464,8.356654528,2,8.099584216308592,5.744886883544922,0.7122749938964843,-1.7938931297709924,0.25190839694656486,-1.6106870229007633
3884468040443,8.366656507,2,8.103175518798828,5.748478186035156,0.7709329345703124,-1.8015267175572518,0.183206106870229,-1.618320610687023
3884478042422,8.376658486,2,8.113949426269532,5.738901379394531,0.7230489013671875,-1.7404580152671756,0.20610687022900764,-1.5877862595419847
3884488053516,8.38666958,2,8.099584216308592,5.759252093505859,0.7230489013671875,-1.786259541984733,0.21374045801526717,-1.618320610687023
3884498044349,8.396660413,2,8.125920434570313,5.766434698486328,0.7254431030273437,-1.7328244274809161,0.2748091603053435,-1.6106870229007633
3884508044974,8.406661038,2,8.110358123779296,5.749675286865234,0.7158662963867187,-1.7328244274809161,0.22137404580152673,-1.5877862595419847
3884518040443,8.416656507,2,8.129511737060547,5.749675286865234,0.7146691955566405,-1.7557251908396947,0.26717557251908397,-1.5572519083969465
3884528041068,8.426657132,2,8.08881030883789,5.737704278564453,0.7302315063476562,-1.748091603053435,0.2748091603053435,-1.5114503816793894
3884538034245,8.436650309,2,8.086416107177733,5.716156463623046,0.7314286071777343,-1.7938931297709924,0.35877862595419846,-1.6412213740458015
3884548053204,8.446669268,2,8.116343627929687,5.764040496826172,0.7134720947265625,-1.8015267175572518,0.24427480916030533,-1.5954198473282444
3884558043568,8.456659632,2,8.12113203125,5.761646295166015,0.7577648254394531,-1.748091603053435,0.24427480916030533,-1.5572519083969465
3884568043933,8.466659997,2,8.105569720458984,5.748478186035156,0.7015010864257812,-1.748091603053435,0.21374045801526717,-1.6030534351145038
3884578050079,8.476666143,2,8.11514652709961,5.7508723876953125,0.729034405517578,-1.7709923664122138,0.3053435114503817,-1.5954198473282444
3884588100079,8.486716143,2,8.104372619628906,5.747281085205078,0.7218518005371093,-1.7557251908396947,0.22137404580152673,-1.618320610687023
3884598038256,8.49665432,2,8.109161022949218,5.748478186035156,0.6739677673339843,-1.7938931297709924,0.24427480916030533,-1.6106870229007633
3884608050599,8.506666663,2,8.11514652709961,5.758054992675781,0.7050923889160156,-1.748091603053435,0.22137404580152673,-1.6488549618320612
3884618040808,8.516656872,2,8.119934930419921,5.77122310180664,0.7302315063476562,-1.748091603053435,0.2366412213740458,-1.6412213740458015
3884628047683,8.526663747,2,8.128314636230469,5.749675286865234,0.6979097839355468,-1.786259541984733,0.1450381679389313,-1.5801526717557253
3884638050079,8.536666143,2,8.106766821289062,5.7329158752441405,0.7362170104980469,-1.7404580152671756,0.2824427480916031,-1.6259541984732824
3884648055131,8.546671195,2,8.12711753540039,5.777208605957031,0.7206546997070312,-1.6870229007633588,0.2366412213740458,-1.618320610687023
3884658041016,8.55665708,2,8.129511737060547,5.755660791015624,0.7038952880859375,-1.717557251908397,0.26717557251908397,-1.6030534351145038
3884668047058,8.566663122,2,8.142679846191406,5.740098480224609,0.7326257080078125,-1.7404580152671756,0.16030534351145037,-1.5877862595419847
3884678046589,8.576662653,2,8.105569720458984,5.72693037109375,0.7026981872558593,-1.7633587786259541,0.25190839694656486,-1.5801526717557253
3884688102110,8.586718174,2,8.157045056152343,5.759252093505859,0.7445967163085937,-1.786259541984733,0.2900763358778626,-1.5572519083969465
3884698057162,8.596673226,2,8.103175518798828,5.7520694885253905,0.7278373046875,-1.786259541984733,0.29770992366412213,-1.5572519083969465
3884708053099,8.606669163,2,8.128314636230469,5.735310076904296,0.7158662963867187,-1.7557251908396947,0.22900763358778625,-1.5801526717557253
3884718041120,8.616657184,2,8.124723333740233,5.746083984375,0.7230489013671875,-1.7938931297709924,0.2900763358778626,-1.5801526717557253
3884728048047,8.626664111,2,8.12113203125,5.725733270263672,0.7422025146484375,-1.7404580152671756,0.22137404580152673,-1.5877862595419847
3884738040964,8.636657028,2,8.12711753540039,5.76523759765625,0.7302315063476562,-1.7557251908396947,0.2748091603053435,-1.5954198473282444
