timestamp_ns,t_s,sensor_id,ax,ay,az,gx,gy,gz
3876279577530,0.178193594,3,-0.18076222534179687,-0.5267243652343749,-8.950722906494141,-5.00763358778626,-0.33587786259541985,-3.5572519083969465
3876289469665,0.188085729,3,-0.20470424194335937,-0.5231330627441406,-8.942343200683593,-4.442748091603053,-0.3435114503816794,-3.1374045801526718
3876299254040,0.197870104,3,-0.20231004028320312,-0.507570751953125,-8.927977990722656,-4.404580152671755,-0.31297709923664124,-3.1908396946564888
3876309197998,0.207814062,3,-0.21308394775390624,-0.5470750793457031,-8.957905511474609,-4.419847328244275,-0.31297709923664124,-3.1526717557251906
3876319192373,0.217808437,3,-0.21787235107421873,-0.5351040710449219,-8.948328704833983,-4.419847328244275,-0.26717557251908397,-3.1374045801526718
3876329203780,0.227819844,3,-0.19871873779296872,-0.5183446594238281,-8.943540301513671,-4.396946564885496,-0.31297709923664124,-3.122137404580153
3876339201644,0.237817708,3,-0.1879448303222656,-0.55545478515625,-8.90643017578125,-4.3893129770992365,-0.31297709923664124,-3.183206106870229
3876349197894,0.247813958,3,-0.1867477294921875,-0.5327098693847656,-8.967482318115234,-4.412213740458015,-0.26717557251908397,-3.2213740458015265
3876359191488,0.257807552,3,-0.18555062866210936,-0.5219359619140624,-8.966285217285156,-4.458015267175573,-0.19083969465648856,-3.183206106870229
3876369196540,0.267812604,3,-0.19393033447265623,-0.5147533569335937,-8.93875189819336,-4.458015267175573,-0.35877862595419846,-3.198473282442748
3876379172842,0.277788906,3,-0.1867477294921875,-0.5327098693847656,-8.926780889892578,-4.488549618320611,-0.2748091603053435,-3.1526717557251906
3876389186853,0.287802917,3,-0.2154781494140625,-0.5590460876464843,-8.985438830566405,-4.488549618320611,-0.32061068702290074,-3.0763358778625953
3876399199925,0.297815989,3,-0.20829554443359374,-0.5327098693847656,-8.95670841064453,-4.3816793893129775,-0.29770992366412213,-3.145038167938931
3876409175707,0.307791771,3,-0.22026655273437498,-0.5674257934570313,-8.904035974121093,-4.427480916030534,-0.3435114503816794,-3.0610687022900764
3876419217790,0.317833854,3,-0.18435352783203124,-0.5482721801757812,-8.930372192382812,-4.442748091603053,-0.2900763358778626,-3.099236641221374
3876429201748,0.327817812,3,-0.17477672119140625,-0.5351040710449219,-8.978256225585938,-4.427480916030534,-0.31297709923664124,-3.122137404580153
3876439197113,0.337813177,3,-0.1879448303222656,-0.5195417602539062,-8.955511309814453,-4.404580152671755,-0.29770992366412213,-3.0916030534351147
3876449191488,0.347807552,3,-0.2059013427734375,-0.55545478515625,-8.949525805664061,-4.396946564885496,-0.366412213740458,-3.1068702290076335
3876459226800,0.357842864,3,-0.19991583862304688,-0.5446808776855468,-8.917204083251953,-4.465648854961832,-0.2366412213740458,-3.1374045801526718
3876469205342,0.367821406,3,-0.21188684692382811,-0.5374982727050781,-8.978256225585938,-4.450381679389313,-0.3282442748091603,-3.145038167938931
3876479194092,0.377810156,3,-0.20829554443359374,-0.5219359619140624,-8.993818536376953,-4.488549618320611,-0.2595419847328244,-3.145038167938931
3876489205394,0.387821458,3,-0.201112939453125,-0.5638344909667968,-8.9255837890625,-4.3893129770992365,-0.2824427480916031,-3.1603053435114505
3876499194717,0.397810781,3,-0.20231004028320312,-0.5339069702148437,-8.93755479736328,-4.3816793893129775,-0.2366412213740458,-3.1068702290076335
3876509193207,0.407809271,3,-0.21428104858398436,-0.5327098693847656,-8.945934503173827,-4.427480916030534,-0.3511450381679389,-3.16793893129771
3876519200134,0.417816198,3,-0.229843359375,-0.5470750793457031,-8.965088116455078,-4.435114503816794,-0.3053435114503817,-3.1603053435114505
3876529191540,0.427807604,3,-0.201112939453125,-0.5518634826660156,-8.96269391479492,-4.442748091603053,-0.31297709923664124,-3.145038167938931
3876539186071,0.437802135,3,-0.19991583862304688,-0.5410895751953124,-8.894459167480468,-4.488549618320611,-0.31297709923664124,-3.0916030534351147
3876549200655,0.447816719,3,-0.1927332336425781,-0.5231330627441406,-8.948328704833983,-4.488549618320611,-0.31297709923664124,-3.1526717557251906
3876559227477,0.457843541,3,-0.201112939453125,-0.5542576843261718,-8.939948999023438,-4.419847328244275,-0.3053435114503817,-3.1297709923664123
3876569208988,0.467825052,3,-0.20470424194335937,-0.5303156677246094,-8.984241729736327,-4.412213740458015,-0.33587786259541985,-3.16793893129771
3876579191957,0.477808021,3,-0.2166752502441406,-0.5386953735351562,-8.930372192382812,-4.396946564885496,-0.3053435114503817,-3.1297709923664123
3876589201592,0.487817656,3,-0.20949264526367187,-0.5494692810058593,-8.947131604003905,-4.412213740458015,-0.3511450381679389,-3.1603053435114505
3876599187477,0.497803541,3,-0.20709844360351562,-0.5363011718749999,-8.93755479736328,-4.473282442748092,-0.24427480916030533,-3.1374045801526718
3876609191019,0.507807083,3,-0.19991583862304688,-0.5410895751953124,-8.951920007324219,-4.404580152671755,-0.3435114503816794,-3.1297709923664123
3876619200030,0.517816094,3,-0.19512743530273435,-0.5422866760253906,-8.963891015625,-4.412213740458015,-0.2366412213740458,-3.114503816793893
3876629194405,0.527810469,3,-0.2154781494140625,-0.5410895751953124,-8.91840118408203,-4.450381679389313,-0.35877862595419846,-3.1526717557251906
3876639141071,0.537757135,3,-0.19512743530273435,-0.5626373901367188,-8.91840118408203,-4.473282442748092,-0.32061068702290074,-3.1374045801526718
3876649216123,0.547832187,3,-0.22864625854492185,-0.5267243652343749,-8.905233074951171,-4.488549618320611,-0.3893129770992366,-3.1526717557251906
3876659198936,0.557815,3,-0.20829554443359374,-0.5327098693847656,-8.942343200683593,-4.473282442748092,-0.32061068702290074,-3.1297709923664123
3876669168727,0.567784791,3,-0.21308394775390624,-0.5602431884765625,-8.93875189819336,-4.450381679389313,-0.3969465648854962,-3.099236641221374
3876679200030,0.577816094,3,-0.19632453613281248,-0.5398924743652344,-8.989030133056641,-4.412213740458015,-0.2595419847328244,-3.099236641221374
3876689194665,0.587810729,3,-0.1879448303222656,-0.5590460876464843,-8.965088116455078,-4.480916030534351,-0.3435114503816794,-3.145038167938931
3876699138936,0.597755,3,-0.19632453613281248,-0.5446808776855468,-8.9255837890625,-4.3816793893129775,-0.2595419847328244,-3.1374045801526718
3876709198155,0.607814219,3,-0.23223756103515625,-0.5482721801757812,-8.936357696533202,-4.435114503816794,-0.33587786259541985,-3.1374045801526718
3876719210030,0.617826094,3,-0.21188684692382811,-0.5303156677246094,-8.96987651977539,-4.3816793893129775,-0.2366412213740458,-3.1297709923664123
3876729191384,0.627807448,3,-0.22505495605468748,-0.5494692810058593,-8.945934503173827,-4.419847328244275,-0.32061068702290074,-3.183206106870229
3876739191904,0.637807968,3,-0.1927332336425781,-0.5386953735351562,-8.968679418945312,-4.374045801526718,-0.29770992366412213,-3.1297709923664123
3876749233415,0.647849479,3,-0.2059013427734375,-0.5351040710449219,-8.9255837890625,-4.450381679389313,-0.3816793893129771,-3.145038167938931
3876759191019,0.657807083,3,-0.19512743530273435,-0.5363011718749999,-8.94473740234375,-4.450381679389313,-0.3282442748091603,-3.0763358778625953
3876769208936,0.667825,3,-0.18315642700195311,-0.5434837768554687,-8.93755479736328,-4.435114503816794,-0.3816793893129771,-3.122137404580153
3876779202425,0.677818489,3,-0.20470424194335937,-0.5339069702148437,-8.936357696533202,-4.435114503816794,-0.2595419847328244,-3.1526717557251906
3876789196123,0.687812187,3,-0.21068974609375,-0.5398924743652344,-8.905233074951171,-4.419847328244275,-0.3053435114503817,-3.122137404580153
3876799198207,0.697814271,3,-0.20350714111328125,-0.5578489868164063,-8.941146099853515,-4.4961832061068705,-0.22900763358778625,-3.1374045801526718
3876809199092,0.707815156,3,-0.201112939453125,-0.5674257934570313,-8.935160595703124,-4.412213740458015,-0.3511450381679389,-3.145038167938931
3876819201227,0.717817291,3,-0.22026655273437498,-0.5159504577636719,-8.93755479736328,-4.3893129770992365,-0.31297709923664124,-3.1526717557251906
3876829203102,0.727819166,3,-0.2214636535644531,-0.5482721801757812,-8.93156929321289,-4.412213740458015,-0.2900763358778626,-3.145038167938931
3876839457582,0.738073646,3,-0.1975216369628906,-0.5315127685546874,-8.971073620605468,-4.511450381679389,-0.22900763358778625,-3.1603053435114505
3876849231488,0.747847552,3,-0.19393033447265623,-0.5351040710449219,-8.93755479736328,-4.450381679389313,-0.31297709923664124,-3.1603053435114505
3876859215811,0.757831875,3,-0.2166752502441406,-0.5458779785156249,-8.901641772460938,-4.3816793893129775,-0.2366412213740458,-3.145038167938931
3876869207738,0.767823802,3,-0.2262520568847656,-0.5410895751953124,-8.95670841064453,-4.473282442748092,-0.35877862595419846,-3.1297709923664123
3876879191957,0.777808021,3,-0.19632453613281248,-0.5434837768554687,-8.942343200683593,-4.412213740458015,-0.2748091603053435,-3.1374045801526718
3876889159196,0.78777526,3,-0.2214636535644531,-0.5267243652343749,-8.985438830566405,-4.374045801526718,-0.29770992366412213,-3.1297709923664123
3876899196332,0.797812396,3,-0.20949264526367187,-0.5363011718749999,-8.978256225585938,-4.358778625954199,-0.31297709923664124,-3.1603053435114505
3876909200290,0.807816354,3,-0.21068974609375,-0.5506663818359374,-8.929175091552734,-4.412213740458015,-0.3893129770992366,-3.16793893129771
3876919199092,0.817815156,3,-0.1927332336425781,-0.5291185668945312,-8.97705912475586,-4.458015267175573,-0.26717557251908397,-3.1526717557251906
3876929204509,0.827820573,3,-0.20829554443359374,-0.5434837768554687,-8.959102612304687,-4.396946564885496,-0.35877862595419846,-3.1068702290076335
3876939195967,0.837812031,3,-0.18315642700195311,-0.5374982727050781,-8.950722906494141,-4.442748091603053,-0.25190839694656486,-3.1374045801526718
3876949195394,0.847811458,3,-0.22505495605468748,-0.5410895751953124,-8.9255837890625,-4.419847328244275,-0.37404580152671757,-3.1526717557251906
3876959195811,0.857811875,3,-0.2059013427734375,-0.5638344909667968,-8.941146099853515,-4.435114503816794,-0.2595419847328244,-3.122137404580153
3876969210759,0.867826823,3,-0.21308394775390624,-0.5267243652343749,-8.979453326416015,-4.419847328244275,-0.31297709923664124,-3.1374045801526718
3876979195186,0.87781125,3,-0.20470424194335937,-0.5363011718749999,-8.908824377441405,-4.427480916030534,-0.2824427480916031,-3.1374045801526718
3876989195029,0.887811093,3,-0.22026655273437498,-0.5422866760253906,-8.913612780761719,-4.435114503816794,-0.3511450381679389,-3.1374045801526718
3876999207009,0.897823073,3,-0.21787235107421873,-0.5602431884765625,-8.932766394042968,-4.465648854961832,-0.22900763358778625,-3.099236641221374
3877009204821,0.907820885,3,-0.19393033447265623,-0.5458779785156249,-8.92438668823242,-4.473282442748092,-0.3053435114503817,-3.0763358778625953
3877019197790,0.917813854,3,-0.19512743530273435,-0.5446808776855468,-8.917204083251953,-4.450381679389313,-0.25190839694656486,-3.1068702290076335
3877029192998,0.927809062,3,-0.19871873779296872,-0.5446808776855468,-8.957905511474609,-4.427480916030534,-0.3511450381679389,-3.1068702290076335
3877039187842,0.937803906,3,-0.19871873779296872,-0.5434837768554687,-8.94473740234375,-4.427480916030534,-0.2824427480916031,-3.1374045801526718
3877049193467,0.947809531,3,-0.201112939453125,-0.5243301635742187,-8.913612780761719,-4.480916030534351,-0.35877862595419846,-3.1374045801526718
3877059196904,0.957812968,3,-0.20949264526367187,-0.5279214660644531,-8.905233074951171,-4.465648854961832,-0.2595419847328244,-3.099236641221374
3877069213102,0.967829166,3,-0.19512743530273435,-0.5590460876464843,-8.963891015625,-4.427480916030534,-0.3969465648854962,-3.114503816793893
3877079196540,0.977812604,3,-0.1771709228515625,-0.5159504577636719,-8.94473740234375,-4.427480916030534,-0.2824427480916031,-3.1374045801526718
3877089193936,0.98781,3,-0.21308394775390624,-0.5530605834960938,-8.936357696533202,-4.412213740458015,-0.33587786259541985,-3.1526717557251906
3877099195915,0.997811979,3,-0.181959326171875,-0.5758054992675781,-8.926780889892578,-4.396946564885496,-0.2748091603053435,-3.2290076335877864
3877109204404,1.007820468,3,-0.18435352783203124,-0.5458779785156249,-8.921992486572265,-4.480916030534351,-0.3511450381679389,-3.183206106870229
3877119198467,1.017814531,3,-0.19991583862304688,-0.5710170959472656,-8.954314208984375,-4.450381679389313,-0.22137404580152673,-3.1297709923664123
3877129211644,1.027827708,3,-0.20829554443359374,-0.5482721801757812,-8.949525805664061,-4.419847328244275,-0.32061068702290074,-3.198473282442748
3877139186331,1.037802395,3,-0.20829554443359374,-0.5315127685546874,-8.908824377441405,-4.458015267175573,-0.29770992366412213,-3.183206106870229
3877149191436,1.0478075,3,-0.19393033447265623,-0.5734112976074218,-8.927977990722656,-4.427480916030534,-0.3435114503816794,-3.1755725190839694
3877159197998,1.057814062,3,-0.2214636535644531,-0.5219359619140624,-8.93875189819336,-4.412213740458015,-0.2366412213740458,-3.1526717557251906
3877169196331,1.067812395,3,-0.19393033447265623,-0.5470750793457031,-8.978256225585938,-4.374045801526718,-0.3511450381679389,-3.1755725190839694
3877179182633,1.077798697,3,-0.21068974609375,-0.5386953735351562,-8.93755479736328,-4.396946564885496,-0.2366412213740458,-3.145038167938931
3877189204092,1.087820156,3,-0.22864625854492185,-0.5279214660644531,-8.888473663330078,-4.419847328244275,-0.3053435114503817,-3.114503816793893
3877199211175,1.097827239,3,-0.201112939453125,-0.51714755859375,-8.890867864990234,-4.412213740458015,-0.2824427480916031,-3.1068702290076335
3877209200029,1.107816093,3,-0.1975216369628906,-0.5542576843261718,-8.93156929321289,-4.4961832061068705,-0.3282442748091603,-3.1297709923664123
3877219220238,1.117836302,3,-0.18315642700195311,-0.5315127685546874,-8.933963494873046,-4.458015267175573,-0.3053435114503817,-3.1297709923664123
3877229199092,1.127815156,3,-0.21068974609375,-0.5542576843261718,-8.972270721435546,-4.3893129770992365,-0.366412213740458,-3.145038167938931
3877239204977,1.137821041,3,-0.19632453613281248,-0.5279214660644531,-8.94473740234375,-4.442748091603053,-0.32061068702290074,-3.2061068702290076
3877249200238,1.147816302,3,-0.181959326171875,-0.5386953735351562,-8.957905511474609,-4.435114503816794,-0.3511450381679389,-3.145038167938931
3877259198623,1.157814687,3,-0.22266075439453123,-0.5219359619140624,-8.939948999023438,-4.458015267175573,-0.31297709923664124,-3.1603053435114505
3877269209561,1.167825625,3,-0.20350714111328125,-0.5386953735351562,-8.953117108154297,-4.465648854961832,-0.31297709923664124,-3.1755725190839694
3877279196383,1.177812447,3,-0.21906945190429686,-0.5351040710449219,-8.926780889892578,-4.396946564885496,-0.26717557251908397,-3.1603053435114505
3877289204561,1.187820625,3,-0.22505495605468748,-0.5351040710449219,-8.877699755859375,-4.442748091603053,-0.35877862595419846,-3.1297709923664123
3877299194456,1.19781052,3,-0.18555062866210936,-0.5279214660644531,-8.89326206665039,-4.419847328244275,-0.2824427480916031,-3.1755725190839694
3877309193311,1.207809375,3,-0.21308394775390624,-0.5183446594238281,-8.933963494873046,-4.396946564885496,-0.33587786259541985,-3.122137404580153
3877319213467,1.217829531,3,-0.18076222534179687,-0.49799394531249996,-8.914809881591797,-4.396946564885496,-0.3282442748091603,-3.145038167938931
3877329199352,1.227815416,3,-0.19512743530273435,-0.5243301635742187,-8.902838873291016,-4.435114503816794,-0.3511450381679389,-3.1526717557251906
3877339193206,1.23780927,3,-0.1879448303222656,-0.55545478515625,-8.961496813964843,-4.419847328244275,-0.37404580152671757,-3.122137404580153
3877349223415,1.247839479,3,-0.201112939453125,-0.5494692810058593,-8.973467822265624,-4.427480916030534,-0.3816793893129771,-3.114503816793893
3877359193415,1.257809479,3,-0.19153613281249998,-0.5446808776855468,-8.914809881591797,-4.442748091603053,-0.32061068702290074,-3.0839694656488548
3877369202217,1.267818281,3,-0.22385785522460935,-0.5530605834960938,-8.932766394042968,-4.412213740458015,-0.3282442748091603,-3.1297709923664123
3877379193154,1.277809218,3,-0.20470424194335937,-0.5303156677246094,-8.930372192382812,-4.396946564885496,-0.3435114503816794,-3.122137404580153
3877389309821,1.287925885,3,-0.21068974609375,-0.5530605834960938,-8.93755479736328,-4.419847328244275,-0.2748091603053435,-3.122137404580153
3877399259196,1.29787526,3,-0.1867477294921875,-0.5363011718749999,-8.935160595703124,-4.4961832061068705,-0.2824427480916031,-3.1526717557251906
3877409256852,1.307872916,3,-0.2166752502441406,-0.5446808776855468,-8.941146099853515,-4.442748091603053,-0.29770992366412213,-3.16793893129771
3877419219769,1.317835833,3,-0.19512743530273435,-0.5506663818359374,-8.984241729736327,-4.419847328244275,-0.2748091603053435,-3.198473282442748
3877429209821,1.327825885,3,-0.22505495605468748,-0.5255272644042969,-8.947131604003905,-4.450381679389313,-0.29770992366412213,-3.1297709923664123
3877439209873,1.337825937,3,-0.18555062866210936,-0.5422866760253906,-8.954314208984375,-4.473282442748092,-0.2824427480916031,-3.16793893129771
3877449207165,1.347823229,3,-0.21068974609375,-0.5746083984375,-8.941146099853515,-4.427480916030534,-0.29770992366412213,-3.1603053435114505
3877459199144,1.357815208,3,-0.1975216369628906,-0.5614402893066406,-8.950722906494141,-4.419847328244275,-0.2748091603053435,-3.114503816793893
3877469212269,1.367828333,3,-0.2262520568847656,-0.5793968017578125,-8.947131604003905,-4.404580152671755,-0.32061068702290074,-3.0916030534351147
3877479206227,1.377822291,3,-0.22744915771484372,-0.5662286926269531,-8.93875189819336,-4.412213740458015,-0.3053435114503817,-3.099236641221374
3877489203415,1.387819479,3,-0.19512743530273435,-0.5518634826660156,-8.935160595703124,-4.427480916030534,-0.3816793893129771,-3.1755725190839694
3877499198623,1.397814687,3,-0.20470424194335937,-0.5626373901367188,-8.996212738037109,-4.480916030534351,-0.3435114503816794,-3.16793893129771
3877509198415,1.407814479,3,-0.19991583862304688,-0.5374982727050781,-8.941146099853515,-4.458015267175573,-0.3893129770992366,-3.1297709923664123
3877519205446,1.41782151,3,-0.19393033447265623,-0.5398924743652344,-8.957905511474609,-4.442748091603053,-0.2595419847328244,-3.1374045801526718
3877529207738,1.427823802,3,-0.201112939453125,-0.5123591552734374,-8.991424334716797,-4.442748091603053,-0.2824427480916031,-3.1297709923664123
3877539200029,1.437816093,3,-0.19153613281249998,-0.5327098693847656,-8.929175091552734,-4.442748091603053,-0.33587786259541985,-3.099236641221374
3877549203102,1.447819166,3,-0.19512743530273435,-0.5315127685546874,-8.926780889892578,-4.435114503816794,-0.2900763358778626,-3.1297709923664123
3877559204352,1.457820416,3,-0.20231004028320312,-0.5446808776855468,-8.93875189819336,-4.435114503816794,-0.2824427480916031,-3.1603053435114505
3877569210185,1.467826249,3,-0.20350714111328125,-0.5374982727050781,-8.953117108154297,-4.396946564885496,-0.3053435114503817,-3.114503816793893
3877579209404,1.477825468,3,-0.19991583862304688,-0.5530605834960938,-8.96269391479492,-4.419847328244275,-0.2748091603053435,-3.1374045801526718
3877589199352,1.487815416,3,-0.21428104858398436,-0.5231330627441406,-8.942343200683593,-4.366412213740458,-0.40458015267175573,-3.1603053435114505
3877599334769,1.497950833,3,-0.1927332336425781,-0.5458779785156249,-8.974664923095702,-4.435114503816794,-0.29770992366412213,-3.1908396946564888
3877609333102,1.507949166,3,-0.17836802368164062,-0.5339069702148437,-8.963891015625,-4.488549618320611,-0.3435114503816794,-3.198473282442748
3877619208415,1.517824479,3,-0.201112939453125,-0.5339069702148437,-8.913612780761719,-4.442748091603053,-0.32061068702290074,-3.1908396946564888
3877629177477,1.527793541,3,-0.20231004028320312,-0.5590460876464843,-8.947131604003905,-4.419847328244275,-0.37404580152671757,-3.114503816793893
3877639202633,1.537818697,3,-0.18914193115234373,-0.5746083984375,-8.923189587402343,-4.412213740458015,-0.29770992366412213,-3.0916030534351147
3877649198571,1.547814635,3,-0.2214636535644531,-0.5363011718749999,-8.939948999023438,-4.442748091603053,-0.35877862595419846,-3.1297709923664123
3877659192998,1.557809062,3,-0.20231004028320312,-0.5410895751953124,-8.966285217285156,-4.3816793893129775,-0.21374045801526717,-3.1374045801526718
3877669202008,1.567818072,3,-0.18435352783203124,-0.51714755859375,-8.936357696533202,-4.450381679389313,-0.2900763358778626,-3.0763358778625953
3877679199560,1.577815624,3,-0.20829554443359374,-0.5566518859863281,-8.947131604003905,-4.404580152671755,-0.20610687022900764,-3.1755725190839694
3877689178779,1.587794843,3,-0.20829554443359374,-0.5303156677246094,-8.967482318115234,-4.465648854961832,-0.3053435114503817,-3.1374045801526718
3877699207790,1.597823854,3,-0.2059013427734375,-0.5386953735351562,-8.943540301513671,-4.458015267175573,-0.2900763358778626,-3.1297709923664123
3877709192842,1.607808906,3,-0.21906945190429686,-0.5339069702148437,-8.953117108154297,-4.404580152671755,-0.32061068702290074,-3.1603053435114505
3877719180758,1.617796822,3,-0.18914193115234373,-0.5291185668945312,-8.950722906494141,-4.435114503816794,-0.26717557251908397,-3.114503816793893
3877729206227,1.627822291,3,-0.21428104858398436,-0.55545478515625,-8.984241729736327,-4.3816793893129775,-0.31297709923664124,-3.1755725190839694
3877739196800,1.637812864,3,-0.18555062866210936,-0.5410895751953124,-8.920795385742187,-4.396946564885496,-0.2748091603053435,-3.1374045801526718
3877749196123,1.647812187,3,-0.1879448303222656,-0.5291185668945312,-8.93755479736328,-4.442748091603053,-0.31297709923664124,-3.1603053435114505
3877759188831,1.657804895,3,-0.201112939453125,-0.5147533569335937,-8.97705912475586,-4.480916030534351,-0.29770992366412213,-3.145038167938931
3877769200862,1.667816926,3,-0.19512743530273435,-0.5267243652343749,-8.971073620605468,-4.435114503816794,-0.33587786259541985,-3.1068702290076335
3877779183623,1.677799687,3,-0.21188684692382811,-0.5470750793457031,-8.957905511474609,-4.435114503816794,-0.2824427480916031,-3.145038167938931
3877789202060,1.687818124,3,-0.21308394775390624,-0.5494692810058593,-8.942343200683593,-4.450381679389313,-0.32061068702290074,-3.1755725190839694
3877799178310,1.697794374,3,-0.22385785522460935,-0.5422866760253906,-8.901641772460938,-4.442748091603053,-0.26717557251908397,-3.1374045801526718
3877809199248,1.707815312,3,-0.21068974609375,-0.5207388610839844,-8.93156929321289,-4.465648854961832,-0.3816793893129771,-3.1297709923664123
3877819207633,1.717823697,3,-0.21308394775390624,-0.5374982727050781,-8.939948999023438,-4.473282442748092,-0.22900763358778625,-3.16793893129771
3877829198414,1.727814478,3,-0.22505495605468748,-0.5351040710449219,-8.926780889892578,-4.419847328244275,-0.3282442748091603,-3.2061068702290076
3877839160810,1.737776874,3,-0.1867477294921875,-0.5506663818359374,-8.93755479736328,-4.3893129770992365,-0.3053435114503817,-3.16793893129771
3877849191956,1.74780802,3,-0.20470424194335937,-0.55545478515625,-8.908824377441405,-4.480916030534351,-0.3511450381679389,-3.1908396946564888
3877859190550,1.757806614,3,-0.19033903198242186,-0.5770026000976562,-8.923189587402343,-4.458015267175573,-0.26717557251908397,-3.16793893129771
3877869209508,1.767825572,3,-0.16519991455078123,-0.5434837768554687,-8.898050469970702,-4.3816793893129775,-0.3893129770992366,-3.1603053435114505
3877879122842,1.777738906,3,-0.22026655273437498,-0.5410895751953124,-8.963891015625,-4.442748091603053,-0.2366412213740458,-3.145038167938931
3877889203050,1.787819114,3,-0.20470424194335937,-0.5578489868164063,-8.94473740234375,-4.488549618320611,-0.366412213740458,-3.1526717557251906
3877899197946,1.79781401,3,-0.201112939453125,-0.5422866760253906,-8.998606939697265,-4.450381679389313,-0.2595419847328244,-3.16793893129771
3877909198831,1.807814895,3,-0.23702596435546874,-0.5770026000976562,-8.971073620605468,-4.435114503816794,-0.3282442748091603,-3.1526717557251906
3877919193050,1.817809114,3,-0.21308394775390624,-0.5279214660644531,-8.960299713134765,-4.427480916030534,-0.2595419847328244,-3.099236641221374
3877929205081,1.827821145,3,-0.22385785522460935,-0.5374982727050781,-8.914809881591797,-4.435114503816794,-0.3816793893129771,-3.0916030534351147
3877939293987,1.837910051,3,-0.19033903198242186,-0.5410895751953124,-8.917204083251953,-4.404580152671755,-0.24427480916030533,-3.0916030534351147
3877949189196,1.84780526,3,-0.20470424194335937,-0.5482721801757812,-8.911218579101561,-4.480916030534351,-0.32061068702290074,-3.114503816793893
3877959265342,1.857881406,3,-0.201112939453125,-0.5626373901367188,-8.92438668823242,-4.458015267175573,-0.24427480916030533,-3.145038167938931
3877969210550,1.867826614,3,-0.1927332336425781,-0.5446808776855468,-8.96987651977539,-4.404580152671755,-0.4122137404580153,-3.1755725190839694
3877979297060,1.877913124,3,-0.18914193115234373,-0.5446808776855468,-8.920795385742187,-4.3893129770992365,-0.25190839694656486,-3.2061068702290076
3877989195237,1.887811301,3,-0.181959326171875,-0.5255272644042969,-8.951920007324219,-4.419847328244275,-0.3511450381679389,-3.1297709923664123
3877999214404,1.897830468,3,-0.19871873779296872,-0.5494692810058593,-8.920795385742187,-4.427480916030534,-0.29770992366412213,-3.1603053435114505
3878009222060,1.907838124,3,-0.20949264526367187,-0.5279214660644531,-8.93156929321289,-4.396946564885496,-0.4198473282442748,-3.1374045801526718
3878019209248,1.917825312,3,-0.17956512451171874,-0.5446808776855468,-8.904035974121093,-4.3816793893129775,-0.33587786259541985,-3.1297709923664123
3878029202685,1.927818749,3,-0.20350714111328125,-0.5374982727050781,-8.974664923095702,-4.450381679389313,-0.366412213740458,-3.1526717557251906
3878039178050,1.937794114,3,-0.20709844360351562,-0.565031591796875,-8.950722906494141,-4.404580152671755,-0.25190839694656486,-3.114503816793893
3878049208883,1.947824947,3,-0.20829554443359374,-0.5279214660644531,-8.981847528076171,-4.3893129770992365,-0.3511450381679389,-3.114503816793893
3878059194873,1.957810937,3,-0.19393033447265623,-0.5530605834960938,-8.943540301513671,-4.442748091603053,-0.2900763358778626,-3.1297709923664123
3878069209977,1.967826041,3,-0.201112939453125,-0.5291185668945312,-8.929175091552734,-4.427480916030534,-0.366412213740458,-3.1603053435114505
3878079185498,1.977801562,3,-0.21308394775390624,-0.5303156677246094,-8.93755479736328,-4.442748091603053,-0.25190839694656486,-3.1755725190839694
3878089183571,1.987799635,3,-0.18435352783203124,-0.5255272644042969,-8.914809881591797,-4.419847328244275,-0.3893129770992366,-3.1374045801526718
3878099177164,1.997793228,3,-0.16639701538085935,-0.5279214660644531,-8.913612780761719,-4.427480916030534,-0.2824427480916031,-3.1297709923664123
3878109189560,2.007805624,3,-0.18076222534179687,-0.5195417602539062,-8.959102612304687,-4.412213740458015,-0.3816793893129771,-3.0916030534351147
3878119189039,2.017805103,3,-0.19153613281249998,-0.5327098693847656,-8.910021478271483,-4.458015267175573,-0.2900763358778626,-3.1374045801526718
3878129154821,2.027770885,3,-0.17956512451171874,-0.5566518859863281,-8.984241729736327,-4.396946564885496,-0.37404580152671757,-3.1068702290076335
3878139182529,2.037798593,3,-0.19991583862304688,-0.5746083984375,-8.93156929321289,-4.3816793893129775,-0.32061068702290074,-3.1297709923664123
3878149187477,2.047803541,3,-0.20350714111328125,-0.5327098693847656,-8.98304462890625,-4.435114503816794,-0.3435114503816794,-3.1068702290076335
3878159211852,2.057827916,3,-0.20949264526367187,-0.5315127685546874,-8.910021478271483,-4.435114503816794,-0.22137404580152673,-3.183206106870229
3878169186800,2.067802864,3,-0.20709844360351562,-0.5506663818359374,-8.947131604003905,-4.435114503816794,-0.2748091603053435,-3.1297709923664123
3878179175706,2.07779177,3,-0.20350714111328125,-0.5303156677246094,-8.911218579101561,-4.419847328244275,-0.2595419847328244,-3.1526717557251906
3878189182269,2.087798333,3,-0.1867477294921875,-0.5315127685546874,-8.960299713134765,-4.412213740458015,-0.3282442748091603,-3.114503816793893
3878199190654,2.097806718,3,-0.21068974609375,-0.5135562561035156,-8.889670764160156,-4.419847328244275,-0.29770992366412213,-3.145038167938931
3878209186227,2.107802291,3,-0.21188684692382811,-0.5410895751953124,-8.939948999023438,-4.534351145038168,-0.3435114503816794,-3.1068702290076335
3878219215133,2.117831197,3,-0.22266075439453123,-0.5506663818359374,-8.914809881591797,-4.450381679389313,-0.2366412213740458,-3.1374045801526718
3878229187946,2.12780401,3,-0.2059013427734375,-0.5602431884765625,-8.975862023925782,-4.404580152671755,-0.3816793893129771,-3.099236641221374
3878239180237,2.137796301,3,-0.20470424194335937,-0.5578489868164063,-8.968679418945312,-4.450381679389313,-0.3816793893129771,-3.114503816793893
3878249196383,2.147812447,3,-0.19512743530273435,-0.5422866760253906,-8.929175091552734,-4.419847328244275,-0.3053435114503817,-3.145038167938931
3878259181591,2.157797655,3,-0.21308394775390624,-0.5363011718749999,-8.94473740234375,-4.473282442748092,-0.25190839694656486,-3.145038167938931
3878269182685,2.167798749,3,-0.20829554443359374,-0.5422866760253906,-8.975862023925782,-4.427480916030534,-0.3282442748091603,-3.1908396946564888
3878279243779,2.177859843,3,-0.1927332336425781,-0.5566518859863281,-8.932766394042968,-4.419847328244275,-0.29770992366412213,-3.16793893129771
3878289180289,2.187796353,3,-0.20470424194335937,-0.5183446594238281,-8.949525805664061,-4.427480916030534,-0.3435114503816794,-3.1603053435114505
3878299188466,2.19780453,3,-0.20829554443359374,-0.55545478515625,-8.936357696533202,-4.358778625954199,-0.29770992366412213,-3.122137404580153
3878309181643,2.207797707,3,-0.18555062866210936,-0.5315127685546874,-8.883685260009765,-4.351145038167939,-0.31297709923664124,-3.099236641221374
3878319189404,2.217805468,3,-0.20949264526367187,-0.5422866760253906,-8.9255837890625,-4.404580152671755,-0.29770992366412213,-3.1526717557251906
3878329176331,2.227792395,3,-0.1927332336425781,-0.5386953735351562,-8.960299713134765,-4.442748091603053,-0.29770992366412213,-3.1374045801526718
3878339184196,2.23780026,3,-0.20350714111328125,-0.5183446594238281,-8.954314208984375,-4.404580152671755,-0.2595419847328244,-3.114503816793893
3878349180914,2.247796978,3,-0.19512743530273435,-0.5494692810058593,-8.927977990722656,-4.396946564885496,-0.26717557251908397,-3.1755725190839694
3878359179456,2.25779552,3,-0.19033903198242186,-0.51714755859375,-8.943540301513671,-4.450381679389313,-0.26717557251908397,-3.1297709923664123
3878369185914,2.267801978,3,-0.2214636535644531,-0.5339069702148437,-8.939948999023438,-4.419847328244275,-0.2824427480916031,-3.1068702290076335
3878379186539,2.277802603,3,-0.20231004028320312,-0.5363011718749999,-8.959102612304687,-4.458015267175573,-0.31297709923664124,-3.1374045801526718
3878389191331,2.287807395,3,-0.19393033447265623,-0.5398924743652344,-8.954314208984375,-4.473282442748092,-0.33587786259541985,-3.1068702290076335
3878399182060,2.297798124,3,-0.22744915771484372,-0.5231330627441406,-8.919598284912109,-4.488549618320611,-0.2824427480916031,-3.068702290076336
3878409194716,2.30781078,3,-0.20949264526367187,-0.5410895751953124,-8.919598284912109,-4.427480916030534,-0.3435114503816794,-3.1374045801526718
3878419180498,2.317796562,3,-0.19512743530273435,-0.5422866760253906,-8.913612780761719,-4.427480916030534,-0.2824427480916031,-3.1374045801526718
3878429174248,2.327790312,3,-0.19991583862304688,-0.5638344909667968,-8.948328704833983,-4.3816793893129775,-0.3969465648854962,-3.1374045801526718
3878439186123,2.337802187,3,-0.2154781494140625,-0.5470750793457031,-8.963891015625,-4.404580152671755,-0.2900763358778626,-3.198473282442748
3878449186435,2.347802499,3,-0.20231004028320312,-0.5422866760253906,-8.930372192382812,-4.427480916030534,-0.2824427480916031,-3.2061068702290076
3878459119300,2.357735364,3,-0.21308394775390624,-0.5339069702148437,-8.90044467163086,-4.396946564885496,-0.2900763358778626,-3.16793893129771
3878469192060,2.367808124,3,-0.1879448303222656,-0.5566518859863281,-8.93755479736328,-4.442748091603053,-0.35877862595419846,-3.1374045801526718
3878479177268,2.377793332,3,-0.16639701538085935,-0.5458779785156249,-8.979453326416015,-4.427480916030534,-0.29770992366412213,-3.114503816793893
3878489176070,2.387792134,3,-0.18435352783203124,-0.5267243652343749,-8.945934503173827,-4.419847328244275,-0.32061068702290074,-3.122137404580153
3878499175029,2.397791093,3,-0.20231004028320312,-0.5243301635742187,-8.942343200683593,-4.396946564885496,-0.2595419847328244,-3.122137404580153
3878509197112,2.407813176,3,-0.19632453613281248,-0.5398924743652344,-8.904035974121093,-4.3893129770992365,-0.2824427480916031,-3.114503816793893
3878519182998,2.417799062,3,-0.20231004028320312,-0.5494692810058593,-8.914809881591797,-4.396946564885496,-0.2366412213740458,-3.099236641221374
3878529177685,2.427793749,3,-0.2166752502441406,-0.5458779785156249,-8.947131604003905,-4.404580152671755,-0.3282442748091603,-3.099236641221374
3878539182268,2.437798332,3,-0.20829554443359374,-0.5458779785156249,-8.921992486572265,-4.480916030534351,-0.31297709923664124,-3.145038167938931
3878549207633,2.447823697,3,-0.20350714111328125,-0.5195417602539062,-8.939948999023438,-4.473282442748092,-0.3435114503816794,-3.1526717557251906
3878559183206,2.45779927,3,-0.1879448303222656,-0.5518634826660156,-8.919598284912109,-4.480916030534351,-0.2824427480916031,-3.122137404580153
3878569186123,2.467802187,3,-0.1867477294921875,-0.5207388610839844,-8.968679418945312,-4.473282442748092,-0.3435114503816794,-3.1755725190839694
3878579181852,2.477797916,3,-0.21068974609375,-0.5386953735351562,-8.943540301513671,-4.3816793893129775,-0.32061068702290074,-3.1068702290076335
3878589183623,2.487799687,3,-0.23104046020507812,-0.5327098693847656,-8.942343200683593,-4.458015267175573,-0.3893129770992366,-3.099236641221374
3878599184768,2.497800832,3,-0.2059013427734375,-0.5542576843261718,-8.941146099853515,-4.396946564885496,-0.3282442748091603,-3.1908396946564888
3878609189768,2.507805832,3,-0.20350714111328125,-0.5386953735351562,-8.93875189819336,-4.374045801526718,-0.33587786259541985,-3.16793893129771
3878619180810,2.517796874,3,-0.22385785522460935,-0.5339069702148437,-8.92438668823242,-4.427480916030534,-0.2748091603053435,-3.1526717557251906
3878629184925,2.527800989,3,-0.19871873779296872,-0.5255272644042969,-8.947131604003905,-4.435114503816794,-0.2900763358778626,-3.1297709923664123
3878639153414,2.537769478,3,-0.19632453613281248,-0.5422866760253906,-8.947131604003905,-4.419847328244275,-0.31297709923664124,-3.1068702290076335
3878649187216,2.54780328,3,-0.19512743530273435,-0.5638344909667968,-8.953117108154297,-4.450381679389313,-0.35877862595419846,-3.114503816793893
3878659176904,2.557792968,3,-0.19871873779296872,-0.5518634826660156,-8.96987651977539,-4.450381679389313,-0.3969465648854962,-3.1755725190839694
3878669190914,2.567806978,3,-0.1879448303222656,-0.5351040710449219,-8.935160595703124,-4.473282442748092,-0.33587786259541985,-3.1755725190839694
3878679179716,2.57779578,3,-0.1879448303222656,-0.5363011718749999,-8.972270721435546,-4.511450381679389,-0.2824427480916031,-3.1908396946564888
3878689187112,2.587803176,3,-0.19871873779296872,-0.5470750793457031,-8.912415679931641,-4.419847328244275,-0.2748091603053435,-3.1526717557251906
3878699177998,2.597794062,3,-0.2059013427734375,-0.5470750793457031,-8.96269391479492,-4.435114503816794,-0.33587786259541985,-3.1068702290076335
3878709186331,2.607802395,3,-0.19033903198242186,-0.5482721801757812,-8.927977990722656,-4.450381679389313,-0.42748091603053434,-3.1603053435114505
3878719183570,2.617799634,3,-0.19991583862304688,-0.5363011718749999,-8.948328704833983,-4.473282442748092,-0.33587786259541985,-3.1068702290076335
3878729242789,2.627858853,3,-0.21906945190429686,-0.55545478515625,-8.933963494873046,-4.480916030534351,-0.3816793893129771,-3.0839694656488548
3878739192060,2.637808124,3,-0.20709844360351562,-0.5386953735351562,-8.957905511474609,-4.396946564885496,-0.31297709923664124,-3.1297709923664123
3878749174872,2.647790936,3,-0.19153613281249998,-0.5279214660644531,-8.94473740234375,-4.450381679389313,-0.37404580152671757,-3.0839694656488548
3878759193622,2.657809686,3,-0.2154781494140625,-0.5817910034179687,-8.911218579101561,-4.480916030534351,-0.2366412213740458,-3.068702290076336
3878769188258,2.667804322,3,-0.22505495605468748,-0.5351040710449219,-8.92438668823242,-4.419847328244275,-0.2595419847328244,-3.045801526717557
3878779181070,2.677797134,3,-0.201112939453125,-0.5602431884765625,-8.921992486572265,-4.412213740458015,-0.29770992366412213,-3.114503816793893
3878789177737,2.687793801,3,-0.2262520568847656,-0.5267243652343749,-8.953117108154297,-4.3893129770992365,-0.32061068702290074,-3.145038167938931
3878799199664,2.697815728,3,-0.1927332336425781,-0.5315127685546874,-8.907627276611327,-4.412213740458015,-0.2900763358778626,-3.1526717557251906
3878809184872,2.707800936,3,-0.20231004028320312,-0.5458779785156249,-8.94473740234375,-4.3893129770992365,-0.35877862595419846,-3.1374045801526718
3878819178102,2.717794166,3,-0.19033903198242186,-0.5482721801757812,-8.939948999023438,-4.427480916030534,-0.2595419847328244,-3.122137404580153
3878829201018,2.727817082,3,-0.1975216369628906,-0.5410895751953124,-8.960299713134765,-4.465648854961832,-0.37404580152671757,-3.145038167938931
3878839279195,2.737895259,3,-0.21787235107421873,-0.5386953735351562,-8.921992486572265,-4.488549618320611,-0.2824427480916031,-3.16793893129771
3878849184977,2.747801041,3,-0.21787235107421873,-0.5578489868164063,-8.935160595703124,-4.458015267175573,-0.3282442748091603,-3.145038167938931
3878859176800,2.757792864,3,-0.1867477294921875,-0.5422866760253906,-8.950722906494141,-4.435114503816794,-0.3053435114503817,-3.1603053435114505
3878869165810,2.767781874,3,-0.21787235107421873,-0.5398924743652344,-8.933963494873046,-4.3816793893129775,-0.35877862595419846,-3.1374045801526718
3878879182477,2.777798541,3,-0.19632453613281248,-0.5374982727050781,-8.927977990722656,-4.442748091603053,-0.32061068702290074,-3.1908396946564888
3878889197008,2.787813072,3,-0.20470424194335937,-0.5482721801757812,-8.955511309814453,-4.396946564885496,-0.32061068702290074,-3.122137404580153
3878899187164,2.797803228,3,-0.20350714111328125,-0.5578489868164063,-8.93755479736328,-4.3816793893129775,-0.20610687022900764,-3.1068702290076335
3878909178987,2.807795051,3,-0.20709844360351562,-0.5482721801757812,-8.93755479736328,-4.450381679389313,-0.32061068702290074,-3.145038167938931
3878919185914,2.817801978,3,-0.17477672119140625,-0.5351040710449219,-8.974664923095702,-4.427480916030534,-0.17557251908396945,-3.122137404580153
3878929192529,2.827808593,3,-0.21428104858398436,-0.5386953735351562,-8.951920007324219,-4.419847328244275,-0.3435114503816794,-3.1297709923664123
3878939180029,2.837796093,3,-0.2059013427734375,-0.5578489868164063,-8.930372192382812,-4.450381679389313,-0.2366412213740458,-3.16793893129771
3878949186227,2.847802291,3,-0.18914193115234373,-0.5638344909667968,-8.953117108154297,-4.366412213740458,-0.2748091603053435,-3.1297709923664123
3878959185029,2.857801093,3,-0.20470424194335937,-0.5374982727050781,-8.96269391479492,-4.450381679389313,-0.2824427480916031,-3.16793893129771
3878969160445,2.867776509,3,-0.21428104858398436,-0.5422866760253906,-8.959102612304687,-4.435114503816794,-0.3435114503816794,-3.1603053435114505
3878979199299,2.877815363,3,-0.19991583862304688,-0.5363011718749999,-8.959102612304687,-4.404580152671755,-0.2824427480916031,-3.1374045801526718
3878989188466,2.88780453,3,-0.20709844360351562,-0.5374982727050781,-8.91840118408203,-4.442748091603053,-0.3282442748091603,-3.1297709923664123
3878999182841,2.897798905,3,-0.2262520568847656,-0.51714755859375,-8.955511309814453,-4.404580152671755,-0.22137404580152673,-3.0763358778625953
3879009183310,2.907799374,3,-0.22744915771484372,-0.5159504577636719,-8.950722906494141,-4.4961832061068705,-0.3053435114503817,-3.099236641221374
3879019181539,2.917797603,3,-0.19991583862304688,-0.5434837768554687,-8.95670841064453,-4.5038167938931295,-0.22900763358778625,-3.1374045801526718
3879029187112,2.927803176,3,-0.201112939453125,-0.5602431884765625,-8.948328704833983,-4.450381679389313,-0.31297709923664124,-3.145038167938931
3879039180393,2.937796457,3,-0.19991583862304688,-0.5195417602539062,-8.929175091552734,-4.404580152671755,-0.25190839694656486,-3.1755725190839694
3879049185029,2.947801093,3,-0.21308394775390624,-0.5710170959472656,-8.942343200683593,-4.442748091603053,-0.3511450381679389,-3.1603053435114505
3879059183779,2.957799843,3,-0.20231004028320312,-0.5279214660644531,-8.89924757080078,-4.419847328244275,-0.26717557251908397,-3.0916030534351147
3879069180497,2.967796561,3,-0.22266075439453123,-0.5386953735351562,-8.936357696533202,-4.396946564885496,-0.35877862595419846,-3.1603053435114505
3879079185914,2.977801978,3,-0.18914193115234373,-0.5147533569335937,-8.954314208984375,-4.427480916030534,-0.29770992366412213,-3.1603053435114505
3879089176227,2.987792291,3,-0.21308394775390624,-0.5339069702148437,-8.959102612304687,-4.404580152671755,-0.3816793893129771,-3.1297709923664123
3879099180758,2.997796822,3,-0.19871873779296872,-0.5530605834960938,-8.932766394042968,-4.480916030534351,-0.26717557251908397,-3.145038167938931
3879109175081,3.007791145,3,-0.18435352783203124,-0.5434837768554687,-8.945934503173827,-4.4961832061068705,-0.37404580152671757,-3.145038167938931
3879119170237,3.017786301,3,-0.19393033447265623,-0.5243301635742187,-8.966285217285156,-4.465648854961832,-0.2595419847328244,-3.183206106870229
3879129194195,3.027810259,3,-0.22385785522460935,-0.55545478515625,-8.97705912475586,-4.4961832061068705,-0.3511450381679389,-3.1908396946564888
3879139185549,3.037801613,3,-0.20231004028320312,-0.5291185668945312,-8.920795385742187,-4.412213740458015,-0.2595419847328244,-3.1908396946564888
3879149182789,3.047798853,3,-0.20829554443359374,-0.5351040710449219,-8.94473740234375,-4.351145038167939,-0.37404580152671757,-3.1374045801526718
3879159180081,3.057796145,3,-0.20470424194335937,-0.5578489868164063,-8.950722906494141,-4.3893129770992365,-0.26717557251908397,-3.1526717557251906
3879169175810,3.067791874,3,-0.19871873779296872,-0.565031591796875,-8.941146099853515,-4.450381679389313,-0.35877862595419846,-3.099236641221374
3879179185914,3.077801978,3,-0.2166752502441406,-0.5291185668945312,-8.957905511474609,-4.412213740458015,-0.2900763358778626,-3.1526717557251906
3879189185237,3.087801301,3,-0.2214636535644531,-0.5458779785156249,-8.91840118408203,-4.412213740458015,-0.3816793893129771,-3.145038167938931
3879199177789,3.097793853,3,-0.17357962036132812,-0.5374982727050781,-8.929175091552734,-4.404580152671755,-0.2595419847328244,-3.122137404580153
3879209191643,3.107807707,3,-0.17956512451171874,-0.5303156677246094,-8.94473740234375,-4.396946564885496,-0.366412213740458,-3.0916030534351147
3879219167476,3.11778354,3,-0.19512743530273435,-0.5386953735351562,-8.933963494873046,-4.396946564885496,-0.2900763358778626,-3.1068702290076335
3879229147424,3.127763488,3,-0.21428104858398436,-0.5243301635742187,-8.97705912475586,-4.3816793893129775,-0.29770992366412213,-3.1297709923664123
3879239185289,3.137801353,3,-0.1975216369628906,-0.5374982727050781,-8.91840118408203,-4.404580152671755,-0.32061068702290074,-3.1374045801526718
3879249187112,3.147803176,3,-0.18076222534179687,-0.5315127685546874,-8.959102612304687,-4.442748091603053,-0.37404580152671757,-3.122137404580153
3879259181070,3.157797134,3,-0.20231004028320312,-0.5434837768554687,-8.942343200683593,-4.396946564885496,-0.2900763358778626,-3.099236641221374
3879269184404,3.167800468,3,-0.2166752502441406,-0.5279214660644531,-8.987833032226561,-4.435114503816794,-0.3282442748091603,-3.114503816793893
3879279180081,3.177796145,3,-0.19632453613281248,-0.5518634826660156,-8.930372192382812,-4.473282442748092,-0.22900763358778625,-3.1603053435114505
3879289234299,3.187850363,3,-0.20350714111328125,-0.5434837768554687,-8.933963494873046,-4.404580152671755,-0.2900763358778626,-3.1755725190839694
3879299192893,3.197808957,3,-0.2154781494140625,-0.5422866760253906,-8.9255837890625,-4.435114503816794,-0.2366412213740458,-3.145038167938931
3879309197737,3.207813801,3,-0.19632453613281248,-0.5662286926269531,-8.957905511474609,-4.465648854961832,-0.31297709923664124,-3.1374045801526718
3879319173883,3.217789947,3,-0.19871873779296872,-0.55545478515625,-8.920795385742187,-4.404580152671755,-0.25190839694656486,-3.2061068702290076
3879329184872,3.227800936,3,-0.2154781494140625,-0.5482721801757812,-8.929175091552734,-4.427480916030534,-0.35877862595419846,-3.1297709923664123
3879339185081,3.237801145,3,-0.20350714111328125,-0.5183446594238281,-8.939948999023438,-4.33587786259542,-0.3282442748091603,-3.1526717557251906
3879349188987,3.247805051,3,-0.22505495605468748,-0.5398924743652344,-8.953117108154297,-4.3816793893129775,-0.2748091603053435,-3.198473282442748
3879359177164,3.257793228,3,-0.1867477294921875,-0.5494692810058593,-8.942343200683593,-4.3893129770992365,-0.24427480916030533,-3.2061068702290076
3879369180237,3.267796301,3,-0.19871873779296872,-0.5518634826660156,-8.945934503173827,-4.488549618320611,-0.32061068702290074,-3.1068702290076335
3879379188518,3.277804582,3,-0.21906945190429686,-0.5207388610839844,-8.919598284912109,-4.480916030534351,-0.25190839694656486,-3.145038167938931
3879389239403,3.287855467,3,-0.17836802368164062,-0.5506663818359374,-8.96987651977539,-4.427480916030534,-0.32061068702290074,-3.1755725190839694
3879399191851,3.297807915,3,-0.201112939453125,-0.5135562561035156,-8.941146099853515,-4.4961832061068705,-0.2595419847328244,-3.1603053435114505
3879409182424,3.307798488,3,-0.20829554443359374,-0.5422866760253906,-8.943540301513671,-4.488549618320611,-0.2748091603053435,-3.1603053435114505
3879419178258,3.317794322,3,-0.23343466186523437,-0.5386953735351562,-8.948328704833983,-4.473282442748092,-0.24427480916030533,-3.198473282442748
3879429189195,3.327805259,3,-0.18555062866210936,-0.5207388610839844,-8.954314208984375,-4.450381679389313,-0.3435114503816794,-3.2213740458015265
3879439171695,3.337787759,3,-0.2059013427734375,-0.5315127685546874,-8.942343200683593,-4.3893129770992365,-0.2900763358778626,-3.1755725190839694
3879449173206,3.34778927,3,-0.20470424194335937,-0.5243301635742187,-8.957905511474609,-4.396946564885496,-0.3511450381679389,-3.198473282442748
3879459194195,3.357810259,3,-0.21188684692382811,-0.5398924743652344,-8.949525805664061,-4.412213740458015,-0.3053435114503817,-3.183206106870229
3879469183622,3.367799686,3,-0.22744915771484372,-0.5638344909667968,-8.93875189819336,-4.396946564885496,-0.37404580152671757,-3.1374045801526718
3879479180497,3.377796561,3,-0.19632453613281248,-0.5434837768554687,-8.89326206665039,-4.3816793893129775,-0.32061068702290074,-3.099236641221374
3879489179768,3.387795832,3,-0.22505495605468748,-0.5734112976074218,-8.948328704833983,-4.419847328244275,-0.3969465648854962,-3.1297709923664123
3879499197008,3.397813072,3,-0.20470424194335937,-0.5279214660644531,-8.919598284912109,-4.3816793893129775,-0.2900763358778626,-3.1068702290076335
3879509176174,3.407792238,3,-0.19512743530273435,-0.5363011718749999,-8.926780889892578,-4.374045801526718,-0.31297709923664124,-3.1297709923664123
3879519174664,3.417790728,3,-0.2154781494140625,-0.5386953735351562,-8.949525805664061,-4.473282442748092,-0.31297709923664124,-3.1526717557251906
3879529191643,3.427807707,3,-0.17357962036132812,-0.5746083984375,-8.954314208984375,-4.435114503816794,-0.35877862595419846,-3.145038167938931
3879539176435,3.437792499,3,-0.20949264526367187,-0.5506663818359374,-9.009380847167968,-4.412213740458015,-0.2595419847328244,-3.114503816793893
3879549194299,3.447810363,3,-0.21188684692382811,-0.5494692810058593,-8.941146099853515,-4.435114503816794,-0.2824427480916031,-3.1297709923664123
3879559186643,3.457802707,3,-0.19512743530273435,-0.5458779785156249,-8.950722906494141,-4.450381679389313,-0.24427480916030533,-3.1297709923664123
3879570829872,3.469445936,3,-0.22505495605468748,-0.5506663818359374,-8.930372192382812,-4.450381679389313,-0.3282442748091603,-3.114503816793893
3879580812737,3.479428801,3,-0.19393033447265623,-0.5351040710449219,-8.912415679931641,-4.435114503816794,-0.2748091603053435,-3.16793893129771
3879590813622,3.489429686,3,-0.21787235107421873,-0.5530605834960938,-8.948328704833983,-4.396946564885496,-0.3435114503816794,-3.145038167938931
3879600804455,3.499420519,3,-0.1975216369628906,-0.5722141967773438,-8.941146099853515,-4.419847328244275,-0.2748091603053435,-3.1374045801526718
3879610817424,3.509433488,3,-0.20350714111328125,-0.5315127685546874,-8.913612780761719,-4.419847328244275,-0.31297709923664124,-3.16793893129771
3879620809039,3.519425103,3,-0.21428104858398436,-0.5494692810058593,-8.961496813964843,-4.450381679389313,-0.2748091603053435,-3.145038167938931
3879630824143,3.529440207,3,-0.2166752502441406,-0.5470750793457031,-8.965088116455078,-4.442748091603053,-0.3282442748091603,-3.1374045801526718
3879640783830,3.539399894,3,-0.20231004028320312,-0.5398924743652344,-8.942343200683593,-4.404580152671755,-0.2824427480916031,-3.1297709923664123
3879650821799,3.549437863,3,-0.22744915771484372,-0.5231330627441406,-8.88009395751953,-4.435114503816794,-0.33587786259541985,-3.122137404580153
3879660815653,3.559431717,3,-0.22744915771484372,-0.5446808776855468,-8.936357696533202,-4.473282442748092,-0.25190839694656486,-3.0839694656488548
3879670822060,3.569438124,3,-0.21428104858398436,-0.5219359619140624,-8.972270721435546,-4.473282442748092,-0.3282442748091603,-3.1297709923664123
3879680802841,3.579418905,3,-0.21068974609375,-0.5315127685546874,-8.921992486572265,-4.480916030534351,-0.2595419847328244,-3.145038167938931
3879690816330,3.589432394,3,-0.20709844360351562,-0.5111620544433594,-8.935160595703124,-4.435114503816794,-0.32061068702290074,-3.16793893129771
3879700823310,3.599439374,3,-0.2059013427734375,-0.5422866760253906,-8.96987651977539,-4.419847328244275,-0.2366412213740458,-3.122137404580153
3879710812060,3.609428124,3,-0.18076222534179687,-0.5363011718749999,-8.90643017578125,-4.435114503816794,-0.2824427480916031,-3.099236641221374
3879720813935,3.619429999,3,-0.20470424194335937,-0.5243301635742187,-8.960299713134765,-4.396946564885496,-0.22900763358778625,-3.099236641221374
3879730824247,3.629440311,3,-0.1867477294921875,-0.5351040710449219,-8.921992486572265,-4.450381679389313,-0.3435114503816794,-3.1526717557251906
3879740765862,3.639381926,3,-0.20231004028320312,-0.5518634826660156,-8.973467822265624,-4.458015267175573,-0.2900763358778626,-3.145038167938931
3879750814612,3.649430676,3,-0.2154781494140625,-0.5243301635742187,-8.943540301513671,-4.442748091603053,-0.3816793893129771,-3.122137404580153
3879760802945,3.659419009,3,-0.201112939453125,-0.5303156677246094,-8.955511309814453,-4.442748091603053,-0.29770992366412213,-3.099236641221374
3879770768883,3.669384947,3,-0.1867477294921875,-0.5386953735351562,-8.954314208984375,-4.404580152671755,-0.2900763358778626,-3.122137404580153
3879780828830,3.679444894,3,-0.16519991455078123,-0.5422866760253906,-8.953117108154297,-4.351145038167939,-0.2366412213740458,-3.16793893129771
3879790803362,3.689419426,3,-0.19512743530273435,-0.5255272644042969,-8.9255837890625,-4.358778625954199,-0.29770992366412213,-3.1068702290076335
3879800803935,3.699419999,3,-0.1927332336425781,-0.5327098693847656,-8.93875189819336,-4.404580152671755,-0.3053435114503817,-3.1526717557251906
3879810833987,3.709450051,3,-0.2154781494140625,-0.5374982727050781,-8.963891015625,-4.396946564885496,-0.31297709923664124,-3.1526717557251906
3879820805185,3.719421249,3,-0.19512743530273435,-0.5315127685546874,-8.954314208984375,-4.5038167938931295,-0.2824427480916031,-3.1068702290076335
3879830828205,3.729444269,3,-0.21188684692382811,-0.5494692810058593,-8.953117108154297,-4.458015267175573,-0.3053435114503817,-3.1603053435114505
3879840797372,3.739413436,3,-0.18914193115234373,-0.5099649536132812,-8.93875189819336,-4.435114503816794,-0.24427480916030533,-3.16793893129771
3879850862737,3.749478801,3,-0.21188684692382811,-0.5219359619140624,-8.981847528076171,-4.419847328244275,-0.32061068702290074,-3.1908396946564888
3879860783153,3.759399217,3,-0.20709844360351562,-0.5351040710449219,-8.981847528076171,-4.465648854961832,-0.21374045801526717,-3.145038167938931
3879870825862,3.769441926,3,-0.18315642700195311,-0.5303156677246094,-8.929175091552734,-4.419847328244275,-0.3053435114503817,-3.16793893129771
3879880805289,3.779421353,3,-0.19153613281249998,-0.5183446594238281,-8.945934503173827,-4.358778625954199,-0.21374045801526717,-3.1374045801526718
3879890810185,3.789426249,3,-0.19512743530273435,-0.5470750793457031,-8.911218579101561,-4.419847328244275,-0.2595419847328244,-3.1526717557251906
3879900770810,3.799386874,3,-0.2154781494140625,-0.5363011718749999,-8.942343200683593,-4.412213740458015,-0.2900763358778626,-3.1755725190839694
3879910833205,3.809449269,3,-0.19393033447265623,-0.5386953735351562,-8.921992486572265,-4.374045801526718,-0.35877862595419846,-3.1755725190839694
3879920808778,3.819424842,3,-0.19871873779296872,-0.5602431884765625,-8.957905511474609,-4.358778625954199,-0.29770992366412213,-3.1603053435114505
3879930812320,3.829428384,3,-0.1927332336425781,-0.5303156677246094,-8.967482318115234,-4.404580152671755,-0.37404580152671757,-3.145038167938931
3879940873466,3.83948953,3,-0.22505495605468748,-0.5315127685546874,-8.949525805664061,-4.404580152671755,-0.2748091603053435,-3.068702290076336
3879950829560,3.849445624,3,-0.19991583862304688,-0.5327098693847656,-8.950722906494141,-4.358778625954199,-0.35877862595419846,-3.099236641221374
3879960819455,3.859435519,3,-0.21308394775390624,-0.5458779785156249,-8.919598284912109,-4.427480916030534,-0.2824427480916031,-3.114503816793893
3879970812476,3.86942854,3,-0.23104046020507812,-0.5530605834960938,-8.979453326416015,-4.450381679389313,-0.3816793893129771,-3.114503816793893
3879980801643,3.879417707,3,-0.201112939453125,-0.5494692810058593,-8.93156929321289,-4.366412213740458,-0.32061068702290074,-3.1374045801526718
3879990839976,3.88945604,3,-0.20709844360351562,-0.5303156677246094,-8.943540301513671,-4.427480916030534,-0.3511450381679389,-3.1297709923664123
3880000800601,3.899416665,3,-0.20829554443359374,-0.5303156677246094,-8.973467822265624,-4.450381679389313,-0.25190839694656486,-3.1374045801526718
3880011921955,3.910538019,3,-0.201112939453125,-0.5410895751953124,-8.941146099853515,-4.404580152671755,-0.29770992366412213,-3.1297709923664123
3880020848153,3.919464217,3,-0.17836802368164062,-0.5434837768554687,-8.941146099853515,-4.404580152671755,-0.29770992366412213,-3.1603053435114505
3880030842476,3.92945854,3,-0.19033903198242186,-0.5422866760253906,-8.910021478271483,-4.396946564885496,-0.31297709923664124,-3.099236641221374
3880040783987,3.939400051,3,-0.21906945190429686,-0.5267243652343749,-8.968679418945312,-4.3893129770992365,-0.24427480916030533,-3.1374045801526718
3880050822372,3.949438436,3,-0.1975216369628906,-0.5339069702148437,-8.955511309814453,-4.473282442748092,-0.35877862595419846,-3.1068702290076335
3880060844039,3.959460103,3,-0.181959326171875,-0.5231330627441406,-8.93875189819336,-4.458015267175573,-0.25190839694656486,-3.1603053435114505
3880070194976,3.96881104,3,-0.2166752502441406,-0.5578489868164063,-8.947131604003905,-4.435114503816794,-0.40458015267175573,-3.1603053435114505
3880080152997,3.978769061,3,-0.2154781494140625,-0.5327098693847656,-8.917204083251953,-4.442748091603053,-0.2824427480916031,-3.1603053435114505
3880090190862,3.988806926,3,-0.22385785522460935,-0.5363011718749999,-8.948328704833983,-4.412213740458015,-0.3969465648854962,-3.1603053435114505
3880100140757,3.998756821,3,-0.18435352783203124,-0.5566518859863281,-8.972270721435546,-4.404580152671755,-0.3282442748091603,-3.122137404580153
3880110123205,4.008739269,3,-0.1975216369628906,-0.5578489868164063,-8.94473740234375,-4.480916030534351,-0.3511450381679389,-3.114503816793893
3880120165080,4.018781144,3,-0.1771709228515625,-0.5351040710449219,-8.907627276611327,-4.473282442748092,-0.2595419847328244,-3.0839694656488548
3880130173674,4.028789738,3,-0.1975216369628906,-0.5674257934570313,-8.965088116455078,-4.458015267175573,-0.33587786259541985,-3.1526717557251906
3880140161903,4.038777967,3,-0.22864625854492185,-0.5542576843261718,-8.963891015625,-4.442748091603053,-0.2824427480916031,-3.16793893129771
3880150171643,4.048787707,3,-0.19033903198242186,-0.5159504577636719,-8.957905511474609,-4.3816793893129775,-0.32061068702290074,-3.1374045801526718
3880160192737,4.058808801,3,-0.19632453613281248,-0.5506663818359374,-8.929175091552734,-4.412213740458015,-0.32061068702290074,-3.1297709923664123
3880170886487,4.069502551,3,-0.21068974609375,-0.5195417602539062,-8.957905511474609,-4.427480916030534,-0.3435114503816794,-3.145038167938931
3880180851955,4.079468019,3,-0.21428104858398436,-0.55545478515625,-8.932766394042968,-4.404580152671755,-0.1984732824427481,-3.1526717557251906
3880190844664,4.089460728,3,-0.21188684692382811,-0.5422866760253906,-8.932766394042968,-4.450381679389313,-0.37404580152671757,-3.1297709923664123
3880200838882,4.099454946,3,-0.19512743530273435,-0.5446808776855468,-8.978256225585938,-4.450381679389313,-0.26717557251908397,-3.1603053435114505
3880210866851,4.109482915,3,-0.21068974609375,-0.5470750793457031,-8.965088116455078,-4.488549618320611,-0.3282442748091603,-3.1526717557251906
3880220836955,4.119453019,3,-0.19033903198242186,-0.5602431884765625,-8.96987651977539,-4.412213740458015,-0.2824427480916031,-3.114503816793893
3880230862424,4.129478488,3,-0.18315642700195311,-0.5698199951171875,-8.93755479736328,-4.427480916030534,-0.37404580152671757,-3.114503816793893
3880240856226,4.13947229,3,-0.19512743530273435,-0.5542576843261718,-8.929175091552734,-4.5038167938931295,-0.2366412213740458,-3.1297709923664123
3880250849351,4.149465415,3,-0.22864625854492185,-0.5518634826660156,-8.926780889892578,-4.465648854961832,-0.3053435114503817,-3.1526717557251906
3880260847945,4.159464009,3,-0.18315642700195311,-0.5303156677246094,-8.913612780761719,-4.442748091603053,-0.2900763358778626,-3.0916030534351147
3880270212945,4.168829009,3,-0.181959326171875,-0.5279214660644531,-8.917204083251953,-4.412213740458015,-0.3511450381679389,-3.0916030534351147
3880280285705,4.178901769,3,-0.20709844360351562,-0.5530605834960938,-8.948328704833983,-4.465648854961832,-0.22137404580152673,-3.1374045801526718
3880290186382,4.188802446,3,-0.1927332336425781,-0.5494692810058593,-8.961496813964843,-4.458015267175573,-0.32061068702290074,-3.1374045801526718
3880300155236,4.1987713,3,-0.2059013427734375,-0.5315127685546874,-8.963891015625,-4.473282442748092,-0.2595419847328244,-3.1297709923664123
3880310190028,4.208806092,3,-0.18914193115234373,-0.5255272644042969,-8.955511309814453,-4.3816793893129775,-0.2900763358778626,-3.16793893129771
3880320169143,4.218785207,3,-0.18555062866210936,-0.5422866760253906,-8.910021478271483,-4.473282442748092,-0.2900763358778626,-3.198473282442748
3880330195705,4.228811769,3,-0.20829554443359374,-0.5446808776855468,-8.96987651977539,-4.3816793893129775,-0.35877862595419846,-3.183206106870229
3880340164716,4.23878078,3,-0.22744915771484372,-0.5315127685546874,-8.947131604003905,-4.366412213740458,-0.32061068702290074,-3.145038167938931
3880350198830,4.248814894,3,-0.2059013427734375,-0.5207388610839844,-8.951920007324219,-4.358778625954199,-0.3893129770992366,-3.1603053435114505
3880360109351,4.258725415,3,-0.21308394775390624,-0.5398924743652344,-8.954314208984375,-4.358778625954199,-0.26717557251908397,-3.183206106870229
3880370881434,4.269497498,3,-0.20709844360351562,-0.5398924743652344,-8.948328704833983,-4.419847328244275,-0.31297709923664124,-3.1755725190839694
3880380862841,4.279478905,3,-0.21428104858398436,-0.55545478515625,-8.942343200683593,-4.396946564885496,-0.26717557251908397,-3.1755725190839694
3880390865028,4.289481092,3,-0.22266075439453123,-0.5267243652343749,-8.963891015625,-4.465648854961832,-0.33587786259541985,-3.1297709923664123
3880400849507,4.299465571,3,-0.19632453613281248,-0.5243301635742187,-8.93156929321289,-4.427480916030534,-0.2900763358778626,-3.1603053435114505
3880410789403,4.309405467,3,-0.22026655273437498,-0.5243301635742187,-8.94473740234375,-4.435114503816794,-0.3053435114503817,-3.145038167938931
3880420821903,4.319437967,3,-0.2166752502441406,-0.5722141967773438,-8.948328704833983,-4.511450381679389,-0.2748091603053435,-3.1908396946564888
3880430851018,4.329467082,3,-0.21068974609375,-0.5446808776855468,-8.959102612304687,-4.458015267175573,-0.32061068702290074,-3.1603053435114505
3880440843570,4.339459634,3,-0.19991583862304688,-0.5255272644042969,-8.941146099853515,-4.450381679389313,-0.32061068702290074,-3.2061068702290076
3880450851434,4.349467498,3,-0.23104046020507812,-0.5159504577636719,-8.907627276611327,-4.435114503816794,-0.35877862595419846,-3.183206106870229
3880460850809,4.359466873,3,-0.21068974609375,-0.5315127685546874,-8.972270721435546,-4.3816793893129775,-0.25190839694656486,-3.1755725190839694
3880470199820,4.368815884,3,-0.18914193115234373,-0.5566518859863281,-8.98304462890625,-4.404580152671755,-0.33587786259541985,-3.1755725190839694
3880480191278,4.378807342,3,-0.22026655273437498,-0.5494692810058593,-8.97705912475586,-4.374045801526718,-0.33587786259541985,-3.198473282442748
3880490196747,4.388812811,3,-0.19393033447265623,-0.5470750793457031,-8.919598284912109,-4.442748091603053,-0.3511450381679389,-3.1068702290076335
3880500154507,4.398770571,3,-0.19393033447265623,-0.5662286926269531,-8.930372192382812,-4.435114503816794,-0.2824427480916031,-3.099236641221374
3880510107007,4.408723071,3,-0.20709844360351562,-0.5183446594238281,-8.955511309814453,-4.3893129770992365,-0.366412213740458,-3.16793893129771
3880520162268,4.418778332,3,-0.21188684692382811,-0.5506663818359374,-8.90044467163086,-4.435114503816794,-0.2900763358778626,-3.16793893129771
3880530200861,4.428816925,3,-0.18315642700195311,-0.5231330627441406,-8.959102612304687,-4.427480916030534,-0.35877862595419846,-3.145038167938931
3880540151799,4.438767863,3,-0.21068974609375,-0.5339069702148437,-8.98304462890625,-4.488549618320611,-0.2900763358778626,-3.0916030534351147
3880550192841,4.448808905,3,-0.21428104858398436,-0.5315127685546874,-8.975862023925782,-4.419847328244275,-0.3435114503816794,-3.1068702290076335
3880560154247,4.458770311,3,-0.18315642700195311,-0.5446808776855468,-8.954314208984375,-4.435114503816794,-0.21374045801526717,-3.1603053435114505
3880570866955,4.469483019,3,-0.1867477294921875,-0.5363011718749999,-8.939948999023438,-4.480916030534351,-0.3435114503816794,-3.1297709923664123
3880580855549,4.479471613,3,-0.2059013427734375,-0.55545478515625,-8.942343200683593,-4.458015267175573,-0.24427480916030533,-3.1068702290076335
3880590840028,4.489456092,3,-0.23822306518554687,-0.5722141967773438,-8.957905511474609,-4.442748091603053,-0.32061068702290074,-3.1603053435114505
3880600840861,4.499456925,3,-0.21428104858398436,-0.5542576843261718,-8.948328704833983,-4.442748091603053,-0.3282442748091603,-3.1603053435114505
3880610807424,4.509423488,3,-0.21428104858398436,-0.5327098693847656,-8.936357696533202,-4.450381679389313,-0.3282442748091603,-3.114503816793893
3880620851018,4.519467082,3,-0.20470424194335937,-0.5578489868164063,-8.949525805664061,-4.396946564885496,-0.25190839694656486,-3.1297709923664123
3880630838466,4.52945453,3,-0.20709844360351562,-0.5602431884765625,-8.951920007324219,-4.427480916030534,-0.2900763358778626,-3.1068702290076335
3880640835549,4.539451613,3,-0.2059013427734375,-0.5398924743652344,-8.95670841064453,-4.419847328244275,-0.2824427480916031,-3.1526717557251906
3880650849663,4.549465727,3,-0.20470424194335937,-0.5398924743652344,-8.965088116455078,-4.450381679389313,-0.3053435114503817,-3.1297709923664123
3880660837841,4.559453905,3,-0.20470424194335937,-0.5279214660644531,-8.96269391479492,-4.442748091603053,-0.2824427480916031,-3.1526717557251906
3880670190288,4.568806352,3,-0.1927332336425781,-0.5566518859863281,-8.930372192382812,-4.458015267175573,-0.3282442748091603,-3.1526717557251906
3880680173309,4.578789373,3,-0.22266075439453123,-0.5351040710449219,-8.949525805664061,-4.541984732824427,-0.29770992366412213,-3.2213740458015265
3880690180549,4.588796613,3,-0.18914193115234373,-0.5351040710449219,-8.916006982421875,-4.465648854961832,-0.3282442748091603,-3.145038167938931
3880700146434,4.598762498,3,-0.22385785522460935,-0.5578489868164063,-8.933963494873046,-4.419847328244275,-0.3282442748091603,-3.1297709923664123
3880710179090,4.608795154,3,-0.20829554443359374,-0.5494692810058593,-8.936357696533202,-4.473282442748092,-0.3511450381679389,-3.145038167938931
3880720176434,4.618792498,3,-0.17836802368164062,-0.5351040710449219,-8.93875189819336,-4.3893129770992365,-0.26717557251908397,-3.1603053435114505
3880730258309,4.628874373,3,-0.2154781494140625,-0.5398924743652344,-8.947131604003905,-4.3893129770992365,-0.3511450381679389,-3.099236641221374
3880740170601,4.638786665,3,-0.21068974609375,-0.5410895751953124,-8.929175091552734,-4.366412213740458,-0.25190839694656486,-3.145038167938931
3880750198830,4.648814894,3,-0.1975216369628906,-0.5231330627441406,-8.926780889892578,-4.442748091603053,-0.29770992366412213,-3.1297709923664123
3880760164768,4.658780832,3,-0.20949264526367187,-0.5315127685546874,-8.950722906494141,-4.480916030534351,-0.2595419847328244,-3.198473282442748
3880770881382,4.669497446,3,-0.21308394775390624,-0.5303156677246094,-8.936357696533202,-4.465648854961832,-0.32061068702290074,-3.1908396946564888
3880780848309,4.679464373,3,-0.19871873779296872,-0.5339069702148437,-8.94473740234375,-4.435114503816794,-0.3053435114503817,-3.1297709923664123
3880790844715,4.689460779,3,-0.18914193115234373,-0.5243301635742187,-8.94473740234375,-4.473282442748092,-0.35877862595419846,-3.1755725190839694
3880800969403,4.699585467,3,-0.18435352783203124,-0.5255272644042969,-8.979453326416015,-4.419847328244275,-0.3282442748091603,-3.1755725190839694
3880810853361,4.709469425,3,-0.22864625854492185,-0.5482721801757812,-8.939948999023438,-4.3816793893129775,-0.366412213740458,-3.198473282442748
3880820856174,4.719472238,3,-0.20470424194335937,-0.5374982727050781,-8.97705912475586,-4.450381679389313,-0.2595419847328244,-3.1603053435114505
3880830863674,4.729479738,3,-0.2059013427734375,-0.5542576843261718,-8.990227233886719,-4.427480916030534,-0.3816793893129771,-3.0916030534351147
3880840892736,4.7395088,3,-0.20350714111328125,-0.5243301635742187,-8.939948999023438,-4.404580152671755,-0.2748091603053435,-3.1374045801526718
3880850862684,4.749478748,3,-0.20350714111328125,-0.5315127685546874,-8.957905511474609,-4.3893129770992365,-0.3282442748091603,-3.1755725190839694
3880860844768,4.759460832,3,-0.201112939453125,-0.5003881469726562,-8.936357696533202,-4.488549618320611,-0.2900763358778626,-3.145038167938931
3880870491174,4.769107238,3,-0.20829554443359374,-0.5303156677246094,-8.917204083251953,-4.427480916030534,-0.3511450381679389,-3.145038167938931
3880880164924,4.778780988,3,-0.16639701538085935,-0.5255272644042969,-8.935160595703124,-4.419847328244275,-0.3053435114503817,-3.145038167938931
3880890192892,4.788808956,3,-0.1867477294921875,-0.5303156677246094,-8.957905511474609,-4.442748091603053,-0.3969465648854962,-3.145038167938931
3880900164455,4.798780519,3,-0.19991583862304688,-0.5506663818359374,-8.967482318115234,-4.465648854961832,-0.2824427480916031,-3.1603053435114505
3880910205288,4.808821352,3,-0.19991583862304688,-0.5506663818359374,-8.978256225585938,-4.3816793893129775,-0.3435114503816794,-3.1374045801526718
3880920157007,4.818773071,3,-0.1771709228515625,-0.5566518859863281,-8.945934503173827,-4.351145038167939,-0.29770992366412213,-3.145038167938931
3880930229715,4.828845779,3,-0.21308394775390624,-0.5339069702148437,-8.953117108154297,-4.351145038167939,-0.33587786259541985,-3.0839694656488548
3880940126278,4.838742342,3,-0.19033903198242186,-0.5434837768554687,-8.963891015625,-4.435114503816794,-0.2595419847328244,-3.0763358778625953
3880950171903,4.848787967,3,-0.20829554443359374,-0.5458779785156249,-8.96987651977539,-4.396946564885496,-0.2748091603053435,-3.1374045801526718
3880960132736,4.8587488,3,-0.19632453613281248,-0.5566518859863281,-8.957905511474609,-4.488549618320611,-0.3053435114503817,-3.1374045801526718
3880970704351,4.869320415,3,-0.23104046020507812,-0.5482721801757812,-8.93875189819336,-4.442748091603053,-0.3893129770992366,-3.1297709923664123
3880980832945,4.879449009,3,-0.20709844360351562,-0.5458779785156249,-8.979453326416015,-4.458015267175573,-0.26717557251908397,-3.2061068702290076
3880990837163,4.889453227,3,-0.21787235107421873,-0.5303156677246094,-8.932766394042968,-4.3893129770992365,-0.3053435114503817,-3.1526717557251906
3881000823674,4.899439738,3,-0.23104046020507812,-0.5602431884765625,-8.895656268310546,-4.419847328244275,-0.2824427480916031,-3.1374045801526718
3881011780236,4.9103963,3,-0.21787235107421873,-0.5363011718749999,-8.929175091552734,-4.3816793893129775,-0.26717557251908397,-3.0916030534351147
3881021332788,4.919948852,3,-0.20709844360351562,-0.5363011718749999,-8.929175091552734,-4.3816793893129775,-0.33587786259541985,-3.1068702290076335
3881030865340,4.929481404,3,-0.2059013427734375,-0.5255272644042969,-8.943540301513671,-4.419847328244275,-0.33587786259541985,-3.1374045801526718
3881040862059,4.939478123,3,-0.20949264526367187,-0.5698199951171875,-8.96987651977539,-4.435114503816794,-0.26717557251908397,-3.0610687022900764
3881050891955,4.949508019,3,-0.20829554443359374,-0.5422866760253906,-8.932766394042968,-4.435114503816794,-0.366412213740458,-3.0916030534351147
3881060873101,4.959489165,3,-0.2059013427734375,-0.5398924743652344,-8.911218579101561,-4.412213740458015,-0.2748091603053435,-3.1603053435114505
3881070666382,4.969282446,3,-0.21068974609375,-0.5267243652343749,-8.929175091552734,-4.33587786259542,-0.3053435114503817,-3.1603053435114505
3881080198465,4.978814529,3,-0.1867477294921875,-0.5434837768554687,-8.932766394042968,-4.343511450381679,-0.29770992366412213,-3.114503816793893
3881090210445,4.988826509,3,-0.20350714111328125,-0.5351040710449219,-8.933963494873046,-4.435114503816794,-0.37404580152671757,-3.099236641221374
3881100172632,4.998788696,3,-0.20231004028320312,-0.5482721801757812,-8.90643017578125,-4.419847328244275,-0.3511450381679389,-3.183206106870229
3881110193101,5.008809165,3,-0.2154781494140625,-0.5207388610839844,-8.920795385742187,-4.419847328244275,-0.33587786259541985,-3.1297709923664123
3881120180340,5.018796404,3,-0.1879448303222656,-0.5374982727050781,-8.9255837890625,-4.404580152671755,-0.2595419847328244,-3.1526717557251906
3881130199038,5.028815102,3,-0.20709844360351562,-0.5410895751953124,-8.93755479736328,-4.427480916030534,-0.31297709923664124,-3.1603053435114505
3881140192424,5.038808488,3,-0.19512743530273435,-0.5315127685546874,-8.97705912475586,-4.396946564885496,-0.32061068702290074,-3.213740458015267
3881150208622,5.048824686,3,-0.19991583862304688,-0.5434837768554687,-8.936357696533202,-4.412213740458015,-0.37404580152671757,-3.122137404580153
3881160189038,5.058805102,3,-0.2214636535644531,-0.5159504577636719,-8.877699755859375,-4.435114503816794,-0.31297709923664124,-3.145038167938931
3881170627215,5.069243279,3,-0.19871873779296872,-0.5267243652343749,-8.942343200683593,-4.442748091603053,-0.3282442748091603,-3.145038167938931
3881180909976,5.07952604,3,-0.19512743530273435,-0.5398924743652344,-8.968679418945312,-4.3893129770992365,-0.32061068702290074,-3.145038167938931
3881190870132,5.089486196,3,-0.1927332336425781,-0.5494692810058593,-8.972270721435546,-4.412213740458015,-0.3435114503816794,-3.1755725190839694
3881200899299,5.099515363,3,-0.19632453613281248,-0.5339069702148437,-8.914809881591797,-4.3893129770992365,-0.32061068702290074,-3.145038167938931
3881210866434,5.109482498,3,-0.1879448303222656,-0.5530605834960938,-8.961496813964843,-4.419847328244275,-0.3511450381679389,-3.1374045801526718
3881220914559,5.119530623,3,-0.20231004028320312,-0.5470750793457031,-8.93875189819336,-4.427480916030534,-0.2595419847328244,-3.1755725190839694
3881230891174,5.129507238,3,-0.2214636535644531,-0.5446808776855468,-8.93156929321289,-4.427480916030534,-0.2595419847328244,-3.122137404580153
3881240898830,5.139514894,3,-0.21068974609375,-0.5470750793457031,-8.91840118408203,-4.427480916030534,-0.16793893129770993,-3.1297709923664123
3881250855497,5.149471561,3,-0.18435352783203124,-0.5542576843261718,-8.965088116455078,-4.3816793893129775,-0.29770992366412213,-3.0839694656488548
3881260911747,5.159527811,3,-0.1879448303222656,-0.5434837768554687,-8.967482318115234,-4.435114503816794,-0.2748091603053435,-3.099236641221374
3881270846174,5.169462238,3,-0.21428104858398436,-0.5578489868164063,-8.95670841064453,-4.427480916030534,-0.3435114503816794,-3.099236641221374
3881280137007,5.178753071,3,-0.19991583862304688,-0.5363011718749999,-8.955511309814453,-4.450381679389313,-0.2595419847328244,-3.183206106870229
3881290475392,5.189091456,3,-0.20231004028320312,-0.5374982727050781,-8.96987651977539,-4.435114503816794,-0.29770992366412213,-3.145038167938931
3881300314090,5.198930154,3,-0.21428104858398436,-0.5327098693847656,-8.961496813964843,-4.458015267175573,-0.2366412213740458,-3.1297709923664123
3881310160236,5.2087763,3,-0.22266075439453123,-0.5219359619140624,-8.930372192382812,-4.442748091603053,-0.31297709923664124,-3.1068702290076335
3881320101122,5.218717186,3,-0.1867477294921875,-0.5327098693847656,-8.926780889892578,-4.427480916030534,-0.2824427480916031,-3.145038167938931
3881330125496,5.22874156,3,-0.19033903198242186,-0.5386953735351562,-8.935160595703124,-4.442748091603053,-0.4198473282442748,-3.1526717557251906
3881340119455,5.238735519,3,-0.18076222534179687,-0.5339069702148437,-8.942343200683593,-4.435114503816794,-0.3053435114503817,-3.1526717557251906
3881350124611,5.248740675,3,-0.20949264526367187,-0.5327098693847656,-8.975862023925782,-4.374045801526718,-0.3969465648854962,-3.1526717557251906
3881360119715,5.258735779,3,-0.201112939453125,-0.5386953735351562,-8.96987651977539,-4.473282442748092,-0.29770992366412213,-3.1526717557251906
3881370393257,5.269009321,3,-0.19991583862304688,-0.565031591796875,-8.965088116455078,-4.473282442748092,-0.366412213740458,-3.122137404580153
3881380828465,5.279444529,3,-0.1879448303222656,-0.5398924743652344,-8.89326206665039,-4.450381679389313,-0.25190839694656486,-3.183206106870229
3881390890809,5.289506873,3,-0.2214636535644531,-0.5327098693847656,-8.954314208984375,-4.412213740458015,-0.3969465648854962,-3.1297709923664123
3881400862892,5.299478956,3,-0.20350714111328125,-0.5470750793457031,-8.913612780761719,-4.419847328244275,-0.31297709923664124,-3.1297709923664123
3881410834507,5.309450571,3,-0.20350714111328125,-0.5398924743652344,-8.90044467163086,-4.541984732824427,-0.3053435114503817,-3.099236641221374
3881420811382,5.319427446,3,-0.2059013427734375,-0.5291185668945312,-8.939948999023438,-4.450381679389313,-0.2748091603053435,-3.1297709923664123
3881430812059,5.329428123,3,-0.19991583862304688,-0.5386953735351562,-8.93755479736328,-4.442748091603053,-0.3435114503816794,-3.1755725190839694
3881440806330,5.339422394,3,-0.19153613281249998,-0.5410895751953124,-8.943540301513671,-4.404580152671755,-0.2824427480916031,-3.114503816793893
3881450832840,5.349448904,3,-0.23343466186523437,-0.5410895751953124,-8.965088116455078,-4.465648854961832,-0.35877862595419846,-3.0839694656488548
3881460801746,5.35941781,3,-0.21428104858398436,-0.5363011718749999,-8.907627276611327,-4.450381679389313,-0.2900763358778626,-3.145038167938931
3881470873569,5.369489633,3,-0.23822306518554687,-0.5542576843261718,-8.980650427246093,-4.442748091603053,-0.32061068702290074,-3.099236641221374
3881480836278,5.379452342,3,-0.20949264526367187,-0.5303156677246094,-8.954314208984375,-4.404580152671755,-0.2824427480916031,-3.114503816793893
3881490827736,5.3894438,3,-0.17836802368164062,-0.5422866760253906,-8.935160595703124,-4.427480916030534,-0.3816793893129771,-3.0916030534351147
3881500776382,5.399392446,3,-0.21188684692382811,-0.5434837768554687,-8.998606939697265,-4.435114503816794,-0.2748091603053435,-3.122137404580153
3881510817632,5.409433696,3,-0.201112939453125,-0.5351040710449219,-8.951920007324219,-4.458015267175573,-0.33587786259541985,-3.16793893129771
3881520803934,5.419419998,3,-0.21787235107421873,-0.5458779785156249,-8.984241729736327,-4.404580152671755,-0.22900763358778625,-3.1068702290076335
3881530775653,5.429391717,3,-0.22385785522460935,-0.5279214660644531,-8.941146099853515,-4.442748091603053,-0.3435114503816794,-3.1297709923664123
3881540821278,5.439437342,3,-0.21068974609375,-0.5614402893066406,-8.945934503173827,-4.427480916030534,-0.32061068702290074,-3.1526717557251906
3881550824923,5.449440987,3,-0.20709844360351562,-0.5530605834960938,-8.9255837890625,-4.511450381679389,-0.31297709923664124,-3.1374045801526718
3881560836746,5.45945281,3,-0.21068974609375,-0.5267243652343749,-8.929175091552734,-4.412213740458015,-0.2900763358778626,-3.183206106870229
3881570862996,5.46947906,3,-0.20350714111328125,-0.5351040710449219,-8.973467822265624,-4.442748091603053,-0.35877862595419846,-3.099236641221374
3881580818517,5.479434581,3,-0.18555062866210936,-0.5386953735351562,-8.93755479736328,-4.435114503816794,-0.2824427480916031,-3.1374045801526718
3881590812736,5.4894288,3,-0.1879448303222656,-0.5291185668945312,-8.971073620605468,-4.435114503816794,-0.32061068702290074,-3.183206106870229
3881600757476,5.49937354,3,-0.18914193115234373,-0.5518634826660156,-8.9255837890625,-4.442748091603053,-0.29770992366412213,-3.1755725190839694
3881610820132,5.509436196,3,-0.20709844360351562,-0.5231330627441406,-8.945934503173827,-4.412213740458015,-0.35877862595419846,-3.16793893129771
3881620841382,5.519457446,3,-0.20949264526367187,-0.5458779785156249,-8.974664923095702,-4.419847328244275,-0.26717557251908397,-3.1374045801526718
3881630827163,5.529443227,3,-0.201112939453125,-0.5434837768554687,-8.948328704833983,-4.480916030534351,-0.3511450381679389,-3.1603053435114505
3881640810236,5.5394263,3,-0.23582886352539062,-0.5542576843261718,-8.965088116455078,-4.427480916030534,-0.2366412213740458,-3.122137404580153
3881650825028,5.549441092,3,-0.20709844360351562,-0.5506663818359374,-8.951920007324219,-4.404580152671755,-0.3053435114503817,-3.1297709923664123
3881660809507,5.559425571,3,-0.21068974609375,-0.5566518859863281,-8.939948999023438,-4.351145038167939,-0.2748091603053435,-3.1068702290076335
3881670817215,5.569433279,3,-0.20949264526367187,-0.5339069702148437,-8.943540301513671,-4.465648854961832,-0.2748091603053435,-3.122137404580153
3881680824663,5.579440727,3,-0.18315642700195311,-0.5602431884765625,-8.9255837890625,-4.427480916030534,-0.2595419847328244,-3.099236641221374
3881690836486,5.58945255,3,-0.23822306518554687,-0.5662286926269531,-8.95670841064453,-4.3893129770992365,-0.24427480916030533,-3.114503816793893
3881700811434,5.599427498,3,-0.20829554443359374,-0.5363011718749999,-8.933963494873046,-4.435114503816794,-0.26717557251908397,-3.1297709923664123
3881710815601,5.609431665,3,-0.20350714111328125,-0.5614402893066406,-8.954314208984375,-4.3816793893129775,-0.33587786259541985,-3.1526717557251906
3881720819819,5.619435883,3,-0.19871873779296872,-0.5374982727050781,-8.907627276611327,-4.427480916030534,-0.26717557251908397,-3.0916030534351147
3881730817059,5.629433123,3,-0.21188684692382811,-0.5494692810058593,-8.92438668823242,-4.404580152671755,-0.37404580152671757,-3.1068702290076335
3881740818882,5.639434946,3,-0.1975216369628906,-0.5351040710449219,-8.971073620605468,-4.412213740458015,-0.2824427480916031,-3.1297709923664123
3881750819715,5.649435779,3,-0.21308394775390624,-0.5758054992675781,-8.904035974121093,-4.465648854961832,-0.366412213740458,-3.2213740458015265
3881760805132,5.659421196,3,-0.18555062866210936,-0.5291185668945312,-8.927977990722656,-4.534351145038168,-0.31297709923664124,-3.198473282442748
3881770826798,5.669442862,3,-0.20709844360351562,-0.5386953735351562,-8.947131604003905,-4.412213740458015,-0.32061068702290074,-3.1908396946564888
3881780822475,5.679438539,3,-0.201112939453125,-0.5315127685546874,-8.93156929321289,-4.343511450381679,-0.2748091603053435,-3.1603053435114505
3881790781642,5.689397706,3,-0.21068974609375,-0.5542576843261718,-8.943540301513671,-4.404580152671755,-0.3053435114503817,-3.114503816793893
3881800831017,5.699447081,3,-0.2214636535644531,-0.5291185668945312,-8.954314208984375,-4.404580152671755,-0.2595419847328244,-3.2213740458015265
3881810819611,5.709435675,3,-0.20470424194335937,-0.5482721801757812,-8.959102612304687,-4.404580152671755,-0.31297709923664124,-3.183206106870229
3881820817736,5.7194338,3,-0.21428104858398436,-0.5159504577636719,-8.901641772460938,-4.435114503816794,-0.2748091603053435,-3.1755725190839694
3881830834611,5.729450675,3,-0.21188684692382811,-0.5291185668945312,-8.93755479736328,-4.404580152671755,-0.3435114503816794,-3.1603053435114505
3881840797892,5.739413956,3,-0.20231004028320312,-0.5327098693847656,-8.98304462890625,-4.396946564885496,-0.2824427480916031,-3.1603053435114505
3881850836538,5.749452602,3,-0.20231004028320312,-0.5374982727050781,-8.920795385742187,-4.412213740458015,-0.31297709923664124,-3.114503816793893
3881860805809,5.759421873,3,-0.19991583862304688,-0.5410895751953124,-8.919598284912109,-4.450381679389313,-0.2900763358778626,-3.1374045801526718
3881870795965,5.769412029,3,-0.19033903198242186,-0.5279214660644531,-8.901641772460938,-4.450381679389313,-0.31297709923664124,-3.099236641221374
3881880791746,5.77940781,3,-0.17597382202148437,-0.5446808776855468,-8.942343200683593,-4.450381679389313,-0.2824427480916031,-3.1297709923664123
3881890788413,5.789404477,3,-0.1975216369628906,-0.5398924743652344,-8.971073620605468,-4.465648854961832,-0.3435114503816794,-3.16793893129771
3881900808830,5.799424894,3,-0.19393033447265623,-0.5578489868164063,-8.95670841064453,-4.419847328244275,-0.2900763358778626,-3.1755725190839694
3881910816382,5.809432446,3,-0.23702596435546874,-0.5602431884765625,-8.954314208984375,-4.442748091603053,-0.2824427480916031,-3.183206106870229
3881920778934,5.819394998,3,-0.2154781494140625,-0.5374982727050781,-8.966285217285156,-4.427480916030534,-0.33587786259541985,-3.1526717557251906
3881930799142,5.829415206,3,-0.1867477294921875,-0.5734112976074218,-8.943540301513671,-4.396946564885496,-0.3435114503816794,-3.145038167938931
3881940842371,5.839458435,3,-0.19393033447265623,-0.5470750793457031,-8.935160595703124,-4.412213740458015,-0.35877862595419846,-3.122137404580153
3881950824715,5.849440779,3,-0.18076222534179687,-0.5135562561035156,-8.919598284912109,-4.3893129770992365,-0.2900763358778626,-3.099236641221374
3881960821903,5.859437967,3,-0.20829554443359374,-0.5363011718749999,-8.920795385742187,-4.419847328244275,-0.22900763358778625,-3.1297709923664123
3881970799767,5.869415831,3,-0.1879448303222656,-0.5135562561035156,-8.943540301513671,-4.458015267175573,-0.32061068702290074,-3.145038167938931
3881980792632,5.879408696,3,-0.18555062866210936,-0.5386953735351562,-8.917204083251953,-4.480916030534351,-0.33587786259541985,-3.1374045801526718
3881990790600,5.889406664,3,-0.16998831787109375,-0.5674257934570313,-8.949525805664061,-4.427480916030534,-0.32061068702290074,-3.122137404580153
3882000788205,5.899404269,3,-0.201112939453125,-0.5315127685546874,-8.919598284912109,-4.435114503816794,-0.2748091603053435,-3.145038167938931
3882010813413,5.909429477,3,-0.19393033447265623,-0.5518634826660156,-8.923189587402343,-4.435114503816794,-0.2748091603053435,-3.1374045801526718
3882020768882,5.919384946,3,-0.19991583862304688,-0.5351040710449219,-8.96987651977539,-4.442748091603053,-0.2824427480916031,-3.1374045801526718
3882030812163,5.929428227,3,-0.2059013427734375,-0.5446808776855468,-8.973467822265624,-4.480916030534351,-0.31297709923664124,-3.122137404580153
3882040825757,5.939441821,3,-0.20231004028320312,-0.5386953735351562,-8.98304462890625,-4.419847328244275,-0.2824427480916031,-3.16793893129771
3882050821746,5.94943781,3,-0.20709844360351562,-0.5446808776855468,-8.92438668823242,-4.435114503816794,-0.2595419847328244,-3.1603053435114505
3882060814507,5.959430571,3,-0.2154781494140625,-0.5351040710449219,-8.93875189819336,-4.404580152671755,-0.31297709923664124,-3.1297709923664123
3882070822840,5.969438904,3,-0.19512743530273435,-0.5614402893066406,-8.942343200683593,-4.442748091603053,-0.366412213740458,-3.145038167938931
3882080833934,5.979449998,3,-0.19991583862304688,-0.5494692810058593,-8.920795385742187,-4.366412213740458,-0.31297709923664124,-3.1603053435114505
3882090832527,5.989448591,3,-0.2059013427734375,-0.5291185668945312,-8.930372192382812,-4.435114503816794,-0.31297709923664124,-3.145038167938931
3882100829142,5.999445206,3,-0.2154781494140625,-0.5351040710449219,-8.939948999023438,-4.435114503816794,-0.25190839694656486,-3.099236641221374
3882110827840,6.009443904,3,-0.16759411621093748,-0.5291185668945312,-8.967482318115234,-4.458015267175573,-0.37404580152671757,-3.1374045801526718
3882120849871,6.019465935,3,-0.20829554443359374,-0.5626373901367188,-8.923189587402343,-4.465648854961832,-0.2900763358778626,-3.1297709923664123
3882130814507,6.029430571,3,-0.20829554443359374,-0.5291185668945312,-8.905233074951171,-4.488549618320611,-0.366412213740458,-3.1297709923664123
3882140817423,6.039433487,3,-0.23223756103515625,-0.5339069702148437,-8.968679418945312,-4.450381679389313,-0.2748091603053435,-3.0916030534351147
3882150824298,6.049440362,3,-0.20231004028320312,-0.5339069702148437,-8.990227233886719,-4.412213740458015,-0.366412213740458,-3.099236641221374
3882160862632,6.059478696,3,-0.2059013427734375,-0.5363011718749999,-8.91840118408203,-4.442748091603053,-0.31297709923664124,-3.1374045801526718
3882170831538,6.069447602,3,-0.19512743530273435,-0.5303156677246094,-8.907627276611327,-4.480916030534351,-0.37404580152671757,-3.1526717557251906
3882180825184,6.079441248,3,-0.21787235107421873,-0.5183446594238281,-8.967482318115234,-4.427480916030534,-0.3282442748091603,-3.1526717557251906
3882190844090,6.089460154,3,-0.21787235107421873,-0.5422866760253906,-8.939948999023438,-4.458015267175573,-0.33587786259541985,-3.122137404580153
3882200831590,6.099447654,3,-0.19033903198242186,-0.5267243652343749,-8.967482318115234,-4.435114503816794,-0.3282442748091603,-3.1908396946564888
3882210833204,6.109449268,3,-0.20829554443359374,-0.5374982727050781,-8.942343200683593,-4.442748091603053,-0.366412213740458,-3.1603053435114505
3882220827215,6.119443279,3,-0.21068974609375,-0.5542576843261718,-8.929175091552734,-4.404580152671755,-0.3282442748091603,-3.1526717557251906
3882230854507,6.129470571,3,-0.20350714111328125,-0.5626373901367188,-8.963891015625,-4.3893129770992365,-0.37404580152671757,-3.114503816793893
3882240814559,6.139430623,3,-0.1879448303222656,-0.5470750793457031,-8.920795385742187,-4.419847328244275,-0.32061068702290074,-3.1526717557251906
3882250828621,6.149444685,3,-0.17118541870117188,-0.5279214660644531,-8.973467822265624,-4.412213740458015,-0.366412213740458,-3.1374045801526718
3882260821694,6.159437758,3,-0.1927332336425781,-0.5315127685546874,-8.94473740234375,-4.427480916030534,-0.33587786259541985,-3.145038167938931
3882270846746,6.16946281,3,-0.20470424194335937,-0.5363011718749999,-8.959102612304687,-4.458015267175573,-0.37404580152671757,-3.0916030534351147
3882280863569,6.179479633,3,-0.21188684692382811,-0.5722141967773438,-8.965088116455078,-4.442748091603053,-0.3282442748091603,-3.1297709923664123
3882290824819,6.189440883,3,-0.2059013427734375,-0.5506663818359374,-8.975862023925782,-4.458015267175573,-0.37404580152671757,-3.1603053435114505
3882300786694,6.199402758,3,-0.19871873779296872,-0.5279214660644531,-8.950722906494141,-4.435114503816794,-0.3053435114503817,-3.1068702290076335
3882310820444,6.209436508,3,-0.1640028137207031,-0.5243301635742187,-8.913612780761719,-4.427480916030534,-0.3511450381679389,-3.145038167938931
3882320813621,6.219429685,3,-0.201112939453125,-0.5243301635742187,-8.9255837890625,-4.465648854961832,-0.26717557251908397,-3.1526717557251906
3882330841486,6.22945755,3,-0.19512743530273435,-0.5255272644042969,-8.943540301513671,-4.480916030534351,-0.366412213740458,-3.1526717557251906
3882340798361,6.239414425,3,-0.21188684692382811,-0.5722141967773438,-8.93875189819336,-4.427480916030534,-0.24427480916030533,-3.145038167938931
3882350820496,6.24943656,3,-0.1975216369628906,-0.5506663818359374,-8.939948999023438,-4.435114503816794,-0.31297709923664124,-3.1603053435114505
3882360821382,6.259437446,3,-0.20949264526367187,-0.5410895751953124,-8.979453326416015,-4.3816793893129775,-0.32061068702290074,-3.145038167938931
3882370820600,6.269436664,3,-0.2346317626953125,-0.5243301635742187,-8.943540301513671,-4.450381679389313,-0.3511450381679389,-3.122137404580153
3882380821746,6.27943781,3,-0.19512743530273435,-0.5482721801757812,-8.960299713134765,-4.465648854961832,-0.2748091603053435,-3.114503816793893
3882390812684,6.289428748,3,-0.18555062866210936,-0.5434837768554687,-8.919598284912109,-4.473282442748092,-0.31297709923664124,-3.114503816793893
3882400813777,6.299429841,3,-0.2059013427734375,-0.5710170959472656,-8.930372192382812,-4.427480916030534,-0.2366412213740458,-3.16793893129771
3882410827111,6.309443175,3,-0.21068974609375,-0.5410895751953124,-8.955511309814453,-4.435114503816794,-0.32061068702290074,-3.1374045801526718
3882420820704,6.319436768,3,-0.19153613281249998,-0.5351040710449219,-8.947131604003905,-4.473282442748092,-0.26717557251908397,-3.1068702290076335
3882430820600,6.329436664,3,-0.1927332336425781,-0.5674257934570313,-8.985438830566405,-4.435114503816794,-0.3435114503816794,-3.099236641221374
3882440844350,6.339460414,3,-0.16160861206054686,-0.5470750793457031,-8.947131604003905,-4.427480916030534,-0.2824427480916031,-3.145038167938931
3882450822684,6.349438748,3,-0.1975216369628906,-0.5111620544433594,-8.965088116455078,-4.412213740458015,-0.35877862595419846,-3.122137404580153
3882460815027,6.359431091,3,-0.201112939453125,-0.5422866760253906,-8.91840118408203,-4.450381679389313,-0.25190839694656486,-3.1755725190839694
3882470825079,6.369441143,3,-0.21787235107421873,-0.5279214660644531,-8.92438668823242,-4.3816793893129775,-0.3282442748091603,-3.183206106870229
3882480839663,6.379455727,3,-0.20350714111328125,-0.5351040710449219,-8.91840118408203,-4.3893129770992365,-0.2366412213740458,-3.114503816793893
3882490823152,6.389439216,3,-0.22026655273437498,-0.5351040710449219,-8.97705912475586,-4.396946564885496,-0.3282442748091603,-3.122137404580153
3882500830340,6.399446404,3,-0.20829554443359374,-0.5339069702148437,-8.963891015625,-4.419847328244275,-0.29770992366412213,-3.1068702290076335
3882510828673,6.409444737,3,-0.21428104858398436,-0.5351040710449219,-8.95670841064453,-4.435114503816794,-0.3053435114503817,-3.0916030534351147
3882520820131,6.419436195,3,-0.18435352783203124,-0.5398924743652344,-8.943540301513671,-4.3893129770992365,-0.31297709923664124,-3.1068702290076335
3882530845079,6.429461143,3,-0.21428104858398436,-0.5446808776855468,-8.9255837890625,-4.412213740458015,-0.37404580152671757,-3.122137404580153
3882540812944,6.439429008,3,-0.1975216369628906,-0.5315127685546874,-8.93875189819336,-4.450381679389313,-0.26717557251908397,-3.1374045801526718
3882550841381,6.449457445,3,-0.20949264526367187,-0.5422866760253906,-8.950722906494141,-4.442748091603053,-0.33587786259541985,-3.145038167938931
3882560823621,6.459439685,3,-0.18914193115234373,-0.5542576843261718,-8.945934503173827,-4.419847328244275,-0.2595419847328244,-3.1068702290076335
3882570822579,6.469438643,3,-0.22385785522460935,-0.5482721801757812,-8.916006982421875,-4.435114503816794,-0.366412213740458,-3.145038167938931
3882580824506,6.47944057,3,-0.18914193115234373,-0.5279214660644531,-8.908824377441405,-4.3893129770992365,-0.2748091603053435,-3.0763358778625953
3882590772006,6.48938807,3,-0.20829554443359374,-0.5482721801757812,-8.990227233886719,-4.412213740458015,-0.37404580152671757,-3.145038167938931
3882600831850,6.499447914,3,-0.18914193115234373,-0.5458779785156249,-8.949525805664061,-4.427480916030534,-0.26717557251908397,-3.1603053435114505
3882610835288,6.509451352,3,-0.181959326171875,-0.5578489868164063,-8.927977990722656,-4.442748091603053,-0.366412213740458,-3.1908396946564888
3882620823569,6.519439633,3,-0.19871873779296872,-0.5135562561035156,-8.921992486572265,-4.3816793893129775,-0.22137404580152673,-3.1374045801526718
3882630814975,6.529431039,3,-0.20949264526367187,-0.5279214660644531,-8.951920007324219,-4.427480916030534,-0.3435114503816794,-3.1526717557251906
3882640806121,6.539422185,3,-0.20709844360351562,-0.5327098693847656,-8.951920007324219,-4.3816793893129775,-0.2595419847328244,-3.1908396946564888
3882650821902,6.549437966,3,-0.21308394775390624,-0.5602431884765625,-8.929175091552734,-4.473282442748092,-0.32061068702290074,-3.1297709923664123
3882660814298,6.559430362,3,-0.201112939453125,-0.5315127685546874,-8.912415679931641,-4.419847328244275,-0.2595419847328244,-3.122137404580153
3882670815236,6.5694313,3,-0.20709844360351562,-0.5099649536132812,-8.974664923095702,-4.396946564885496,-0.37404580152671757,-3.1297709923664123
3882680833361,6.579449425,3,-0.181959326171875,-0.5674257934570313,-8.907627276611327,-4.3816793893129775,-0.2824427480916031,-3.1374045801526718
3882690822423,6.589438487,3,-0.20470424194335937,-0.5279214660644531,-8.948328704833983,-4.427480916030534,-0.3435114503816794,-3.1526717557251906
3882700817944,6.599434008,3,-0.201112939453125,-0.5434837768554687,-8.947131604003905,-4.412213740458015,-0.21374045801526717,-3.099236641221374
3882710816902,6.609432966,3,-0.2154781494140625,-0.5386953735351562,-8.978256225585938,-4.435114503816794,-0.3282442748091603,-3.16793893129771
3882720837683,6.619453747,3,-0.201112939453125,-0.5446808776855468,-8.921992486572265,-4.419847328244275,-0.26717557251908397,-3.1374045801526718
3882730877683,6.629493747,3,-0.18315642700195311,-0.5590460876464843,-8.923189587402343,-4.465648854961832,-0.3282442748091603,-3.0916030534351147
3882740856173,6.639472237,3,-0.20350714111328125,-0.5147533569335937,-8.93875189819336,-4.412213740458015,-0.22137404580152673,-3.114503816793893
3882750827163,6.649443227,3,-0.22505495605468748,-0.5303156677246094,-8.97705912475586,-4.435114503816794,-0.3969465648854962,-3.1603053435114505
3882760852579,6.659468643,3,-0.22505495605468748,-0.5374982727050781,-8.916006982421875,-4.412213740458015,-0.32061068702290074,-3.16793893129771
3882770819506,6.66943557,3,-0.19991583862304688,-0.5470750793457031,-8.935160595703124,-4.404580152671755,-0.35877862595419846,-3.1526717557251906
3882780836850,6.679452914,3,-0.18914193115234373,-0.5482721801757812,-8.943540301513671,-4.5038167938931295,-0.2595419847328244,-3.114503816793893
3882790811954,6.689428018,3,-0.20231004028320312,-0.5195417602539062,-8.955511309814453,-4.465648854961832,-0.29770992366412213,-3.122137404580153
3882800806486,6.69942255,3,-0.201112939453125,-0.5458779785156249,-8.973467822265624,-4.458015267175573,-0.2900763358778626,-3.1603053435114505
3882810855027,6.709471091,3,-0.19632453613281248,-0.5339069702148437,-8.950722906494141,-4.480916030534351,-0.3511450381679389,-3.1374045801526718
3882820818204,6.719434268,3,-0.21428104858398436,-0.5374982727050781,-8.916006982421875,-4.442748091603053,-0.32061068702290074,-3.0839694656488548
3882830831329,6.729447393,3,-0.20470424194335937,-0.5446808776855468,-8.945934503173827,-4.396946564885496,-0.3282442748091603,-3.16793893129771
3882840803673,6.739419737,3,-0.20231004028320312,-0.5410895751953124,-8.953117108154297,-4.442748091603053,-0.32061068702290074,-3.1374045801526718
3882850836225,6.749452289,3,-0.18914193115234373,-0.5351040710449219,-8.932766394042968,-4.442748091603053,-0.2900763358778626,-3.1297709923664123
3882860825288,6.759441352,3,-0.1927332336425781,-0.5051765502929687,-8.935160595703124,-4.33587786259542,-0.2748091603053435,-3.145038167938931
3882870821642,6.769437706,3,-0.20470424194335937,-0.51714755859375,-8.939948999023438,-4.3816793893129775,-0.3053435114503817,-3.099236641221374
3882880847267,6.779463331,3,-0.19512743530273435,-0.5542576843261718,-8.901641772460938,-4.3893129770992365,-0.33587786259541985,-3.099236641221374
3882890832006,6.78944807,3,-0.201112939453125,-0.5578489868164063,-8.916006982421875,-4.435114503816794,-0.366412213740458,-3.114503816793893
3882900808048,6.799424112,3,-0.19991583862304688,-0.5422866760253906,-8.963891015625,-4.519083969465649,-0.32061068702290074,-3.122137404580153
3882910828621,6.809444685,3,-0.22864625854492185,-0.5458779785156249,-8.92438668823242,-4.480916030534351,-0.3053435114503817,-3.122137404580153
3882920821538,6.819437602,3,-0.201112939453125,-0.5351040710449219,-8.942343200683593,-4.427480916030534,-0.2366412213740458,-3.145038167938931
3882930815652,6.829431716,3,-0.19632453613281248,-0.5339069702148437,-8.93755479736328,-4.450381679389313,-0.2900763358778626,-3.1755725190839694
3882940814819,6.839430883,3,-0.20709844360351562,-0.5518634826660156,-8.993818536376953,-4.442748091603053,-0.3053435114503817,-3.114503816793893
3882950828256,6.84944432,3,-0.22266075439453123,-0.5303156677246094,-8.986635931396483,-4.435114503816794,-0.3282442748091603,-3.1603053435114505
3882960807423,6.859423487,3,-0.19033903198242186,-0.5255272644042969,-8.949525805664061,-4.450381679389313,-0.31297709923664124,-3.1755725190839694
3882970835652,6.869451716,3,-0.2154781494140625,-0.5327098693847656,-8.933963494873046,-4.435114503816794,-0.32061068702290074,-3.1374045801526718
3882980856433,6.879472497,3,-0.19393033447265623,-0.5351040710449219,-8.927977990722656,-4.419847328244275,-0.3282442748091603,-3.122137404580153
3882990826538,6.889442602,3,-0.19393033447265623,-0.55545478515625,-8.890867864990234,-4.458015267175573,-0.32061068702290074,-3.122137404580153
3883000826225,6.899442289,3,-0.20350714111328125,-0.5219359619140624,-8.927977990722656,-4.412213740458015,-0.2748091603053435,-3.16793893129771
3883010831017,6.909447081,3,-0.2262520568847656,-0.5626373901367188,-8.978256225585938,-4.450381679389313,-0.33587786259541985,-3.1526717557251906
3883020813829,6.919429893,3,-0.1975216369628906,-0.5422866760253906,-8.933963494873046,-4.419847328244275,-0.31297709923664124,-3.1297709923664123
3883030814298,6.929430362,3,-0.1927332336425781,-0.5279214660644531,-8.932766394042968,-4.404580152671755,-0.2595419847328244,-3.145038167938931
3883040824350,6.939440414,3,-0.21068974609375,-0.5374982727050781,-8.90643017578125,-4.435114503816794,-0.2824427480916031,-3.1603053435114505
3883050821173,6.949437237,3,-0.19871873779296872,-0.5243301635742187,-8.979453326416015,-4.419847328244275,-0.31297709923664124,-3.16793893129771
3883060813100,6.959429164,3,-0.19393033447265623,-0.5530605834960938,-8.973467822265624,-4.458015267175573,-0.29770992366412213,-3.099236641221374
3883070779819,6.969395883,3,-0.2059013427734375,-0.5578489868164063,-8.941146099853515,-4.427480916030534,-0.3282442748091603,-3.0916030534351147
3883080931173,6.979547237,3,-0.17597382202148437,-0.5351040710449219,-8.990227233886719,-4.419847328244275,-0.22900763358778625,-3.1374045801526718
3883090833412,6.989449476,3,-0.18555062866210936,-0.5470750793457031,-8.932766394042968,-4.412213740458015,-0.2748091603053435,-3.1526717557251906
3883100827892,6.999443956,3,-0.21068974609375,-0.5434837768554687,-8.959102612304687,-4.435114503816794,-0.25190839694656486,-3.1374045801526718
3883110823621,7.009439685,3,-0.20470424194335937,-0.5638344909667968,-8.953117108154297,-4.450381679389313,-0.3511450381679389,-3.145038167938931
3883120836537,7.019452601,3,-0.1975216369628906,-0.5434837768554687,-8.933963494873046,-4.435114503816794,-0.3435114503816794,-3.1297709923664123
3883130838621,7.029454685,3,-0.19871873779296872,-0.5482721801757812,-8.942343200683593,-4.442748091603053,-0.2748091603053435,-3.1068702290076335
3883140811642,7.039427706,3,-0.229843359375,-0.5602431884765625,-8.935160595703124,-4.458015267175573,-0.2595419847328244,-3.1297709923664123
3883150827319,7.049443383,3,-0.20231004028320312,-0.5518634826660156,-8.979453326416015,-4.465648854961832,-0.32061068702290074,-3.1908396946564888
3883160819975,7.059436039,3,-0.21906945190429686,-0.5207388610839844,-8.936357696533202,-4.435114503816794,-0.29770992366412213,-3.114503816793893
3883170816277,7.069432341,3,-0.22385785522460935,-0.5183446594238281,-8.904035974121093,-4.450381679389313,-0.2595419847328244,-3.114503816793893
3883180828204,7.079444268,3,-0.2059013427734375,-0.5303156677246094,-8.955511309814453,-4.3816793893129775,-0.2824427480916031,-3.1603053435114505
3883190816381,7.089432445,3,-0.20829554443359374,-0.55545478515625,-8.945934503173827,-4.450381679389313,-0.2900763358778626,-3.2061068702290076
3883200825548,7.099441612,3,-0.21428104858398436,-0.5363011718749999,-8.919598284912109,-4.5038167938931295,-0.31297709923664124,-3.1297709923664123
3883210826225,7.109442289,3,-0.21068974609375,-0.5422866760253906,-8.90643017578125,-4.442748091603053,-0.33587786259541985,-3.0916030534351147
3883220821902,7.119437966,3,-0.201112939453125,-0.5255272644042969,-8.95670841064453,-4.488549618320611,-0.31297709923664124,-3.1374045801526718
3883230815444,7.129431508,3,-0.20949264526367187,-0.5482721801757812,-8.923189587402343,-4.480916030534351,-0.3435114503816794,-3.1068702290076335
3883240826590,7.139442654,3,-0.19512743530273435,-0.5590460876464843,-8.932766394042968,-4.458015267175573,-0.2900763358778626,-3.068702290076336
3883250820548,7.149436612,3,-0.2059013427734375,-0.5566518859863281,-8.912415679931641,-4.450381679389313,-0.3282442748091603,-3.114503816793893
3883260820079,7.159436143,3,-0.20470424194335937,-0.5590460876464843,-8.96269391479492,-4.412213740458015,-0.2824427480916031,-3.122137404580153
3883270819715,7.169435779,3,-0.201112939453125,-0.5123591552734374,-8.950722906494141,-4.419847328244275,-0.29770992366412213,-3.1603053435114505
3883280818881,7.179434945,3,-0.1879448303222656,-0.5327098693847656,-8.927977990722656,-4.419847328244275,-0.2366412213740458,-3.1526717557251906
3883290875183,7.189491247,3,-0.1927332336425781,-0.5602431884765625,-8.917204083251953,-4.488549618320611,-0.31297709923664124,-3.1908396946564888
3883300848048,7.199464112,3,-0.19632453613281248,-0.5123591552734374,-8.965088116455078,-4.488549618320611,-0.25190839694656486,-3.1526717557251906
3883310827371,7.209443435,3,-0.18914193115234373,-0.5279214660644531,-8.917204083251953,-4.473282442748092,-0.31297709923664124,-3.198473282442748
3883320817058,7.219433122,3,-0.1879448303222656,-0.5446808776855468,-8.967482318115234,-4.435114503816794,-0.2366412213740458,-3.198473282442748
3883330828100,7.229444164,3,-0.2166752502441406,-0.5207388610839844,-8.947131604003905,-4.412213740458015,-0.3435114503816794,-3.1908396946564888
3883340826121,7.239442185,3,-0.1879448303222656,-0.5339069702148437,-8.990227233886719,-4.3893129770992365,-0.3053435114503817,-3.114503816793893
3883350835912,7.249451976,3,-0.22026655273437498,-0.5614402893066406,-8.953117108154297,-4.427480916030534,-0.37404580152671757,-3.1068702290076335
3883360826537,7.259442601,3,-0.20709844360351562,-0.5243301635742187,-8.979453326416015,-4.427480916030534,-0.25190839694656486,-3.0916030534351147
3883370822787,7.269438851,3,-0.201112939453125,-0.55545478515625,-8.943540301513671,-4.33587786259542,-0.35877862595419846,-3.145038167938931
3883380826798,7.279442862,3,-0.1975216369628906,-0.5398924743652344,-9.00100114135742,-4.351145038167939,-0.29770992366412213,-3.213740458015267
3883390892475,7.289508539,3,-0.20470424194335937,-0.5458779785156249,-8.961496813964843,-4.435114503816794,-0.3282442748091603,-3.1755725190839694
3883400819037,7.299435101,3,-0.20949264526367187,-0.5267243652343749,-8.957905511474609,-4.435114503816794,-0.26717557251908397,-3.1068702290076335
3883410843829,7.309459893,3,-0.19632453613281248,-0.5303156677246094,-8.932766394042968,-4.465648854961832,-0.3816793893129771,-3.122137404580153
3883420820444,7.319436508,3,-0.2154781494140625,-0.5398924743652344,-8.919598284912109,-4.427480916030534,-0.3053435114503817,-3.1374045801526718
3883430818517,7.329434581,3,-0.2154781494140625,-0.5327098693847656,-8.935160595703124,-4.465648854961832,-0.32061068702290074,-3.0839694656488548
3883440800756,7.33941682,3,-0.19871873779296872,-0.5291185668945312,-8.949525805664061,-4.442748091603053,-0.2595419847328244,-3.099236641221374
3883450832423,7.349448487,3,-0.1927332336425781,-0.5374982727050781,-8.945934503173827,-4.435114503816794,-0.45038167938931295,-3.122137404580153
3883460837110,7.359453174,3,-0.20350714111328125,-0.5638344909667968,-8.966285217285156,-4.3816793893129775,-0.32061068702290074,-3.1068702290076335
3883470810808,7.369426872,3,-0.20829554443359374,-0.5470750793457031,-8.927977990722656,-4.419847328244275,-0.4122137404580153,-3.0916030534351147
3883480829975,7.379446039,3,-0.19632453613281248,-0.5506663818359374,-8.933963494873046,-4.450381679389313,-0.2595419847328244,-3.1526717557251906
3883490813621,7.389429685,3,-0.20949264526367187,-0.5578489868164063,-8.941146099853515,-4.458015267175573,-0.366412213740458,-3.045801526717557
3883500811798,7.399427862,3,-0.17836802368164062,-0.5386953735351562,-8.941146099853515,-4.480916030534351,-0.25190839694656486,-3.099236641221374
3883510812996,7.40942906,3,-0.19632453613281248,-0.5614402893066406,-8.936357696533202,-4.465648854961832,-0.40458015267175573,-3.1526717557251906
3883520815444,7.419431508,3,-0.19512743530273435,-0.5291185668945312,-8.978256225585938,-4.412213740458015,-0.24427480916030533,-3.16793893129771
3883530822423,7.429438487,3,-0.19632453613281248,-0.5578489868164063,-8.936357696533202,-4.419847328244275,-0.3053435114503817,-3.1297709923664123
3883540813569,7.439429633,3,-0.201112939453125,-0.5327098693847656,-8.959102612304687,-4.458015267175573,-0.24427480916030533,-3.1603053435114505
3883550803777,7.449419841,3,-0.20350714111328125,-0.5482721801757812,-8.987833032226561,-4.458015267175573,-0.35877862595419846,-3.1297709923664123
3883560819506,7.45943557,3,-0.1975216369628906,-0.5255272644042969,-8.955511309814453,-4.458015267175573,-0.2748091603053435,-3.0916030534351147
3883570823829,7.469439893,3,-0.19632453613281248,-0.5446808776855468,-8.947131604003905,-4.427480916030534,-0.35877862595419846,-3.122137404580153
3883580786537,7.479402601,3,-0.20709844360351562,-0.5351040710449219,-8.898050469970702,-4.465648854961832,-0.3053435114503817,-3.122137404580153
3883590820079,7.489436143,3,-0.19991583862304688,-0.5063736511230469,-8.971073620605468,-4.473282442748092,-0.4122137404580153,-3.1603053435114505
3883600813464,7.499429528,3,-0.18435352783203124,-0.5315127685546874,-8.968679418945312,-4.412213740458015,-0.2748091603053435,-3.1908396946564888
3883610824089,7.509440153,3,-0.1975216369628906,-0.5590460876464843,-8.967482318115234,-4.419847328244275,-0.3816793893129771,-3.122137404580153
3883620837996,7.51945406,3,-0.20350714111328125,-0.5351040710449219,-8.941146099853515,-4.435114503816794,-0.2748091603053435,-3.183206106870229
3883630842891,7.529458955,3,-0.19153613281249998,-0.5494692810058593,-8.971073620605468,-4.404580152671755,-0.2824427480916031,-3.1374045801526718
3883640818152,7.539434216,3,-0.19393033447265623,-0.5339069702148437,-8.93755479736328,-4.396946564885496,-0.2824427480916031,-3.1068702290076335
3883650820704,7.549436768,3,-0.21068974609375,-0.5303156677246094,-8.895656268310546,-4.374045801526718,-0.3893129770992366,-3.145038167938931
3883660816225,7.559432289,3,-0.1975216369628906,-0.5374982727050781,-8.955511309814453,-4.419847328244275,-0.21374045801526717,-3.1374045801526718
3883670827058,7.569443122,3,-0.1927332336425781,-0.5410895751953124,-8.8872765625,-4.435114503816794,-0.35877862595419846,-3.1908396946564888
3883680873829,7.579489893,3,-0.18914193115234373,-0.5398924743652344,-8.91840118408203,-4.374045801526718,-0.2900763358778626,-3.16793893129771
3883690822475,7.589438539,3,-0.19512743530273435,-0.5255272644042969,-8.927977990722656,-4.412213740458015,-0.3816793893129771,-3.122137404580153
3883700826954,7.599443018,3,-0.20231004028320312,-0.5339069702148437,-8.919598284912109,-4.3816793893129775,-0.19083969465648856,-3.1297709923664123
3883710833569,7.609449633,3,-0.22385785522460935,-0.5315127685546874,-8.96269391479492,-4.419847328244275,-0.35877862595419846,-3.1297709923664123
3883720818152,7.619434216,3,-0.2262520568847656,-0.5446808776855468,-8.921992486572265,-4.458015267175573,-0.2595419847328244,-3.2061068702290076
3883730819818,7.629435882,3,-0.2154781494140625,-0.5470750793457031,-8.949525805664061,-4.480916030534351,-0.32061068702290074,-3.2061068702290076
3883740812631,7.639428695,3,-0.21068974609375,-0.5446808776855468,-8.942343200683593,-4.450381679389313,-0.29770992366412213,-3.1755725190839694
3883750823933,7.649439997,3,-0.19991583862304688,-0.5303156677246094,-8.973467822265624,-4.450381679389313,-0.33587786259541985,-3.1755725190839694
3883760825079,7.659441143,3,-0.19512743530273435,-0.5303156677246094,-8.912415679931641,-4.442748091603053,-0.3282442748091603,-3.1374045801526718
3883770816225,7.669432289,3,-0.2166752502441406,-0.4955997436523437,-8.955511309814453,-4.412213740458015,-0.42748091603053434,-3.1908396946564888
3883780864089,7.679480153,3,-0.2214636535644531,-0.5303156677246094,-8.961496813964843,-4.458015267175573,-0.2748091603053435,-3.1526717557251906
3883790824089,7.689440153,3,-0.19393033447265623,-0.5327098693847656,-8.9255837890625,-4.458015267175573,-0.3511450381679389,-3.122137404580153
3883800821381,7.699437445,3,-0.201112939453125,-0.5470750793457031,-8.936357696533202,-4.427480916030534,-0.2824427480916031,-3.068702290076336
3883810823568,7.709439632,3,-0.2059013427734375,-0.5195417602539062,-8.96269391479492,-4.435114503816794,-0.3969465648854962,-3.145038167938931
3883820811381,7.719427445,3,-0.18555062866210936,-0.5398924743652344,-8.935160595703124,-4.396946564885496,-0.3053435114503817,-3.1526717557251906
3883830772996,7.72938906,3,-0.2059013427734375,-0.5614402893066406,-8.898050469970702,-4.404580152671755,-0.366412213740458,-3.1526717557251906
3883840824298,7.739440362,3,-0.20949264526367187,-0.5614402893066406,-8.941146099853515,-4.465648854961832,-0.2366412213740458,-3.1603053435114505
3883850881381,7.749497445,3,-0.1927332336425781,-0.5446808776855468,-8.968679418945312,-4.458015267175573,-0.3435114503816794,-3.1374045801526718
3883860847162,7.759463226,3,-0.19153613281249998,-0.55545478515625,-8.950722906494141,-4.442748091603053,-0.3282442748091603,-3.145038167938931
3883870778777,7.769394841,3,-0.21188684692382811,-0.5231330627441406,-8.943540301513671,-4.473282442748092,-0.3435114503816794,-3.0839694656488548
3883880874506,7.77949057,3,-0.20350714111328125,-0.5434837768554687,-8.881291058349609,-4.465648854961832,-0.29770992366412213,-3.183206106870229
3883890830443,7.789446507,3,-0.17118541870117188,-0.5279214660644531,-8.945934503173827,-4.458015267175573,-0.29770992366412213,-3.16793893129771
3883900798881,7.799414945,3,-0.22744915771484372,-0.5446808776855468,-8.933963494873046,-4.450381679389313,-0.3053435114503817,-3.145038167938931
3883910829089,7.809445153,3,-0.19153613281249998,-0.5446808776855468,-8.951920007324219,-4.419847328244275,-0.3511450381679389,-3.16793893129771
3883920806693,7.819422757,3,-0.20709844360351562,-0.5542576843261718,-8.955511309814453,-4.374045801526718,-0.2595419847328244,-3.16793893129771
3883930827423,7.829443487,3,-0.22026655273437498,-0.55545478515625,-8.935160595703124,-4.442748091603053,-0.3282442748091603,-3.16793893129771
3883940849975,7.839466039,3,-0.2262520568847656,-0.5482721801757812,-8.949525805664061,-4.435114503816794,-0.2366412213740458,-3.1374045801526718
3883950882214,7.849498278,3,-0.201112939453125,-0.5458779785156249,-8.910021478271483,-4.450381679389313,-0.3816793893129771,-3.1755725190839694
3883960836225,7.859452289,3,-0.16759411621093748,-0.5386953735351562,-8.93875189819336,-4.4961832061068705,-0.3282442748091603,-3.1603053435114505
3883970840339,7.869456403,3,-0.2154781494140625,-0.5446808776855468,-8.957905511474609,-4.450381679389313,-0.31297709923664124,-3.1755725190839694
3883980828256,7.87944432,3,-0.20829554443359374,-0.5566518859863281,-8.9255837890625,-4.465648854961832,-0.26717557251908397,-3.16793893129771
3883990821745,7.889437809,3,-0.19512743530273435,-0.5434837768554687,-8.939948999023438,-4.396946564885496,-0.32061068702290074,-3.16793893129771
3884000814454,7.899430518,3,-0.19033903198242186,-0.5626373901367188,-8.950722906494141,-4.3893129770992365,-0.22900763358778625,-3.1374045801526718
3884010814506,7.90943057,3,-0.23582886352539062,-0.5482721801757812,-8.926780889892578,-4.427480916030534,-0.2900763358778626,-3.099236641221374
3884020809506,7.91942557,3,-0.17357962036132812,-0.5195417602539062,-8.894459167480468,-4.435114503816794,-0.2900763358778626,-3.1603053435114505
3884030822891,7.929438955,3,-0.19393033447265623,-0.5482721801757812,-8.96269391479492,-4.465648854961832,-0.3053435114503817,-3.183206106870229
3884040823308,7.939439372,3,-0.2059013427734375,-0.5506663818359374,-8.942343200683593,-4.458015267175573,-0.32061068702290074,-3.1755725190839694
3884050828516,7.94944458,3,-0.19632453613281248,-0.5422866760253906,-8.957905511474609,-4.480916030534351,-0.3435114503816794,-3.145038167938931
3884060813152,7.959429216,3,-0.20829554443359374,-0.5279214660644531,-8.967482318115234,-4.465648854961832,-0.29770992366412213,-3.16793893129771
3884070817839,7.969433903,3,-0.18555062866210936,-0.5566518859863281,-8.960299713134765,-4.465648854961832,-0.3435114503816794,-3.1068702290076335
3884080766902,7.979382966,3,-0.15562310791015624,-0.5410895751953124,-8.974664923095702,-4.419847328244275,-0.3282442748091603,-3.114503816793893
3884090782318,7.989398382,3,-0.1975216369628906,-0.5578489868164063,-8.933963494873046,-4.450381679389313,-0.3053435114503817,-3.16793893129771
3884100811954,7.999428018,3,-0.20949264526367187,-0.5506663818359374,-8.97705912475586,-4.435114503816794,-0.25190839694656486,-3.114503816793893
3884110809766,8.00942583,3,-0.21188684692382811,-0.5710170959472656,-8.930372192382812,-4.458015267175573,-0.2824427480916031,-3.183206106870229
3884120812423,8.019428487,3,-0.21787235107421873,-0.5458779785156249,-8.926780889892578,-4.412213740458015,-0.3282442748091603,-3.1068702290076335
3884130801537,8.029417601,3,-0.21188684692382811,-0.5410895751953124,-8.950722906494141,-4.450381679389313,-0.35877862595419846,-3.1755725190839694
3884140805964,8.039422028,3,-0.21428104858398436,-0.5374982727050781,-8.926780889892578,-4.3893129770992365,-0.32061068702290074,-3.145038167938931
3884150812631,8.049428695,3,-0.19033903198242186,-0.565031591796875,-8.974664923095702,-4.412213740458015,-0.3435114503816794,-3.0839694656488548
3884160786016,8.05940208,3,-0.21068974609375,-0.5398924743652344,-8.932766394042968,-4.396946564885496,-0.2366412213740458,-3.0763358778625953
3884170846172,8.069462236,3,-0.1975216369628906,-0.5363011718749999,-8.93156929321289,-4.358778625954199,-0.2748091603053435,-3.122137404580153
3884180824402,8.079440466,3,-0.20231004028320312,-0.5542576843261718,-8.933963494873046,-4.435114503816794,-0.2900763358778626,-3.145038167938931
3884190809766,8.08942583,3,-0.2059013427734375,-0.5315127685546874,-8.932766394042968,-4.3893129770992365,-0.3435114503816794,-3.198473282442748
3884200826068,8.099442132,3,-0.1879448303222656,-0.5303156677246094,-8.943540301513671,-4.435114503816794,-0.29770992366412213,-3.122137404580153
3884210793464,8.109409528,3,-0.21068974609375,-0.5279214660644531,-8.851363537597656,-4.396946564885496,-0.32061068702290074,-3.1526717557251906
3884220798985,8.119415049,3,-0.22266075439453123,-0.5315127685546874,-8.90643017578125,-4.419847328244275,-0.22900763358778625,-3.122137404580153
3884230802318,8.129418382,3,-0.19393033447265623,-0.5410895751953124,-8.929175091552734,-4.396946564885496,-0.26717557251908397,-3.1297709923664123
3884240796902,8.139412966,3,-0.2166752502441406,-0.5698199951171875,-8.960299713134765,-4.396946564885496,-0.2824427480916031,-3.1526717557251906
3884250818464,8.149434528,3,-0.20470424194335937,-0.5434837768554687,-8.939948999023438,-4.419847328244275,-0.26717557251908397,-3.145038167938931
3884260796381,8.159412445,3,-0.18435352783203124,-0.5315127685546874,-8.911218579101561,-4.396946564885496,-0.22137404580152673,-3.1297709923664123
3884270821954,8.169438018,3,-0.20350714111328125,-0.55545478515625,-8.936357696533202,-4.435114503816794,-0.32061068702290074,-3.122137404580153
3884280811693,8.179427757,3,-0.19512743530273435,-0.5410895751953124,-8.935160595703124,-4.442748091603053,-0.2824427480916031,-3.1526717557251906
3884290862787,8.189478851,3,-0.20470424194335937,-0.5351040710449219,-8.889670764160156,-4.427480916030534,-0.32061068702290074,-3.198473282442748
3884300809089,8.199425153,3,-0.22505495605468748,-0.5374982727050781,-8.960299713134765,-4.366412213740458,-0.32061068702290074,-3.1526717557251906
3884310790756,8.20940682,3,-0.20949264526367187,-0.5374982727050781,-8.94473740234375,-4.412213740458015,-0.31297709923664124,-3.1755725190839694
3884320787475,8.219403539,3,-0.18914193115234373,-0.55545478515625,-8.957905511474609,-4.442748091603053,-0.31297709923664124,-3.1374045801526718
3884330759922,8.229375986,3,-0.20470424194335937,-0.5398924743652344,-8.945934503173827,-4.488549618320611,-0.3435114503816794,-3.1755725190839694
3884340805652,8.239421716,3,-0.22744915771484372,-0.5662286926269531,-8.929175091552734,-4.419847328244275,-0.29770992366412213,-3.1526717557251906
3884350768047,8.249384111,3,-0.19871873779296872,-0.5363011718749999,-8.90643017578125,-4.3816793893129775,-0.4198473282442748,-3.145038167938931
3884360813620,8.259429684,3,-0.201112939453125,-0.51714755859375,-8.933963494873046,-4.442748091603053,-0.26717557251908397,-3.183206106870229
3884370804610,8.269420674,3,-0.1927332336425781,-0.5303156677246094,-8.951920007324219,-4.480916030534351,-0.3053435114503817,-3.16793893129771
3884380800704,8.279416768,3,-0.20350714111328125,-0.51714755859375,-8.991424334716797,-4.458015267175573,-0.26717557251908397,-3.183206106870229
3884390824714,8.289440778,3,-0.21308394775390624,-0.5422866760253906,-8.954314208984375,-4.465648854961832,-0.3435114503816794,-3.1068702290076335
3884400803204,8.299419268,3,-0.19871873779296872,-0.5243301635742187,-8.975862023925782,-4.442748091603053,-0.2900763358778626,-3.1603053435114505
3884410820391,8.309436455,3,-0.23822306518554687,-0.5686228942871093,-8.955511309814453,-4.465648854961832,-0.33587786259541985,-3.099236641221374
3884420809245,8.319425309,3,-0.21428104858398436,-0.5566518859863281,-8.932766394042968,-4.427480916030534,-0.2748091603053435,-3.16793893129771
3884430803620,8.329419684,3,-0.2501940734863281,-0.5315127685546874,-8.923189587402343,-4.3893129770992365,-0.37404580152671757,-3.145038167938931
3884440801797,8.339417861,3,-0.19512743530273435,-0.5518634826660156,-8.910021478271483,-4.374045801526718,-0.3435114503816794,-3.1374045801526718
3884450809818,8.349425882,3,-0.2154781494140625,-0.5267243652343749,-8.929175091552734,-4.442748091603053,-0.3511450381679389,-3.1374045801526718
3884460794922,8.359410986,3,-0.20231004028320312,-0.5339069702148437,-8.916006982421875,-4.458015267175573,-0.2748091603053435,-3.16793893129771
3884470799610,8.369415674,3,-0.19632453613281248,-0.5374982727050781,-8.9255837890625,-4.442748091603053,-0.3511450381679389,-3.1374045801526718
