timestamp_ns,t_s,sensor_id,ax,ay,az,gx,gy,gz
6307449403373,0.173453125,3,-2.0374656127929685,6.028599780273437,-8.87410845336914,-25.091603053435115,57.49618320610687,9.091603053435115
6307455620404,0.179670156,3,-1.8171990600585937,5.990292553710937,-8.680178118896483,-16.33587786259542,90.9618320610687,4.7251908396946565
6307461680665,0.185730417,3,-1.811213555908203,5.608417388916015,-7.960720520019531,2.5801526717557253,107.34351145038168,7.038167938931298
6307467624102,0.191673854,3,-1.9093758239746093,5.377376928710937,-7.407659936523437,16.870229007633586,119.6030534351145,6.99236641221374
6307473602696,0.197652448,3,-1.8004396484374998,5.272032055664062,-7.020996368408203,32.152671755725194,131.0381679389313,1.8854961832061068
6307479533894,0.203583646,3,-1.599326708984375,5.194220501708984,-6.598419775390624,44.20610687022901,143.41221374045801,-4.534351145038168
6307485466498,0.20951625,3,-1.313219610595703,5.0769046203613275,-6.263231542968749,50.79389312977099,155.50381679389312,-11.854961832061068
6307491433633,0.215483385,3,-1.102529864501953,4.92247861328125,-5.27322915649414,53.87022900763359,172.10687022900763,-13.221374045801527
6307497319258,0.22136901,3,-0.5374982727050781,4.75009609375,-4.854243865966796,55.23664122137404,175.66412213740458,-15.49618320610687
6307503232956,0.227282708,3,-0.26815058593749996,4.721365673828124,-4.618415002441406,54.56488549618321,173.793893129771,-17.641221374045802
6307509160300,0.233210052,3,0.011971008300781249,4.535815045166015,-4.319139794921875,54.900763358778626,174.83969465648855,-18.259541984732824
6307515069206,0.239118958,3,0.25258827514648435,4.483142608642578,-3.967192150878906,56.67175572519084,176.70992366412213,-20.35114503816794
6307521016967,0.245066719,3,0.4704606262207031,4.46279189453125,-3.6631285400390623,55.49618320610687,161.1145038167939,-23.0381679389313
6307526961081,0.251010833,3,0.5051765502929687,4.333505004882812,-3.1172505615234374,49.67175572519084,145.3740458015267,-21.793893129770993
6307532871811,0.256921563,3,0.6979097839355468,4.259284753417968,-3.087323040771484,42.412213740458014,133.6793893129771,-26.083969465648856
6307538737748,0.2627875,3,0.8631096984863281,4.35385571899414,-2.9269115295410155,34.3587786259542,130.93129770992365,-33.06870229007634
6307544673165,0.268722917,3,0.9157821350097656,4.335899206542969,-2.7150246826171873,26.297709923664122,125.93893129770993,-37.18320610687023
6307550532696,0.274582448,3,0.9433154541015625,4.398148449707031,-2.4911668273925778,19.80916030534351,110.10687022900764,-44.85496183206107
6307556442175,0.280491927,3,0.928950244140625,4.46279189453125,-2.6803087585449217,11.076335877862595,70.62595419847328,-49.603053435114504
6307562312852,0.286362604,3,1.0989385620117187,4.7381250854492185,-2.7808652282714843,6.343511450381679,59.98473282442748,-55.87022900763359
6307568216654,0.292266406,3,1.1959037292480468,4.959588739013672,-2.808398547363281,0.8244274809160306,49.656488549618324,-62.51908396946565
6307574127800,0.298177552,3,1.22583125,5.216965417480468,-2.922123126220703,-3.717557251908397,37.458015267175576,-67.48091603053435
6307580083321,0.304133073,3,1.1743559143066407,5.432443566894531,-2.9496564453125,-6.816793893129771,23.64885496183206,-69.10687022900764
6307586031863,0.310081615,3,1.380257257080078,5.66946953125,-3.2249896362304686,-11.259541984732824,-7.099236641221374,-76.22137404580153
6307591979675,0.316029427,3,1.5286977600097655,6.214150408935547,-3.4931402221679684,-15.778625954198473,-15.580152671755725,-71.17557251908397
6307597974311,0.322024063,3,1.388636962890625,6.393715533447265,-3.67749375,-20.709923664122137,-33.01526717557252,-62.64885496183206
6307603923061,0.327972813,3,1.3563152404785155,6.630741497802734,-4.076128326416016,-28.236641221374047,-60.87022900763359,-58.29007633587786
6307609890613,0.333940365,3,1.2509703674316406,6.902483386230468,-4.542997650146484,-41.091603053435115,-82.97709923664122,-52.091603053435115
6307615840873,0.339890625,3,1.0857704528808594,6.975506536865234,-4.881777185058594,-57.43511450381679,-101.74045801526718,-33.38167938931298
6307621771758,0.34582151,3,0.8451531860351562,7.085639813232421,-5.396530541992187,-78.6030534351145,-110.36641221374046,-24.87786259541985
6307627685404,0.351735156,3,0.2346317626953125,7.076063006591797,-5.633556506347656,-78.07633587786259,-119.52671755725191,-18.34351145038168
6307633627852,0.357677604,3,0.0047884033203125,7.113173132324218,-5.79037671508789,-71.18320610687023,-126.3969465648855,-13.229007633587786
6307639577956,0.363627708,3,-0.28969840087890625,7.196970190429687,-6.124367846679687,-62.87022900763359,-131.4732824427481,-9.282442748091603
6307645474779,0.369524531,3,-0.5351040710449219,7.183802081298828,-6.415263348388671,-57.57251908396947,-135.45038167938932,-1.7557251908396947
6307651422123,0.375471875,3,-0.7266402038574218,7.2915411560058585,-6.938396411132812,-60.83206106870229,-140.48091603053436,1.9236641221374047
6307657347644,0.381397396,3,-0.9074024291992187,7.317877374267578,-7.183802081298828,-66.12213740458016,-138.78625954198472,5.763358778625954
6307663281863,0.387331615,3,-0.967257470703125,7.32266577758789,-7.413645440673828,-69.61832061068702,-135.87022900763358,10.335877862595419
6307669198165,0.393247917,3,-1.006761798095703,7.195773089599609,-7.596801867675781,-69.00763358778626,-132.65648854961833,15.526717557251908
6307675069258,0.39911901,3,-0.1149216796875,7.080851409912109,-8.007407452392577,-63.13740458015267,-128.45801526717557,20.076335877862597
6307681001550,0.405051302,3,-0.43454760131835934,7.545326531982422,-7.824251025390624,-48.229007633587784,-102.74045801526718,39.76335877862596
6307686919363,0.410969115,3,-1.3060370056152344,6.903680487060546,-7.697358337402343,-41.70992366412214,-116.20610687022901,51.29770992366412
6307692849675,0.416899427,3,-1.4209586853027343,6.745663177490234,-7.742848168945312,-30.801526717557252,-112.22900763358778,50.58015267175573
6307698797383,0.422847135,3,-1.8519149841308593,6.639121203613281,-7.5525091369628905,-21.786259541984734,-89.83206106870229,50.3587786259542
6307704718685,0.428768437,3,-1.7034744812011717,6.348225701904297,-7.491456994628906,-17.99236641221374,-82.43511450381679,54.030534351145036
6307710666446,0.434716198,3,-1.5837643981933593,6.197390997314453,-7.665036614990234,-15.34351145038168,-74.83206106870229,52.0763358778626
6307716599883,0.440649635,3,-0.8631096984863281,5.910086798095703,-7.296329559326171,-13.526717557251908,-61.954198473282446,47.42748091603053
6307722514779,0.446564531,3,-1.6891092712402342,5.516240625,-7.082048510742187,-8.969465648854962,-56.656488549618324,57.38931297709924
6307728451029,0.452500781,3,-1.7561469177246092,5.425260961914062,-7.442375860595702,-5.3893129770992365,-72.3587786259542,51.36641221374046
6307734344050,0.458393802,3,-1.6711527587890624,5.3019595764160155,-7.499836700439452,-3.6793893129770994,-66.7175572519084,44.35114503816794
6307740262123,0.464311875,3,-1.6232687255859375,5.2085857116699215,-7.337030987548828,-6.847328244274809,-51.66412213740458,35.70992366412214
6307746210092,0.470259844,3,-1.4808137268066406,5.220556719970703,-7.258022332763671,-18.00763358778626,-53.0763358778626,23.572519083969464
6307752121758,0.47617151,3,-1.4053963745117186,5.136759661865234,-7.4579381713867186,-22.045801526717558,-53.412213740458014,22.16793893129771
6307758058321,0.482108073,3,-1.4401122985839843,5.143942266845703,-7.3657614074707025,-20.946564885496183,-47.7557251908397,15.603053435114504
6307764029623,0.488079375,3,-1.6172832214355468,5.1882349975585935,-7.3669585083007805,-16.770992366412212,-44.61068702290076,7.3893129770992365
6307769959310,0.494009062,3,-1.590947003173828,5.378574029541015,-7.395688928222656,-12.961832061068701,-45.87022900763359,0.0
6307775933581,0.499983333,3,-1.600523809814453,5.500678314208984,-7.5525091369628905,-16.03053435114504,-43.732824427480914,-10.763358778625955
6307781912644,0.505962396,3,-1.820790362548828,5.699397052001952,-7.595604766845702,-19.114503816793892,-37.93893129770992,-13.694656488549619
6307788082904,0.512132656,3,-1.924938134765625,5.796362219238281,-7.530961322021484,-19.083969465648856,-33.43511450381679,-17.33587786259542
6307794149258,0.51819901,3,-1.879448303222656,5.911283898925781,-7.625532287597656,-15.16030534351145,-31.091603053435115,-21.984732824427482
6307800080300,0.524130052,3,-1.6723498596191406,6.076483813476562,-7.674613421630859,-9.86259541984733,-27.374045801526716,-26.931297709923665
6307806006342,0.530056094,3,-1.6675614562988281,6.226121417236328,-7.685387329101562,-2.854961832061069,-13.51908396946565,-28.450381679389313
6307811973477,0.536023229,3,-1.429338391113281,6.357802508544921,-7.542932330322265,1.1221374045801527,-6.687022900763359,-30.442748091603054
6307817933477,0.541983229,3,-1.7262193969726563,6.411672045898437,-7.368155609130859,4.580152671755725,-1.0381679389312977,-28.14503816793893
6307823824206,0.547873958,3,-1.9117700256347656,6.360196710205078,-7.310694769287109,9.412213740458014,3.4656488549618323,-25.282442748091604
6307829744467,0.553794219,3,-1.898601916503906,6.381744525146484,-7.040149981689453,16.793893129770993,13.648854961832061,-27.6793893129771
6307835607279,0.559657031,3,-1.7645266235351562,6.34583150024414,-6.871358764648437,24.435114503816795,26.114503816793892,-29.213740458015266
6307841491706,0.565541458,3,-1.6328455322265625,6.285976458740234,-6.339845996093749,33.396946564885496,37.62595419847328,-26.435114503816795
6307847371290,0.571421042,3,-1.438915197753906,6.180631585693359,-6.005854864501953,36.44274809160305,43.083969465648856,-24.786259541984734
6307853288790,0.577338542,3,-1.4688427185058592,6.07768091430664,-5.722141967773437,38.396946564885496,46.42748091603053,-23.114503816793892
6307859181810,0.583231562,3,-1.2928688964843749,5.9950809570312495,-5.5078609191894525,40.83206106870229,49.221374045801525,-23.84732824427481
6307865047227,0.589096979,3,-1.064222637939453,5.917269403076172,-5.17746109008789,42.88549618320611,51.847328244274806,-24.85496183206107
6307870911185,0.594960937,3,-0.8056488586425781,5.742492681884765,-5.0577510070800775,42.74809160305343,43.48091603053435,-18.80916030534351
6307876819467,0.600869219,3,-0.7996633544921875,5.434837768554687,-4.594472985839843,44.94656488549618,41.6412213740458,-17.870229007633586
6307882726133,0.606775885,3,-0.5339069702148437,5.3570262145996095,-4.388571643066406,45.6412213740458,40.0763358778626,-16.87786259541985
6307888565352,0.612615104,3,-0.5327098693847656,5.238513232421875,-4.226963031005859,44.41984732824427,34.05343511450382,-17.106870229007633
6307894487123,0.618536875,3,-0.5674257934570313,5.154716174316406,-4.100070343017578,41.57251908396947,24.12213740458015,-15.84732824427481
6307900270508,0.62432026,3,-0.5793968017578125,5.070919116210937,-3.9839515624999997,36.16793893129771,10.557251908396946,-17.236641221374047
6307906200144,0.630249896,3,-0.5015852478027344,5.040991595458984,-3.995922570800781,18.412213740458014,-13.083969465648854,-18.755725190839694
6307912079050,0.636128802,3,-0.21188684692382811,4.934449621582031,-4.060566015625,9.412213740458014,-23.328244274809162,-21.137404580152673
6307917974154,0.642023906,3,0.3555389465332031,5.0206408813476555,-4.402936853027343,-0.015267175572519083,-38.70229007633588,-26.80916030534351
6307923860196,0.647909948,3,0.013168109130859374,5.306747979736328,-4.487931011962891,-12.65648854961832,-57.68702290076336,-32.82442748091603
6307929803581,0.653853333,3,-0.09696516723632811,5.1882349975585935,-4.53940634765625,-23.984732824427482,-66.7175572519084,-16.31297709923664
6307935724883,0.659774635,3,-0.8032546569824218,5.3390697021484375,-4.631583111572265,-31.282442748091604,-100.72519083969466,-17.916030534351144
6307941648477,0.665698229,3,-0.928950244140625,5.580884069824219,-5.0385973937988275,-38.045801526717554,-111.86259541984732,-21.51145038167939
6307947486654,0.671536406,3,-1.5598223815917969,5.6946086486816405,-5.190629199218749,-44.89312977099237,-121.31297709923665,-20.50381679389313
6307953319623,0.677369375,3,-1.8136077575683593,5.987898352050781,-5.4887073059082025,-53.51908396946565,-133.26717557251908,-22.908396946564885
6307959190612,0.683240364,3,-2.105700360107422,6.247669232177734,-5.888538983154296,-66.45801526717557,-149.3206106870229,-24.984732824427482
6307965119883,0.689169635,3,-2.3247698120117186,6.362590911865234,-6.209362005615234,-81.73282442748092,-162.89312977099237,-20.129770992366414
6307971023060,0.695072812,3,-2.70065947265625,6.5385647338867185,-6.460753179931641,-98.07633587786259,-169.87786259541986,-17.65648854961832
6307976978060,0.701027812,3,-3.268085266113281,6.758831286621094,-6.957550024414062,-96.1526717557252,-169.0916030534351,-16.893129770992367
6307982855196,0.706904948,3,-3.5877111877441403,6.904877587890625,-7.134720947265625,-90.73282442748092,-170.13740458015266,-18.19083969465649
6307988818008,0.71286776,3,-3.854664672851562,7.125144140624999,-7.364564306640625,-82.55725190839695,-170.54198473282443,-18.595419847328245
6307994702904,0.718752656,3,-4.091690637207031,7.206546997070312,-7.617152581787109,-75.54961832061069,-166.9083969465649,-18.19083969465649
6308000568165,0.724617917,3,-4.3059716857910155,7.3274541809082026,-7.751227874755859,-71.76335877862596,-163.6030534351145,-17.03053435114504
6308006435092,0.730484844,3,-4.509478826904297,7.414842541503906,-8.250418920898436,-68.63358778625954,-151.54198473282443,-16.389312977099237
6308012355560,0.736405312,3,-4.6639048339843745,7.605181573486328,-8.358157995605469,-64.8854961832061,-142.206106870229,-16.076335877862597
6308018179831,0.742229583,3,-4.582501977539062,7.682993127441406,-8.637082489013672,-58.20610687022901,-129.49618320610688,-16.908396946564885
6308024100873,0.748150625,3,-4.521449835205078,7.756016278076172,-8.72087954711914,-49.70992366412214,-116.22137404580153,-15.557251908396946
6308030011967,0.754061719,3,-4.550180255126953,7.7763669921875,-8.844180932617187,-40.62595419847328,-104.17557251908397,-9.221374045801527
6308035962123,0.760011875,3,-4.422090466308593,7.736862664794922,-8.945934503173827,-29.9618320610687,-78.23664122137404,-0.2824427480916031
6308041875352,0.765925104,3,-4.566939666748047,7.728482958984374,-9.024943157958983,-17.213740458015266,-65.91603053435115,6.969465648854962
6308047813737,0.771863489,3,-4.563348364257812,7.6279264892578125,-8.965088116455078,-14.351145038167939,-51.83969465648855,13.16793893129771
6308053758685,0.777808437,3,-4.614823699951172,7.613561279296874,-9.028534460449219,-13.320610687022901,-37.16793893129771,17.38167938931298
6308059655769,0.783705521,3,-4.617217901611328,7.463923675537109,-8.878896856689453,-11.885496183206106,-20.595419847328245,23.389312977099237
6308065612279,0.789662031,3,-4.632780212402343,7.248445526123047,-8.671798413085938,-7.656488549618321,-5.412213740458015,31.48854961832061
6308071474415,0.795524167,3,-4.574122271728515,6.949170318603516,-8.262389929199218,10.320610687022901,21.450381679389313,32.908396946564885
6308077342383,0.801392135,3,-4.459200592041015,6.525396624755859,-8.033743670654296,20.251908396946565,33.56488549618321,32.083969465648856
6308083184362,0.807234114,3,-4.393360046386719,6.312312677001953,-7.752424975585937,28.022900763358777,44.57251908396947,29.580152671755727
6308089137852,0.813187604,3,-4.295197778320312,6.205770703124999,-7.5908163635253905,32.267175572519086,53.38167938931298,26.50381679389313
6308095053998,0.81910375,3,-4.0988732421875,6.027402679443359,-7.39928023071289,32.48091603053435,60.534351145038165,21.229007633587788
6308100991342,0.825041094,3,-3.8379052612304685,5.843049151611328,-7.269993341064453,29.641221374045802,70.61068702290076,11.854961832061068
6308106888477,0.830938229,3,-3.659537237548828,5.652710119628906,-7.023390570068359,23.564885496183205,77.54961832061069,8.106870229007633
6308112750352,0.836800104,3,-3.3387142150878906,5.534197137451171,-6.781576202392578,25.229007633587788,84.26717557251908,4.641221374045801
6308118651706,0.842701458,3,-3.2716765686035156,5.513846423339843,-6.612784985351562,30.198473282442748,87.85496183206106,-0.31297709923664124
6308124685039,0.848734791,3,-3.2537200561523436,5.480327600097656,-6.358999609374999,36.57251908396947,89.94656488549619,-6.267175572519084
6308130721029,0.854770781,3,-3.077746234130859,5.524620330810547,-6.299144567871093,41.16793893129771,96.49618320610686,-18.221374045801525
6308136682175,0.860731927,3,-3.0071172851562498,5.598840582275391,-5.895721588134765,40.213740458015266,98.8854961832061,-21.740458015267176
6308142595769,0.866645521,3,-2.935291235351562,5.692214447021484,-5.711368060302734,35.81679389312977,98.19847328244275,-24.603053435114504
6308148526289,0.872576041,3,-2.8730419921875,5.7329158752441405,-5.5832782714843745,31.50381679389313,96.6793893129771,-27.419847328244273
6308154375092,0.878424844,3,-2.8227637573242186,5.829881042480468,-5.436034869384765,27.732824427480917,95.05343511450381,-31.572519083969464
6308160225039,0.884274791,3,-2.636016027832031,5.965153436279296,-5.310339282226562,23.702290076335878,90.74809160305344,-35.06870229007634
6308166094675,0.890144427,3,-2.402581365966797,6.1459156616210935,-5.348646508789062,8.022900763358779,73.83969465648855,-38.11450381679389
6308171987123,0.896036875,3,-1.9943699829101562,6.3973068359375,-5.455188482666015,-2.3053435114503817,69.68702290076335,-33.786259541984734
6308177909154,0.901958906,3,-2.0733786376953125,6.436811163330078,-5.465962390136719,-9.641221374045802,67.43511450381679,-28.633587786259543
6308183825092,0.907874844,3,-2.081758343505859,6.4475850708007805,-5.334281298828125,-11.244274809160306,64.22137404580153,-24.251908396946565
6308189762592,0.913812344,3,-2.155978594970703,6.5577183471679685,-5.248090039062499,-7.816793893129771,59.770992366412216,-21.52671755725191
6308195687956,0.919737708,3,-2.1631611999511717,6.555324145507812,-5.249287139892578,-3.183206106870229,56.29007633587786,-18.236641221374047
6308201612852,0.925662604,3,-2.129642376708984,6.6151791870117185,-5.288791467285156,-3.7251908396946565,51.465648854961835,-15.145038167938932
6308207487279,0.931537031,3,-2.000355487060547,6.56968935546875,-5.2624552490234375,-7.00763358778626,52.38167938931298,-11.106870229007633
6308213371029,0.937420781,3,-1.9823989746093749,6.523002423095702,-5.014655377197266,-8.442748091603054,54.38931297709924,-7.229007633587786
6308219266602,0.943316354,3,-1.935712042236328,6.451176373291015,-4.973953948974609,-6.2748091603053435,55.36641221374046,-3.3587786259541983
6308225159727,0.949209479,3,-2.0374656127929685,6.34583150024414,-4.732139581298828,-1.7938931297709924,53.2442748091603,0.19083969465648856
6308231070039,0.955119791,3,-1.9800047729492187,6.26921704711914,-4.759672900390624,6.458015267175573,48.717557251908396,3.351145038167939
6308236982904,0.961032656,3,-1.9405004455566406,6.133944653320312,-4.604049792480469,6.679389312977099,50.7557251908397,4.580152671755725
6308242829779,0.966879531,3,-1.5634136840820312,5.979518646240234,-4.474762902832031,5.297709923664122,52.74809160305343,6.694656488549619
6308248696914,0.972746666,3,-1.4867992309570313,5.807136126708984,-4.291606475830078,4.4961832061068705,52.458015267175576,9.251908396946565
6308254572331,0.978622083,3,-1.4628572143554686,5.665878228759765,-4.183867401123047,6.2748091603053435,50.229007633587784,11.694656488549619
6308260475873,0.984525625,3,-1.5251064575195312,5.480327600097656,-3.995922570800781,10.946564885496183,48.00763358778626,11.282442748091603
6308266364258,0.99041401,3,-1.5837643981933593,5.396530541992187,-3.9049429077148434,17.87786259541985,38.18320610687023,7.7251908396946565
6308272220352,0.996270104,3,-1.5514426757812498,5.260061047363281,-3.835511059570312,15.145038167938932,33.343511450381676,5.236641221374046
6308278076342,1.002126094,3,-1.5670049865722655,5.161898779296875,-3.778050219726562,10.083969465648854,30.18320610687023,3.648854961832061
6308283980092,1.008029844,3,-1.5059528442382812,5.130774157714844,-3.7481226989746093,5.557251908396947,25.610687022900763,-0.9923664122137404
6308289929258,1.01397901,3,-1.303642803955078,5.064933612060546,-3.6846763549804686,2.1755725190839694,18.96946564885496,-5.648854961832061
6308295848842,1.019898594,3,-1.0941501586914062,5.161898779296875,-3.8690298828125,-1.4427480916030535,-0.9923664122137404,-11.67175572519084
6308301795612,1.025845364,3,-0.9445125549316405,5.288791467285156,-4.151545678710937,-11.351145038167939,-10.236641221374045,-13.335877862595419
6308307675300,1.031725052,3,-0.8762778076171874,5.267243652343749,-4.1754876953124995,-14.045801526717558,-12.16793893129771,-11.86259541984733
6308313596394,1.037646146,3,-1.120486376953125,5.220556719970703,-4.036623999023437,-11.297709923664122,-15.541984732824428,-11.732824427480915
6308319473008,1.04352276,3,-1.5191209533691405,5.21576831665039,-4.046200805664062,-4.9541984732824424,-26.290076335877863,-11.442748091603054
6308325328321,1.049378073,3,-1.4305354919433593,5.294776971435547,-4.311957189941406,1.4122137404580153,-36.82442748091603,-16.458015267175572
6308331191810,1.055241562,3,-1.2868833923339842,5.457582684326171,-4.389768743896484,-0.8702290076335878,-35.87022900763359,-22.84732824427481
6308337084206,1.061133958,3,-1.5538368774414062,5.598840582275391,-4.516661431884765,-8.099236641221374,-47.79389312977099,-23.061068702290076
6308342958946,1.067008698,3,-1.7956512451171873,5.646724615478515,-4.613626599121093,-14.84732824427481,-57.99236641221374,-21.938931297709924
6308348846914,1.072896666,3,-1.878251202392578,5.6191912963867185,-4.7393221862792965,-17.83206106870229,-60.083969465648856,-21.900763358778626
6308354738894,1.078788646,3,-2.1260510742187497,5.758054992675781,-4.799177227783203,-17.81679389312977,-63.229007633587784,-25.87786259541985
6308360673946,1.084723698,3,-2.224213342285156,5.8610056640625,-5.008669873046875,-15.442748091603054,-67.45038167938931,-30.18320610687023
6308366551498,1.09060125,3,-2.1823148132324217,5.98191284790039,-5.383362432861328,-14.396946564885496,-74.3969465648855,-30.099236641221374
6308372423164,1.096472916,3,-2.3032219970703123,6.15429536743164,-5.540182641601562,-16.61832061068702,-75.26717557251908,-28.587786259541986
6308378288581,1.102338333,3,-2.1595698974609374,6.233304022216797,-5.697002850341796,-19.061068702290076,-77.3587786259542,-29.099236641221374
6308384216810,1.108266562,3,-2.433705987548828,6.372167718505859,-5.8083332275390624,-22.732824427480917,-87.00763358778626,-32.80916030534351
6308390069779,1.114119531,3,-2.7940333374023436,6.476315490722656,-5.84783755493164,-26.954198473282442,-93.02290076335878,-23.641221374045802
6308395965248,1.120015,3,-3.5134909362792968,6.554127044677734,-5.843049151611328,-30.244274809160306,-110.58015267175573,-19.793893129770993
6308401877800,1.125927552,3,-3.9408559326171875,6.815095025634765,-6.297947467041015,-42.48091603053435,-117.8473282442748,-21.793893129770993
6308407777123,1.131826875,3,-4.089296435546875,7.019799267578125,-6.555324145507812,-49.343511450381676,-117.10687022900764,-24.893129770992367
6308413604258,1.13765401,3,-3.995922570800781,7.268796240234375,-6.831854437255859,-57.51145038167939,-116.77099236641222,-30.068702290076335
6308419514310,1.143564062,3,-3.8798037902832028,7.465120776367187,-7.066486199951171,-66.30534351145039,-122.22900763358778,-29.82442748091603
6308425375404,1.149425156,3,-3.8989574035644528,7.635109094238281,-7.416039642333984,-73.16030534351145,-128.66412213740458,-23.251908396946565
6308431247227,1.155296979,3,-4.297591979980469,7.682993127441406,-7.5345526245117185,-69.87022900763358,-128.5267175572519,-11.022900763358779
6308437145300,1.161195052,3,-4.7560815979003905,7.881711865234375,-7.885303167724609,-60.0,-122.06870229007633,-10.297709923664122
6308443068529,1.167118281,3,-4.802768530273437,7.9858596374511714,-8.072050897216796,-49.85496183206107,-115.6412213740458,-8.938931297709924
6308448970039,1.173019791,3,-4.7943888244628905,8.08881030883789,-8.237250811767577,-42.54961832061068,-109.86259541984732,-5.900763358778626
6308454831341,1.178881093,3,-4.747701892089843,8.10197841796875,-8.427589843749999,-39.20610687022901,-101.81679389312977,-0.12213740458015267
6308460884779,1.184934531,3,-4.7381250854492185,8.067262493896484,-8.52934341430664,-37.6793893129771,-79.27480916030534,12.633587786259541
6308466881706,1.190931458,3,-4.902127899169922,8.013392956542969,-8.705317236328124,-31.412213740458014,-70.89312977099236,15.969465648854962
6308472842904,1.196892656,3,-4.589684582519531,8.02536396484375,-8.859743243408202,-26.16030534351145,-60.19083969465649,21.14503816793893
6308478750612,1.202800364,3,-4.492719415283203,7.888894470214844,-8.826224420166016,-20.96946564885496,-45.97709923664122,28.786259541984734
6308484682852,1.208732604,3,-4.431667272949219,7.711723547363281,-8.804676605224609,-14.458015267175572,-30.137404580152673,37.229007633587784
6308490540716,1.214590468,3,-4.463988995361328,7.536946826171874,-8.64426509399414,-6.5038167938931295,-16.641221374045802,50.48854961832061
6308496417383,1.220467135,3,-4.522646936035156,7.234080316162109,-8.374917407226562,10.877862595419847,7.885496183206107,55.404580152671755
6308502260716,1.226310468,3,-4.797980126953124,6.688202337646484,-7.975085729980468,17.908396946564885,17.259541984732824,57.25954198473283
6308508128008,1.23217776,3,-4.876988781738281,6.448782171630859,-7.8529814453124995,21.412213740458014,24.16793893129771,55.0
6308514031706,1.238081458,3,-4.721365673828124,6.274005450439453,-7.693767034912109,19.732824427480917,29.30534351145038,50.51908396946565
6308519962904,1.244012656,3,-4.475960003662109,6.153098266601562,-7.660248211669922,12.969465648854962,33.69465648854962,44.58015267175573
6308525900039,1.249949791,3,-4.1192239562988275,6.00106646118164,-7.712920648193359,3.7938931297709924,49.48854961832061,37.603053435114504
6308531816810,1.255866562,3,-3.9240965209960934,5.680243438720702,-7.297526660156249,-1.9923664122137406,59.33587786259542,35.62595419847328
6308537702539,1.261752291,3,-3.7624879089355465,5.4887073059082025,-7.171831072998047,7.977099236641221,67.41221374045801,31.31297709923664
6308543608216,1.267657968,3,-3.8091748413085935,5.31153638305664,-6.937199310302734,22.61832061068702,74.32824427480917,24.229007633587788
6308549471081,1.273520833,3,-3.821145849609375,5.279214660644531,-6.645106707763672,35.56488549618321,81.2442748091603,16.03053435114504
6308555329362,1.279379114,3,-3.736151690673828,5.2624552490234375,-6.455964776611328,42.961832061068705,89.61832061068702,6.106870229007634
6308561175300,1.285225052,3,-3.594893792724609,5.27322915649414,-6.235698223876953,41.458015267175576,110.02290076335878,-11.404580152671755
6308567059518,1.29110927,3,-3.470395306396484,5.361814617919921,-5.704185455322265,38.091603053435115,115.73282442748092,-17.290076335877863
6308572936758,1.29698651,3,-3.3075895935058592,5.370194323730469,-5.442020373535156,37.3587786259542,117.80152671755725,-23.27480916030534
6308579010300,1.303060052,3,-3.0131027893066404,5.498284112548828,-5.238513232421875,40.33587786259542,122.16793893129771,-30.83969465648855
6308585001862,1.309051614,3,-2.7281927917480466,5.592855078125,-5.029020587158203,44.93893129770992,129.5267175572519,-36.725190839694655
6308590888008,1.31493776,3,-2.5641899780273434,5.689820245361328,-4.7022120605468745,49.16793893129771,131.15267175572518,-39.23664122137404
6308596771602,1.320821354,3,-2.4193407775878906,5.820304235839844,-4.273649963378906,53.7557251908397,126.37404580152672,-39.70229007633588
6308602644362,1.326694114,3,-2.3810335510253906,5.846640454101562,-4.083310931396484,52.63358778625954,122.79389312977099,-39.47328244274809
6308608556341,1.332606093,3,-2.1607669982910154,5.944802722167968,-3.8295255554199215,49.35114503816794,120.9618320610687,-41.41984732824427
6308614444831,1.338494583,3,-2.0446482177734375,6.063315704345703,-3.7014357666015623,44.13740458015267,118.54961832061069,-42.38167938931298
6308620376914,1.344426666,3,-1.859097589111328,6.035782385253906,-3.5338416503906247,37.68702290076336,112.4885496183206,-39.82442748091603
6308626281706,1.350331458,3,-1.695094775390625,6.0525417968749995,-3.347093920898437,28.946564885496183,94.18320610687023,-35.412213740458014
6308632219414,1.356269166,3,-1.6579846496582031,5.971138940429687,-3.324349005126953,25.83206106870229,80.50381679389314,-29.396946564885496
6308638130664,1.362180416,3,-1.4700398193359374,6.069301208496094,-3.323151904296875,26.442748091603054,71.64885496183206,-33.908396946564885
6308644057071,1.368106823,3,-1.2880804931640624,6.1638721740722655,-3.318363500976562,25.213740458015266,70.52671755725191,-33.66412213740458
6308649993789,1.374043541,3,-1.2485761657714842,6.1650692749023435,-3.1974563171386716,20.389312977099237,62.43511450381679,-29.770992366412212
6308655897487,1.379947239,3,-1.2976572998046874,6.2021794006347655,-3.2046389221191403,13.84732824427481,36.587786259541986,-20.099236641221374
6308661841393,1.385891145,3,-1.2677297790527342,6.121973645019531,-3.201047619628906,3.9236641221374047,29.412213740458014,-16.297709923664122
6308667784779,1.391834531,3,-1.4221557861328125,6.235698223876953,-3.27526787109375,1.3740458015267176,19.977099236641223,-14.557251908396946
6308673749883,1.397799635,3,-1.438915197753906,6.264428643798828,-3.403357659912109,-2.015267175572519,6.366412213740458,-13.473282442748092
6308679659675,1.403709427,3,-1.4137760803222656,6.337451794433593,-3.5589807678222654,-7.519083969465649,-6.00763358778626,-11.511450381679388
6308685532696,1.409582448,3,-1.4867992309570313,6.441599566650391,-3.6391865234374996,-14.992366412213741,-15.961832061068701,-8.709923664122137
6308691401654,1.415451406,3,-1.6148890197753905,6.500257507324219,-3.678690850830078,-28.572519083969464,-37.99236641221374,-2.687022900763359
6308697276081,1.421325833,3,-1.7872715393066405,6.548141540527343,-4.173093493652344,-32.63358778625954,-48.16030534351145,0.03816793893129771
6308703181446,1.427231198,3,-1.9416975463867185,6.574477758789062,-4.475960003662109,-34.282442748091604,-54.51145038167939,3.16793893129771
6308709152435,1.433202187,3,-2.0661960327148434,6.590040069580078,-4.483142608642578,-32.778625954198475,-57.916030534351144,5.442748091603053
6308715056966,1.439106718,3,-2.2014684265136717,6.587645867919922,-4.689043951416015,-29.72519083969466,-63.25190839694657,7.114503816793893
6308720917175,1.444966927,3,-2.3127988037109373,6.713341455078124,-4.972756848144531,-28.374045801526716,-79.65648854961832,10.16793893129771
6308726824987,1.450874739,3,-2.440888592529297,6.785167504882812,-5.461173986816406,-35.74045801526717,-83.76335877862596,12.885496183206106
6308732692852,1.456742604,3,-2.5617957763671875,6.775590698242187,-5.692214447021484,-42.17557251908397,-86.17557251908397,15.030534351145038
6308738599571,1.462649323,3,-2.6396073303222654,6.842628344726562,-5.9974751586914055,-47.52671755725191,-88.27480916030534,17.893129770992367
6308744468789,1.468518541,3,-2.7054478759765623,6.836642840576172,-6.104017132568359,-49.87022900763359,-90.74045801526718,20.137404580152673
6308750334675,1.474384427,3,-2.7557261108398436,6.854599353027344,-6.453570574951171,-48.93893129770992,-92.34351145038168,23.16030534351145
6308756228268,1.48027802,3,-2.7581203125,6.812700823974609,-6.654683514404296,-39.38167938931298,-88.59541984732824,28.908396946564885
6308762062539,1.486112291,3,-2.759317413330078,6.762422589111328,-6.944381915283203,-33.29007633587786,-83.6030534351145,31.564885496183205
6308767956341,1.492006093,3,-3.0418332092285154,6.648698010253906,-7.0473325866699215,-27.595419847328245,-78.19083969465649,33.48854961832061
6308773910352,1.497960104,3,-3.0729578308105467,6.572083557128906,-7.076063006591797,-23.35114503816794,-73.05343511450381,34.55725190839695
6308779781393,1.503831145,3,-3.1651345947265623,6.457161877441406,-7.212532501220703,-20.83969465648855,-67.92366412213741,35.43511450381679
6308785698581,1.509748333,3,-3.132812872314453,6.424840155029297,-7.286752752685547,-19.801526717557252,-62.38931297709924,36.343511450381676
6308791696237,1.515745989,3,-3.0992940490722654,6.26921704711914,-7.340622290039062,-15.580152671755725,-44.778625954198475,36.86259541984733
6308797704362,1.521754114,3,-2.952050646972656,5.973533142089844,-7.334636785888671,-9.870229007633588,-36.19847328244275,36.74809160305343
6308803730925,1.527780677,3,-3.0035259826660154,5.804741925048828,-7.170633972167968,-2.1526717557251906,-30.022900763358777,36.50381679389313
6308809663268,1.53371302,3,-2.8850130004882812,5.653907220458984,-7.173028173828125,5.427480916030534,-23.85496183206107,35.29770992366412
6308815603060,1.539652812,3,-2.8371289672851563,5.495889910888671,-7.138312249755859,10.526717557251908,-16.786259541984734,30.16793893129771
6308821483268,1.54553302,3,-2.798821740722656,5.347449407958984,-6.924031201171875,14.13740458015267,-2.954198473282443,26.47328244274809
6308827329414,1.551379166,3,-2.789244934082031,5.032611889648437,-6.710947253417968,14.702290076335878,0.5801526717557252,21.85496183206107
6308833299414,1.557349166,3,-2.730586993408203,4.911704705810546,-6.658274816894531,14.98473282442748,3.5114503816793894,16.27480916030534
6308839205768,1.56325552,3,-2.6384102294921874,4.854243865966796,-6.488286499023437,14.603053435114504,7.656488549618321,9.442748091603054
6308845084466,1.569134218,3,-2.729389892578125,4.783614916992187,-6.386532928466797,14.267175572519085,11.473282442748092,3.282442748091603
6308850966289,1.575016041,3,-2.874239093017578,4.8123453369140625,-6.203376501464843,14.564885496183207,13.725190839694656,-9.618320610687023
6308856837695,1.580887447,3,-2.7832594299316407,4.764461303710937,-6.132747552490234,17.389312977099237,14.748091603053435,-20.66412213740458
6308862682331,1.586732083,3,-2.829946362304687,5.055356805419922,-6.0333881835937495,15.274809160305344,14.076335877862595,-26.290076335877863
6308868555143,1.592604895,3,-2.9496564453125,5.218162518310547,-5.992686755371094,10.65648854961832,8.229007633587786,-32.17557251908397
6308874480352,1.598530104,3,-2.9975404785156248,5.436034869384765,-6.113593939208984,5.076335877862595,4.267175572519084,-38.80152671755725
6308880370508,1.60442026,3,-3.0897172424316404,5.653907220458984,-6.0333881835937495,-1.2366412213740459,3.1374045801526718,-45.465648854961835
6308886266393,1.610316145,3,-3.106476654052734,5.929240411376953,-6.226121417236328,-11.49618320610687,-4.122137404580153,-54.06870229007634
6308892214102,1.616263854,3,-3.2728736694335936,6.518214019775391,-6.353014105224609,-14.48091603053435,-7.687022900763359,-56.16030534351145
6308898101810,1.622151562,3,-3.3961750549316405,6.851008050537109,-6.391321331787109,-15.732824427480915,-8.816793893129772,-57.89312977099237
6308903957175,1.628006927,3,-3.5003228271484375,7.122749938964843,-6.562506750488281,-16.0381679389313,-10.106870229007633,-58.11450381679389
6308909887695,1.633937447,3,-3.384204046630859,7.363367205810547,-6.695384942626953,-16.33587786259542,-12.549618320610687,-56.16793893129771
6308915775091,1.639824843,3,-3.1926679138183593,7.681796026611328,-6.807912420654296,-17.19083969465649,-11.946564885496183,-47.93893129770992
6308921631498,1.64568125,3,-3.2537200561523436,7.824251025390624,-6.776787799072265,-23.198473282442748,-17.786259541984734,-37.29007633587786
6308927516810,1.651566562,3,-3.515885137939453,7.9295958984374995,-6.926425402832031,-24.709923664122137,-22.366412213740457,-29.282442748091604
6308933382539,1.657432291,3,-3.506308331298828,8.012195855712891,-6.782773303222656,-24.374045801526716,-20.38167938931298,-25.229007633587788
6308939268841,1.663318593,3,-3.6846763549804686,8.086416107177733,-6.809109521484374,-24.47328244274809,-19.633587786259543,-19.770992366412212
6308945148789,1.669198541,3,-3.4644098022460934,8.095992913818359,-6.8773442687988275,-25.137404580152673,-24.18320610687023,-13.83206106870229
6308951056654,1.675106406,3,-3.2225954345703123,8.245630517578125,-7.097610821533203,-27.748091603053435,-26.0,-6.687022900763359
6308956921758,1.68097151,3,-3.034650604248047,8.183381274414062,-7.123947039794921,-41.49618320610687,-27.709923664122137,5.404580152671755
6308962832123,1.686881875,3,-3.3291374084472656,8.03853207397461,-7.141903552246093,-43.54961832061068,-29.206106870229007,13.49618320610687
6308968718373,1.692768125,3,-3.35188232421875,7.949946612548827,-7.144297753906249,-39.10687022900763,-23.778625954198475,18.900763358778626
6308974662643,1.698712395,3,-3.4249054748535155,7.8553756469726554,-7.095216619873047,-31.48854961832061,-17.541984732824428,23.267175572519083
6308980534883,1.704584635,3,-3.545812658691406,7.75721337890625,-7.029376074218749,-24.19083969465649,-15.580152671755725,30.35114503816794
6308986446498,1.71049625,3,-3.6523546325683593,7.66743081665039,-6.8976949829101555,-17.900763358778626,-7.213740458015267,38.93129770992366
6308992395456,1.716445208,3,-3.3207577026367185,7.286752752685547,-7.012616662597656,-17.259541984732824,5.534351145038168,41.80152671755725
6308998307904,1.722357656,3,-3.1771056030273437,6.974309436035155,-6.835445739746094,-14.977099236641221,14.068702290076336,47.916030534351144
6309004235612,1.728285364,3,-3.1471780822753903,6.742071875,-6.701370446777343,-8.946564885496183,18.625954198473284,54.00763358778626
6309010108997,1.734158749,3,-3.0885201416015624,6.411672045898437,-6.5577183471679685,0.6717557251908397,24.717557251908396,58.25954198473283
6309016026393,1.740076145,3,-2.9448680419921875,6.098031628417968,-6.341043096923828,10.618320610687023,41.94656488549618,60.16793893129771
6309021954883,1.746004635,3,-2.864662286376953,5.603628985595702,-5.949591125488281,21.31297709923664,47.29007633587786,62.64885496183206
6309027897747,1.751947499,3,-2.528276953125,5.333084197998047,-5.761646295166015,22.061068702290076,52.30534351145038,61.6412213740458
6309033840352,1.757890104,3,-2.1224597717285154,5.060145208740234,-5.5844753723144525,22.00763358778626,60.6412213740458,58.19847328244275
6309039776758,1.76382651,3,-1.8171990600585937,4.801571429443359,-5.476736297607421,22.572519083969464,70.99236641221374,56.916030534351144
6309045694466,1.769744218,3,-1.6639701538085936,4.483142608642578,-5.0757075195312495,26.19083969465649,78.35114503816794,55.12977099236641
6309051593789,1.775643541,3,-1.6927005737304686,4.153939880371094,-4.562151263427734,42.0,81.25954198473282,49.85496183206107
6309057495768,1.78154552,3,-1.9141642272949217,3.859453076171875,-4.279635467529297,48.778625954198475,83.07633587786259,42.52671755725191
6309063428529,1.787478281,3,-1.8938135131835936,3.6834792541503902,-4.059368914794922,51.30534351145038,85.04580152671755,35.12977099236641
6309069323112,1.793372864,3,-1.619677423095703,3.6332010192871094,-3.9324762268066404,51.38931297709924,91.05343511450381,22.404580152671755
6309075219414,1.799269166,3,-1.3850456604003905,3.660734338378906,-3.749319799804687,49.31297709923664,99.49618320610686,11.648854961832061
6309081094154,1.805143906,3,-1.22583125,3.5673604736328124,-3.470395306396484,45.99236641221374,93.92366412213741,-1.0
6309087000925,1.811050677,3,-1.1563994018554686,3.7134067749023436,-3.2417490478515623,43.02290076335878,86.22137404580153,-7.923664122137405
6309092909935,1.816959687,3,-1.1839327209472656,3.7193922790527343,-3.020285394287109,43.45038167938932,82.5114503816794,-17.671755725190838
6309098804727,1.822854479,3,-1.0965443603515623,3.754108203125,-3.0418332092285154,42.412213740458014,80.21374045801527,-26.48854961832061
6309104706341,1.828756093,3,-0.9157821350097656,3.920505218505859,-2.972401361083984,40.274809160305345,76.38931297709924,-37.221374045801525
6309110642487,1.834692239,3,-0.8655039001464844,3.976768957519531,-2.7653029174804686,37.458015267175576,72.47328244274809,-44.42748091603053
6309116478008,1.84052776,3,-0.9660603698730468,3.9552211425781247,-2.6970681701660153,37.717557251908396,56.083969465648856,-52.587786259541986
6309122386445,1.846436197,3,-1.2880804931640624,4.308365887451171,-2.5761609863281247,38.595419847328245,40.12977099236641,-64.3206106870229
6309128389831,1.852439583,3,-1.3467384338378905,4.594472985839843,-2.6803087585449217,34.091603053435115,27.19083969465649,-73.6412213740458
6309134370508,1.85842026,3,-1.4173673828125,4.862623571777344,-2.645592834472656,24.33587786259542,17.633587786259543,-80.8854961832061
6309140369414,1.864419166,3,-1.3180080139160155,5.1882349975585935,-2.940079638671875,11.854961832061068,5.66412213740458,-87.2824427480916
6309146383372,1.870433124,3,-1.2078747375488281,5.561730456542969,-3.1567548889160153,-12.022900763358779,-23.801526717557252,-98.27480916030534
6309152364154,1.876413906,3,-1.4257470886230468,6.104017132568359,-3.4739866088867184,-17.732824427480917,-30.46564885496183,-93.81679389312977
6309158263945,1.882313697,3,-1.9213468322753906,6.366182214355469,-3.430890979003906,-15.511450381679388,-40.6793893129771,-91.32824427480917
6309164142956,1.888192708,3,-2.2062568298339844,6.658274816894531,-3.564966271972656,-9.19083969465649,-58.9236641221374,-92.98473282442748
6309170019831,1.894069583,3,-2.627636322021484,7.089231115722656,-3.9049429077148434,-6.8320610687022905,-77.72519083969466,-92.4885496183206
6309175922747,1.899972499,3,-2.9173347229003905,7.437587457275391,-4.256890551757812,-14.587786259541986,-96.3587786259542,-89.96946564885496
6309181841029,1.905890781,3,-3.1399954772949217,7.933187200927734,-5.214571215820312,-61.14503816793893,-133.91603053435114,-84.76335877862596
6309187749779,1.911799531,3,-3.7289690856933593,8.38329711303711,-5.511452221679687,-85.93893129770993,-144.95419847328245,-79.01526717557252
6309193654102,1.917703854,3,-4.091690637207031,8.505401397705077,-5.82868394165039,-100.69465648854961,-155.0916030534351,-69.94656488549619
6309199560820,1.923610572,3,-4.321533996582031,8.65623610229492,-6.284779357910156,-101.76335877862596,-163.68702290076337,-63.63358778625954
6309205470508,1.92952026,3,-4.356249920654297,8.801085302734375,-6.698976245117187,-92.5114503816794,-168.63358778625954,-60.091603053435115
6309211418164,1.935467916,3,-4.593275885009765,9.156624249267578,-7.023390570068359,-71.22900763358778,-166.01526717557252,-46.58015267175573
6309217323320,1.941373072,3,-5.324704492187499,9.293093743896485,-7.597998968505859,-66.3969465648855,-169.44274809160305,-34.770992366412216
6309223256133,1.947305885,3,-4.879382983398437,9.319429962158203,-8.136694342041014,-64.12977099236642,-165.50381679389312,-27.30534351145038
6309229160091,1.953209843,3,-5.042188696289062,9.668983404541015,-8.112752325439452,-60.396946564885496,-140.72519083969465,-29.0381679389313
6309235041081,1.959090833,3,-5.25407554321289,9.642647186279296,-8.028955267333984,-59.80916030534351,-125.66412213740458,-9.67175572519084
6309240880456,1.964930208,3,-5.422866760253906,9.595960253906249,-8.251616021728514,-56.64885496183206,-136.76335877862596,21.0
6309246809570,1.970859322,3,-5.492298608398437,9.422380633544922,-8.79749400024414,-37.603053435114504,-113.04580152671755,31.19083969465649
6309252712747,1.976762499,3,-5.396530541992187,9.105148913574219,-8.532934716796875,-26.03053435114504,-92.07633587786259,39.19847328244275
6309258650299,1.982700051,3,-5.201403106689453,8.984241729736327,-8.667010009765624,-16.14503816793893,-81.8473282442748,48.6793893129771
6309264528320,1.988578072,3,-4.9416322265625,8.773551983642578,-8.84178673095703,-9.900763358778626,-74.93893129770993,61.48854961832061
6309270410039,1.994459791,3,-4.8135424377441405,8.47786807861328,-8.749609967041016,-7.145038167938932,-62.595419847328245,75.67175572519083
6309276324362,2.000374114,3,-4.940435125732422,8.003816149902343,-8.684966522216797,-4.900763358778626,-34.17557251908397,97.48091603053435
6309282210872,2.006260624,3,-5.185840795898438,7.1407064514160155,-8.277952239990235,9.007633587786259,-26.48854961832061,100.77099236641222
6309288083789,2.012133541,3,-5.072116217041016,6.815095025634765,-8.30668265991211,13.84732824427481,-23.786259541984734,98.1526717557252
6309294026810,2.018076562,3,-4.957194537353515,6.570886456298828,-8.322244970703125,11.961832061068701,-15.786259541984732,97.5114503816794
6309299946185,2.023995937,3,-4.932055419921875,6.254851837158203,-8.06965669555664,6.66412213740458,-3.885496183206107,98.13740458015268
6309305883633,2.029933385,3,-4.885368487548828,5.912480999755859,-8.03134946899414,1.984732824427481,3.4656488549618323,90.1526717557252
6309311823581,2.035873333,3,-4.818330841064453,5.80354482421875,-7.785943798828124,2.145038167938931,10.473282442748092,82.0
6309317720768,2.04177052,3,-4.872200378417968,5.421669659423828,-7.830236529541015,1.8778625954198473,11.908396946564885,73.29770992366412
6309323624935,2.047674687,3,-4.716577270507813,5.363011718749999,-7.89727417602539,-1.0687022900763359,13.946564885496183,60.76335877862596
6309329526081,2.053575833,3,-4.489128112792969,5.413289953613281,-7.963114721679687,-7.67175572519084,18.984732824427482,48.25954198473283
6309335458529,2.059508281,3,-4.2880151733398435,5.453991381835937,-7.940369805908203,-15.98473282442748,25.412213740458014,38.51145038167939
6309341396393,2.065446145,3,-4.3071687866210935,5.595249279785156,-7.8170684204101555,-20.458015267175572,40.732824427480914,21.3206106870229
6309347328424,2.071378176,3,-4.259284753417968,5.827486840820312,-7.802703210449218,-19.106870229007633,37.0763358778626,11.954198473282442
6309353189310,2.077239062,3,-4.165910888671875,6.025008477783203,-7.879317663574218,-17.297709923664122,41.19083969465649,3.427480916030534
6309359070612,2.083120364,3,-4.177881896972656,6.189011291503906,-7.682993127441406,-15.740458015267176,55.0,-5.1679389312977095
6309364989883,2.089039635,3,-4.159925384521484,6.360196710205078,-7.502230902099609,-12.916030534351146,66.58015267175573,-12.694656488549619
6309370917747,2.094967499,3,-4.077325427246094,6.617573388671874,-7.372944012451171,-9.083969465648854,71.1145038167939,-23.129770992366414
6309376785143,2.100834895,3,-4.056974713134766,6.87614716796875,-7.223306408691406,-2.83206106870229,86.59541984732824,-25.389312977099237
6309382670820,2.106720572,3,-3.8235400512695312,7.262810736083984,-6.992265948486327,-0.007633587786259542,99.40458015267176,-25.717557251908396
6309388707122,2.112756874,3,-3.6655227416992187,7.381323718261719,-6.696582043457031,4.549618320610687,111.09923664122137,-21.748091603053435
6309394639987,2.118689739,3,-3.5206735412597654,7.406462835693359,-6.479906793212891,11.099236641221374,116.36641221374046,-18.72519083969466
6309400520820,2.124570572,3,-3.294421484375,7.4974424987792965,-6.25006343383789,17.946564885496183,120.01526717557252,-15.49618320610687
6309406381237,2.130430989,3,-3.0166940917968748,7.4770917846679685,-6.124367846679687,22.34351145038168,130.9236641221374,-2.2213740458015265
6309412241810,2.136291562,3,-2.8598738830566406,7.334636785888671,-5.522226129150391,21.748091603053435,136.9083969465649,4.580152671755725
6309418127539,2.142177291,3,-2.2182278381347653,7.189787585449218,-5.2444987365722655,22.16030534351145,141.78625954198472,11.541984732824428
6309424043164,2.148092916,3,-2.0302830078125,7.023390570068359,-4.90931050415039,24.47328244274809,146.1679389312977,20.46564885496183
6309429990404,2.154040156,3,-1.946485949707031,6.787561706542968,-4.551377355957031,30.061068702290076,149.42748091603053,29.19083969465649
6309435810716,2.159860468,3,-1.8614917907714843,6.533776330566406,-4.179078997802734,37.57251908396947,150.81679389312978,39.48091603053435
6309441823268,2.16587302,3,-1.7645266235351562,6.325480786132812,-3.778050219726562,47.17557251908397,148.51908396946564,41.70229007633588
6309447798529,2.171848281,3,-1.2773065856933592,5.9400143188476555,-3.5122938354492184,44.6793893129771,145.49618320610688,42.81679389312977
6309453686862,2.177736614,3,-1.1432312927246093,5.7843912109375,-3.423708374023437,38.221374045801525,143.93893129770993,44.847328244274806
6309459581185,2.183630937,3,-0.9540893615722655,5.632359405517578,-3.2405519470214843,30.541984732824428,140.70992366412213,46.908396946564885
6309465472070,2.189521822,3,-1.045069024658203,5.443217474365234,-2.9568390502929685,24.404580152671755,132.8320610687023,47.70229007633588
6309471430299,2.195480051,3,-0.47884033203125,5.354632012939453,-3.0023288818359375,17.282442748091604,114.09160305343511,44.74809160305343
6309477325768,2.20137552,3,-0.07541735229492187,5.063736511230468,-2.858676782226562,12.236641221374045,107.04580152671755,46.14503816793893
6309483220872,2.207270624,3,-0.001197100830078125,4.958391638183594,-2.7569232116699216,8.404580152671755,101.00763358778626,45.412213740458014
6309489085560,2.213135312,3,0.0526724365234375,4.799177227783203,-2.664746447753906,5.801526717557252,93.35114503816794,45.274809160305345
6309494944362,2.218994114,3,-0.013168109130859374,4.618415002441406,-2.541445062255859,3.2290076335877864,81.83206106870229,43.93893129770992
6309500849466,2.224899218,3,-0.09337386474609374,4.496310717773437,-2.6036943054199218,2.0916030534351147,72.6412213740458,36.74809160305343
6309506800872,2.230850624,3,-0.11133037719726561,4.355052819824219,-2.4289175842285156,-0.2366412213740458,61.213740458015266,29.893129770992367
6309512683737,2.236733489,3,-0.044292730712890624,4.229357232666016,-2.4384943908691405,0.007633587786259542,57.93129770992366,21.65648854961832
6309518601237,2.242650989,3,0.1592144104003906,4.246116644287109,-2.393004559326172,0.07633587786259542,52.099236641221374,12.610687022900763
6309524533529,2.248583281,3,0.08379705810546874,4.262876055908203,-2.4289175842285156,-0.549618320610687,44.17557251908397,6.2748091603053435
6309530447799,2.254497551,3,-0.01915361328125,4.237736938476562,-2.35589443359375,-1.2748091603053435,34.54961832061068,0.7709923664122137
6309536357643,2.260407395,3,-0.17238251953125,4.328716601562499,-2.375048046875,-1.900763358778626,16.091603053435115,-17.61832061068702
6309542224987,2.266274739,3,-0.28371289672851563,4.668693237304687,-2.5378537597656248,-4.396946564885496,6.015267175572519,-29.061068702290076
6309548102747,2.272152499,3,-0.32082302246093747,4.8889597900390624,-2.6898855651855467,-8.83969465648855,-3.7251908396946565,-40.44274809160305
6309553984049,2.278033801,3,-0.2549824768066406,5.274426257324219,-2.9269115295410155,-15.679389312977099,-14.183206106870228,-48.587786259541986
6309559854935,2.283904687,3,-0.1580173095703125,5.524620330810547,-3.1399954772949217,-23.3206106870229,-24.9618320610687,-54.69465648854962
6309565819622,2.289869374,3,-0.20231004028320312,5.719747766113281,-3.286041778564453,-28.35114503816794,-30.862595419847327,-56.81679389312977
6309571789622,2.295839374,3,-0.36391865234375,5.912480999755859,-3.4093431640625,-23.595419847328245,-43.29770992366412,-58.17557251908397
6309577687643,2.301737395,3,-1.1348515869140625,6.347028601074219,-3.612850305175781,-19.49618320610687,-58.44274809160305,-60.63358778625954
6309583606706,2.307656458,3,-1.3383587280273437,6.64630380859375,-4.043806604003906,-20.0381679389313,-69.46564885496183,-64.44274809160305
6309589473008,2.31352276,3,-1.408987677001953,6.9539587219238275,-4.316745593261719,-26.748091603053435,-72.45801526717557,-68.54961832061069
6309595337435,2.319387187,3,-1.4975731384277342,7.237671618652343,-4.552574456787109,-37.97709923664122,-72.92366412213741,-68.47328244274809
6309601194258,2.32524401,3,-1.4808137268066406,7.4591352722167965,-4.7572786987304685,-48.54961832061068,-82.27480916030534,-62.70992366412214
6309607093841,2.331143593,3,-1.465251416015625,7.8709379577636716,-5.157110375976562,-49.412213740458014,-82.70992366412214,-58.267175572519086
6309613015143,2.337064895,3,-1.7489643127441405,7.967903124999999,-5.322310290527343,-40.06870229007634,-82.70229007633588,-53.152671755725194
6309618962435,2.343012187,3,-1.936909143066406,8.164227661132813,-5.548562347412109,-28.984732824427482,-84.10687022900764,-48.49618320610687
6309624835351,2.348885103,3,-2.072181536865234,8.243236315917969,-5.671863732910156,-19.755725190839694,-85.13740458015268,-42.54961832061068
6309630769310,2.354819062,3,-2.185906115722656,8.368931903076172,-5.853823059082031,-14.687022900763358,-83.12213740458016,-37.61068702290076
6309636666654,2.360716406,3,-2.1404162841796874,8.409633331298828,-5.990292553710937,-14.98473282442748,-72.3969465648855,-23.30534351145038
6309642565924,2.366615676,3,-2.129642376708984,8.386888415527343,-6.1459156616210935,-14.694656488549619,-68.06870229007633,-15.618320610687023
6309648454258,2.37250401,3,-2.090138049316406,8.321047869873047,-6.215347509765625,-11.15267175572519,-64.52671755725191,-6.870229007633588
6309654322278,2.37837203,3,-2.057816326904297,8.225279803466796,-6.252457635498047,-3.954198473282443,-59.267175572519086,2.1908396946564888
6309660219570,2.384269322,3,-2.0075380920410155,8.067262493896484,-6.274005450439453,6.068702290076335,-51.58015267175573,9.732824427480915
6309666120299,2.390170051,3,-1.9692308654785156,7.87812056274414,-6.236895324707031,16.47328244274809,-36.603053435114504,26.435114503816795
6309672050247,2.396099999,3,-1.8160019592285155,7.205349896240234,-5.8610056640625,37.12977099236641,-26.267175572519083,33.57251908396947
6309678000508,2.40205026,3,-1.838746875,6.8402341430664055,-5.632359405517578,48.51908396946565,-16.82442748091603,42.29007633587786
6309683972539,2.408022291,3,-1.9955670837402342,6.424840155029297,-5.221753820800781,60.229007633587784,-11.740458015267176,46.66412213740458
6309689939466,2.413989218,3,-1.898601916503906,6.059724401855468,-5.13915386352539,69.46564885496183,-9.572519083969466,47.587786259541986
6309695866862,2.419916614,3,-1.916558428955078,5.7508723876953125,-4.860229370117187,72.8473282442748,-6.641221374045801,46.32824427480916
6309701839206,2.425888958,3,-1.8602946899414061,5.341463903808593,-4.465186096191406,69.70992366412214,0.9770992366412213,42.13740458015267
6309707791497,2.431841249,3,-1.686715069580078,4.734533782958984,-4.210203619384766,68.41984732824427,2.50381679389313,39.404580152671755
6309713693112,2.437742864,3,-1.4987702392578124,4.472368701171875,-4.007893579101562,67.61068702290076,-3.183206106870229,35.81679389312977
6309719553737,2.443603489,3,-1.2054805358886718,4.261678955078125,-4.205415216064453,64.93129770992367,-17.053435114503817,27.900763358778626
6309725460091,2.449509843,3,-1.016338604736328,4.329913702392578,-4.3059716857910155,54.778625954198475,-37.847328244274806,18.33587786259542
6309731484622,2.455534374,3,-1.0534487304687499,4.204218115234375,-4.284423870849609,20.82442748091603,-55.343511450381676,14.244274809160306
6309737454987,2.461504739,3,-1.4987702392578124,4.086902233886718,-4.614823699951172,4.221374045801527,-77.33587786259542,6.549618320610687
6309743326081,2.467375833,3,-1.5418658691406248,4.284423870849609,-5.099649536132812,-12.725190839694656,-100.57251908396947,-3.595419847328244
6309749251914,2.473301666,3,-1.4628572143554686,4.460397692871093,-5.5090580200195305,-29.84732824427481,-111.7175572519084,-14.335877862595419
6309755112956,2.479162708,3,-1.5071499450683592,4.765658404541015,-5.816712933349609,-45.404580152671755,-115.2442748091603,-23.282442748091604
6309760990508,2.48504026,3,-1.648407843017578,4.951209033203125,-5.9771244445800775,-54.35114503816794,-114.78625954198473,-27.80916030534351
6309766837278,2.49088703,3,-2.1356278808593747,5.106832141113281,-6.117185241699218,-44.42748091603053,-124.16030534351145,-33.98473282442748
6309772708685,2.496758437,3,-2.5450363647460934,5.561730456542969,-6.45476767578125,-32.41984732824427,-132.59541984732823,-45.603053435114504
6309778602799,2.502652551,3,-3.289633081054687,5.870582470703124,-6.426037255859375,-28.206106870229007,-136.84732824427482,-49.89312977099237
6309784555664,2.508605416,3,-4.1766847961425775,6.0884548217773435,-6.379350323486328,-29.84732824427481,-139.3053435114504,-49.79389312977099
6309790518320,2.514568072,3,-4.669890338134765,6.396109735107421,-6.561309649658202,-38.030534351145036,-151.0,-57.30534351145038
6309796398633,2.520448385,3,-5.08169302368164,6.891709478759765,-6.950367419433594,-53.3206106870229,-174.65648854961833,-76.54198473282443
6309802297591,2.526347343,3,-5.268440753173828,7.657854010009765,-7.568071447753906,-98.45038167938931,-176.68702290076337,-79.83969465648855
6309808148008,2.53219776,3,-5.859808563232422,8.07683930053711,-7.771578588867187,-111.38931297709924,-178.93893129770993,-81.65648854961832
6309814043789,2.538093541,3,-6.209362005615234,8.348581188964843,-7.93558140258789,-113.50381679389314,-189.93129770992365,-81.54961832061069
6309819968841,2.544018593,3,-5.863399865722656,8.647856396484375,-8.558073834228516,-106.16030534351145,-198.78625954198472,-83.36641221374046
6309826049153,2.550098905,3,-5.706579656982422,9.032125762939453,-9.03332286376953,-94.43511450381679,-192.23664122137404,-79.49618320610686
6309831915612,2.555965364,3,-5.762843395996094,9.340977777099608,-9.234435803222656,-70.22900763358778,-169.73282442748092,-71.04580152671755
6309837895508,2.56194526,3,-6.548141540527343,9.654618194580078,-9.357737188720703,-58.93129770992366,-170.09923664122138,-58.76335877862596
6309843858320,2.567908072,3,-6.9515645202636716,9.74200655517578,-9.439140045166015,-49.23664122137404,-159.24427480916032,-45.74809160305343
6309849835976,2.573885728,3,-6.995857250976562,9.683348614501952,-9.855731134033203,-49.61832061068702,-153.18320610687022,-33.656488549618324
6309855795768,2.57984552,3,-7.281964349365234,9.91438907470703,-9.944316595458984,-52.63358778625954,-134.3053435114504,-21.732824427480917
6309861711862,2.585761614,3,-7.252036828613281,9.872490545654296,-9.83777462158203,-46.52671755725191,-74.74809160305344,-13.557251908396946
6309867590039,2.591639791,3,-6.849810949707031,9.898826763916015,-10.014945544433592,-35.969465648854964,-62.74045801526717,-4.015267175572519
6309873490039,2.597539791,3,-6.6522893127441405,9.852139831542969,-10.060435375976562,-23.69465648854962,-39.70992366412214,7.770992366412214
6309879438685,2.603488437,3,-6.3901242309570305,9.753977563476562,-9.964667309570311,-11.229007633587786,-8.900763358778626,18.46564885496183
6309885302383,2.609352135,3,-6.5014546081542965,9.533711010742186,-9.325415466308593,3.8473282442748094,26.12213740458015,30.18320610687023
6309891228476,2.615278228,3,-6.685808135986328,9.236830004882812,-8.96987651977539,19.419847328244273,57.038167938931295,53.16793893129771
6309897154518,2.62120427,3,-6.602011077880859,8.388085516357421,-8.457517364501953,40.961832061068705,82.09160305343511,61.89312977099237
6309903043268,2.62709302,3,-5.993883856201172,7.936778503417968,-7.93558140258789,49.80916030534351,114.50381679389314,64.52671755725191
6309908991341,2.633041093,3,-5.629965203857422,7.588422161865234,-7.332242584228515,58.725190839694655,137.25190839694656,64.27480916030534
6309914897539,2.638947291,3,-5.279214660644531,7.090428216552734,-6.926425402832031,66.6412213740458,148.5267175572519,67.6793893129771
6309920860195,2.644909947,3,-4.782417816162109,6.742071875,-6.552929943847656,73.54961832061069,157.04580152671755,68.83969465648855
6309926732487,2.650782239,3,-4.612429498291015,6.382941625976562,-6.129156249999999,76.35114503816794,177.96946564885496,73.09160305343511
6309932670768,2.65672052,3,-4.179078997802734,5.697002850341796,-5.097255334472656,75.48091603053435,187.22137404580153,69.53435114503817
6309938531601,2.662581353,3,-3.796006732177734,5.391742138671875,-4.8494554626464845,73.54198473282443,193.2824427480916,64.76335877862596
6309944420403,2.668470155,3,-3.4823663146972654,5.201403106689453,-4.425681768798828,70.90839694656489,198.46564885496184,57.61832061068702
6309950357226,2.674406978,3,-3.3638533325195312,5.035006091308594,-3.9995138732910154,70.76335877862596,208.22137404580153,54.19847328244275
6309956261028,2.68031078,3,-3.0992940490722654,4.805162731933594,-3.5901053894042967,72.42748091603053,202.26717557251908,44.20610687022901
6309962185403,2.686235155,3,-3.0023288818359375,4.537012145996093,-3.2788591735839843,67.2442748091603,193.68702290076337,41.61068702290076
6309968063789,2.692113541,3,-2.479195819091797,4.4819455078125,-3.1459809814453124,61.61832061068702,190.03053435114504,33.06870229007634
6309973990351,2.698040103,3,-2.2685060729980466,4.458003491210937,-2.8107927490234372,57.66412213740458,199.70992366412213,24.541984732824428
6309979877799,2.703927551,3,-2.0745757385253905,4.301183282470703,-2.5055320373535155,55.01526717557252,205.34351145038167,19.267175572519083
6309985840508,2.70989026,3,-1.9416975463867185,4.266467358398438,-2.2589292663574216,55.25190839694657,196.00763358778627,12.320610687022901
6309991763008,2.71581276,3,-1.8040309509277344,4.235342736816406,-2.1164742675781247,57.63358778625954,167.95419847328245,0.5419847328244275
6309997624362,2.721674114,3,-1.4101847778320311,4.333505004882812,-2.0254946044921875,53.97709923664122,159.33587786259542,-7.229007633587786
6310003519205,2.727568957,3,-1.2078747375488281,4.3071687866210935,-1.8243816650390623,46.05343511450382,149.75572519083968,-13.442748091603054
6310010006601,2.734056353,3,-0.8942343200683593,4.370615130615234,-1.8315642700195311,35.458015267175576,134.3969465648855,-20.259541984732824
6310015993893,2.740043645,3,-0.5865794067382812,4.522646936035156,-1.9093758239746093,23.458015267175572,117.9618320610687,-27.564885496183205
6310021947591,2.745997343,3,-0.4644751220703125,4.523844036865234,-1.879448303222656,3.618320610687023,89.03053435114504,-30.80916030534351
6310027901185,2.751950937,3,-0.51714755859375,4.651933825683593,-1.7573440185546874,0.3053435114503817,74.80152671755725,-34.83206106870229
6310033833216,2.757882968,3,-0.5805939025878906,4.777629412841796,-1.8183961608886718,1.4580152671755726,60.969465648854964,-40.56488549618321
6310039815143,2.763864895,3,-0.6775590698242188,4.940435125732422,-1.9201497314453124,4.755725190839694,48.099236641221374,-46.51145038167939
6310045758841,2.769808593,3,-0.6619967590332031,5.214571215820312,-2.019509100341797,6.633587786259542,35.52671755725191,-53.57251908396947
6310051695508,2.77574526,3,-0.5542576843261718,5.501875415039062,-2.076969940185547,-0.09923664122137404,13.061068702290076,-58.10687022900763
6310057626028,2.78167578,3,-0.8595183959960937,5.953182427978516,-2.347514727783203,-7.717557251908397,-0.9923664122137404,-56.725190839694655
6310063585976,2.787635728,3,-1.0199299072265624,6.156689569091797,-2.4756045166015626,-15.717557251908397,-16.580152671755727,-55.81679389312977
6310069623841,2.793673593,3,-1.052251629638672,6.451176373291015,-2.864662286376953,-22.893129770992367,-29.48854961832061,-56.45038167938932
6310075586393,2.799636145,3,-1.0570400329589844,6.606799481201172,-3.0238766967773434,-28.786259541984734,-36.67175572519084,-55.97709923664122
6310081452695,2.805502447,3,-0.9409212524414062,6.835445739746094,-3.2932243835449215,-33.282442748091604,-58.786259541984734,-47.93893129770992
6310087308528,2.81135828,3,-0.968454571533203,7.194575988769531,-3.7900212280273435,-39.93893129770992,-70.54198473282443,-37.74045801526717
6310093182747,2.817232499,3,-1.4437036010742186,7.352593298339843,-3.985148663330078,-41.43511450381679,-80.70229007633588,-28.541984732824428
6310099119987,2.823169739,3,-1.5801730957031248,7.381323718261719,-4.209006518554688,-41.717557251908396,-90.48091603053435,-22.404580152671755
6310105020768,2.82907052,3,-1.8195932617187498,7.448361364746093,-4.513070129394531,-42.099236641221374,-95.54961832061069,-16.64885496183206
6310110918060,2.834967812,3,-2.038662713623047,7.523778717041015,-4.768052606201172,-43.41984732824427,-100.95419847328245,-4.534351145038168
6310116847226,2.840896978,3,-2.242169854736328,7.588422161865234,-4.948814831542968,-46.97709923664122,-113.0381679389313,1.0610687022900764
6310122847591,2.846897343,3,-2.385821954345703,7.5333555236816405,-5.494692810058593,-48.396946564885496,-115.62595419847328,7.450381679389313
6310128789101,2.852838853,3,-2.5139117431640625,7.4974424987792965,-5.7149593627929685,-48.045801526717554,-115.62595419847328,13.16793893129771
6310134693268,2.85874302,3,-2.6719290527343746,7.503428002929687,-5.9400143188476555,-45.229007633587784,-113.26717557251908,18.709923664122137
6310140684674,2.864734426,3,-2.7712884216308593,7.36097300415039,-6.084863519287109,-40.57251908396947,-112.66412213740458,24.045801526717558
6310146649362,2.870699114,3,-2.8119898498535156,7.231686114501953,-6.315903979492187,-27.229007633587788,-107.94656488549619,30.641221374045802
6310152547070,2.876596822,3,-2.886210101318359,7.042544183349609,-6.545747338867187,-21.30534351145038,-101.62595419847328,32.87786259541985
6310158477643,2.882527395,3,-2.9448680419921875,6.961141326904296,-6.7277066650390625,-18.389312977099237,-98.22137404580153,35.229007633587784
6310164410507,2.888460259,3,-3.068169427490234,6.777984899902344,-6.768408093261718,-18.519083969465647,-96.33587786259542,40.404580152671755
6310170341185,2.894390937,3,-3.19865341796875,6.5960255737304685,-6.788758807373046,-18.84732824427481,-94.3969465648855,41.954198473282446
6310176225507,2.900275259,3,-3.2070331237792966,6.525396624755859,-6.986280444335937,-18.85496183206107,-88.93129770992367,40.29007633587786
6310182097122,2.906146874,3,-3.1926679138183593,6.343437298583984,-6.874950067138672,-12.664122137404581,-66.98473282442748,39.465648854961835
6310187988580,2.912038332,3,-3.2034418212890623,5.912480999755859,-6.9144543945312495,-6.0,-61.58015267175573,38.38167938931298
6310193983007,2.918032759,3,-3.1447838806152344,5.8083332275390624,-6.874950067138672,0.9541984732824428,-58.61832061068702,36.465648854961835
6310199853997,2.923903749,3,-3.1208418640136717,5.643133312988281,-6.870161663818359,5.961832061068702,-53.17557251908397,32.64885496183206
6310205760299,2.929810051,3,-3.2058360229492187,5.53539423828125,-6.823474731445312,7.770992366412214,-46.44274809160305,27.908396946564885
6310211693685,2.935743437,3,-3.2441432495117186,5.396530541992187,-6.789955908203124,7.099236641221374,-38.54961832061068,22.114503816793892
6310217621341,2.941671093,3,-3.456030096435547,5.2433016357421875,-6.580463262939452,6.4961832061068705,-39.06870229007634,15.290076335877863
6310223581810,2.947631562,3,-3.5877111877441403,5.260061047363281,-6.750451580810546,3.145038167938931,-44.725190839694655,6.847328244274809
6310229512695,2.953562447,3,-3.4644098022460934,5.374982727050781,-6.92043989868164,-3.5114503816793894,-50.274809160305345,-4.519083969465649
6310235450716,2.959500468,3,-3.506308331298828,5.590460876464843,-7.0640919982910155,-15.19083969465649,-54.51145038167939,-14.404580152671755
6310241324362,2.965374114,3,-3.6343981201171873,5.748478186035156,-7.201758593749999,-28.16793893129771,-64.86259541984732,-29.763358778625953
6310247264622,2.971314374,3,-3.841496563720703,6.299144567871093,-7.607575775146484,-46.74045801526717,-70.83969465648855,-37.12213740458015
6310253092226,2.977141978,3,-4.489128112792969,6.836642840576172,-7.568071447753906,-48.54961832061068,-67.97709923664122,-50.36641221374046
6310259026497,2.983076249,3,-4.426878869628906,7.144297753906249,-7.653065606689452,-47.18320610687023,-55.732824427480914,-51.52671755725191
6310264885091,2.988934843,3,-4.448426684570312,7.313088970947265,-7.775169891357422,-45.74045801526717,-58.74045801526717,-50.847328244274806
6310270816914,2.994866666,3,-4.461594793701171,7.536946826171874,-8.008604553222655,-38.57251908396947,-54.778625954198475,-53.6412213740458
6310276748112,3.000797864,3,-4.327519500732421,7.714117749023437,-8.100781317138672,-22.51145038167939,-32.969465648854964,-52.99236641221374
6310282647851,3.006697603,3,-4.727351177978515,8.149862451171874,-7.967903124999999,-18.793893129770993,-30.19083969465649,-46.17557251908397
6310288541966,3.012591718,3,-4.802768530273437,8.21690009765625,-8.160636358642577,-17.519083969465647,-28.14503816793893,-41.38931297709924
6310294496601,3.018546353,3,-4.786009118652344,8.311471063232421,-8.142679846191406,-17.106870229007633,-16.374045801526716,-39.44274809160305
6310300413789,3.024463541,3,-4.550180255126953,8.389282617187499,-8.099584216308592,-16.38167938931298,1.3358778625954197,-36.786259541984734
6310306378893,3.030428645,3,-4.337096307373047,8.469488372802735,-7.977479931640625,-13.32824427480916,21.442748091603054,-22.900763358778626
6310312301393,3.036351145,3,-4.109647149658203,8.420407238769531,-7.788338000488281,1.3053435114503817,29.64885496183206,-14.030534351145038
6310318164309,3.042214061,3,-4.153939880371094,8.29351455078125,-7.445967163085937,9.977099236641221,38.93893129770992,-4.473282442748092
6310324067747,3.048117499,3,-4.404133953857421,8.11514652709961,-7.192181787109375,16.87786259541985,45.9236641221374,3.6030534351145036
6310330009153,3.054058905,3,-4.294000677490234,8.012195855712891,-7.086836914062499,22.106870229007633,54.06106870229008,7.3893129770992365
6310335933528,3.05998328,3,-4.056974713134766,7.842207537841796,-6.788758807373046,23.755725190839694,65.83969465648855,14.893129770992367
6310341889101,3.065938853,3,-3.7888241271972656,7.625532287597656,-6.234501123046875,25.480916030534353,87.0381679389313,21.14503816793893
6310347803789,3.071853541,3,-3.2632968627929686,7.0832456115722655,-5.967547637939453,30.72519083969466,94.09923664122137,28.137404580152673
6310353699414,3.077749166,3,-3.1471780822753903,6.779182000732422,-5.627571002197265,39.76335877862596,100.3587786259542,33.0
6310359629518,3.08367927,3,-2.980781066894531,6.443993768310547,-5.248090039062499,50.099236641221374,106.25954198473282,36.41984732824427
6310365625664,3.089675416,3,-2.881421697998047,6.136338854980468,-4.848258361816406,58.10687022900763,110.19083969465649,37.152671755725194
6310371589987,3.095639739,3,-2.786850732421875,5.894524487304687,-4.6076410949707025,61.79389312977099,114.74809160305344,36.56488549618321
6310377495247,3.101544999,3,-2.479195819091797,5.409698651123047,-4.161122485351562,54.83969465648855,117.16030534351145,35.37404580152672
6310383401705,3.107451457,3,-1.897404815673828,5.148730670166016,-3.900154504394531,49.41984732824427,118.82442748091603,34.94656488549618
6310389299518,3.11334927,3,-1.600523809814453,4.872200378417968,-3.758896606445312,46.82442748091603,120.12977099236642,34.13740458015267
6310395167330,3.119217082,3,-1.3814543579101561,4.540603448486328,-3.4548329956054684,47.89312977099237,119.20610687022901,34.9236641221374
6310401080820,3.125130572,3,-1.5969325073242187,4.41131655883789,-3.189076611328125,50.465648854961835,109.58778625954199,30.740458015267176
6310407083789,3.131133541,3,-1.6807295654296874,4.211400720214844,-2.931699932861328,56.229007633587784,101.0,23.81679389312977
6310413016237,3.137065989,3,-1.581370196533203,4.029441394042968,-2.8215666564941406,55.412213740458014,100.1526717557252,13.030534351145038
6310418973893,3.143023645,3,-1.5071499450683592,3.994725469970703,-2.6575638427734374,50.274809160305345,95.31297709923665,4.396946564885496
6310424836862,3.148886614,3,-1.3946224670410154,3.9923312683105467,-2.6001030029296874,41.31297709923664,82.97709923664122,-2.9236641221374047
6310430708580,3.154758332,3,-1.2401964599609374,4.0066964782714845,-2.7281927917480466,31.50381679389313,70.20610687022901,-9.725190839694656
6310436665559,3.160715311,3,-0.8212111694335937,4.061763116455078,-2.8754361938476563,19.33587786259542,65.54198473282443,-21.885496183206108
6310442542487,3.166592239,3,-0.8750807067871094,3.9324762268066404,-2.347514727783203,22.221374045801525,62.06870229007634,-23.091603053435115
6310448411809,3.172461561,3,-1.2713210815429687,4.029441394042968,-2.2361843505859373,30.96946564885496,44.786259541984734,-32.25190839694657
6310454337747,3.178387499,3,-1.2856862915039062,4.253299249267578,-2.4516625,35.900763358778626,23.366412213740457,-45.57251908396947
6310460253789,3.184303541,3,-1.2904746948242187,4.431667272949219,-2.612074011230469,31.900763358778626,13.633587786259541,-53.57251908396947
6310466202070,3.190251822,3,-1.3239935180664062,4.7201685729980465,-2.711433380126953,18.16793893129771,3.4885496183206106,-67.70992366412214
6310472073320,3.196123072,3,-1.4065934753417968,4.917690209960937,-3.0597897216796874,-19.99236641221374,-32.14503816793893,-70.6793893129771
6310478033684,3.202083436,3,-1.5023615417480467,5.6574985229492185,-3.239354846191406,-33.7557251908397,-46.37404580152672,-74.02290076335878
6310483967122,3.208016874,3,-1.6627730529785156,5.992686755371094,-3.4488474914550777,-41.16030534351145,-59.79389312977099,-75.67175572519083
6310489904778,3.21395453,3,-1.9213468322753906,6.336254693603515,-3.8295255554199215,-44.05343511450382,-76.22137404580153,-75.06870229007633
6310495844466,3.219894218,3,-2.123656872558594,6.657077716064452,-4.163516687011718,-45.3206106870229,-93.2824427480916,-73.4885496183206
6310501816862,3.225866614,3,-2.3343466186523436,6.975506536865234,-4.50109912109375,-51.29007633587786,-117.78625954198473,-69.90076335877863
6310507721132,3.231770884,3,-3.2920272827148436,7.5333555236816405,-5.00507857055664,-58.969465648854964,-132.1145038167939,-64.83206106870229
6310513522226,3.237571978,3,-3.834313958740234,7.9104422851562495,-5.459976885986328,-68.90076335877863,-150.48091603053436,-62.541984732824424
6310519423424,3.243473176,3,-4.2125978210449215,8.106766821289062,-5.930437512207031,-80.87022900763358,-165.70229007633588,-59.93129770992366
6310525320039,3.249369791,3,-4.576516473388671,8.392873919677735,-6.356605407714843,-92.44274809160305,-173.01526717557252,-55.786259541984734
6310531250351,3.255300103,3,-4.589684582519531,8.635885388183594,-6.769605194091796,-98.93129770992367,-175.74809160305344,-53.06870229007634
6310537151445,3.261201197,3,-4.435258575439453,8.89326206665039,-7.34181939086914,-95.1526717557252,-163.75572519083968,-47.68702290076336
6310543111497,3.267161249,3,-4.806359832763672,9.458293658447266,-7.643488800048828,-91.32824427480917,-173.9770992366412,-33.0
6310549026914,3.273076666,3,-4.996698864746094,9.484629876708984,-8.048108880615233,-83.54961832061069,-178.73282442748092,-19.49618320610687
6310554964830,3.279014582,3,-5.214571215820312,9.452308154296874,-8.26119282836914,-74.16030534351145,-165.27480916030535,-6.572519083969466
6310560830039,3.284879791,3,-5.4013189453125,9.4618849609375,-8.32463917236328,-63.458015267175576,-145.65648854961833,2.7786259541984735
6310566697330,3.290747082,3,-5.571307263183593,9.502586389160156,-8.392873919677735,-44.465648854961835,-130.96946564885496,20.732824427480917
6310572563528,3.29661328,3,-5.779602807617187,9.39843861694336,-8.901641772460938,-39.44274809160305,-123.54961832061069,32.42748091603053
6310578406028,3.30245578,3,-5.646724615478515,9.209296685791015,-9.060856182861327,-37.847328244274806,-108.35114503816794,40.0
6310584283268,3.30833302,3,-5.413289953613281,9.038111267089842,-9.064447485351561,-35.97709923664122,-84.90839694656489,48.97709923664122
6310590170351,3.314220103,3,-5.280411761474609,8.825027319335938,-8.93156929321289,-30.045801526717558,-63.23664122137404,59.33587786259542
6310596078684,3.320128436,3,-5.179855291748047,8.470685473632813,-8.856151940917968,-18.17557251908397,-47.969465648854964,83.3587786259542
6310601969361,3.326019113,3,-5.210979913330078,8.03134946899414,-8.553285430908202,12.625954198473282,-21.053435114503817,90.47328244274809
6310607846184,3.331895936,3,-5.298368273925781,7.218518005371093,-8.329427575683594,24.671755725190838,-4.67175572519084,93.81679389312977
6310613818580,3.337868332,3,-5.181052392578125,6.774393597412109,-8.049305981445311,31.259541984732824,9.473282442748092,93.06106870229007
6310619711705,3.343761457,3,-4.910507604980468,6.386532928466797,-7.906850982666016,32.961832061068705,22.022900763358777,90.53435114503817
6310625604518,3.34965427,3,-4.7584757995605464,6.05852730102539,-7.712920648193359,31.244274809160306,32.69465648854962,88.36641221374046
6310631502122,3.355551874,3,-4.43047017211914,5.698199951171874,-7.538143927001952,29.015267175572518,48.29007633587786,76.6030534351145
6310637412018,3.36146177,3,-4.292803576660156,5.233724829101562,-7.196970190429687,26.282442748091604,55.49618320610687,69.90076335877863
6310643353164,3.367402916,3,-3.831919757080078,5.013458276367187,-7.020996368408203,26.587786259541986,61.587786259541986,61.6793893129771
6310649314205,3.373363957,3,-3.6667198425292966,4.898536596679687,-6.860584857177734,27.778625954198475,68.12977099236642,52.2442748091603
6310655271601,3.379321353,3,-3.4811692138671875,4.752490295410156,-6.701370446777343,29.267175572519083,76.52671755725191,44.29770992366412
6310661167330,3.385217082,3,-3.3016040893554686,4.612429498291015,-6.405686541748047,31.870229007633586,85.13740458015268,27.442748091603054
6310667049934,3.391099686,3,-3.2022447204589843,4.554968658447265,-5.989095452880859,40.534351145038165,99.98473282442748,17.893129770992367
6310672936393,3.396986145,3,-3.0406361083984375,4.511873028564453,-5.748478186035156,44.48854961832061,105.10687022900764,8.061068702290076
6310678833476,3.402883228,3,-2.8598738830566406,4.503493322753906,-5.577292767333984,46.0763358778626,109.38167938931298,-0.7251908396946565
6310684696549,3.408746301,3,-2.6815058593749996,4.583699078369141,-5.287594366455078,45.229007633587784,113.06106870229007,-9.595419847328245
6310690631966,3.414681718,3,-2.4756045166015626,4.623203405761719,-5.105635040283203,43.29007633587786,117.87022900763358,-17.557251908396946
6310696608059,3.420657811,3,-2.24097275390625,4.712985968017578,-4.817133740234374,42.82442748091603,124.18320610687023,-29.17557251908397
6310702551080,3.426600832,3,-2.0841525451660154,4.897339495849609,-4.276044165039062,42.06870229007634,123.74809160305344,-32.587786259541986
6310708419153,3.432468905,3,-1.8231845642089843,4.950011932373046,-4.082113830566406,43.87786259541985,122.29007633587786,-35.70992366412214
6310714306861,3.438356613,3,-1.687912170410156,5.070919116210937,-3.9432501342773434,45.14503816793893,120.25954198473282,-37.68702290076336
6310720221861,3.444271613,3,-1.5442600708007812,5.1690813842773435,-3.756502404785156,44.06870229007634,116.87022900763358,-38.847328244274806
6310726092851,3.450142603,3,-1.4472949035644531,5.260061047363281,-3.5625720703124997,41.19847328244275,113.97709923664122,-38.63358778625954
6310731988059,3.456037811,3,-1.3838485595703125,5.240907434082031,-3.161543292236328,33.19083969465649,107.77099236641222,-36.93893129770992
6310737935455,3.461985207,3,-1.6675614562988281,5.232527728271484,-2.825157958984375,30.53435114503817,99.89312977099236,-33.954198473282446
6310744084205,3.468133957,3,-1.8195932617187498,5.079298822021484,-2.929305731201172,30.068702290076335,90.0,-35.68702290076336
6310749999622,3.474049374,3,-1.8171990600585937,5.092466931152344,-2.958036151123047,27.69465648854962,74.26717557251908,-35.3206106870229
6310755963216,3.480012968,3,-1.4927847351074217,5.179855291748047,-2.9951462768554684,27.625954198473284,71.2442748091603,-47.404580152671755
6310761851445,3.485901197,3,-1.4820108276367188,5.341463903808593,-2.887407202148437,16.30534351145038,60.80916030534351,-50.17557251908397
6310767746288,3.49179604,3,-1.3778630554199218,5.5090580200195305,-2.967612957763672,11.038167938931299,46.282442748091604,-49.97709923664122
6310773640143,3.497689895,3,-1.4700398193359374,5.576095666503906,-2.929305731201172,9.244274809160306,41.64885496183206,-50.87786259541985
6310779536913,3.503586665,3,-1.6627730529785156,5.659892724609374,-2.778471026611328,10.251908396946565,37.274809160305345,-50.54961832061068
6310785455924,3.509505676,3,-1.7226280944824217,5.758054992675781,-2.7952304382324216,12.213740458015268,23.549618320610687,-54.02290076335878
6310791319830,3.515369582,3,-1.7429788085937499,6.040570788574218,-2.977189764404297,11.083969465648854,8.687022900763358,-58.10687022900763
6310797309309,3.521359061,3,-1.7022773803710936,6.276399652099609,-3.327940307617187,-8.091603053435115,-14.65648854961832,-57.63358778625954
6310803313268,3.52736302,3,-1.7980454467773437,6.68461103515625,-3.5434184570312497,-22.923664122137403,-29.916030534351144,-55.267175572519086
6310809285455,3.533335207,3,-2.005143890380859,6.86297905883789,-3.6918589599609373,-37.7557251908397,-47.534351145038165,-51.67175572519084
6310815191497,3.539241249,3,-2.214636535644531,7.005434057617187,-3.934870428466797,-48.01526717557252,-61.20610687022901,-45.786259541984734
6310821143268,3.54519302,3,-2.4480711975097655,7.147889056396484,-4.254496350097656,-51.81679389312977,-69.83969465648855,-42.51908396946565
6310827001132,3.551050884,3,-2.6048914062499997,7.332242584228515,-4.463988995361328,-51.267175572519086,-88.25954198473282,-39.16030534351145
6310832983476,3.557033228,3,-3.1172505615234374,7.74404526977539,-5.127182855224609,-53.48091603053435,-100.06106870229007,-33.732824427480914
6310840300924,3.564350676,3,-3.4727895080566404,7.826645227050781,-5.343858105468749,-57.25954198473283,-108.10687022900764,-28.31297709923664
6310847697018,3.57174677,3,-4.048595007324218,8.049305981445311,-5.795165118408203,-61.091603053435115,-108.99236641221374,-21.587786259541986
6310855003424,3.579053176,3,-4.218583325195312,8.246827618408203,-6.123170745849609,-59.97709923664122,-110.54198473282443,-19.282442748091604
6310862332643,3.586382395,3,-4.2137949218749995,8.48505068359375,-6.752845782470703,-54.732824427480914,-114.07633587786259,-13.442748091603054
6310869675820,3.593725572,3,-4.294000677490234,8.595183959960938,-7.134720947265625,-53.38167938931298,-112.19847328244275,-7.022900763358779
6310877045351,3.601095103,3,-4.150348577880859,8.59278975830078,-7.509413507080078,-50.274809160305345,-98.04580152671755,5.893129770992366
6310884360507,3.608410259,3,-4.147954376220703,8.672995513916016,-7.6614453125,-46.7557251908397,-92.16030534351145,16.954198473282442
6310891690716,3.615740468,3,-4.244919543457031,8.578424548339843,-7.772775689697265,-32.786259541984734,-81.58778625954199,38.41984732824427
6310898997070,3.623046822,3,-4.030638494873046,8.175001568603514,-7.957129217529296,-23.16793893129771,-65.73282442748092,46.00763358778626
6310906345820,3.630395572,3,-3.976768957519531,7.995436444091796,-7.844601739501953,-15.229007633587786,-41.48854961832061,62.80152671755725
6310913722330,3.637772082,3,-3.910928411865234,7.24605132446289,-7.823053924560546,1.7633587786259541,-33.05343511450382,70.98473282442748
6310921042434,3.645092186,3,-3.8750153869628905,6.886921075439453,-7.650671405029296,8.564885496183207,-20.396946564885496,78.82442748091603
6310928353528,3.65240328,3,-3.5494039611816404,6.133944653320312,-7.0832456115722655,23.68702290076336,6.740458015267175,78.08396946564885
6310935738424,3.659788176,3,-3.417722869873047,5.670666632080078,-6.938396411132812,30.198473282442748,14.351145038167939,75.25954198473282
6310943122018,3.66717177,3,-3.172317199707031,5.035006091308594,-6.6151791870117185,35.45038167938932,28.137404580152673,71.7557251908397
6310950503997,3.674553749,3,-3.075352032470703,4.729745379638672,-6.332663391113281,35.213740458015266,36.25190839694657,65.86259541984732
6310957841653,3.681891405,3,-2.8945898071289062,4.234145635986328,-5.925649108886718,33.80152671755725,45.2442748091603,50.06106870229008
6310965225872,3.689275624,3,-2.7964275390625,4.113238452148437,-5.66946953125,33.06870229007634,46.69465648854962,40.56488549618321
6310972507278,3.69655703,3,-2.6096798095703124,3.9324762268066404,-5.440823272705078,29.587786259541986,47.725190839694655,17.53435114503817
6310979862851,3.703912603,3,-2.8514941772460936,3.994725469970703,-5.31153638305664,25.748091603053435,46.85496183206107,7.282442748091603
6310987207851,3.711257603,3,-2.455253802490234,3.925293621826172,-5.2636523498535155,21.045801526717558,48.14503816793893,-18.778625954198475
6310994534309,3.718584061,3,-2.139219183349609,4.177881896972656,-4.955997436523437,19.65648854961832,54.93129770992366,-25.603053435114504
6311001818111,3.725867863,3,-2.492363928222656,4.272452862548828,-4.7369279846191406,20.236641221374047,30.96946564885496,-39.11450381679389
6311009152799,3.733202551,3,-2.625242120361328,4.668693237304687,-4.915296008300781,18.801526717557252,28.244274809160306,-51.969465648854964
6311016488840,3.740538592,3,-2.655169641113281,5.0206408813476555,-4.818330841064453,1.618320610687023,29.34351145038168,-71.01526717557252
6311023791236,3.747840988,3,-2.501940734863281,5.700594152832031,-4.950011932373046,-7.33587786259542,23.625954198473284,-75.16793893129771
6311031164674,3.755214426,3,-2.522291448974609,6.048950494384766,-5.0014872680664055,-11.335877862595419,23.557251908396946,-76.80152671755725
6311038708632,3.762758384,3,-2.6695348510742187,6.554127044677734,-4.892551092529296,-2.2213740458015265,21.96946564885496,-76.63358778625954
6311046047070,3.770096822,3,-2.6958710693359373,6.865373260498046,-5.006275671386718,5.038167938931298,14.86259541984733,-76.32824427480917
6311053328736,3.777378488,3,-2.835931866455078,7.407659936523437,-5.228936425781249,-0.22137404580152673,4.885496183206107,-71.10687022900764
6311060684570,3.784734322,3,-3.037044805908203,7.596801867675781,-5.342661004638671,-11.320610687022901,2.1526717557251906,-63.68702290076336
6311067967851,3.792017603,3,-3.366247534179687,7.838616235351562,-5.307945080566406,-24.53435114503817,-2.6412213740458017,-47.87022900763359
6311075307695,3.799357447,3,-3.555389465332031,7.949946612548827,-5.309142181396484,-21.65648854961832,-8.374045801526718,-41.916030534351144
6311082661549,3.806711301,3,-3.6284126159667967,8.160636358642577,-5.6586956237792965,-16.900763358778626,-25.85496183206107,-29.931297709923665
6311090025663,3.814075415,3,-3.763685009765625,8.20373198852539,-5.781997009277344,-21.51145038167939,-32.0,-21.259541984732824
6311097425924,3.821475676,3,-3.921702319335937,8.254010223388672,-6.011840368652344,-37.43511450381679,-46.0763358778626,-5.519083969465649
6311104770351,3.828820103,3,-4.00310517578125,8.219294299316406,-6.268019946289062,-44.213740458015266,-52.67175572519084,0.5648854961832062
6311112098788,3.83614854,3,-3.896563201904297,8.163030560302733,-6.673837127685546,-48.14503816793893,-53.49618320610687,10.854961832061068
6311119403476,3.843453228,3,-3.42849677734375,8.104372619628906,-6.860584857177734,-45.12213740458015,-52.76335877862596,14.351145038167939
6311126732695,3.850782447,3,-3.659537237548828,8.113949426269532,-7.078457208251953,-38.86259541984733,-53.56488549618321,30.99236641221374
6311134035820,3.858085572,3,-4.338293408203125,7.843404638671874,-7.153874560546875,-35.05343511450382,-52.01526717557252,36.343511450381676
6311141481497,3.865531249,3,-4.6651019348144525,7.723694555664062,-7.168239770507812,-31.38167938931298,-42.41984732824427,34.6793893129771
6311148902122,3.872951874,3,-4.259284753417968,7.785943798828124,-7.5142019104003905,-35.2442748091603,-30.801526717557252,32.282442748091604
6311156275195,3.880324947,3,-3.9276878234863277,7.706935144042968,-7.419630944824219,-39.17557251908397,-3.381679389312977,44.66412213740458
6311163647018,3.88769677,3,-3.867832781982422,7.176619476318359,-7.143100653076171,-21.31297709923664,5.3816793893129775,51.61832061068702
6311170992174,3.895041926,3,-4.060566015625,6.928819604492187,-6.825868933105468,0.31297709923664124,13.931297709923664,51.83206106870229
6311178364257,3.902414009,3,-3.7014357666015623,6.645106707763672,-6.7277066650390625,30.48854961832061,26.778625954198475,45.83206106870229
6311185704153,3.909753905,3,-3.518279339599609,6.49307490234375,-6.635529901123046,25.404580152671755,32.0,44.51908396946565
6311193045767,3.917095519,3,-3.189076611328125,6.133944653320312,-6.275202551269531,0.5572519083969466,41.19847328244275,43.55725190839695
6311200451705,3.924501457,3,-3.1088708557128903,5.936423016357422,-6.050147595214844,-4.290076335877862,42.954198473282446,40.465648854961835
6311207794570,3.931844322,3,-2.6862942626953124,5.8610056640625,-5.902904193115234,4.221374045801527,45.267175572519086,29.206106870229007
6311215164517,3.939214269,3,-2.567781280517578,5.759252093505859,-5.843049151611328,9.732824427480915,48.52671755725191,27.328244274809162
6311222598632,3.946648384,3,-2.6850971618652344,5.613205792236328,-5.518634826660156,16.81679389312977,55.43511450381679,23.374045801526716
6311229989986,3.954039738,3,-2.7653029174804686,5.53539423828125,-5.377376928710937,18.16793893129771,58.267175572519086,19.366412213740457
6311237365090,3.961414842,3,-2.7581203125,5.518634826660156,-5.176263989257812,14.931297709923664,60.69465648854962,10.610687022900763
6311244729934,3.968779686,3,-2.250549560546875,5.5832782714843745,-5.15830747680664,12.32824427480916,65.90839694656489,5.404580152671755
6311252084309,3.976134061,3,-1.946485949707031,5.5461681457519525,-4.8135424377441405,13.122137404580153,75.34351145038168,4.732824427480916
6311259374257,3.983424009,3,-1.6807295654296874,5.4887073059082025,-4.687846850585937,19.900763358778626,77.25954198473282,4.748091603053435
6311266731080,3.990780832,3,-1.610100616455078,5.400121844482421,-4.480748406982421,36.87786259541985,80.74809160305344,4.6106870229007635
6311274064517,3.998114269,3,-1.4939818359375,5.2648494506835934,-4.046200805664062,42.45038167938932,82.79389312977099,3.053435114503817
6311281419309,4.005469061,3,-1.4891934326171874,5.220556719970703,-3.797203833007812,44.43511450381679,85.43511450381679,-0.0916030534351145
6311288824205,4.012873957,3,-1.3563152404785155,5.104437939453125,-3.4452561889648434,43.091603053435115,83.90839694656489,-2.5343511450381677
6311296156497,4.020206249,3,-1.294065997314453,5.049371301269531,-3.2309751403808593,41.42748091603053,79.2824427480916,-9.213740458015268
6311303487434,4.027537186,3,-1.255758770751953,5.070919116210937,-2.943670941162109,33.98473282442748,63.83969465648855,-12.374045801526718
6311310831080,4.034880832,3,-1.303642803955078,5.137956762695312,-2.922123126220703,28.69465648854962,53.786259541984734,-19.198473282442748
6311318193997,4.042243749,3,-0.928950244140625,5.167884283447266,-2.96881005859375,19.610687022900763,40.87022900763359,-22.732824427480917
6311325550299,4.049600051,3,-0.6464344482421874,5.190629199218749,-2.913743420410156,18.885496183206108,38.56488549618321,-25.564885496183205
6311332917382,4.056967134,3,-0.8678981018066406,5.323507391357421,-2.711433380126953,20.17557251908397,11.67175572519084,-26.717557251908396
6311340350611,4.064400363,3,-1.2054805358886718,5.392939239501953,-2.882618798828125,17.702290076335878,-9.687022900763358,-27.49618320610687
6311347719934,4.071769686,3,-1.2761094848632812,5.912480999755859,-3.5422213562011717,-6.862595419847328,-40.06106870229008,-38.06106870229008
6311355016392,4.079066144,3,-1.0283096130371092,6.098031628417968,-3.755305303955078,-27.061068702290076,-49.786259541984734,-39.83206106870229
6311362452278,4.08650203,3,-1.0079588989257813,6.266822845458984,-4.082113830566406,-47.61068702290076,-68.02290076335878,-32.35114503816794
6311369808892,4.093858644,3,-1.8064251525878905,6.4643444824218745,-4.327519500732421,-45.61832061068702,-88.56488549618321,-26.977099236641223
6311377096236,4.101145988,3,-2.2936451904296873,6.625953094482422,-5.163095880126953,-42.83969465648855,-120.86259541984732,-28.793893129770993
6311384458267,4.108508019,3,-2.867056488037109,7.100005023193359,-5.476736297607421,-52.045801526717554,-120.73282442748092,-31.31297709923664
6311391804674,4.115854426,3,-3.0645781249999997,7.382520819091797,-5.759252093505859,-77.70992366412214,-121.8473282442748,-29.396946564885496
6311399169830,4.123219582,3,-3.380612744140625,7.771578588867187,-6.4080807434082026,-83.07633587786259,-127.12213740458016,-25.870229007633586
6311406529101,4.130578853,3,-3.5482068603515624,7.851784344482422,-6.740874774169922,-81.22137404580153,-127.51908396946565,-19.129770992366414
6311413849361,4.137899113,3,-4.029441394042968,8.092401611328125,-7.127538342285156,-59.87022900763359,-119.58015267175573,-16.61832061068702
6311421213528,4.14526328,3,-4.170699291992188,8.245630517578125,-7.3669585083007805,-49.656488549618324,-109.65648854961832,-10.038167938931299
6311428547017,4.152596769,3,-4.247313745117188,8.434772448730468,-7.811082916259765,-42.099236641221374,-105.31297709923665,-4.297709923664122
6311435861132,4.159910884,3,-4.319139794921875,8.462305767822265,-7.933187200927734,-42.725190839694655,-97.4885496183206,9.48091603053435
6311443307174,4.167356926,3,-4.197035510253906,8.336610180664062,-8.204929089355469,-40.93129770992366,-79.4885496183206,15.389312977099237
6311450639830,4.174689582,3,-4.076128326416016,8.2743609375,-8.313865264892577,-36.01526717557252,-70.01526717557252,21.671755725190838
6311458006653,4.182056405,3,-4.061763116455078,7.896077075195312,-8.252813122558594,-17.862595419847327,-45.045801526717554,36.0
6311465355090,4.189404842,3,-4.103661645507812,7.641094598388672,-8.105569720458984,-6.885496183206107,-33.099236641221374,42.69465648854962
6311472702590,4.196752342,3,-4.094084838867187,7.048529687499999,-7.884106066894531,11.603053435114504,-8.854961832061068,50.38931297709924
6311480074465,4.204124217,3,-4.02824429321289,6.70975015258789,-7.639897497558593,17.083969465648856,3.0076335877862594,51.11450381679389
6311487397903,4.211447655,3,-3.870226983642578,6.1255649475097655,-7.229291912841797,22.076335877862597,23.33587786259542,46.786259541984734
6311494736497,4.218786249,3,-3.5290532470703124,5.839457849121094,-7.059303594970703,23.61832061068702,32.93129770992366,43.51908396946565
6311502011444,4.226061196,3,-3.3961750549316405,5.609614489746093,-6.822277630615234,29.625954198473284,47.57251908396947,33.86259541984733
6311509297903,4.233347655,3,-3.266888165283203,5.275623358154297,-6.34583150024414,32.0763358778626,48.20610687022901,26.022900763358777
6311516669205,4.240718957,3,-3.0597897216796874,5.213374114990234,-6.325480786132812,27.244274809160306,53.93129770992366,10.595419847328245
6311524056444,4.248106196,3,-2.741360900878906,5.123591552734375,-5.859808563232422,22.198473282442748,57.58015267175573,3.3587786259541983
6311531353476,4.255403228,3,-2.6994623718261717,5.118803149414062,-5.746083984375,17.977099236641223,54.656488549618324,-9.82442748091603
6311538764726,4.262814478,3,-2.7449522033691403,5.124788653564453,-5.548562347412109,16.16030534351145,53.603053435114504,-16.587786259541986
6311546064205,4.270113957,3,-2.8131869506835936,5.228936425781249,-5.42047255859375,16.068702290076335,51.12213740458015,-33.19847328244275
6311553413059,4.277462811,3,-2.6575638427734374,5.673060833740234,-5.471947894287109,8.404580152671755,45.16793893129771,-39.63358778625954
6311560745351,4.284795103,3,-2.5953145996093747,5.912480999755859,-5.511452221679687,1.2671755725190839,44.86259541984733,-44.56488549618321
6311568049413,4.292099165,3,-2.692279766845703,6.299144567871093,-5.358223315429687,-6.572519083969466,40.74809160305343,-48.48854961832061
6311575317226,4.299366978,3,-2.6767174560546874,6.461950280761719,-5.333084197998047,-5.9541984732824424,37.396946564885496,-49.82442748091603
6311582641184,4.306690936,3,-2.730586993408203,6.880935571289062,-5.455188482666015,-1.748091603053435,38.48091603053435,-49.541984732824424
6311589988267,4.314038019,3,-2.7269956909179687,7.034164477539062,-5.333084197998047,-0.26717557251908397,40.12977099236641,-47.57251908396947
6311597306132,4.321355884,3,-2.7461493041992187,7.094019519042968,-5.190629199218749,1.9083969465648856,42.29007633587786,-40.74045801526717
6311604667122,4.328716874,3,-2.7437551025390623,7.345410693359375,-5.153519073486327,3.4885496183206106,44.6412213740458,-36.50381679389313
6311611981288,4.33603104,3,-2.674323254394531,7.372944012451171,-4.987122058105468,9.648854961832061,49.900763358778626,-26.87786259541985
6311619325715,4.343375467,3,-2.6048914062499997,7.310694769287109,-4.703409161376952,13.854961832061068,50.717557251908396,-22.00763358778626
6311626644778,4.35069453,3,-2.4492682983398435,7.237671618652343,-4.580107775878906,18.748091603053435,52.12977099236641,-12.15267175572519
6311633989778,4.35803953,3,-2.3690625427246093,7.0090253601074215,-4.31554849243164,22.770992366412212,52.98473282442748,-7.9465648854961835
6311641398319,4.365448071,3,-2.3223756103515623,6.868964562988281,-4.067748620605468,24.50381679389313,49.83969465648855,-0.37404580152671757
6311648763267,4.372813019,3,-2.346317626953125,6.609193682861328,-3.731363287353515,25.076335877862597,43.98473282442748,1.015267175572519
6311656092694,4.380142446,3,-2.2840683837890623,6.441599566650391,-3.745728497314453,23.259541984732824,37.7557251908397,3.0381679389312977
6311663465871,4.387515623,3,-2.224213342285156,6.290764862060547,-3.718195178222656,16.27480916030534,28.755725190839694,3.2977099236641223
6311670762330,4.394812082,3,-2.020706201171875,6.281188055419921,-3.592499591064453,13.702290076335878,24.732824427480917,-1.4198473282442747
6311678109257,4.402159009,3,-1.9069816223144531,6.092046124267577,-3.660734338378906,9.15267175572519,4.221374045801527,1.7557251908396947
6311685414726,4.409464478,3,-1.8842367065429686,6.198588098144531,-3.7816415222167965,6.687022900763359,-4.709923664122138,-2.9770992366412212
6311692768059,4.416817811,3,-1.8602946899414061,6.063315704345703,-3.9372646301269527,1.2671755725190839,-14.053435114503817,1.213740458015267
6311700078163,4.424127915,3,-1.879448303222656,6.121973645019531,-3.9612066467285154,-1.633587786259542,-26.053435114503817,0.25190839694656486
6311707387174,4.431436926,3,-2.062604730224609,5.986701251220703,-4.240131140136718,-11.916030534351146,-41.32824427480916,0.9083969465648855
6311714717278,4.43876703,3,-2.3439234252929686,6.206967803955078,-4.420893365478515,-17.30534351145038,-50.916030534351144,0.42748091603053434
6311722027434,4.446077186,3,-2.4564509033203126,6.318298181152343,-4.50109912109375,-29.778625954198475,-66.80152671755725,-1.6946564885496183
6311729397694,4.453447446,3,-2.403778466796875,6.505045910644531,-5.154716174316406,-35.29007633587786,-70.16030534351145,-2.4656488549618323
6311736766913,4.460816665,3,-2.503137835693359,6.612784985351562,-5.371391424560547,-40.396946564885496,-73.81679389312977,0.7251908396946565
6311744082382,4.468132134,3,-2.8119898498535156,6.781576202392578,-5.7520694885253905,-37.80916030534351,-78.09923664122137,3.2213740458015265
6311751395090,4.475444842,3,-2.991554974365234,6.885723974609375,-5.949591125488281,-32.82442748091603,-82.23664122137404,5.793893129770993
6311758720246,4.482769998,3,-3.1794998046874996,7.023390570068359,-6.421248852539062,-29.52671755725191,-81.59541984732824,5.740458015267175
6311766100194,4.490149946,3,-3.2261867370605466,7.089231115722656,-6.5960255737304685,-33.18320610687023,-78.99236641221374,11.320610687022901
6311773416705,4.497466457,3,-3.324349005126953,7.105990527343749,-6.904877587890625,-40.274809160305345,-75.21374045801527,14.106870229007633
6311780757330,4.504807082,3,-3.3710359375,7.0473325866699215,-7.135918048095703,-39.404580152671755,-70.62595419847328,17.12213740458015
6311788079674,4.512129426,3,-3.373430139160156,6.945579016113281,-7.163451367187499,-28.091603053435115,-58.465648854961835,22.106870229007633
6311795329882,4.519379634,3,-3.451241693115234,6.890512377929687,-7.2903440551757805,-20.412213740458014,-53.06106870229008,24.022900763358777
6311802712121,4.526761873,3,-3.5326445495605467,6.667851623535156,-7.335833886718749,-9.969465648854962,-42.10687022900763,25.549618320610687
6311810162486,4.534212238,3,-3.7612908081054686,6.580463262939452,-7.2903440551757805,-9.007633587786259,-36.412213740458014,24.045801526717558
6311817444153,4.541493905,3,-3.727771984863281,6.537367633056641,-7.230489013671875,-11.396946564885496,-21.47328244274809,20.12213740458015
6311824781809,4.548831561,3,-3.488351818847656,6.281188055419921,-7.194575988769531,-11.335877862595419,-15.091603053435115,17.35114503816794
6311832096340,4.556146092,3,-3.362656231689453,6.193799694824218,-7.1203557373046875,-4.572519083969466,-3.068702290076336,14.923664122137405
6311839410611,4.563460363,3,-3.4644098022460934,6.009446166992187,-7.123947039794921,1.1068702290076335,2.2519083969465647,12.534351145038167
6311846736757,4.570786509,3,-3.4261025756835934,5.94360562133789,-6.99705435180664,9.244274809160306,12.061068702290076,5.099236641221374
6311854063632,4.578113384,3,-3.3111808959960936,5.912480999755859,-6.815095025634765,8.389312977099237,16.34351145038168,0.8473282442748091
6311861341496,4.585391248,3,-3.1842882080078123,5.869385369873046,-6.738480572509765,5.427480916030534,26.923664122137403,-5.1603053435114505
6311868845403,4.592895155,3,-3.105279553222656,5.80953032836914,-6.400898138427734,4.122137404580153,31.908396946564885,-8.083969465648854
6311876261965,4.600311717,3,-3.0992940490722654,5.761646295166015,-6.218938812255859,7.99236641221374,34.51908396946565,-15.992366412213741
6311883577382,4.607627134,3,-3.1651345947265623,5.875370874023437,-5.974730242919922,16.442748091603054,37.63358778625954,-20.557251908396946
6311890924517,4.614974269,3,-3.2441432495117186,5.972336041259766,-5.850231756591796,16.557251908396946,38.48091603053435,-26.33587786259542
6311898272694,4.622322446,3,-3.0310593017578125,6.3147068786621094,-5.878962176513672,4.99236641221374,35.19083969465649,-34.3206106870229
6311905618319,4.629668071,3,-2.8706477905273435,6.400898138427734,-5.853823059082031,-2.5267175572519083,38.38931297709924,-37.19083969465649
6311912977069,4.637026821,3,-2.674323254394531,6.676231329345702,-5.646724615478515,-3.9923664122137406,44.05343511450382,-35.83969465648855
6311920275403,4.644325155,3,-2.729389892578125,6.762422589111328,-5.537788439941406,2.549618320610687,40.48091603053435,-33.41984732824427
6311927592330,4.651642082,3,-2.81558115234375,6.864176159667968,-5.400121844482421,15.618320610687023,38.19083969465649,-30.64885496183206
6311934913892,4.658963644,3,-2.7174188842773437,6.918045697021484,-5.379771130371093,15.374045801526718,38.85496183206107,-28.83969465648855
6311942361340,4.666411092,3,-2.6048914062499997,6.913257293701172,-5.166687182617188,3.732824427480916,41.01526717557252,-21.69465648854962
6311949673111,4.673722863,3,-2.4899697265625,6.86297905883789,-4.964377142333984,0.12213740458015267,41.00763358778626,-17.740458015267176
6311957046132,4.681095884,3,-2.4193407775878906,6.785167504882812,-4.809951135253906,5.175572519083969,37.213740458015266,-9.412213740458014
6311964370611,4.688420363,3,-2.4349030883789062,6.5409589355468745,-4.696226556396484,10.641221374045802,36.68702290076336,-6.770992366412214
6311971687278,4.69573703,3,-2.3810335510253906,6.505045910644531,-4.522646936035156,15.541984732824428,33.97709923664122,-3.0763358778625953
6311978996653,4.703046405,3,-2.3977929626464842,6.325480786132812,-4.271255761718749,13.099236641221374,28.52671755725191,-0.9770992366412213
6311986359673,4.710409425,3,-2.2290017456054687,6.21175620727539,-4.256890551757812,9.725190839694656,26.16030534351145,-1.3893129770992367
6311993647330,4.717697082,3,-2.2110452331542967,6.167463476562499,-4.084508032226562,0.3969465648854962,18.022900763358777,0.015267175572519083
6312000939205,4.724988957,3,-2.212242333984375,6.081272216796875,-4.174290594482422,-3.7099236641221376,6.473282442748092,0.9694656488549618
6312008290403,4.732340155,3,-2.357091534423828,6.009446166992187,-4.2868180725097655,-11.17557251908397,-4.3893129770992365,-0.9847328244274809
6312015647121,4.739696873,3,-2.5474305664062498,6.050147595214844,-4.272452862548828,-14.65648854961832,-9.13740458015267,-2.4732824427480917
6312022962173,4.747011925,3,-2.6910826660156246,6.141127258300781,-4.507084625244141,-18.83206106870229,-21.221374045801525,-8.312977099236642
6312030337226,4.754386978,3,-2.8191724548339843,6.242880828857421,-4.7010149597167965,-20.916030534351144,-24.9618320610687,-11.877862595419847
6312037708684,4.761758436,3,-2.91134921875,6.590040069580078,-5.023035083007812,-27.778625954198475,-36.19083969465649,-18.022900763358777
6312045040663,4.769090415,3,-3.1794998046874996,6.749254479980468,-5.147533569335937,-32.458015267175576,-38.85496183206107,-18.671755725190838
6312052434621,4.776484373,3,-3.2932243835449215,6.885723974609375,-5.495889910888671,-33.87022900763359,-36.48091603053435,-20.091603053435115
6312059740298,4.78379005,3,-3.266888165283203,7.199364392089843,-5.762843395996094,-30.17557251908397,-34.961832061068705,-21.27480916030534
6312067099986,4.791149738,3,-3.265691064453125,7.406462835693359,-5.894524487304687,-23.82442748091603,-34.595419847328245,-15.946564885496183
6312074446809,4.798496561,3,-3.24294614868164,7.538143927001952,-6.155492468261718,-21.66412213740458,-32.11450381679389,-11.381679389312977
6312081717694,4.805767446,3,-3.199850518798828,7.574056951904296,-6.245275030517578,-20.732824427480917,-23.16793893129771,-1.381679389312977
6312089056028,4.81310578,3,-3.191470812988281,7.577648254394531,-6.37815322265625,-12.885496183206106,-19.366412213740457,3.366412213740458
6312096460038,4.82050979,3,-3.1208418640136717,7.530961322021484,-6.3973068359375,-8.358778625954198,-10.83206106870229,13.977099236641221
6312103808632,4.827858384,3,-3.3482910217285156,7.206546997070312,-6.206967803955078,-2.282442748091603,-10.465648854961833,19.290076335877863
6312111150090,4.835199842,3,-3.361459130859375,6.99705435180664,-6.155492468261718,1.4809160305343512,-4.709923664122138,21.53435114503817
6312118525663,4.842575415,3,-3.1376012756347653,6.74805737915039,-6.075286712646484,7.030534351145038,5.603053435114504,21.740458015267176
6312125815767,4.849865519,3,-3.0430303100585934,6.542156036376952,-5.950788226318359,7.862595419847328,6.030534351145038,22.259541984732824
6312133200871,4.857250623,3,-2.977189764404297,6.246472131347656,-5.838260748291015,8.748091603053435,12.320610687022901,24.282442748091604
6312140517121,4.864566873,3,-2.906560815429687,6.076483813476562,-5.655104321289063,10.290076335877863,14.114503816793894,22.48854961832061
6312147853892,4.871903644,3,-2.876633294677734,5.884947680664062,-5.589263775634765,12.198473282442748,14.16793893129771,17.114503816793892
6312155212798,4.87926255,3,-2.6192566162109374,5.80953032836914,-5.580884069824219,11.076335877862595,14.900763358778626,14.259541984732824
6312162535194,4.886584946,3,-2.6192566162109374,5.66946953125,-5.437231970214843,6.458015267175573,16.137404580152673,10.13740458015267
6312169828111,4.893877863,3,-2.540247961425781,5.604826086425781,-5.373785626220703,6.259541984732825,16.389312977099237,7.351145038167939
6312177212955,4.901262707,3,-2.4971523315429685,5.5545478515625,-5.222950921630859,8.625954198473282,14.633587786259541,0.4122137404580153
6312184588475,4.908638227,3,-2.464830609130859,5.670666632080078,-5.233724829101562,8.48091603053435,13.053435114503817,-2.9236641221374047
6312191914048,4.9159638,3,-2.4301146850585935,5.661089825439452,-5.218162518310547,4.854961832061068,12.687022900763358,-9.122137404580153
6312199276392,4.923326144,3,-2.3415292236328122,5.734112976074218,-5.185840795898438,3.3587786259541983,12.0,-12.053435114503817
6312206585246,4.930634998,3,-2.3523031311035156,5.832275244140624,-5.214571215820312,3.312977099236641,6.480916030534351,-15.770992366412214
6312213875507,4.937925259,3,-2.3020248962402343,5.914875201416015,-5.252878442382812,0.5648854961832062,5.358778625954199,-16.412213740458014
6312221225142,4.945274894,3,-2.300827795410156,6.010643267822266,-5.167884283447266,0.9312977099236641,6.412213740458015,-18.33587786259542
6312228668007,4.952717759,3,-2.607285607910156,6.197390997314453,-5.10084663696289,2.2977099236641223,-2.015267175572519,-18.946564885496183
6312235982642,4.960032394,3,-2.5953145996093747,6.319495281982421,-5.228936425781249,-0.7251908396946565,-8.213740458015268,-19.732824427480917
6312243492798,4.96754255,3,-2.5546131713867184,6.518214019775391,-5.3378726013183595,-14.938931297709924,-8.572519083969466,-21.137404580152673
6312250688996,4.974738748,3,-2.5474305664062498,6.554127044677734,-5.331887097167969,-19.244274809160306,-9.908396946564885,-18.83206106870229
6312257987069,4.982036821,3,-2.731784094238281,6.586448767089843,-5.31153638305664,-12.122137404580153,-14.770992366412214,-14.938931297709924
6312265283475,4.989333227,3,-3.015496990966797,6.677428430175781,-5.4887073059082025,-7.00763358778626,-18.435114503816795,-15.557251908396946
6312272554257,4.996604009,3,-3.1088708557128903,6.751648681640624,-5.680243438720702,-13.030534351145038,-23.47328244274809,-15.908396946564885
6312279845923,5.003895675,3,-3.1376012756347653,6.943184814453125,-5.846640454101562,-21.72519083969466,-24.80916030534351,-14.16030534351145
6312287389621,5.011439373,3,-3.2034418212890623,7.0281789733886715,-5.948394024658203,-30.412213740458014,-24.793893129770993,-9.900763358778626
6312294855975,5.018905727,3,-3.2884359802246093,7.0844427124023435,-6.016628771972656,-26.778625954198475,-24.862595419847327,-8.381679389312977
6312302188267,5.026238019,3,-3.373430139160156,7.105990527343749,-6.092046124267577,-15.007633587786259,-26.33587786259542,-5.801526717557252
6312309531809,5.033581561,3,-3.436876483154297,7.237671618652343,-6.222530114746093,-12.86259541984733,-24.51145038167939,-4.038167938931298
6312316852642,5.040902394,3,-3.496731524658203,7.218518005371093,-6.399701037597656,-16.763358778625953,-19.702290076335878,0.4580152671755725
6312324154621,5.048204373,3,-3.3351229125976563,7.208941198730468,-6.518214019775391,-18.47328244274809,-17.954198473282442,1.816793893129771
6312331472069,5.055521821,3,-3.2525229553222657,7.194575988769531,-6.6139820861816405,-18.778625954198475,-11.786259541984732,7.9541984732824424
6312338735142,5.062784894,3,-3.347093920898437,7.029376074218749,-6.440402465820312,-12.145038167938932,-9.145038167938932,11.603053435114504
6312346030298,5.07008005,3,-3.380612744140625,6.949170318603516,-6.424840155029297,-6.213740458015267,-7.229007633587786,12.610687022900763
6312353414725,5.077464477,3,-3.3016040893554686,6.743268975830078,-6.415263348388671,-0.24427480916030533,-2.1374045801526718,14.099236641221374
6312360761913,5.084811665,3,-3.299209887695312,6.732495068359374,-6.40329234008789,-2.9160305343511452,-1.297709923664122,13.717557251908397
6312368081757,5.092131509,3,-3.1794998046874996,6.6510922119140625,-6.459556079101562,-16.458015267175572,-1.7557251908396947,15.717557251908397
6312375379361,5.099429113,3,-3.23696064453125,6.604405279541015,-6.488286499023437,-21.297709923664122,0.8778625954198473,16.801526717557252
6312382731236,5.106780988,3,-3.190273712158203,6.4475850708007805,-6.5601125488281244,-19.328244274809162,0.916030534351145,16.396946564885496
6312390030871,5.114080623,3,-3.1687258972167966,6.458358978271484,-6.5206082214355465,-17.251908396946565,0.9007633587786259,15.877862595419847
6312397333319,5.121383071,3,-3.3387142150878906,6.4356140625,-6.555324145507812,-24.49618320610687,-6.938931297709924,15.229007633587786
6312406011288,5.13006104,3,-3.4392706848144527,6.4846951965332025,-6.715735656738281,-34.778625954198475,-6.549618320610687,7.801526717557252
6312414330663,5.138380415,3,-3.584119885253906,6.685808135986328,-6.885723974609375,-54.02290076335878,-7.6183206106870225,6.183206106870229
6312421883423,5.145933175,3,-3.6619314392089843,6.774393597412109,-7.0281789733886715,-58.63358778625954,-8.679389312977099,3.099236641221374
6312429425663,5.153475415,3,-3.821145849609375,7.004236956787109,-7.157465863037109,-53.74045801526717,-4.3893129770992365,-1.2595419847328244
6312436931965,5.160981717,3,-4.011484881591796,7.287949853515625,-7.247248425292969,-44.9236641221374,-2.633587786259542,-8.98473282442748
6312445032382,5.169082134,3,-3.9324762268066404,7.752424975585937,-7.62912359008789,-47.38931297709924,-0.29770992366412213,-9.931297709923664
6312453529465,5.177579217,3,-3.6176387084960937,7.9475524108886715,-7.729680059814453,-54.091603053435115,29.87786259541985,-7.770992366412214
6312462044777,5.186094529,3,-3.5960908935546874,8.07683930053711,-7.40526573486328,-29.82442748091603,54.70992366412214,1.0610687022900764
6312470514257,5.194564009,3,-3.384204046630859,7.930792999267577,-7.122749938964843,-9.442748091603054,67.09923664122137,6.236641221374046
6312478964465,5.203014217,3,-3.343502618408203,7.704540942382812,-6.429628558349609,26.236641221374047,104.86259541984732,13.595419847328245
6312487427173,5.211476925,3,-3.27526787109375,7.296329559326171,-5.598840582275391,45.87786259541985,133.9770992366412,20.946564885496183
6312495963007,5.220012759,3,-2.7521348083496093,6.9707181335449215,-5.064933612060546,52.83969465648855,148.53435114503816,26.587786259541986
6312504391027,5.228440779,3,-2.2756886779785157,6.4356140625,-3.9887399658203124,68.33587786259542,169.206106870229,28.229007633587788
6312512663319,5.236713071,3,-2.1452046874999997,5.887341882324218,-3.1854853088378903,82.25190839694656,170.54198473282443,29.931297709923665
6312521013423,5.245063175,3,-1.5670049865722655,5.686228942871093,-2.972401361083984,85.54961832061069,172.0229007633588,25.16793893129771
6312529384309,5.253434061,3,-0.6883329772949218,5.323507391357421,-2.242169854736328,83.16793893129771,177.26717557251908,23.625954198473284
6312537702017,5.261751769,3,-0.5805939025878906,4.945223529052734,-1.4784195251464842,77.66412213740458,164.10687022900763,26.85496183206107
6312545529100,5.269578852,3,-0.82360537109375,4.754884497070313,-1.1540052001953125,76.42748091603053,149.6793893129771,28.213740458015266
6312552891392,5.276941144,3,-0.6931213806152343,4.733336682128906,-0.8475473876953125,69.55725190839695,133.03053435114504,8.801526717557252
6312560267069,5.284316821,3,-0.3435679382324219,4.7189714721679685,-0.7888894470214843,58.6412213740458,122.36641221374046,2.404580152671756
6312567539882,5.291589634,3,0.016759411621093748,4.612429498291015,-0.8212111694335937,34.25954198473283,94.98473282442748,-7.717557251908397
6312574901704,5.298951456,3,0.39743747558593745,4.722562774658203,-0.7015010864257812,26.404580152671755,81.16793893129771,-7.770992366412214
6312582243944,5.306293696,3,0.4010287780761719,4.659116430664063,-0.6368576416015624,23.30534351145038,33.221374045801525,-16.290076335877863
6312589610767,5.313660519,3,0.22266075439453123,4.911704705810546,-0.8702923034667969,21.0381679389313,6.633587786259542,-24.12213740458015
6312596972225,5.321021977,3,0.2813186950683594,5.0769046203613275,-1.1863269226074218,1.7557251908396947,-38.68702290076336,-39.908396946564885
6312604272225,5.328321977,3,0.3028665100097656,5.533000036621093,-1.8183961608886718,-11.83969465648855,-61.87022900763359,-41.81679389312977
6312611571236,5.335620988,3,0.15203180541992187,5.835866546630859,-2.269703173828125,-28.641221374045802,-109.8473282442748,-46.05343511450382
6312618973788,5.34302354,3,-0.5398924743652344,6.302735870361328,-3.008314385986328,-57.20610687022901,-127.8854961832061,-42.282442748091604
6312626381652,5.350431404,3,-0.9121908325195311,6.669048724365234,-3.5805285827636717,-65.6793893129771,-147.18320610687022,-44.0763358778626
6312633737329,5.357787081,3,-1.6460136413574218,7.165845568847656,-4.434061474609375,-76.10687022900764,-178.9083969465649,-44.18320610687023
6312641057017,5.365106769,3,-2.053027923583984,7.510610607910156,-4.916493109130859,-80.69465648854961,-189.206106870229,-44.51908396946565
6312648443579,5.372493331,3,-2.8718448913574215,7.988253839111327,-5.6958057495117185,-87.87022900763358,-204.32824427480915,-39.61068702290076
6312655767850,5.379817602,3,-3.1974563171386716,8.219294299316406,-6.160280871582031,-90.23664122137404,-210.7709923664122,-35.412213740458014
6312663206236,5.387255988,3,-3.659537237548828,8.531737615966797,-7.017405065917968,-87.45038167938931,-205.44274809160305,-28.045801526717558
6312670515923,5.394565675,3,-3.9803602600097654,8.687360723876953,-7.248445526123047,-81.40458015267176,-197.87786259541986,-23.801526717557252
6312677817069,5.401866821,3,-4.13718046875,8.997409838867187,-7.818265521240234,-66.46564885496183,-193.64885496183206,-12.17557251908397
6312685149465,5.409199217,3,-4.429273071289062,9.04649097290039,-8.227674005126953,-61.68702290076336,-190.4732824427481,-4.312977099236641
6312692469517,5.416519269,3,-4.519055633544921,9.094375006103515,-8.817844714355468,-57.87786259541985,-170.78625954198472,12.16030534351145
6312699730454,5.423780206,3,-4.754884497070313,9.003395343017578,-8.93875189819336,-55.13740458015267,-158.77862595419847,21.099236641221374
6312707103007,5.431152759,3,-4.8650177734375,8.927977990722656,-9.063250384521483,-38.66412213740458,-134.1908396946565,34.23664122137404
6312714447069,5.438496821,3,-5.025429284667968,8.692149127197265,-9.24520971069336,-27.244274809160306,-120.80916030534351,39.954198473282446
6312721850819,5.445900571,3,-4.959588739013672,8.566453540039062,-9.414000927734374,-17.80916030534351,-92.23664122137404,49.31297709923664
6312729223527,5.453273279,3,-4.760870001220703,8.141482745361328,-9.490615380859374,-10.022900763358779,-77.45038167938931,55.61832061068702
6312736545923,5.460595675,3,-4.655525128173828,7.8350249328613275,-9.393650213623046,-8.13740458015267,-37.23664122137404,65.36641221374046
6312743844829,5.467894581,3,-4.935646722412109,7.225700610351562,-9.022548956298827,3.9083969465648853,-25.045801526717558,66.80152671755725
6312751162850,5.475212602,3,-4.726154077148437,6.8964978820800775,-9.1554271484375,11.01526717557252,-12.67175572519084,58.18320610687023
6312758514986,5.482564738,3,-4.021061688232422,6.347028601074219,-8.798691101074219,22.72519083969466,36.9236641221374,54.404580152671755
6312765799256,5.489849008,3,-3.7421371948242186,6.010643267822266,-8.364143499755858,31.297709923664122,58.30534351145038,53.18320610687023
6312773103631,5.497153383,3,-3.5338416503906247,5.313930584716797,-7.600393170166015,58.88549618320611,86.95419847328245,46.68702290076336
6312780466131,5.504515883,3,-3.484760516357422,5.087678527832031,-7.252036828613281,72.37404580152672,101.21374045801527,37.6412213740458
6312787762069,5.511811821,3,-3.2980127868652342,4.780023614501953,-6.49307490234375,80.74809160305344,122.25954198473282,16.396946564885496
6312795049309,5.519099061,3,-2.8107927490234372,4.651933825683593,-6.171054779052734,75.7175572519084,129.73282442748092,5.847328244274809
6312802426965,5.526476717,3,-2.5629928771972654,4.576516473388671,-5.396530541992187,63.2442748091603,140.78625954198472,-13.587786259541986
6312809737642,5.533787394,3,-2.117671368408203,4.571728070068359,-5.032611889648437,60.732824427480914,141.9236641221374,-22.938931297709924
6312817028371,5.541078123,3,-2.0254946044921875,4.562151263427734,-4.763264202880859,62.396946564885496,138.70229007633588,-38.68702290076336
6312824323684,5.548373436,3,-1.8531120849609375,4.748898992919922,-4.147954376220703,63.51145038167939,135.64885496183206,-46.587786259541986
6312831647225,5.555696977,3,-1.8567033874511718,4.944026428222656,-3.9636008483886718,62.152671755725194,126.0,-61.83969465648855
6312838914152,5.562963904,3,-1.8064251525878905,5.2444987365722655,-3.544615557861328,49.63358778625954,119.21374045801527,-66.3587786259542
6312846380923,5.570430675,3,-1.6328455322265625,5.415684155273437,-3.4620156005859375,41.3206106870229,113.33587786259542,-77.00763358778626
6312853699673,5.577749425,3,-1.4808137268066406,5.889736083984375,-3.1663316955566403,26.96946564885496,96.7557251908397,-77.7175572519084
6312861036548,5.5850863,3,-1.5251064575195312,6.078878015136718,-3.1783027038574216,21.206106870229007,83.09160305343511,-77.01526717557252
6312868327017,5.592376769,3,-1.5203180541992187,6.585251666259765,-3.2022447204589843,15.396946564885496,62.6793893129771,-77.42748091603053
6312875588527,5.599638279,3,-1.6065093139648436,6.828263134765624,-3.227383837890625,12.183206106870228,54.30534351145038,-77.44274809160305
6312882919881,5.606969633,3,-1.5777788940429687,7.314286071777343,-3.2800562744140622,2.267175572519084,32.55725190839695,-71.0
6312890241131,5.614290883,3,-1.6304513305664061,7.467514978027343,-3.337517114257812,-2.7709923664122136,23.068702290076335,-66.78625954198473
6312897542642,5.621592394,3,-1.6136919189453125,7.614758380126952,-3.575740179443359,-10.030534351145038,6.33587786259542,-54.2442748091603
