timestamp_ns,t_s,sensor_id,ax,ay,az,gx,gy,gz
6307447302488,0.17135224,2,-2.440888592529297,-9.191340173339842,-0.32082302246093747,-105.36641221374046,-23.198473282442748,-28.16030534351145
6307453591863,0.177641615,2,-2.999934680175781,-8.742427362060546,-0.36750995483398435,-107.8473282442748,-36.343511450381676,-30.732824427480917
6307459676446,0.183726198,2,-2.972401361083984,-8.536526019287109,-0.5877765075683593,-102.76335877862596,-53.3206106870229,-32.63358778625954
6307465641290,0.189691042,2,-2.981978167724609,-8.24802471923828,-0.8283937744140625,-89.17557251908397,-68.90076335877863,-35.20610687022901
6307471596238,0.19564599,2,-3.0633810241699218,-7.93558140258789,-1.0115502014160156,-66.2442748091603,-90.78625954198473,-40.06106870229008
6307477557644,0.201607396,2,-2.73896669921875,-7.602787371826172,-1.533486163330078,-66.02290076335878,-99.66412213740458,-39.603053435114504
6307483486915,0.207536667,2,-2.488772625732422,-7.611167077636718,-1.8375497741699218,-68.34351145038168,-101.3206106870229,-39.847328244274806
6307489458529,0.213508281,2,-2.070984436035156,-7.607575775146484,-2.014720697021484,-69.78625954198473,-93.97709923664122,-41.083969465648856
6307495371811,0.219421563,2,-2.195482922363281,-7.252036828613281,-2.001552587890625,-69.16793893129771,-77.66412213740458,-46.31297709923664
6307501252748,0.2253025,2,-2.1116858642578125,-7.126341241455077,-2.059013427734375,-78.76335877862596,-105.53435114503817,-44.94656488549618
6307507184363,0.231234115,2,-1.695094775390625,-7.204152795410156,-2.567781280517578,-89.05343511450381,-114.8854961832061,-45.18320610687023
6307513092748,0.2371425,2,-1.5203180541992187,-7.168239770507812,-2.948459344482422,-77.42748091603053,-114.8473282442748,-44.770992366412216
6307519014623,0.243064375,2,-1.4185644836425781,-7.056909393310547,-2.9496564453125,-61.70229007633588,-105.83969465648855,-42.67175572519084
6307524985821,0.249035573,2,-1.3970166687011718,-6.9515645202636716,-3.0454245117187497,-50.87786259541985,-102.00763358778626,-36.43511450381679
6307530909519,0.254959271,2,-1.5346832641601562,-6.860584857177734,-3.2166099304199216,-47.16030534351145,-103.16030534351145,-23.49618320610687
6307536756498,0.26080625,2,-1.4113818786621093,-7.034164477539062,-3.6858734558105466,-46.13740458015267,-113.29007633587786,-15.86259541984733
6307542662071,0.266711823,2,-1.3479355346679687,-7.390900524902343,-3.9228994201660154,-39.38931297709924,-109.06106870229007,-9.259541984732824
6307548553477,0.272603229,2,-1.4784195251464842,-7.396886029052734,-4.121618157958984,-31.083969465648856,-99.3587786259542,-3.8091603053435112
6307554457956,0.278507708,2,-1.7764976318359373,-7.448361364746093,-4.205415216064453,-26.984732824427482,-91.55725190839695,4.801526717557252
6307560372019,0.284421771,2,-1.924938134765625,-7.578845355224609,-4.398148449707031,-26.80916030534351,-82.3206106870229,10.801526717557252
6307566215925,0.290265677,2,-2.061407629394531,-7.821856823730468,-4.528632440185547,-29.045801526717558,-64.18320610687023,26.603053435114504
6307572151706,0.296201458,2,-2.1152771667480468,-8.377311608886718,-4.641159918212891,-15.206106870229007,-49.587786259541986,32.55725190839695
6307578058269,0.302108021,2,-2.527079852294922,-8.434772448730468,-4.6998178588867185,-4.6183206106870225,-38.25190839694657,35.603053435114504
6307584062852,0.308112604,2,-2.808398547363281,-8.64426509399414,-4.728548278808593,1.2290076335877862,-36.41984732824427,40.656488549618324
6307590006915,0.314056667,2,-2.627636322021484,-9.306261853027344,-4.8123453369140625,8.045801526717558,-35.847328244274806,45.67175572519084
6307595950456,0.320000208,2,-2.327164013671875,-9.980229620361328,-5.0014872680664055,24.786259541984734,-11.076335877862595,49.3206106870229
6307601951758,0.32600151,2,-2.2373814514160153,-10.40639751586914,-4.796783026123046,70.29770992366412,16.801526717557252,46.038167938931295
6307607886133,0.331935885,2,-2.24097275390625,-10.492588775634765,-4.687846850585937,68.27480916030534,35.68702290076336,45.12213740458015
6307613872748,0.3379225,2,-2.1918916198730467,-10.573991632080077,-4.515464331054687,51.595419847328245,53.11450381679389,42.51145038167939
6307619794779,0.343844531,2,-2.337937921142578,-10.577582934570312,-4.218583325195312,31.15267175572519,74.6412213740458,37.36641221374046
6307625716550,0.349766302,2,-2.5151088439941405,-10.309432348632813,-3.835511059570312,12.83206106870229,94.04580152671755,27.099236641221374
6307631629988,0.35567974,2,-2.729389892578125,-10.225635290527343,-3.1507693847656246,-0.6564885496183206,111.78625954198473,24.587786259541986
6307637608946,0.361658698,2,-3.0047230834960934,-9.752780462646484,-2.8119898498535156,9.885496183206106,115.87022900763358,23.625954198473284
6307643469831,0.367519583,2,-3.0897172424316404,-9.539696514892578,-2.479195819091797,26.702290076335878,117.99236641221374,23.404580152671755
6307649459363,0.373509115,2,-3.0023288818359375,-9.629479077148437,-2.1883003173828124,42.64885496183206,116.67175572519083,25.15267175572519
6307655353321,0.379403073,2,-2.887407202148437,-9.710881933593749,-1.9321207397460936,54.64885496183206,115.09160305343511,26.671755725190838
6307661304883,0.385354635,2,-2.541445062255859,-9.82460651245117,-1.6124948181152343,60.6793893129771,111.12977099236642,24.900763358778626
6307667226967,0.391276719,2,-2.4301146850585935,-9.989806427001952,-1.218648645019531,54.465648854961835,105.76335877862596,21.114503816793892
6307673132696,0.397182448,2,-2.384624853515625,-9.94671079711914,-0.9337386474609375,44.038167938931295,98.19847328244275,16.099236641221374
6307679024988,0.40307474,2,-1.9213468322753906,-10.175357055664062,-0.8188169677734375,34.656488549618324,93.33587786259542,12.305343511450381
6307684943060,0.408992812,2,-2.1643583007812497,-9.74200655517578,-0.5422866760253906,29.84732824427481,87.29007633587786,0.13740458015267176
6307690877331,0.414927083,2,-2.2828712829589843,-9.312247357177734,-0.39863457641601563,14.969465648854962,42.17557251908397,-7.572519083969466
6307696825144,0.420874896,2,-1.9979612854003905,-8.984241729736327,-0.3711012573242187,-3.633587786259542,34.33587786259542,-8.244274809160306
6307702743425,0.426793177,2,-2.507926239013672,-8.70771143798828,-0.3387795349121094,2.5877862595419847,25.114503816793892,-10.854961832061068
6307708689727,0.432739479,2,-2.3834277526855465,-8.78432589111328,-0.39145197143554683,9.274809160305344,6.412213740458015,-9.48091603053435
6307714624050,0.438673802,2,-2.059013427734375,-8.971073620605468,-0.4944026428222656,19.83969465648855,-11.587786259541986,-5.297709923664122
6307720542279,0.444592031,2,-1.936909143066406,-9.02733735961914,-0.6907271789550781,32.267175572519086,-25.282442748091604,-0.48854961832061067
6307726468269,0.450518021,2,-1.9428946472167967,-8.943540301513671,-0.968454571533203,33.916030534351144,-45.18320610687023,2.9923664122137406
6307732401394,0.456451146,2,-1.811213555908203,-9.273940130615234,-1.2521674682617188,21.572519083969464,-51.656488549618324,8.885496183206106
6307738289467,0.462339219,2,-1.946485949707031,-9.481038574218749,-1.4401122985839843,12.49618320610687,-51.732824427480914,13.236641221374045
6307744235717,0.468285469,2,-2.0829554443359375,-9.645041387939452,-1.6316484313964843,7.404580152671755,-51.56488549618321,15.648854961832061
6307750148738,0.47419849,2,-2.2864625854492187,-9.783905084228515,-1.7968483459472655,5.687022900763359,-55.534351145038165,17.213740458015266
6307756092435,0.480142187,2,-2.4564509033203126,-9.847351428222655,-1.9309236389160156,12.0,-58.465648854961835,19.221374045801525
6307762034154,0.486083906,2,-2.741360900878906,-10.077194787597655,-2.3511060302734372,16.221374045801525,-51.18320610687023,21.091603053435115
6307767965144,0.492014896,2,-2.7557261108398436,-10.199299072265624,-2.498349432373047,17.908396946564885,-44.54961832061068,23.15267175572519
6307773961967,0.498011719,2,-2.7928362365722657,-10.345345373535155,-2.5953145996093747,18.137404580152673,-37.83206106870229,24.389312977099237
6307779915404,0.503965156,2,-2.9544448486328125,-10.315417852783202,-2.6048914062499997,16.72519083969466,-31.0381679389313,21.236641221374047
6307786001758,0.51005151,2,-3.123236065673828,-10.290278735351562,-2.7269956909179687,7.236641221374046,-16.770992366412212,14.091603053435115
6307792144571,0.516194323,2,-3.2884359802246093,-10.14542953491211,-2.589329095458984,4.076335877862595,-3.877862595419847,11.34351145038168
6307798119310,0.522169062,2,-3.3315316101074215,-10.02332525024414,-2.6216508178710938,3.450381679389313,9.595419847328245,8.122137404580153
6307803959154,0.528008906,2,-3.3578678283691406,-9.980229620361328,-2.6862942626953124,4.816793893129771,18.30534351145038,4.190839694656488
6307810001133,0.534050885,2,-3.2034418212890623,-9.805452899169921,-2.5330653564453125,7.595419847328245,23.717557251908396,-0.5267175572519084
6307815940873,0.539990625,2,-2.9077579162597655,-9.775525378417969,-2.4253262817382812,13.526717557251908,38.68702290076336,-8.32824427480916
6307821852019,0.545901771,2,-2.8215666564941406,-9.187748870849608,-2.152387292480469,9.320610687022901,40.083969465648856,-13.007633587786259
6307827752540,0.551802292,2,-2.655169641113281,-8.8872765625,-2.091335150146484,0.7022900763358778,37.54961832061068,-16.129770992366414
6307833645769,0.557695521,2,-2.507926239013672,-8.588001354980468,-2.1021090576171875,-3.9236641221374047,38.282442748091604,-19.35114503816794
6307839525717,0.563575469,2,-2.4133552734375,-8.33780728149414,-1.916558428955078,-3.4885496183206106,39.152671755725194,-20.72519083969466
6307845398790,0.569448542,2,-2.2876596862792966,-7.961917620849609,-1.867477294921875,-0.19083969465648856,36.0763358778626,-17.717557251908396
6307851292175,0.575341927,2,-2.1344307800292968,-7.807491613769531,-1.8818425048828125,10.801526717557252,25.47328244274809,-13.129770992366412
6307857212435,0.581262187,2,-1.8698714965820311,-7.426813549804687,-1.8543091857910154,17.328244274809162,21.114503816793892,-6.893129770992366
6307863089206,0.587138958,2,-1.638831036376953,-7.5333555236816405,-1.927332336425781,24.091603053435115,16.450381679389313,0.35877862595419846
6307868944206,0.592993958,2,-1.5358803649902344,-7.548917834472656,-1.9656395629882812,31.82442748091603,10.877862595419847,7.076335877862595
6307874815352,0.598865104,2,-1.5191209533691405,-7.592013464355468,-1.9979612854003905,38.221374045801525,4.145038167938932,13.732824427480915
6307880756185,0.604805937,2,-1.4101847778320311,-7.700949639892578,-2.0877438476562498,45.969465648854964,-1.6717557251908397,25.17557251908397
6307886615040,0.610664792,2,-1.2856862915039062,-8.051700183105469,-2.2481553588867187,49.61832061068702,-1.6793893129770991,32.13740458015267
6307892516758,0.61656651,2,-1.4640543151855467,-8.259995727539062,-2.337937921142578,53.32824427480916,0.9847328244274809,38.916030534351144
6307898338529,0.622388281,2,-1.5801730957031248,-8.450334759521484,-2.2780828796386716,56.70229007633588,5.6106870229007635,44.32824427480916
6307904230196,0.628279948,2,-1.7094599853515624,-8.607154968261717,-2.308010400390625,58.30534351145038,12.0,50.847328244274806
6307910096758,0.63414651,2,-1.8710685974121093,-8.85495484008789,-2.281674182128906,59.80152671755725,19.427480916030536,64.1145038167939
6307915971394,0.640021146,2,-1.9297265380859374,-9.221267694091797,-2.099714855957031,68.06106870229007,41.63358778625954,72.21374045801527
6307921891654,0.645941406,2,-1.8435352783203125,-10.235212097167969,-1.9991583862304687,76.62595419847328,51.66412213740458,80.5114503816794
6307927803008,0.65185276,2,-2.057816326904297,-10.388441003417968,-1.868674395751953,84.1145038167939,51.01526717557252,75.98473282442748
6307933754362,0.657804114,2,-2.5055320373535155,-10.219649786376953,-1.7298106994628906,83.61832061068702,55.35114503816794,73.19083969465649
6307939673946,0.663723698,2,-2.7473464050292966,-10.319009155273436,-1.5562310791015623,70.1526717557252,60.221374045801525,73.59541984732824
6307945522592,0.669572344,2,-2.9568390502929685,-10.554838018798828,-1.4030021728515625,55.64885496183206,85.46564885496183,77.79389312977099
6307951361342,0.675411094,2,-3.2070331237792966,-11.08395658569336,-0.8726865051269531,50.30534351145038,96.99236641221374,79.3587786259542
6307957222227,0.681271979,2,-3.408146063232422,-11.261127508544922,-0.7122749938964843,58.47328244274809,100.33587786259542,78.67175572519083
6307963134779,0.687184531,2,-3.6451720275878903,-11.265915911865234,-0.44053310546874996,65.42748091603053,97.3587786259542,72.82442748091603
6307969056446,0.693106198,2,-3.7792473205566406,-11.024101544189453,-0.34237083740234375,65.7557251908397,95.38931297709924,67.45801526717557
6307974992123,0.699041875,2,-3.957615344238281,-10.979808813476561,-0.07781155395507812,58.343511450381676,97.38931297709924,58.213740458015266
6307980883685,0.704933437,2,-4.106055847167968,-10.876858142089842,0.2932897033691406,31.870229007633586,100.44274809160305,54.099236641221374
6307986820196,0.710869948,2,-4.335899206542969,-10.82777700805664,0.6272808349609375,21.938931297709924,95.93893129770993,48.68702290076336
6307992745456,0.716795208,2,-4.3825861389160155,-10.779892974853515,0.709880792236328,18.603053435114504,89.37404580152672,43.3206106870229
6307998605717,0.722655469,2,-4.563348364257812,-10.666168395996094,0.8858546142578124,20.068702290076335,82.45038167938931,37.267175572519086
6308004469779,0.728519531,2,-4.5884874816894525,-10.544064111328124,0.9816226806640624,22.15267175572519,73.33587786259542,32.25190839694657
6308010366862,0.734416614,2,-4.672284539794922,-10.402806213378906,1.0702081420898437,21.6793893129771,51.44274809160305,20.229007633587788
6308016224362,0.740274114,2,-4.687846850585937,-10.212467181396484,1.2210428466796874,11.198473282442748,38.64885496183206,13.251908396946565
6308022112592,0.746162344,2,-4.638765716552734,-10.159794744873047,1.1731588134765625,5.595419847328245,27.480916030534353,5.022900763358779
6308028036654,0.752086406,2,-4.583699078369141,-10.03050785522461,1.2306196533203124,0.549618320610687,14.274809160305344,-3.2595419847328246
6308033982540,0.758032292,2,-4.340687609863281,-9.99220062866211,1.1156979736328125,-3.6564885496183206,-0.22900763358778625,-10.49618320610687
6308039879050,0.763928802,2,-4.067748620605468,-10.044873065185547,0.9876081848144531,-4.564885496183206,-10.267175572519085,-22.595419847328245
6308045844102,0.769893854,2,-3.9659950500488277,-9.929951385498047,0.8176198669433593,-11.374045801526718,-28.748091603053435,-26.625954198473284
6308051763790,0.775813542,2,-3.5913024902343746,-9.72285294189453,0.6117185241699218,-20.541984732824428,-39.88549618320611,-30.900763358778626
6308057693373,0.781743125,2,-3.3877953491210935,-9.592368951416015,0.44532150878906246,-29.33587786259542,-49.51908396946565,-34.038167938931295
6308063617435,0.787667187,2,-3.450044592285156,-9.34696328125,0.25258827514648435,-36.099236641221374,-59.43511450381679,-35.969465648854964
6308069518321,0.793568073,2,-3.327940307617187,-9.21887349243164,0.12090718383789062,-40.25954198473283,-67.51908396946565,-36.221374045801525
6308075370300,0.799420052,2,-3.3387142150878906,-9.102754711914063,-0.26815058593749996,-38.091603053435115,-78.78625954198473,-29.64885496183206
6308081225196,0.805274948,2,-3.3411084167480465,-9.064447485351561,-0.6572083557128906,-33.534351145038165,-82.74045801526718,-24.259541984732824
6308087144831,0.811194583,2,-3.365050433349609,-9.169792358398437,-0.8607154968261719,-28.51145038167939,-84.5114503816794,-19.236641221374047
6308093070717,0.817120469,2,-3.287238879394531,-9.306261853027344,-1.1552023010253905,-23.450381679389313,-82.18320610687023,-12.633587786259541
6308098984415,0.823034167,2,-3.2800562744140622,-9.481038574218749,-1.3467384338378905,-19.61832061068702,-77.29007633587786,-7.984732824427481
6308104917956,0.828967708,2,-3.402160559082031,-9.6151138671875,-1.5705962890624998,-19.206106870229007,-73.54198473282443,-5.679389312977099
6308110785352,0.834835104,2,-3.456030096435547,-9.685742816162108,-1.8028338500976562,-26.977099236641223,-62.717557251908396,-7.190839694656488
6308116673581,0.840723333,2,-3.8079777404785156,-9.67137760620117,-1.908178723144531,-33.7557251908397,-53.916030534351144,-8.946564885496183
6308122646185,0.846695937,2,-3.8845921936035155,-9.715670336914062,-1.9536685546875,-39.587786259541986,-44.786259541984734,-11.427480916030534
6308128717279,0.852767031,2,-4.0066964782714845,-9.7683427734375,-1.9991583862304687,-41.25954198473283,-34.69465648854962,-13.80916030534351
6308134685196,0.858734948,2,-3.9336733276367184,-9.783905084228515,-2.0733786376953125,-38.152671755725194,-24.709923664122137,-20.412213740458014
6308140618008,0.86466776,2,-3.9552211425781247,-9.661800799560547,-2.086546746826172,-26.213740458015266,-9.900763358778626,-24.755725190839694
6308146527019,0.870576771,2,-3.614047406005859,-9.431957440185545,-2.0183119995117185,-24.519083969465647,-2.83206106870229,-27.061068702290076
6308152440300,0.876490052,2,-3.3961750549316405,-9.455899456787108,-2.003946789550781,-25.923664122137403,7.511450381679389,-26.572519083969464
6308158237748,0.8822875,2,-3.076549133300781,-9.534908111572266,-1.9213468322753906,-27.267175572519083,20.137404580152673,-23.47328244274809
6308164131706,0.888181458,2,-2.7665000183105466,-9.67137760620117,-1.8231845642089843,-26.49618320610687,31.763358778625953,-20.450381679389313
6308170016342,0.894066094,2,-2.586934893798828,-9.695319622802733,-1.629254229736328,-24.6793893129771,40.10687022900763,-21.38167938931298
6308175937123,0.899986875,2,-2.5905261962890624,-9.284714038085937,-1.3527239379882812,-28.954198473282442,39.33587786259542,-22.480916030534353
6308181858060,0.905907812,2,-2.4851813232421875,-9.023746057128905,-1.2330138549804688,-36.954198473282446,38.88549618320611,-22.297709923664122
6308187754935,0.911804687,2,-2.5378537597656248,-8.86812294921875,-1.061828436279297,-45.42748091603053,38.25190839694657,-20.206106870229007
6308193711342,0.917761094,2,-2.6228479187011717,-8.693346228027343,-1.13006318359375,-50.038167938931295,36.7557251908397,-17.0381679389313
6308199615404,0.923665156,2,-2.7174188842773437,-8.602366564941406,-0.968454571533203,-48.81679389312977,32.56488549618321,-12.290076335877863
6308205518789,0.929568541,2,-2.7724855224609373,-8.467094171142577,-0.8810662109374999,-34.80152671755725,11.396946564885496,-10.801526717557252
6308211410560,0.935460312,2,-2.883815899658203,-8.313865264892577,-0.7972691528320313,-27.916030534351144,0.2748091603053435,-10.022900763358779
6308217298164,0.941347916,2,-2.8790274963378906,-8.301894256591796,-0.9409212524414062,-23.106870229007633,-9.458015267175572,-8.244274809160306
6308223176394,0.947226146,2,-2.858676782226562,-8.228871105957031,-1.052251629638672,-21.16030534351145,-16.801526717557252,-7.229007633587786
6308229095508,0.95314526,2,-2.961627453613281,-8.163030560302733,-1.0726023437499999,-23.015267175572518,-23.702290076335878,-6.9465648854961835
6308234981967,0.959031719,2,-2.972401361083984,-8.17141026611328,-1.1767501159667968,-31.954198473282442,-38.587786259541986,-9.198473282442748
6308240857123,0.964906875,2,-2.9281086303710935,-8.014590057373047,-1.4891934326171874,-33.57251908396947,-44.030534351145036,-11.870229007633588
6308246690196,0.970739948,2,-3.113659259033203,-7.9475524108886715,-1.5885528015136718,-32.52671755725191,-50.0763358778626,-13.816793893129772
6308252590196,0.976639948,2,-3.1399954772949217,-7.900865478515625,-1.7573440185546874,-29.557251908396946,-58.099236641221374,-15.374045801526718
6308258502644,0.982552396,2,-3.1747114013671873,-7.773972790527344,-1.8854338073730468,-24.717557251908396,-65.46564885496183,-16.793893129770993
6308264393998,0.98844375,2,-3.1196447631835937,-7.68059892578125,-2.1308394775390624,-18.87786259541985,-67.34351145038168,-14.229007633587786
6308270258008,0.99430776,2,-3.0502129150390624,-7.655459808349609,-2.379836450195312,-11.32824427480916,-61.17557251908397,-11.076335877862595
6308276110560,1.000160312,2,-2.9269115295410155,-7.753622076416015,-2.5917232971191404,-9.206106870229007,-59.282442748091604,-7.748091603053435
6308282007904,1.006057656,2,-2.8802245971679685,-7.91642778930664,-2.674323254394531,-6.3816793893129775,-57.595419847328245,-4.450381679389313
6308287932279,1.011982031,2,-2.797624639892578,-8.06367119140625,-2.8191724548339843,-1.2900763358778626,-51.732824427480914,-1.9465648854961832
6308293879310,1.017929062,2,-2.73896669921875,-8.170213165283203,-2.9735984619140625,4.977099236641221,-41.43511450381679,1.1908396946564885
6308299794258,1.02384401,2,-2.6503812377929687,-8.30668265991211,-2.940079638671875,9.702290076335878,-21.47328244274809,9.534351145038167
6308305704623,1.029754375,2,-2.750937707519531,-8.72087954711914,-2.9556419494628905,13.206106870229007,-18.404580152671755,10.618320610687023
6308311602227,1.035651979,2,-2.579752288818359,-8.722076647949219,-3.096899847412109,17.282442748091604,-15.259541984732824,9.793893129770993
6308317501498,1.04155125,2,-2.920926025390625,-8.486247784423828,-2.971204260253906,21.68702290076336,-8.106870229007633,8.053435114503817
6308323366967,1.047416719,2,-3.1028853515624997,-8.340201483154296,-2.9448680419921875,20.519083969465647,-4.442748091603053,7.1679389312977095
6308329225612,1.053275364,2,-3.029862200927734,-8.517372406005858,-2.901772412109375,19.419847328244273,0.8549618320610687,11.740458015267176
6308335119831,1.059169583,2,-3.0729578308105467,-8.518569506835936,-2.8191724548339843,36.01526717557252,25.770992366412212,14.053435114503817
6308340992487,1.065042239,2,-3.1567548889160153,-8.62511148071289,-2.519897247314453,42.37404580152672,31.068702290076335,16.15267175572519
6308346853633,1.070903385,2,-3.1591490905761717,-8.677783917236328,-2.4193407775878906,47.43511450381679,35.847328244274806,18.045801526717558
6308352764727,1.076814479,2,-3.2525229553222657,-8.695740429687499,-2.2062568298339844,49.99236641221374,42.51908396946565,20.450381679389313
6308358680925,1.082730677,2,-3.2333693420410152,-8.773551983642578,-2.072181536865234,49.083969465648856,46.404580152671755,23.282442748091604
6308364584623,1.088634375,2,-3.1280244689941403,-8.998606939697265,-1.8614917907714843,48.786259541984734,57.717557251908396,26.137404580152673
6308370454258,1.09450401,2,-3.294421484375,-9.265560424804686,-1.4640543151855467,53.23664122137404,59.11450381679389,26.763358778625953
6308376316810,1.100366562,2,-3.0980969482421874,-9.425971936035156,-1.3934253662109375,58.778625954198475,56.80916030534351,31.564885496183205
6308382214571,1.106264323,2,-3.1783027038574216,-9.567229833984374,-1.1540052001953125,66.12213740458016,60.030534351145036,36.45038167938932
6308388099987,1.112149739,2,-2.789244934082031,-9.89523546142578,-1.052251629638672,72.38167938931298,60.9236641221374,39.083969465648856
6308393998008,1.11804776,2,-2.886210101318359,-10.071209283447265,-0.8690952026367187,76.94656488549619,67.12213740458016,46.091603053435115
6308399891237,1.123940989,2,-3.1974563171386716,-10.052055670166014,-0.70868369140625,59.35114503816794,77.13740458015268,53.38167938931298
6308405807227,1.129856979,2,-3.6906618591308593,-10.442310540771484,-0.2645592834472656,43.282442748091604,83.53435114503817,60.12977099236641
6308411607644,1.135657396,2,-3.925293621826172,-10.838550915527343,-0.01915361328125,34.97709923664122,91.3587786259542,67.21374045801527
6308417546029,1.141595781,2,-4.14316597290039,-11.218031878662108,0.22744915771484372,37.12213740458015,95.04580152671755,70.06106870229007
6308423409883,1.147459635,2,-4.234145635986328,-11.49815347290039,0.3459621398925781,45.12977099236641,89.54198473282443,67.62595419847328
6308429276446,1.153326198,2,-4.450820886230469,-11.550825909423827,0.5147533569335937,52.541984732824424,78.76335877862596,55.06870229007634
6308435153529,1.159203281,2,-4.629188909912109,-11.766304058837889,0.6871358764648438,43.87786259541985,62.847328244274806,46.534351145038165
6308441094154,1.165143906,2,-4.934449621582031,-11.560402716064452,0.7841010437011718,29.572519083969464,61.37404580152672,35.7557251908397
6308446977123,1.171026875,2,-4.983530755615234,-11.512518682861327,0.9947907897949219,12.717557251908397,59.36641221374046,23.641221374045802
6308452873216,1.176922968,2,-4.938040924072265,-11.378443389892578,1.0726023437499999,-2.1755725190839694,53.74045801526717,10.244274809160306
6308458860612,1.182910364,2,-4.984727856445312,-11.026495745849608,1.0785878479003905,-12.259541984732824,44.43511450381679,-4.748091603053435
6308464880039,1.188929791,2,-4.917690209960937,-10.81460889892578,1.1444283935546875,-22.15267175572519,26.80916030534351,-23.15267175572519
6308470833060,1.194882812,2,-4.572925170898437,-10.46385835571289,1.1061211669921875,-23.068702290076335,15.687022900763358,-31.641221374045802
6308476772435,1.200822187,2,-4.259284753417968,-10.262745416259765,1.1192892761230469,-21.099236641221374,2.8931297709923665,-40.465648854961835
6308482681862,1.206731614,2,-3.928884924316406,-10.022128149414062,0.9947907897949219,-20.076335877862597,-10.580152671755725,-48.82442748091603
6308488564258,1.21261401,2,-3.5805285827636717,-9.80066449584961,0.7972691528320313,-23.72519083969466,-25.564885496183205,-55.083969465648856
6308494444675,1.218494427,2,-3.2213983337402343,-9.597157354736327,0.5758054992675781,-30.396946564885496,-48.7557251908397,-57.06870229007634
6308500285039,1.224334791,2,-3.1974563171386716,-9.226056097412108,0.21428104858398436,-43.847328244274806,-56.44274809160305,-53.961832061068705
6308506164258,1.23021401,2,-2.7533319091796873,-9.12310542602539,-0.016759411621093748,-46.17557251908397,-62.282442748091604,-47.49618320610687
6308512048894,1.236098646,2,-2.7174188842773437,-9.203311181640624,-0.16280571289062498,-44.80152671755725,-65.83969465648855,-38.29007633587786
6308517992487,1.242042239,2,-2.7569232116699216,-9.223661895751952,-0.35793314819335936,-40.41984732824427,-68.03053435114504,-28.786259541984734
6308523892227,1.247941979,2,-2.7724855224609373,-9.330203869628905,-0.6069301208496093,-35.87786259541985,-70.8473282442748,-16.251908396946565
6308529845196,1.253894948,2,-2.834734765625,-9.362525592041015,-0.978031378173828,-36.52671755725191,-81.43511450381679,-13.404580152671755
6308535739883,1.259789635,2,-3.284844677734375,-9.260772021484375,-1.2569558715820313,-42.778625954198475,-85.20610687022901,-11.618320610687023
6308541627591,1.265677343,2,-3.612850305175781,-9.145850341796875,-1.4963760375976562,-50.86259541984733,-84.20610687022901,-11.335877862595419
6308547495508,1.27154526,2,-3.9983167724609374,-8.98304462890625,-1.6627730529785156,-59.45038167938932,-79.66412213740458,-10.412213740458014
6308553358477,1.277408229,2,-4.369418029785156,-8.90044467163086,-1.8183961608886718,-66.17557251908397,-76.56488549618321,-9.526717557251908
6308559219310,1.283269062,2,-4.452017987060547,-8.968679418945312,-1.954865655517578,-66.52671755725191,-66.09160305343511,-11.748091603053435
6308565079675,1.289129427,2,-4.546588952636719,-8.921992486572265,-2.2445640563964844,-47.213740458015266,-59.79389312977099,-14.801526717557252
6308570938216,1.294987968,2,-4.5968671875,-8.866925848388671,-2.446874096679687,-37.152671755725194,-54.83969465648855,-18.938931297709924
6308577006550,1.301056302,2,-4.474762902832031,-8.796296899414061,-2.5941174987792968,-31.778625954198475,-49.19847328244275,-22.786259541984734
6308582999154,1.307048906,2,-4.2125978210449215,-8.808267907714843,-2.645592834472656,-30.091603053435115,-39.9236641221374,-27.251908396946565
6308588937956,1.312987708,2,-3.995922570800781,-8.796296899414061,-2.6396073303222654,-30.229007633587788,-29.80916030534351,-37.32824427480916
6308594827643,1.318877395,2,-3.716998077392578,-8.661024505615234,-2.6695348510742187,-33.13740458015267,-15.595419847328245,-41.45038167938932
6308600703060,1.324752812,2,-3.3973721557617185,-8.24802471923828,-2.5629928771972654,-34.01526717557252,-7.931297709923665,-45.23664122137404
6308606580925,1.330630677,2,-3.19865341796875,-7.991845141601562,-2.5641899780273434,-34.33587786259542,-0.25190839694656486,-46.32824427480916
6308612474831,1.336524583,2,-2.981978167724609,-7.917624890136718,-2.540247961425781,-33.02290076335878,6.198473282442748,-44.404580152671755
6308618375925,1.342425677,2,-2.8598738830566406,-7.7787611938476555,-2.512714642333984,-28.114503816793892,11.664122137404581,-42.18320610687023
6308624311133,1.348360885,2,-2.6683377502441403,-7.62912359008789,-2.360682836914062,-14.564885496183207,14.412213740458014,-35.045801526717554
6308630215821,1.354265573,2,-2.578555187988281,-7.369352709960937,-2.1966800231933594,-8.48091603053435,14.51908396946565,-28.129770992366414
6308636159727,1.360209479,2,-2.2565350646972653,-7.535749725341796,-2.272097375488281,-5.221374045801527,12.648854961832061,-20.87786259541985
6308642067800,1.366117552,2,-2.133233679199219,-7.729680059814453,-2.1787235107421874,1.3969465648854962,18.35114503816794,-12.885496183206106
6308647998789,1.372048541,2,-2.076969940185547,-7.794323504638672,-2.1823148132324217,8.977099236641221,24.65648854961832,-7.961832061068702
6308653960716,1.378010468,2,-2.0661960327148434,-7.788338000488281,-2.0733786376953125,10.297709923664122,19.748091603053435,2.2900763358778624
6308659860091,1.383909843,2,-2.0925322509765625,-8.014590057373047,-2.0266917053222655,4.312977099236641,20.083969465648856,6.763358778625954
6308665813946,1.389863698,2,-2.3678654418945313,-8.064868292236328,-1.9428946472167967,3.4656488549618323,24.549618320610687,11.992366412213741
6308671751133,1.395800885,2,-2.568978381347656,-8.263587030029296,-1.8770541015625,3.7099236641221376,27.419847328244273,18.519083969465647
6308677696550,1.401746302,2,-2.70065947265625,-8.528146313476562,-1.8459294799804686,6.923664122137405,28.114503816793892,24.709923664122137
6308683596498,1.40764625,2,-2.8431144714355465,-8.641870892333984,-1.8519149841308593,12.748091603053435,27.748091603053435,31.519083969465647
6308689466289,1.413516041,2,-3.0035259826660154,-8.846575134277343,-1.8136077575683593,22.061068702290076,25.15267175572519,33.52671755725191
6308695335143,1.419384895,2,-3.427299676513672,-9.151835845947264,-1.7226280944824217,21.50381679389313,23.954198473282442,34.29770992366412
6308701183946,1.425233698,2,-3.6523546325683593,-9.296685046386719,-1.695094775390625,19.17557251908397,23.19083969465649,33.10687022900763
6308707157800,1.431207552,2,-3.7397429931640622,-9.508571893310547,-1.618480322265625,16.801526717557252,21.16030534351145,31.419847328244273
6308713092175,1.437141927,2,-3.8798037902832028,-9.617508068847656,-1.5765817932128905,16.954198473282442,21.00763358778626,28.519083969465647
6308718980925,1.443030677,2,-3.920505218505859,-9.713276135253906,-1.458068811035156,18.984732824427482,22.19083969465649,21.33587786259542
6308724856862,1.448906614,2,-4.106055847167968,-9.943119494628906,-1.4616601135253906,22.282442748091604,23.72519083969466,17.31297709923664
6308730729362,1.454779114,2,-3.878606689453125,-9.956287603759765,-1.3455413330078123,22.49618320610687,27.625954198473284,13.381679389312977
6308736629727,1.460679479,2,-3.7720647155761715,-10.098742602539062,-1.3251906188964844,20.82442748091603,31.755725190839694,9.488549618320612
6308742534571,1.466584323,2,-3.669114044189453,-10.155006341552733,-1.2102689392089843,17.80916030534351,33.42748091603053,5.061068702290076
6308748399310,1.472449062,2,-3.537432952880859,-10.134655627441406,-1.1240776794433593,14.48091603053435,33.465648854961835,0.22137404580152673
6308754287748,1.4783375,2,-3.384204046630859,-9.97783541870117,-1.006761798095703,5.366412213740458,29.96946564885496,-10.938931297709924
6308760132383,1.484182135,2,-3.3698388366699215,-9.625887774658203,-0.7960720520019531,0.21374045801526717,26.389312977099237,-14.938931297709924
6308766017852,1.490067604,2,-3.372233038330078,-9.475053070068359,-0.8463502868652343,-2.954198473282443,24.16030534351145,-18.19083969465649
6308771916706,1.495966458,2,-3.2692823669433593,-9.329006768798827,-0.8271966735839843,-3.6106870229007635,21.65648854961832,-19.84732824427481
6308777841029,1.501890781,2,-3.1507693847656246,-9.234435803222656,-0.7314286071777343,-1.6870229007633588,17.34351145038168,-19.870229007633586
6308783761810,1.507811562,2,-3.0705636291503904,-9.154230047607422,-0.7864952453613281,1.7099236641221374,7.129770992366412,-20.14503816793893
6308789721341,1.513771093,2,-2.981978167724609,-8.979453326416015,-0.8990227233886718,5.312977099236641,0.8244274809160306,-19.72519083969466
6308795648633,1.519698385,2,-2.750937707519531,-8.975862023925782,-0.8655039001464844,4.877862595419847,-5.1603053435114505,-19.625954198473284
6308801731133,1.525780885,2,-2.721010186767578,-8.8872765625,-0.8846575134277344,3.404580152671756,-10.145038167938932,-19.03053435114504
6308807690300,1.531740052,2,-2.682702960205078,-8.858546142578124,-1.0031704956054688,1.1297709923664123,-14.022900763358779,-18.30534351145038
6308813630248,1.53768,2,-2.644395733642578,-8.82263311767578,-1.0702081420898437,-1.1068702290076335,-19.580152671755727,-14.374045801526718
6308819542123,1.543591875,2,-2.598905902099609,-8.883685260009765,-1.1635820068359375,-1.6946564885496183,-23.0,-11.221374045801527
6308825389362,1.549439114,2,-2.607285607910156,-8.896853369140624,-1.3084312072753905,1.5954198473282444,-25.977099236641223,-8.34351145038168
6308831318998,1.55536875,2,-2.6013001037597654,-8.892064965820312,-1.47482822265625,5.641221374045801,-27.793893129770993,-6.358778625954199
6308837235612,1.561285364,2,-2.5857377929687497,-8.927977990722656,-1.5406687683105469,7.6183206106870225,-29.83969465648855,-3.66412213740458
6308843144727,1.567194479,2,-2.7186159851074216,-8.94473740234375,-1.5777788940429687,7.213740458015267,-30.709923664122137,-1.6564885496183206
6308849004206,1.573053958,2,-2.7760768249511716,-8.97705912475586,-1.7477672119140624,4.480916030534351,-27.595419847328245,6.030534351145038
6308854899154,1.578948906,2,-2.877830395507812,-9.334992272949219,-1.879448303222656,5.717557251908397,-24.297709923664122,9.732824427480915
6308860743998,1.58479375,2,-2.9568390502929685,-9.560047229003906,-1.85790048828125,11.80916030534351,-17.083969465648856,14.709923664122137
6308866618373,1.590668125,2,-3.0430303100585934,-9.707290631103515,-1.8291700683593748,18.81679389312977,-11.045801526717558,18.603053435114504
6308872513737,1.596563489,2,-3.1172505615234374,-9.909600671386718,-1.8231845642089843,22.51145038167939,-7.091603053435114,21.282442748091604
6308878406810,1.602456562,2,-3.172317199707031,-10.092757098388672,-1.8698714965820311,23.38167938931298,-1.3511450381679388,26.9618320610687
6308884305456,1.608355208,2,-3.2728736694335936,-10.225635290527343,-1.7776947326660155,17.82442748091603,17.435114503816795,28.198473282442748
6308890211914,1.614261666,2,-3.5314474487304683,-10.445901843261717,-1.753752716064453,12.763358778625955,24.69465648854962,29.587786259541986
6308896174727,1.620224479,2,-3.6762966491699216,-10.575188732910156,-1.686715069580078,9.435114503816793,31.83969465648855,29.16793893129771
6308902021810,1.626071562,2,-3.7792473205566406,-10.703278521728516,-1.4879963317871092,8.923664122137405,38.099236641221374,28.770992366412212
6308907909362,1.631959114,2,-3.784035723876953,-10.742782849121093,-1.369483349609375,11.419847328244275,44.229007633587784,26.221374045801525
6308913840873,1.637890625,2,-3.6954502624511716,-10.89122335205078,-1.227028350830078,18.68702290076336,59.725190839694655,21.076335877862597
6308919730248,1.64378,2,-3.284844677734375,-10.991779821777342,-1.0019733947753906,19.435114503816795,65.7557251908397,19.595419847328245
6308925547018,1.64959677,2,-3.1555577880859373,-10.828974108886719,-0.7829039428710937,13.709923664122137,64.0381679389313,17.03053435114504
6308931443945,1.655493697,2,-3.017891192626953,-10.742782849121093,-0.6560112548828124,4.0,60.396946564885496,15.870229007633588
6308937295508,1.66134526,2,-2.96881005859375,-10.625466967773438,-0.5770026000976562,-4.9541984732824424,59.87022900763359,16.419847328244273
6308943208998,1.66725875,2,-3.210624426269531,-10.262745416259765,-0.4261678955078125,-12.290076335877863,59.534351145038165,20.763358778625953
6308949094935,1.673144687,2,-3.239354846191406,-10.317812054443358,-0.26336218261718747,-20.099236641221374,51.3206106870229,27.244274809160306
6308954984206,1.679033958,2,-3.2249896362304686,-10.461464154052734,-0.22266075439453123,-11.267175572519085,42.267175572519086,27.671755725190838
6308960862383,1.684912135,2,-3.42849677734375,-10.273519323730468,-0.16280571289062498,-3.854961832061069,27.99236641221374,25.114503816793892
6308966778373,1.690828125,2,-3.641580725097656,-10.087968695068358,-0.2813186950683594,-5.977099236641221,13.259541984732824,23.572519083969464
6308972691289,1.696741041,2,-3.7804444213867185,-10.083180291748047,-0.3124433166503906,-13.916030534351146,6.534351145038168,23.30534351145038
6308978598060,1.702647812,2,-3.910928411865234,-10.140641131591796,-0.39264907226562495,-22.9618320610687,1.6641221374045803,17.801526717557252
6308984479102,1.708528854,2,-4.016273284912109,-9.929951385498047,-0.45010991210937495,-34.412213740458014,-5.679389312977099,11.595419847328245
6308990392800,1.714442552,2,-4.405331054687499,-9.866505041503906,-0.5698199951171875,-37.43511450381679,-13.534351145038167,4.282442748091603
6308996367539,1.720417291,2,-4.375403533935547,-9.77432827758789,-0.5698199951171875,-36.595419847328245,-18.732824427480917,-4.923664122137405
6309002235508,1.72628526,2,-4.364629626464843,-9.613916766357422,-0.7398083129882812,-34.656488549618324,-22.916030534351144,-14.442748091603054
6309008168529,1.732218281,2,-4.201823913574218,-9.431957440185545,-0.8200140686035156,-34.11450381679389,-26.66412213740458,-32.55725190839695
6309014062070,1.738111822,2,-4.049792108154296,-9.169792358398437,-0.9193734375,-38.732824427480914,-27.17557251908397,-39.80916030534351
6309019962904,1.744012656,2,-3.5326445495605467,-8.705317236328124,-1.0558429321289062,-42.44274809160305,-28.977099236641223,-49.229007633587784
6309025921393,1.749971145,2,-3.375824340820312,-8.256404425048828,-1.064222637939453,-46.63358778625954,-30.480916030534353,-58.29770992366412
6309031850091,1.755899843,2,-3.208230224609375,-7.8350249328613275,-1.139639990234375,-52.61068702290076,-32.64885496183206,-64.7175572519084
6309037801706,1.761851458,2,-3.0358477050781247,-7.575254052734374,-1.2342109558105467,-57.030534351145036,-36.48091603053435,-69.68702290076335
6309043710664,1.767760416,2,-2.7712884216308593,-7.2723875427246085,-1.3275848205566405,-50.99236641221374,-48.12977099236641,-73.73282442748092
6309049625352,1.773675104,2,-2.479195819091797,-6.603208178710937,-1.4927847351074217,-44.221374045801525,-54.12977099236641,-72.90839694656489
6309055523060,1.779572812,2,-2.3870190551757813,-6.294356164550781,-1.5861585998535155,-39.58015267175573,-61.36641221374046,-69.1145038167939
6309061455977,1.785505729,2,-2.3499089294433593,-6.081272216796875,-1.7657237243652342,-37.152671755725194,-70.72519083969466,-63.51145038167939
6309067351029,1.791400781,2,-2.4301146850585935,-5.925649108886718,-1.879448303222656,-35.83969465648855,-81.3587786259542,-59.32824427480916
6309073274935,1.797324687,2,-2.402581365966797,-5.859808563232422,-2.068590234375,-32.62595419847328,-87.23664122137404,-46.961832061068705
6309079153372,1.803203124,2,-2.3511060302734372,-5.973533142089844,-2.4157494750976563,-18.85496183206107,-87.68702290076335,-38.83969465648855
6309085026758,1.80907651,2,-2.2828712829589843,-6.155492468261718,-2.5905261962890624,-10.068702290076336,-86.8473282442748,-30.53435114503817
6309090963372,1.815013124,2,-2.166752502441406,-6.331466290283203,-2.7964275390625,-2.236641221374046,-84.3206106870229,-21.30534351145038
6309096838685,1.820888437,2,-2.2158336364746094,-6.5385647338867185,-2.980781066894531,4.114503816793893,-80.00763358778626,-13.221374045801527
6309102733685,1.826783437,2,-2.473210314941406,-6.744466076660156,-3.1603461914062496,7.129770992366412,-74.78625954198473,-1.1068702290076335
6309108678789,1.832728541,2,-2.5534160705566404,-7.001842755126953,-3.287238879394531,7.190839694656488,-76.99236641221374,2.786259541984733
6309114539987,1.838589739,2,-2.6001030029296874,-7.4028715332031245,-3.537432952880859,14.961832061068701,-77.77862595419847,6.770992366412214
6309120418372,1.844468124,2,-2.8431144714355465,-7.4962453979492185,-3.6092590026855467,26.366412213740457,-64.77862595419847,10.488549618320612
6309126419518,1.85046927,2,-3.1304186706542967,-7.586027960205078,-3.6164416076660153,34.045801526717554,-45.595419847328245,17.213740458015266
6309132360143,1.856409895,2,-3.1699229980468746,-7.864952453613281,-3.6284126159667967,35.969465648854964,-28.9618320610687,26.15267175572519
6309138369518,1.86241927,2,-3.21780703125,-8.25520732421875,-3.6367923217773437,42.29007633587786,3.9770992366412212,41.030534351145036
6309144392383,1.868442135,2,-3.398569256591797,-8.902838873291016,-3.451241693115234,48.89312977099237,18.977099236641223,45.778625954198475
6309150363997,1.874413749,2,-3.399766357421875,-9.279925634765624,-3.2022447204589843,55.32824427480916,27.633587786259543,47.0763358778626
6309156301237,1.880350989,2,-3.5039141296386718,-9.455899456787108,-3.2046389221191403,62.0,29.076335877862597,47.38931297709924
6309162204883,1.886254635,2,-3.7014357666015623,-9.515754498291015,-3.0789433349609374,68.10687022900764,39.16793893129771,47.732824427480914
6309168085508,1.89213526,2,-3.8379052612304685,-9.695319622802733,-2.829946362304687,70.06870229007633,74.25190839694656,62.70992366412214
6309173987331,1.898037083,2,-3.8857892944335934,-10.465055456542968,-2.3618799377441406,71.09923664122137,100.02290076335878,73.49618320610686
6309179848372,1.903898124,2,-4.083310931396484,-10.905588562011719,-2.0661960327148434,75.62595419847328,121.26717557251908,81.70992366412214
6309185783164,1.909832916,2,-4.182670300292968,-11.314997045898437,-1.696291876220703,80.10687022900764,130.61068702290078,87.06870229007633
6309191689518,1.91573927,2,-4.471171600341797,-11.543643304443359,-1.2533645690917967,83.1526717557252,134.41221374045801,87.22137404580153
6309197621185,1.921670937,2,-4.875791680908203,-11.54244620361328,-0.8942343200683593,80.62595419847328,134.18320610687022,76.72519083969466
6309203500195,1.927549947,2,-5.276820458984375,-11.519701287841796,-0.28371289672851563,58.43511450381679,138.93893129770993,72.07633587786259
6309209454206,1.933503958,2,-5.674257934570313,-11.71482872314453,0.05985504150390625,48.25954198473283,146.59541984732823,67.31297709923665
6309215358737,1.939408489,2,-5.9591679321289055,-11.605892547607422,0.4129997863769531,41.58015267175573,150.40458015267177,57.74809160305343
6309221292227,1.945341979,2,-6.131550451660156,-11.647791076660155,0.7302315063476562,34.51145038167939,144.14503816793894,45.29770992366412
6309227196289,1.951246041,2,-5.711368060302734,-11.924321368408203,0.8367734802246093,29.34351145038168,132.14503816793894,30.480916030534353
6309233069102,1.957118854,2,-5.649118817138672,-11.724405529785155,1.1827356201171875,31.786259541984734,116.29007633587786,-2.0763358778625953
6309238934258,1.96298401,2,-5.674257934570313,-11.002553729248046,1.5789759948730469,23.19083969465649,95.94656488549619,-16.82442748091603
6309244838581,1.968888333,2,-5.097255334472656,-10.826579907226561,1.6448165405273436,9.312977099236642,81.59541984732824,-27.17557251908397
6309250742018,1.97479177,2,-4.809951135253906,-10.697293017578124,1.6927005737304686,-0.7480916030534351,73.80152671755725,-38.603053435114504
6309256678893,1.980728645,2,-4.43047017211914,-10.42555112915039,1.8279729675292968,-8.511450381679388,60.64885496183206,-49.42748091603053
6309262587331,1.986637083,2,-4.025850091552734,-10.20887587890625,1.8938135131835936,-14.977099236641221,40.083969465648856,-64.0381679389313
6309268465456,1.992515208,2,-3.6343981201171873,-10.059238275146484,1.695094775390625,-20.786259541984734,-4.0534351145038165,-68.37404580152672
6309274383529,1.998433281,2,-3.010708587646484,-9.471461767578125,1.47482822265625,-22.862595419847327,-24.0,-69.76335877862596
6309280240091,2.004289843,2,-2.682702960205078,-9.3086560546875,1.2964601989746094,-26.0,-41.23664122137404,-65.17557251908397
6309286114518,2.01016427,2,-2.4480711975097655,-9.255983618164063,1.0917559570312498,-29.18320610687023,-51.36641221374046,-58.16030534351145
6309292055664,2.016105416,2,-2.357091534423828,-9.287108239746093,0.7924807495117187,-33.717557251908396,-60.6412213740458,-49.847328244274806
6309297986549,2.022036301,2,-2.2098481323242187,-9.357737188720703,0.44532150878906246,-42.47328244274809,-84.34351145038168,-31.587786259541986
6309303896497,2.027946249,2,-2.2206220397949217,-9.702502227783203,-0.17238251953125,-42.50381679389313,-91.47328244274809,-21.87786259541985
6309309847279,2.033897031,2,-2.47081611328125,-9.80066449584961,-0.33518823242187495,-41.51908396946565,-97.97709923664122,-11.763358778625955
6309315775247,2.039824999,2,-2.731784094238281,-10.011354241943359,-0.7709329345703124,-40.961832061068705,-101.02290076335878,-1.381679389312977
6309321658789,2.045708541,2,-3.025073797607422,-10.21486138305664,-1.0366893188476562,-41.88549618320611,-99.63358778625954,9.251908396946565
6309327585456,2.051635208,2,-3.2932243835449215,-10.602722052001953,-1.2737152832031249,-44.045801526717554,-92.3969465648855,26.412213740458014
6309333458112,2.057507864,2,-3.5589807678222654,-10.89122335205078,-1.6519991455078125,-47.12977099236641,-83.3587786259542,28.221374045801525
6309339379362,2.063429114,2,-3.994725469970703,-11.34492456665039,-1.8471265808105468,-47.603053435114504,-77.02290076335878,25.977099236641223
6309345355560,2.069405312,2,-4.394557147216797,-11.19887826538086,-1.9476830505371092,-51.35114503816794,-67.85496183206106,22.27480916030534
6309351243789,2.075293541,2,-4.703409161376952,-11.154585534667968,-2.1918916198730467,-62.229007633587784,-62.099236641221374,20.045801526717558
6309357133268,2.08118302,2,-4.9260699157714845,-11.040860955810546,-2.2673089721679687,-73.76335877862596,-53.93129770992366,14.297709923664122
6309363012435,2.087062187,2,-5.1331683593749995,-11.008539233398437,-2.310404602050781,-80.41221374045801,-32.14503816793893,-0.15267175572519084
6309368938320,2.092988072,2,-5.165490081787109,-10.673351000976561,-2.4947581298828125,-76.13740458015268,-19.068702290076335,-8.01526717557252
6309374835924,2.098885676,2,-5.082890124511718,-10.414777221679687,-2.474407415771484,-71.66412213740458,-7.083969465648855,-16.625954198473284
6309380707539,2.104757291,2,-4.9416322265625,-10.174159954833984,-2.47081611328125,-70.14503816793894,1.8778625954198473,-25.893129770992367
6309386728112,2.110777864,2,-4.57771357421875,-9.859322436523437,-2.431311785888672,-70.86259541984732,11.15267175572519,-35.37404580152672
6309392695247,2.116744999,2,-4.271255761718749,-9.63307037963867,-2.4301146850585935,-72.44274809160305,30.30534351145038,-49.80152671755725
6309398560299,2.122610051,2,-3.9516298400878904,-9.165003955078124,-2.139219183349609,-74.76335877862596,39.732824427480914,-54.63358778625954
6309404403216,2.128452968,2,-3.1543606872558594,-8.85495484008789,-2.005143890380859,-73.87786259541984,45.213740458015266,-60.32824427480916
6309410294987,2.134344739,2,-2.934094134521484,-8.43357534790039,-1.7956512451171873,-74.10687022900764,44.85496183206107,-65.74045801526718
6309416149935,2.140199687,2,-2.7066449768066403,-8.016984259033203,-1.7202338928222656,-76.35114503816794,40.229007633587784,-69.93893129770993
6309422073997,2.146123749,2,-2.4779987182617185,-7.706935144042968,-1.5693991882324219,-78.74045801526718,34.14503816793893,-71.7557251908397
6309427991185,2.152040937,2,-2.4133552734375,-7.323862878417969,-1.4353238952636718,-76.63358778625954,18.633587786259543,-72.98473282442748
6309433871810,2.157921562,2,-2.080561242675781,-6.867767462158203,-1.456871710205078,-71.68702290076335,9.13740458015267,-70.41984732824427
6309439795664,2.163845416,2,-1.9416975463867185,-6.659471917724609,-1.4808137268066406,-65.16030534351145,-1.1450381679389312,-66.35114503816794
6309445818112,2.169867864,2,-1.8567033874511718,-6.655880615234374,-1.5562310791015623,-57.93129770992366,-11.748091603053435,-60.41984732824427
6309451707539,2.175757291,2,-1.6316484313964843,-6.714538555908203,-1.6124948181152343,-50.23664122137404,-23.30534351145038,-53.98473282442748
6309457603581,2.181653333,2,-1.5789759948730469,-6.791153009033203,-1.6519991455078125,-42.412213740458014,-43.00763358778626,-41.10687022900763
6309463499779,2.187549531,2,-0.36631285400390623,-6.533776330566406,-1.5370774658203123,-21.80916030534351,-7.435114503816794,-42.64885496183206
6309469450195,2.193499947,2,-1.4125789794921875,-6.585251666259765,-1.5358803649902344,-42.14503816793893,-21.068702290076335,-32.16793893129771
6309475354987,2.199404739,2,-1.4161702819824218,-6.974309436035155,-1.7848773376464844,-72.80916030534351,-64.54961832061069,-21.885496183206108
6309481246549,2.205296301,2,-1.4125789794921875,-7.325059979248047,-2.1871032165527344,-79.74045801526718,-97.46564885496183,-19.977099236641223
6309487137435,2.211187187,2,-1.6831237670898436,-7.229291912841797,-2.4588451049804685,-62.69465648854962,-111.27480916030534,-21.404580152671755
6309493002851,2.217052603,2,-1.763329522705078,-7.0281789733886715,-2.8802245971679685,-25.85496183206107,-100.19847328244275,-17.267175572519083
6309498868216,2.222917968,2,-2.6096798095703124,-6.459556079101562,-3.008314385986328,-29.083969465648856,-90.16030534351145,-12.404580152671755
6309504823164,2.228872916,2,-2.531868255615234,-6.825868933105468,-3.3075895935058592,-46.908396946564885,-99.93129770992367,-2.954198473282443
6309510713789,2.234763541,2,-2.6575638427734374,-7.0090253601074215,-3.5529952636718747,-54.61068702290076,-101.19083969465649,1.0687022900763359
6309516618633,2.240668385,2,-2.958036151123047,-7.0281789733886715,-3.6200329101562496,-51.17557251908397,-98.46564885496183,-1.2213740458015268
6309522520716,2.246570468,2,-2.981978167724609,-7.128735443115234,-3.864241479492187,-44.19083969465649,-97.13740458015268,0.48854961832061067
6309528472226,2.252521978,2,-3.058592620849609,-7.107187628173827,-4.103661645507812,-16.748091603053435,-78.51908396946565,2.595419847328244
6309534356081,2.258405833,2,-3.324349005126953,-7.155071661376953,-4.183867401123047,-11.374045801526718,-65.43511450381679,9.068702290076336
6309540275768,2.26432552,2,-3.306392492675781,-7.505822204589843,-4.3430818115234375,-11.412213740458014,-54.030534351145036,14.687022900763358
6309546151810,2.270201562,2,-3.2417490478515623,-7.800309008789062,-4.394557147216797,-12.053435114503817,-48.12977099236641,21.35114503816794
6309552045143,2.276094895,2,-3.4536358947753905,-7.931990100097655,-4.308365887451171,-7.6106870229007635,-37.725190839694655,22.236641221374047
6309557918581,2.281968333,2,-3.834313958740234,-7.903259680175781,-4.458003491210937,-5.1679389312977095,-49.595419847328245,24.564885496183205
6309563822435,2.287872187,2,-3.7337574890136715,-8.568847741699217,-4.6064439941406246,4.809160305343512,-53.79389312977099,23.61832061068702
6309569812070,2.293861822,2,-3.77326181640625,-8.546102825927735,-4.693832354736328,26.251908396946565,-37.969465648854964,19.16030534351145
6309575713893,2.299763645,2,-3.9228994201660154,-8.37611450805664,-4.6639048339843745,42.33587786259542,-17.16030534351145,16.977099236641223
6309581642070,2.305691822,2,-3.9408559326171875,-8.364143499755858,-4.6255976074218745,42.267175572519086,-1.83206106870229,19.587786259541986
6309587528268,2.31157802,2,-3.797203833007812,-8.574833245849609,-4.584896179199219,26.00763358778626,36.79389312977099,28.85496183206107
6309593401549,2.317451301,2,-3.793612530517578,-9.044096771240234,-4.183867401123047,26.0,54.2442748091603,29.198473282442748
6309599250404,2.323300156,2,-3.867832781982422,-9.117119921875,-3.9432501342773434,30.137404580152673,62.717557251908396,26.778625954198475
6309605149987,2.329199739,2,-3.886986395263672,-8.989030133056641,-3.7229835815429686,36.25190839694657,69.29770992366412,23.740458015267176
6309611011706,2.335061458,2,-4.04141240234375,-8.951920007324219,-3.4644098022460934,41.62595419847328,79.3206106870229,22.595419847328245
6309616991497,2.341041249,2,-4.060566015625,-8.926780889892578,-3.1268273681640624,43.541984732824424,87.74045801526718,22.404580152671755
6309622889779,2.346939531,2,-4.068945721435546,-9.02135185546875,-2.6946739685058594,44.49618320610687,97.54198473282443,20.587786259541986
6309628791810,2.352841562,2,-3.957615344238281,-9.18655177001953,-2.4947581298828125,47.38931297709924,99.92366412213741,18.00763358778626
6309634691133,2.358740885,2,-3.9037458068847655,-9.217676391601563,-2.1835119140624997,49.900763358778626,97.90839694656489,12.618320610687023
6309640624726,2.364674478,2,-3.805583538818359,-9.154230047607422,-2.023100402832031,50.97709923664122,93.50381679389314,5.885496183206107
6309646520820,2.370570572,2,-3.8175545471191406,-9.08479819946289,-1.7214309936523438,49.25190839694657,90.38931297709924,0.916030534351145
6309652380351,2.376430103,2,-3.7900212280273435,-8.990227233886719,-1.5777788940429687,39.17557251908397,76.92366412213741,-11.091603053435115
6309658245612,2.382295364,2,-3.6846763549804686,-8.832209924316405,-1.2521674682617188,34.916030534351144,69.38931297709924,-17.984732824427482
6309664175195,2.388224947,2,-3.535038751220703,-8.680178118896483,-1.1324573852539062,31.87786259541985,57.64885496183206,-25.572519083969464
6309670061081,2.394110833,2,-3.417722869873047,-8.505401397705077,-1.0091559997558592,30.603053435114504,41.786259541984734,-32.908396946564885
6309676025976,2.400075728,2,-3.27526787109375,-8.404844927978516,-0.9971849914550781,31.938931297709924,22.221374045801525,-39.89312977099237
6309681962331,2.406012083,2,-3.086125939941406,-8.10197841796875,-1.0390835205078124,36.94656488549618,-8.335877862595419,-50.83206106870229
6309687966341,2.412016093,2,-2.986766571044922,-7.697358337402343,-1.1061211669921875,43.47328244274809,-18.862595419847327,-52.86259541984733
6309693892643,2.417942395,2,-2.6994623718261717,-7.541735229492187,-1.2677297790527342,41.6412213740458,-31.954198473282442,-51.969465648854964
6309699830768,2.42388052,2,-2.6240450195312497,-7.448361364746093,-1.495178936767578,39.98473282442748,-43.64885496183206,-51.10687022900763
6309705813997,2.429863749,2,-2.4301146850585935,-7.4579381713867186,-1.696291876220703,40.48091603053435,-52.916030534351144,-48.7557251908397
6309711714987,2.435764739,2,-2.2385785522460937,-7.517793212890624,-1.859097589111328,45.83206106870229,-58.229007633587784,-36.55725190839695
6309717611914,2.441661666,2,-1.879448303222656,-7.844601739501953,-2.2098481323242187,67.46564885496183,-52.74809160305343,-20.885496183206108
6309723449206,2.447498958,2,-1.2114660400390624,-8.912415679931641,-2.3918074584960936,79.59541984732824,-46.778625954198475,-10.946564885496183
6309729507487,2.453557239,2,-0.8212111694335937,-9.460687860107422,-2.5761609863281247,91.70229007633588,-44.93893129770992,0.44274809160305345
6309735476185,2.459525937,2,-0.689530078125,-9.76235726928711,-2.683900061035156,98.70992366412214,-38.49618320610687,6.091603053435114
6309741382018,2.46543177,2,-0.8858546142578124,-9.775525378417969,-2.6767174560546874,93.27480916030534,-23.587786259541986,12.412213740458014
6309747316706,2.471366458,2,-1.2126631408691406,-9.858125335693359,-2.549824768066406,47.595419847328245,5.977099236641221,27.549618320610687
6309753179726,2.477229478,2,-1.8064251525878905,-10.277110626220702,-2.3032219970703123,29.717557251908396,22.80916030534351,33.16793893129771
6309759027695,2.483077447,2,-2.133233679199219,-10.332177264404296,-2.133233679199219,25.34351145038168,30.389312977099237,33.3587786259542
6309764899518,2.48894927,2,-2.5570073730468748,-10.261548315429687,-1.9656395629882812,33.770992366412216,28.458015267175572,33.61068702290076
6309770765716,2.494815468,2,-2.7916391357421872,-10.299855541992187,-1.8602946899414061,48.94656488549618,23.763358778625953,35.916030534351144
6309776632903,2.500682655,2,-2.8371289672851563,-10.615890161132812,-1.7812860351562498,66.54198473282443,21.297709923664122,53.00763358778626
6309782567331,2.506617083,2,-2.7257985900878903,-10.874463940429687,-1.7585411193847655,98.98473282442748,27.198473282442748,62.80152671755725
6309788543893,2.512593645,2,-2.730586993408203,-11.566388220214844,-1.68551796875,106.74045801526718,47.31297709923664,73.70992366412214
6309794452383,2.518502135,2,-2.85388837890625,-11.961431494140625,-1.3539210388183593,104.9618320610687,69.49618320610686,86.94656488549619
6309800323737,2.524373489,2,-3.005920184326172,-12.330138549804687,-1.1432312927246093,93.78625954198473,85.44274809160305,94.5114503816794
6309806210612,2.530260364,2,-3.047818713378906,-12.886790435791015,-0.9876081848144531,79.38931297709924,100.18320610687023,105.2442748091603
6309812073008,2.53612276,2,-3.4392706848144527,-13.24113228149414,-0.6643909606933593,59.87786259541985,137.1679389312977,111.82442748091603
6309817999883,2.542049635,2,-4.525041137695312,-13.427880010986327,0.19512743530273435,47.908396946564885,141.08396946564886,102.00763358778626
6309823970091,2.548019843,2,-4.819527941894531,-13.56674370727539,0.4991910461425781,36.38167938931298,135.85496183206106,93.14503816793894
6309829976758,2.55402651,2,-4.978742352294922,-13.658920471191406,0.8020575561523438,30.61832061068702,131.6946564885496,81.83206106870229
6309835897070,2.559946822,2,-5.3390697021484375,-13.41351480102539,1.1085153686523437,28.83206106870229,132.8854961832061,66.21374045801527
6309841880143,2.565929895,2,-5.6407391113281244,-13.029245434570312,1.3922282653808593,21.46564885496183,119.3969465648855,30.946564885496183
6309847840091,2.571889843,2,-5.8262897399902345,-12.351686364746094,1.8124106567382812,-19.893129770992367,108.20610687022901,13.206106870229007
6309853819414,2.577869166,2,-5.991489654541016,-12.008118426513672,1.9285294372558592,-39.55725190839695,94.09923664122137,-2.4580152671755724
6309859771601,2.583821353,2,-6.002263562011718,-11.514912884521484,2.029085906982422,-51.38931297709924,77.22900763358778,-22.770992366412212
6309865655456,2.589705208,2,-5.94360562133789,-11.069591375732422,2.069787335205078,-56.541984732824424,58.0763358778626,-37.954198473282446
6309871544674,2.595594426,2,-5.6766521362304685,-10.760739361572265,2.060210528564453,-58.083969465648856,35.16793893129771,-59.80152671755725
6309877470403,2.601520155,2,-5.44561167602539,-10.277110626220702,1.772906329345703,-51.31297709923664,-14.541984732824428,-68.72519083969466
6309883359935,2.607409687,2,-4.726154077148437,-9.564835632324218,1.5454571716308594,-51.900763358778626,-43.274809160305345,-77.48091603053435
6309889280455,2.613330207,2,-4.383783239746093,-9.305064752197264,1.2174515441894531,-58.16793893129771,-68.6030534351145,-78.06870229007633
6309895147278,2.61919703,2,-4.052186309814453,-9.048885174560546,0.8499415893554687,-65.87022900763358,-85.81679389312977,-79.92366412213741
6309901098685,2.625148437,2,-3.949235638427734,-8.652644799804687,0.5207388610839844,-74.07633587786259,-99.40458015267176,-83.72519083969466
6309906984726,2.631034478,2,-3.7600937072753906,-8.397662322998046,0.11372457885742186,-92.0,-126.17557251908397,-81.67175572519083
6309912965768,2.63701552,2,-3.4356793823242184,-8.054094384765625,-0.6488286499023437,-93.3206106870229,-134.36641221374046,-79.51908396946565
6309918854101,2.642903853,2,-3.227383837890625,-7.960720520019531,-1.083376251220703,-90.46564885496183,-139.24427480916032,-75.26717557251908
6309924770612,2.648820364,2,-3.1208418640136717,-7.742848168945312,-1.3826514587402343,-83.45038167938931,-141.9618320610687,-73.4885496183206
6309930674726,2.654724478,2,-3.125630267333984,-7.491456994628906,-1.7238251953125,-79.7175572519084,-144.06870229007635,-70.7557251908397
6309936586810,2.660636562,2,-3.027467999267578,-7.429207751464843,-2.099714855957031,-80.70229007633588,-140.04580152671755,-62.31297709923664
6309942448268,2.66649802,2,-2.7904420349121093,-7.311891870117187,-2.7150246826171873,-79.41984732824427,-117.05343511450381,-53.20610687022901
6309948376289,2.672426041,2,-3.1208418640136717,-6.6510922119140625,-2.427720483398437,-75.70229007633588,-68.46564885496183,-58.83206106870229
6309954311341,2.678361093,2,-3.0514100158691404,-6.653486413574218,-2.5821464904785154,-96.69465648854961,-74.63358778625954,-47.93129770992366
6309960205924,2.684255676,2,-3.1016882507324217,-6.82467183227539,-2.807201446533203,-112.64885496183206,-87.95419847328245,-45.52671755725191
6309966123008,2.69017276,2,-3.257311358642578,-6.7803791015625,-3.1112650573730467,-113.29770992366412,-106.67175572519083,-44.85496183206107
6309971982591,2.696032343,2,-3.1459809814453124,-6.815095025634765,-3.594893792724609,-71.16793893129771,-109.66412213740458,-43.83969465648855
6309977899258,2.70194901,2,-3.1184476623535153,-6.636727001953124,-3.801992236328125,-43.267175572519086,-88.61068702290076,-42.06870229007634
6309983840143,2.707889895,2,-3.0837317382812497,-6.53138212890625,-3.787627026367187,-26.770992366412212,-67.82442748091603,-36.14503816793893
6309989781289,2.713831041,2,-2.844311572265625,-6.745663177490234,-3.968389251708984,-25.977099236641223,-59.51145038167939,-26.46564885496183
6309995675039,2.719724791,2,-2.422932080078125,-7.3274541809082026,-4.149151477050781,-30.732824427480917,-58.05343511450382,-20.480916030534353
6310001548528,2.72559828,2,-2.2936451904296873,-7.588422161865234,-4.191050006103516,-30.38167938931298,-49.847328244274806,-16.198473282442748
6310007831185,2.731880937,2,-2.205059729003906,-7.631517791748046,-4.516661431884765,-16.076335877862597,-46.99236641221374,-14.312977099236642
6310014065924,2.738115676,2,-2.2002713256835937,-7.691372833251953,-4.44363828125,-8.618320610687023,-34.595419847328245,-10.541984732824428
6310019940768,2.74399052,2,-2.2864625854492187,-7.62912359008789,-4.4376527770996095,-2.5419847328244276,-14.305343511450381,-6.061068702290076
6310025921862,2.749971614,2,-2.4193407775878906,-7.589619262695312,-4.2880151733398435,-1.9694656488549618,5.32824427480916,-1.8702290076335877
6310031871445,2.755921197,2,-2.4492682983398435,-7.653065606689452,-4.070142822265625,-6.541984732824427,30.770992366412212,10.458015267175572
6310037838893,2.761888645,2,-2.7425580017089843,-7.694964135742187,-3.9420530334472654,-2.8091603053435112,42.221374045801525,13.50381679389313
6310043788164,2.767837916,2,-2.9975404785156248,-7.708132244873046,-3.6427778259277344,3.0916030534351147,51.68702290076336,16.129770992366414
6310049753737,2.773803489,2,-3.034650604248047,-7.862558251953125,-3.4392706848144527,10.16030534351145,56.396946564885496,20.213740458015266
6310055654570,2.779704322,2,-3.005920184326172,-8.021772662353515,-3.305195391845703,20.31297709923664,62.30534351145038,23.14503816793893
6310061607278,2.78565703,2,-3.0322564025878904,-8.10197841796875,-3.0933085449218747,37.61832061068702,73.61068702290076,27.755725190839694
6310067654466,2.791704218,2,-3.0454245117187497,-8.358157995605469,-2.7198130859375,39.29007633587786,74.77099236641222,29.16030534351145
6310073611289,2.797661041,2,-2.9640216552734375,-8.593986859130858,-2.528276953125,39.68702290076336,77.42748091603053,30.328244274809162
6310079514518,2.80356427,2,-3.0358477050781247,-8.777143286132812,-2.2301988464355467,40.51908396946565,80.87022900763358,30.15267175572519
6310085374153,2.809423905,2,-2.941276739501953,-9.00100114135742,-2.123656872558594,41.10687022900763,81.22900763358778,29.16030534351145
6310091238476,2.815288228,2,-2.883815899658203,-9.094375006103515,-1.9393033447265624,41.88549618320611,74.45801526717557,24.931297709923665
6310097147174,2.821196926,2,-2.882618798828125,-9.249998114013671,-1.5861585998535155,41.37404580152672,71.19083969465649,22.267175572519083
6310103048841,2.827098593,2,-2.940079638671875,-9.290699542236327,-1.4233528869628906,37.58015267175573,66.41984732824427,21.213740458015266
6310108938268,2.83298802,2,-2.9831752685546875,-9.380482104492186,-1.1743559143066407,33.954198473282446,60.3206106870229,19.763358778625953
6310114878112,2.838927864,2,-3.027467999267578,-9.41040962524414,-1.1240776794433593,31.458015267175572,52.98473282442748,17.87786259541985
6310120854153,2.844903905,2,-3.1687258972167966,-9.437942944335937,-1.0845733520507812,30.52671755725191,47.343511450381676,13.01526717557252
6310126843632,2.850893384,2,-3.2620997619628906,-9.417592230224608,-0.8846575134277344,28.740458015267176,33.030534351145036,10.15267175572519
6310132751549,2.856801301,2,-3.229778039550781,-9.540893615722656,-0.833182177734375,28.549618320610687,25.03053435114504,7.7251908396946565
6310138682799,2.862732551,2,-3.3028011901855465,-9.578003741455078,-0.8224082702636718,28.870229007633586,17.15267175572519,4.427480916030534
6310144677278,2.86872703,2,-3.277662072753906,-9.63307037963867,-0.8738836059570312,27.85496183206107,6.282442748091603,0.6793893129770993
6310150573580,2.874623332,2,-3.1543606872558594,-9.6917283203125,-0.8487444885253905,26.587786259541986,-5.068702290076335,-2.5419847328244276
6310156531549,2.880581301,2,-3.172317199707031,-9.655815295410155,-0.8056488586425781,25.46564885496183,-19.64885496183206,-9.48091603053435
6310162430664,2.886480416,2,-3.076549133300781,-9.574412438964844,-1.0965443603515623,23.580152671755727,-27.27480916030534,-12.954198473282442
6310168364414,2.892414166,2,-3.1124621582031247,-9.34696328125,-1.2054805358886718,18.870229007633586,-28.18320610687023,-17.18320610687023
6310174274570,2.898324322,2,-3.1399954772949217,-9.279925634765624,-1.1695675109863282,9.465648854961833,-28.374045801526716,-17.770992366412212
6310180152330,2.904202082,2,-3.049015814208984,-9.281122735595703,-1.313219610595703,1.0610687022900764,-32.69465648854962,-18.129770992366414
6310186051757,2.910101509,2,-2.883815899658203,-9.373299499511718,-1.380257257080078,0.9541984732824428,-39.48091603053435,-21.564885496183205
6310191978841,2.916028593,2,-2.8598738830566406,-9.126696728515624,-1.5921441040039062,16.18320610687023,-42.16793893129771,-22.17557251908397
6310197909518,2.92195927,2,-2.6396073303222654,-9.09198080444336,-1.7573440185546874,20.50381679389313,-45.091603053435115,-19.68702290076336
6310203788320,2.927838072,2,-2.579752288818359,-9.127893829345702,-1.8052280517578123,21.977099236641223,-44.51145038167939,-15.923664122137405
6310209716966,2.933766718,2,-2.4061726684570313,-9.342174877929686,-2.024297503662109,22.068702290076335,-41.41984732824427,-11.877862595419847
6310215652851,2.939702603,2,-2.2541408630371094,-9.501389288330078,-2.039859814453125,22.610687022900763,-37.045801526717554,3.6793893129770994
6310221608164,2.945657916,2,-2.048239520263672,-9.888052856445311,-2.147598889160156,34.05343511450382,-18.419847328244273,15.312977099236642
6310227534882,2.951584634,2,-1.9201497314453124,-10.765527764892578,-2.099714855957031,41.213740458015266,-11.763358778625955,25.946564885496183
6310233474674,2.957524426,2,-2.0350714111328125,-11.117475408935546,-2.085349645996094,47.00763358778626,-7.549618320610687,34.656488549618324
6310239379570,2.963429322,2,-2.2182278381347653,-11.367669482421874,-1.993172882080078,48.404580152671755,-0.9770992366412213,41.42748091603053
6310245286549,2.969336301,2,-2.5629928771972654,-11.477802758789062,-2.032677209472656,42.717557251908396,8.893129770992367,47.51145038167939
6310251137591,2.975187343,2,-2.9831752685546875,-11.660959185791015,-1.9381062438964842,30.358778625954198,34.85496183206107,55.656488549618324
6310257054414,2.981104166,2,-3.210624426269531,-11.775880865478515,-1.562216583251953,5.854961832061068,48.19847328244275,54.44274809160305
6310262937799,2.986987551,2,-4.442441180419921,-11.54244620361328,-1.369483349609375,-4.091603053435114,45.56488549618321,46.83206106870229
6310268839153,2.992888905,2,-4.693832354736328,-11.592724438476562,-1.2988544006347655,-9.419847328244275,42.030534351145036,40.62595419847328
6310274778476,2.998828228,2,-4.87100327758789,-11.501744775390625,-1.1659762084960936,-4.0,48.045801526717554,32.900763358778626
6310280686549,3.004736301,2,-4.774038110351563,-11.494562170410155,-1.0606313354492187,6.6106870229007635,56.19083969465649,17.786259541984734
6310286571862,3.010621614,2,-4.784812017822265,-11.388020196533203,-0.6236895324707031,13.251908396946565,63.908396946564885,8.465648854961833
6310292527643,3.016577395,2,-4.369418029785156,-11.195286962890624,-0.6332663391113281,3.816793893129771,63.221374045801525,-0.26717557251908397
6310298433893,3.022483645,2,-4.131194964599609,-11.110292803955078,-0.47285482788085936,-8.13740458015267,63.42748091603053,-10.458015267175572
6310304400455,3.028450207,2,-3.883395092773437,-10.906785662841797,-0.32920272827148434,-19.404580152671755,60.70992366412214,-20.50381679389313
6310310356705,3.034406457,2,-3.6008792968749996,-10.627861169433594,-0.16759411621093748,-28.00763358778626,52.770992366412216,-31.068702290076335
6310316226341,3.040276093,2,-3.418919970703125,-10.326191760253906,-0.1149216796875,-35.282442748091604,32.6412213740458,-42.29770992366412
6310322085091,3.046134843,2,-3.2525229553222657,-9.342174877929686,-0.19991583862304688,-38.29007633587786,21.84732824427481,-45.595419847328245
6310328041393,3.052091145,2,-3.171120098876953,-9.003395343017578,-0.1867477294921875,-44.274809160305345,12.564885496183207,-46.50381679389313
6310333957330,3.058007082,2,-3.1184476623535153,-8.640673791503906,-0.2920926025390625,-50.62595419847328,2.4122137404580153,-43.99236641221374
6310339895507,3.063945259,2,-3.047818713378906,-8.536526019287109,-0.3459621398925781,-53.02290076335878,-9.099236641221374,-42.274809160305345
6310345862174,3.069911926,2,-2.93050283203125,-8.323442071533202,-0.4860229370117187,-48.87022900763359,-34.56488549618321,-40.41984732824427
6310351751914,3.075801666,2,-2.887407202148437,-7.996633544921875,-0.7829039428710937,-36.86259541984733,-49.083969465648856,-40.2442748091603
6310357612278,3.08166203,2,-2.731784094238281,-7.856572747802734,-1.045069024658203,-33.656488549618324,-61.465648854961835,-39.70992366412214
6310363644466,3.087694218,2,-2.7174188842773437,-7.711723547363281,-1.2665326782226562,-33.80916030534351,-69.94656488549619,-38.80152671755725
6310369608580,3.093658332,2,-2.7557261108398436,-7.597998968505859,-1.407790576171875,-36.6412213740458,-74.56488549618321,-37.67175572519084
6310375511914,3.099561666,2,-2.7365724975585937,-7.540538128662109,-1.6615759521484375,-40.54961832061068,-76.63358778625954,-37.02290076335878
6310381453841,3.105503593,2,-2.7533319091796873,-7.584830859375,-1.9883844787597655,-42.3587786259542,-80.1526717557252,-38.412213740458014
6310387322174,3.111371926,2,-2.701856573486328,-7.396886029052734,-2.272097375488281,-39.31297709923664,-83.26717557251908,-40.213740458015266
6310393224309,3.117274061,2,-2.7150246826171873,-7.201758593749999,-2.4301146850585935,-33.82442748091603,-85.21374045801527,-41.152671755725194
6310399097174,3.123146926,2,-2.6695348510742187,-7.1407064514160155,-2.703053674316406,-29.0381679389313,-86.47328244274809,-41.88549618320611
6310405102226,3.129151978,2,-2.749740606689453,-7.029376074218749,-2.8514941772460936,-25.31297709923664,-83.70229007633588,-41.97709923664122
6310411010351,3.135060103,2,-2.6431986328124997,-6.9515645202636716,-3.0633810241699218,-21.19083969465649,-72.4885496183206,-36.00763358778626
6310416994830,3.141044582,2,-2.4779987182617185,-7.01620796508789,-3.2549171569824216,-16.931297709923665,-60.534351145038165,-30.00763358778626
6310422899153,3.146948905,2,-2.422932080078125,-7.122749938964843,-3.3446997192382812,-11.610687022900763,-49.67175572519084,-24.763358778625953
6310428725664,3.152775416,2,-2.531868255615234,-7.196970190429687,-3.324349005126953,-6.114503816793893,-40.465648854961835,-19.603053435114504
6310434689518,3.15873927,2,-2.436100189208984,-7.370549810791015,-3.2704794677734372,-1.450381679389313,-34.786259541984734,-16.954198473282442
6310440589570,3.164639322,2,-2.2780828796386716,-7.528567120361328,-3.4572271972656248,5.3893129770992365,-36.62595419847328,-12.206106870229007
6310446467487,3.170517239,2,-2.2026655273437497,-7.487865692138671,-3.5517981628417967,28.946564885496183,-24.068702290076335,-6.206106870229007
6310452370195,3.176419947,2,-2.2158336364746094,-7.68658442993164,-3.5302503479003904,32.47328244274809,-10.778625954198473,3.0610687022900764
6310458258164,3.182307916,2,-2.100911956787109,-8.042123376464843,-3.392583752441406,32.99236641221374,0.1984732824427481,13.98473282442748
6310464229518,3.18827927,2,-2.0877438476562498,-8.31865366821289,-3.4093431640625,36.9236641221374,12.427480916030534,23.17557251908397
6310470127018,3.19417677,2,-2.1739351074218747,-8.524555010986328,-3.2417490478515623,43.274809160305345,25.49618320610687,31.14503816793893
6310476067695,3.200117447,2,-2.3163901062011716,-8.748412866210938,-2.9939491760253905,48.961832061068705,40.030534351145036,45.58015267175573
6310481993372,3.206043124,2,-2.493561029052734,-9.296685046386719,-2.8562825805664063,51.80152671755725,50.274809160305345,52.87022900763359
6310487917226,3.211966978,2,-2.788047833251953,-9.519345800781249,-2.655169641113281,54.85496183206107,60.87786259541985,59.37404580152672
6310493871653,3.217921405,2,-2.9831752685546875,-9.853336932373047,-2.3834277526855465,57.01526717557252,67.67175572519083,65.8854961832061
6310499829830,3.223879582,2,-3.1304186706542967,-10.351330877685546,-2.2014684265136717,59.954198473282446,72.12977099236642,73.63358778625954
6310505776132,3.229825884,2,-3.2166099304199216,-10.760739361572265,-2.128445275878906,77.6030534351145,87.0,82.29007633587786
6310511578476,3.235628228,2,-3.4859576171874997,-11.366472381591796,-1.610100616455078,82.07633587786259,96.8473282442748,85.03053435114504
6310517480716,3.241530468,2,-4.021061688232422,-11.660959185791015,-1.2413935607910156,78.8854961832061,106.14503816793894,88.08396946564885
6310523349674,3.247399426,2,-4.234145635986328,-12.039243048095702,-1.0390835205078124,70.36641221374046,113.50381679389314,88.46564885496183
6310529307122,3.253356874,2,-4.423287567138671,-12.376825482177734,-0.7637503295898437,60.93129770992366,119.27480916030534,83.38931297709924
6310535207695,3.259257447,2,-4.467580297851562,-12.676100689697265,-0.4644751220703125,53.595419847328245,125.74045801526718,63.732824427480914
6310541136028,3.26518578,2,-4.492719415283203,-12.72398472290039,0.28012159423828126,41.89312977099237,127.74809160305344,48.6412213740458
6310547052382,3.271102134,2,-4.973953948974609,-12.185289349365233,0.469263525390625,26.389312977099237,114.98473282442748,31.49618320610687
6310552995820,3.277045572,2,-5.0182466796875,-11.902773553466796,0.6596025573730468,8.297709923664122,101.48091603053435,15.65648854961832
6310558892747,3.282942499,2,-4.961982940673828,-11.546037506103515,0.8858546142578124,-5.3893129770992365,95.08396946564885,2.5343511450381677
6310564756028,3.28880578,2,-4.872200378417968,-11.295843432617186,1.1001356628417969,-12.740458015267176,89.20610687022901,-10.114503816793894
6310570625351,3.294675103,2,-4.637568615722656,-11.081562384033202,1.1109095703125,-14.648854961832061,65.42748091603053,-30.52671755725191
6310576472226,3.300521978,2,-4.590881683349609,-10.345345373535155,1.351526837158203,-16.908396946564885,50.587786259541986,-39.74045801526717
6310582339674,3.306389426,2,-3.9899370666503904,-10.0748005859375,1.2964601989746094,-24.458015267175572,29.30534351145038,-46.541984732824424
6310588235924,3.312285676,2,-3.5901053894042967,-9.911994873046874,1.2318167541503906,-32.57251908396947,6.534351145038168,-51.62595419847328
6310594091914,3.318141666,2,-3.276464971923828,-9.641450085449218,1.061828436279297,-35.89312977099237,-12.725190839694656,-56.31297709923664
6310600025820,3.324075572,2,-3.056198419189453,-9.406818322753905,0.8930372192382812,-36.916030534351144,-30.885496183206108,-58.20610687022901
6310605906393,3.329956145,2,-2.893392706298828,-9.191340173339842,0.4860229370117187,-40.213740458015266,-66.87786259541984,-54.732824427480914
6310611824986,3.335874738,2,-2.6815058593749996,-9.041702569580078,0.13407529296874998,-41.35114503816794,-80.04580152671755,-49.25190839694657
6310617768268,3.34181802,2,-2.488772625732422,-9.004592443847656,-0.15322890625,-41.412213740458014,-91.06870229007633,-43.11450381679389
6310623630872,3.347680624,2,-2.424129180908203,-9.093177905273437,-0.5997475158691405,-40.31297709923664,-101.56488549618321,-36.06106870229008
6310629554622,3.353604374,2,-2.416946575927734,-9.166201055908203,-1.0235212097167967,-39.786259541984734,-108.67175572519083,-29.52671755725191
6310635440664,3.359490416,2,-2.4851813232421875,-9.293093743896485,-1.2306196533203124,-41.412213740458014,-113.93893129770993,-16.61832061068702
6310641367486,3.365417238,2,-2.4779987182617185,-9.44871685180664,-1.9093758239746093,-44.30534351145038,-112.09160305343511,-13.17557251908397
6310647309049,3.371358801,2,-2.9700071594238278,-9.415198028564452,-2.1835119140624997,-48.79389312977099,-108.69465648854961,-11.580152671755725
6310653294830,3.377344582,2,-3.2261867370605466,-9.356540087890625,-2.357091534423828,-53.732824427480914,-104.21374045801527,-11.312977099236642
6310659218007,3.383267759,2,-3.404554760742187,-9.291896643066405,-2.612074011230469,-58.038167938931295,-98.74809160305344,-13.641221374045802
6310665080299,3.389130051,2,-3.535038751220703,-9.19971987915039,-2.7808652282714843,-60.29770992366412,-81.74809160305344,-19.65648854961832
6310670990351,3.395040103,2,-3.6296097167968746,-9.095572106933593,-3.084928839111328,-56.86259541984733,-70.74809160305344,-22.81679389312977
6310676854986,3.400904738,2,-3.6272155151367187,-8.838195428466797,-3.2345664428710936,-51.68702290076336,-58.38931297709924,-26.290076335877863
6310682753893,3.406803645,2,-3.506308331298828,-8.667010009765624,-3.284844677734375,-46.534351145038165,-45.6793893129771,-29.83206106870229
6310688684466,3.412734218,2,-3.4811692138671875,-8.511386901855468,-3.2357635437011716,-42.465648854961835,-33.93893129770992,-33.30534351145038
6310694588736,3.418638488,2,-3.2130186279296873,-8.38329711303711,-3.2549171569824216,-39.38931297709924,-23.870229007633586,-36.083969465648856
6310700575091,3.424624843,2,-3.037044805908203,-8.197746484375,-3.3099837951660156,-34.152671755725194,-7.587786259541985,-43.52671755725191
6310706470351,3.430520103,2,-2.5737667846679684,-7.829039428710937,-3.0035259826660154,-31.80916030534351,-0.26717557251908397,-45.76335877862596
6310712390924,3.436440676,2,-2.3618799377441406,-7.62912359008789,-2.991554974365234,-29.61832061068702,7.0458015267175576,-46.63358778625954
6310718230195,3.442279947,2,-2.1835119140624997,-7.4399816589355465,-2.943670941162109,-27.870229007633586,12.396946564885496,-46.61832061068702
6310724148841,3.448198593,2,-1.9297265380859374,-7.2532339294433585,-2.7760768249511716,-26.404580152671755,15.34351145038168,-45.85496183206107
6310730045091,3.454094843,2,-1.8100164550781248,-7.05451519165039,-2.615665313720703,-24.18320610687023,17.419847328244273,-40.3206106870229
6310735965559,3.460015311,2,-1.696291876220703,-6.591237170410156,-2.4157494750976563,-18.099236641221374,14.931297709923664,-34.88549618320611
6310742082747,3.466132499,2,-1.5406687683105469,-6.566098052978515,-2.4061726684570313,-14.931297709923664,8.236641221374045,-27.31297709923664
6310747986445,3.472036197,2,-1.8291700683593748,-6.481103894042969,-2.403778466796875,-9.16030534351145,3.0763358778625953,-17.366412213740457
6310753988268,3.47803802,2,-1.7417817077636717,-6.688202337646484,-2.422932080078125,-2.030534351145038,2.648854961832061,-5.022900763358779
6310759856549,3.483906301,2,-1.6938976745605467,-7.013813763427734,-2.4109610717773435,10.427480916030534,7.984732824427481,16.435114503816795
6310765770559,3.489820311,2,-1.7932570434570312,-7.2723875427246085,-2.3618799377441406,26.389312977099237,-0.7938931297709924,23.33587786259542
6310771695872,3.495745624,2,-2.051830822753906,-7.76319888305664,-2.4863784240722655,25.84732824427481,-10.885496183206106,30.389312977099237
6310777559726,3.501609478,2,-2.1918916198730467,-8.054094384765625,-2.4971523315429685,27.625954198473284,-12.15267175572519,35.45038167938932
6310783452643,3.507502395,2,-2.5055320373535155,-8.249221820068358,-2.4851813232421875,30.900763358778626,-6.366412213740458,40.48091603053435
6310789377486,3.513427238,2,-2.711433380126953,-8.457517364501953,-2.4851813232421875,31.404580152671755,-1.1908396946564885,46.37404580152672
6310795324830,3.519374582,2,-2.8981811096191405,-8.828618621826172,-2.5522189697265625,33.396946564885496,6.786259541984733,56.05343511450382
6310801321080,3.525370832,2,-3.1591490905761717,-9.623493572998047,-2.4875755249023435,38.79389312977099,14.13740458015267,57.33587786259542
6310807311757,3.531361509,2,-3.2166099304199216,-9.791087689208984,-2.443282794189453,43.99236641221374,19.267175572519083,59.13740458015267
6310813217695,3.537267447,2,-3.4620156005859375,-10.034099157714843,-2.2301988464355467,45.404580152671755,24.18320610687023,57.3587786259542
6310819199882,3.543249634,2,-3.6092590026855467,-10.207678778076172,-2.194285821533203,41.61832061068702,26.84732824427481,55.396946564885496
6310825069934,3.549119686,2,-3.7481226989746093,-10.359710583496094,-2.1224597717285154,36.541984732824424,38.56488549618321,50.900763358778626
6310830925247,3.554974999,2,-3.882197991943359,-10.524910498046875,-1.8339584716796873,26.00763358778626,44.343511450381676,47.58015267175573
6310837853163,3.561902915,2,-4.371812231445312,-10.593145245361328,-1.6508020446777343,21.717557251908396,47.725190839694655,44.37404580152672
6310845244674,3.569294426,2,-4.580107775878906,-10.644620581054687,-1.4006079711914061,20.30534351145038,50.83206106870229,37.48091603053435
6310852558841,3.576608593,2,-4.766855505371093,-10.73799444580078,-1.3551181396484375,23.00763358778626,51.908396946564885,33.732824427480914
6310859851549,3.583901301,2,-4.7764323120117185,-10.89840595703125,-1.1456254943847655,29.908396946564885,50.31297709923664,25.954198473282442
6310867228007,3.591277759,2,-4.563348364257812,-11.089942089843749,-0.9816226806640624,33.19847328244275,51.68702290076336,18.374045801526716
6310874566288,3.59861604,2,-4.463988995361328,-11.152191333007812,-0.8511386901855468,29.641221374045802,47.97709923664122,0.08396946564885496
6310881914153,3.605963905,2,-3.9528269409179684,-10.960655200195312,-0.7445967163085937,14.16793893129771,48.67175572519084,-9.007633587786259
6310889244570,3.613294322,2,-3.896563201904297,-10.682927807617187,-0.488417138671875,1.8549618320610688,48.13740458015267,-30.358778625954198
6310896554101,3.620603853,2,-3.5398271545410154,-10.066420880126952,-0.3591302490234375,-26.03053435114504,33.083969465648856,-39.36641221374046
6310903856288,3.62790604,2,-3.432088079833984,-9.674968908691406,-0.38187516479492184,-30.954198473282442,26.328244274809162,-52.42748091603053
6310911269726,3.635319478,2,-3.1579519897460937,-8.896853369140624,-0.32561142578124996,-25.938931297709924,7.343511450381679,-55.81679389312977
6310918585247,3.642634999,2,-2.920926025390625,-8.683769421386717,-0.4465186096191406,-20.885496183206108,-3.6793893129770994,-56.49618320610687
6310925902903,3.649952655,2,-2.261323468017578,-8.420407238769531,-0.5710170959472656,-13.068702290076336,-27.770992366412212,-53.01526717557252
6310933284986,3.657334738,2,-2.0661960327148434,-8.359355096435547,-0.7422025146484375,-11.091603053435115,-38.50381679389313,-49.717557251908396
6310940671653,3.664721405,2,-1.9883844787597655,-8.175001568603514,-1.0905588562011719,-14.82442748091603,-55.14503816793893,-41.37404580152672
6310948047851,3.672097603,2,-1.7705121276855467,-8.117540728759765,-1.3072341064453123,-20.137404580152673,-62.465648854961835,-35.656488549618324
6310955404101,3.679453853,2,-1.7872715393066405,-8.129511737060547,-1.695094775390625,-26.595419847328245,-73.16793893129771,-22.328244274809162
6310962763163,3.686812915,2,-2.024297503662109,-8.16542476196289,-1.89620771484375,-24.595419847328245,-76.09160305343511,-14.82442748091603
6310970067226,3.694116978,2,-2.120065570068359,-8.23006820678711,-2.3714567443847656,-13.068702290076336,-75.62595419847328,1.786259541984733
6310977415820,3.701465572,2,-2.454056701660156,-8.517372406005858,-2.616862414550781,-5.709923664122138,-72.27480916030534,8.938931297709924
6310984765611,3.708815363,2,-2.8024130432128906,-8.604760766601562,-2.7090391784667966,0.816793893129771,-66.90076335877863,14.664122137404581
6310992086705,3.716136457,2,-2.8754361938476563,-9.160215551757812,-3.029862200927734,4.6183206106870225,-57.51908396946565,19.870229007633586
6310999374309,3.723424061,2,-3.1016882507324217,-9.297882147216797,-3.114856359863281,11.564885496183207,-33.656488549618324,20.14503816793893
6311006703007,3.730752759,2,-3.2824504760742186,-9.418789331054686,-3.1376012756347653,10.366412213740459,-24.862595419847327,19.671755725190838
6311014005090,3.738054842,2,-3.412934466552734,-9.419986431884766,-3.106476654052734,6.259541984732825,-11.358778625954198,15.885496183206106
6311021345611,3.745395363,2,-3.6930560607910152,-9.384073406982422,-2.953247747802734,-2.885496183206107,15.98473282442748,14.106870229007633
6311028719465,3.752769217,2,-3.6655227416992187,-9.469067565917967,-2.7174188842773437,-2.8625954198473282,24.33587786259542,7.969465648854962
6311036260507,3.760310259,2,-3.517082238769531,-9.36013139038086,-2.4516625,12.80916030534351,36.69465648854962,4.458015267175573
6311043601965,3.767651717,2,-3.374627239990234,-9.351751684570312,-2.3427263244628906,19.442748091603054,39.9236641221374,2.572519083969466
6311050889570,3.774939322,2,-3.0885201416015624,-9.261969122314452,-2.0554221252441405,22.99236641221374,57.458015267175576,3.1297709923664123
6311058251861,3.782301613,2,-2.942473840332031,-9.26316622314453,-1.8351555725097655,17.801526717557252,63.62595419847328,4.770992366412214
6311065530924,3.789580676,2,-2.8945898071289062,-9.542090716552734,-1.4520833068847656,8.923664122137405,65.1145038167939,9.114503816793894
6311072867955,3.796917707,2,-2.6862942626953124,-9.60793126220703,-1.3084312072753905,11.511450381679388,66.70229007633588,12.801526717557252
6311080167643,3.804217395,2,-2.7736826232910157,-9.983820922851562,-1.0211270080566406,21.66412213740458,66.26717557251908,24.99236641221374
6311087587747,3.811637499,2,-2.6611551452636717,-10.259154113769531,-0.8894459167480468,26.48854961832061,62.87022900763359,30.900763358778626
6311094977382,3.819027134,2,-2.750937707519531,-10.497377178955077,-0.7326257080078125,30.251908396946565,61.10687022900763,41.69465648854962
6311102362070,3.826411822,2,-3.151966485595703,-10.900800158691405,-0.5243301635742187,26.0381679389313,58.37404580152672,44.98473282442748
6311109655090,3.833704842,2,-3.3399113159179685,-11.042058056640624,-0.32082302246093747,11.221374045801527,47.0763358778626,42.412213740458014
6311116973320,3.841023072,2,-3.944447235107422,-11.130643518066405,-0.3184288208007812,2.49618320610687,38.30534351145038,38.98473282442748
6311124297695,3.848347447,2,-4.10485874633789,-11.274295617675781,-0.23822306518554687,-7.816793893129771,23.229007633587788,27.480916030534353
6311131580038,3.85562979,2,-4.402936853027343,-11.131840618896483,-0.2561795776367187,-11.732824427480915,11.396946564885496,17.236641221374047
6311139028736,3.863078488,2,-4.531026641845703,-10.862492932128905,-0.3172317199707031,-17.206106870229007,2.931297709923664,-0.030534351145038167
6311146446132,3.870495884,2,-4.903325,-10.255562811279296,-0.4477157104492187,-39.69465648854962,0.5114503816793893,-8.305343511450381
6311153795455,3.877845207,2,-4.839878656005859,-10.189722265624999,-0.45968671875,-53.847328244274806,-5.4961832061068705,-24.83206106870229
6311161207226,3.885256978,2,-4.377797735595703,-9.920374578857421,-0.7015010864257812,-53.9236641221374,-17.022900763358777,-35.0763358778626
6311168544674,3.892594426,2,-4.078522528076172,-9.666589202880859,-0.8762778076171874,-45.38931297709924,-29.16030534351145,-47.19083969465649
6311175879049,3.899928801,2,-3.447650390625,-9.264363323974608,-1.1755530151367186,-36.57251908396947,-40.282442748091604,-46.7557251908397
6311183250038,3.90729979,2,-3.0825346374511717,-9.300276348876952,-1.380257257080078,-38.58015267175573,-43.18320610687023,-41.36641221374046
6311190586965,3.914636717,2,-2.5761609863281247,-9.193734375,-1.7381904052734374,-41.900763358778626,-53.33587786259542,-38.14503816793893
6311197968163,3.922017915,2,-2.6850971618652344,-8.974664923095702,-1.867477294921875,-44.343511450381676,-56.50381679389313,-36.38167938931298
6311205347017,3.929396769,2,-2.7904420349121093,-8.730456353759765,-2.2876596862792966,-54.38167938931298,-58.9236641221374,-28.946564885496183
6311212716913,3.936766665,2,-2.916137622070312,-8.64426509399414,-2.4396914916992185,-56.42748091603053,-57.19083969465649,-26.519083969465647
6311220136965,3.944186717,2,-2.980781066894531,-8.374917407226562,-2.6994623718261717,-53.465648854961835,-56.152671755725194,-24.251908396946565
6311227504778,3.95155453,2,-3.0909143432617188,-8.333018878173828,-2.8479028747558592,-48.458015267175576,-52.20610687022901,-22.35114503816794
6311234906497,3.958956249,2,-3.2070331237792966,-8.112752325439452,-3.057395520019531,-37.81679389312977,-33.23664122137404,-20.068702290076335
6311242280403,3.966330155,2,-3.1507693847656246,-8.16542476196289,-3.046621612548828,-36.3587786259542,-23.31297709923664,-18.137404580152673
6311249605559,3.973655311,2,-3.0526071166992184,-8.22288560180664,-3.1208418640136717,-33.66412213740458,-12.702290076335878,-23.572519083969464
6311256914465,3.980964217,2,-2.96881005859375,-7.941566906738281,-3.025073797607422,-32.770992366412216,-7.343511450381679,-27.80916030534351
6311264283580,3.988333332,2,-2.900575311279297,-7.807491613769531,-3.015496990966797,-32.93129770992366,-1.0687022900763359,-34.091603053435115
6311271610455,3.995660207,2,-2.7186159851074216,-7.407659936523437,-2.9041666137695312,-31.81679389312977,-0.2595419847328244,-36.725190839694655
6311278936392,4.002986144,2,-2.701856573486328,-7.225700610351562,-2.8239608581542965,-25.389312977099237,-1.9465648854961832,-38.68702290076336
6311286345976,4.010395728,2,-2.461239306640625,-6.95874712524414,-2.906560815429687,-19.251908396946565,-2.6412213740458017,-37.083969465648856
6311293713320,4.017763072,2,-2.2768857788085937,-6.919242797851562,-2.8694506896972656,-11.885496183206106,-2.0076335877862594,-27.870229007633586
6311301041757,4.025091509,2,-1.946485949707031,-7.023390570068359,-3.0035259826660154,2.282442748091603,-0.916030534351145,-20.34351145038168
6311308383267,4.032433019,2,-1.8926164123535154,-7.161057165527343,-2.943670941162109,6.099236641221374,-0.3435114503816794,-5.6106870229007635
6311315708945,4.039758697,2,-2.1727380065917967,-7.368155609130859,-2.916137622070312,6.656488549618321,-7.732824427480916,-0.7099236641221374
6311323099778,4.04714953,2,-2.1260510742187497,-7.641094598388672,-3.039439007568359,9.916030534351146,-13.580152671755725,8.083969465648854
6311330468997,4.054518749,2,-2.1631611999511717,-8.13310303955078,-3.071760729980469,34.25190839694657,-6.282442748091603,14.564885496183207
6311337862903,4.061912655,2,-2.068590234375,-8.434772448730468,-3.058592620849609,43.396946564885496,-6.061068702290076,23.114503816793892
6311345278372,4.069328124,2,-2.214636535644531,-9.004592443847656,-3.087323040771484,49.12213740458015,6.877862595419847,33.3587786259542
6311352625299,4.076675051,2,-2.3642741394042965,-9.210493786621093,-3.0430303100585934,43.20610687022901,16.27480916030534,36.045801526717554
6311359977486,4.084027238,2,-2.4097639709472656,-10.026916552734374,-2.7964275390625,31.84732824427481,22.114503816793892,40.282442748091604
6311367361028,4.09141078,2,-2.558204473876953,-10.122684619140625,-2.7078420776367187,39.32824427480916,26.541984732824428,40.38931297709924
6311374653684,4.098703436,2,-2.868253588867187,-9.976638317871092,-2.4396914916992185,47.038167938931295,39.961832061068705,39.0
6311382001445,4.106051197,2,-3.287238879394531,-10.071209283447265,-2.370259643554687,38.465648854961835,43.58015267175573,41.87786259541985
6311389361861,4.113411613,2,-3.456030096435547,-10.184933862304687,-1.9524714538574217,25.015267175572518,56.908396946564885,43.19083969465649
6311396733476,4.120783228,2,-3.7289690856933593,-10.471040960693358,-1.7896657409667969,24.984732824427482,60.847328244274806,41.603053435114504
6311404089934,4.128139686,2,-3.867832781982422,-10.524910498046875,-1.5466542724609373,31.00763358778626,58.770992366412216,35.778625954198475
6311411419778,4.13546953,2,-3.920505218505859,-10.596736547851561,-1.4018050720214843,32.3587786259542,56.16793893129771,31.870229007633586
6311418739674,4.142789426,2,-3.934870428466797,-10.651803186035156,-1.3024457031249999,28.793893129770993,55.18320610687023,24.374045801526716
6311426098892,4.150148644,2,-3.786429925537109,-10.793061083984375,-1.0330980163574217,24.541984732824428,54.01526717557252,20.458015267175572
6311433425403,4.157475155,2,-3.7600937072753906,-10.89122335205078,-0.8188169677734375,20.709923664122137,45.88549618320611,9.450381679389313
6311440852799,4.164902551,2,-3.670311145019531,-10.66137999267578,-0.7158662963867187,13.16030534351145,41.58015267175573,1.3587786259541985
6311448199517,4.172249269,2,-3.6583401367187496,-10.50815108642578,-0.6584054565429687,5.564885496183206,35.82442748091603,-10.709923664122137
6311455524205,4.179573957,2,-3.4428619873046875,-10.196904870605469,-0.5351040710449219,-11.854961832061068,22.18320610687023,-16.748091603053435
6311462910715,4.186960467,2,-3.403357659912109,-9.94671079711914,-0.4860229370117187,-15.83206106870229,14.038167938931299,-28.14503816793893
6311470259882,4.194309634,2,-3.2417490478515623,-9.373299499511718,-0.5829881042480468,-18.763358778625953,-6.916030534351145,-31.389312977099237
6311477608163,4.201657915,2,-3.1639374938964844,-9.21887349243164,-0.6141127258300781,-18.564885496183205,-16.572519083969464,-32.282442748091604
6311484950194,4.208999946,2,-2.9041666137695312,-9.038111267089842,-0.8080430603027343,-16.954198473282442,-34.2442748091603,-29.091603053435115
6311492294674,4.216344426,2,-2.7281927917480466,-9.012972149658202,-0.9888052856445312,-15.885496183206106,-43.79389312977099,-27.206106870229007
6311499604101,4.223653853,2,-2.7473464050292966,-8.926780889892578,-1.4329296936035156,-15.641221374045802,-58.35114503816794,-21.72519083969466
6311506849569,4.230899321,2,-2.518700146484375,-9.10395181274414,-1.6807295654296874,-16.0381679389313,-60.30534351145038,-16.412213740458014
6311514197799,4.238247551,2,-2.5450363647460934,-9.114725720214842,-1.9704279663085937,-18.51145038167939,-62.534351145038165,-8.50381679389313
6311521583684,4.245633436,2,-2.5905261962890624,-9.373299499511718,-2.1631611999511717,-19.022900763358777,-63.58015267175573,-5.633587786259542
6311528914205,4.252963957,2,-2.710236279296875,-9.367313995361327,-2.4875755249023435,-18.14503816793893,-59.282442748091604,-1.816793893129771
6311536313944,4.260363696,2,-2.858676782226562,-9.428366137695312,-2.6132711120605467,-18.748091603053435,-56.36641221374046,-0.29770992366412213
6311543660663,4.267710415,2,-2.9759926635742184,-9.483432775878907,-2.7844565307617186,-18.106870229007633,-40.954198473282446,4.061068702290076
6311550938007,4.274987759,2,-3.1459809814453124,-9.619902270507811,-2.9089550170898435,-17.083969465648856,-31.82442748091603,5.519083969465649
6311558312486,4.282362238,2,-3.2166099304199216,-9.673771807861328,-2.844311572265625,-16.129770992366414,-18.412213740458014,4.709923664122138
6311565613944,4.289663696,2,-3.3075895935058592,-9.677363110351562,-2.923320227050781,-12.17557251908397,-11.740458015267176,3.3969465648854964
6311572914882,4.296964634,2,-3.326743206787109,-9.589974749755859,-2.900575311279297,-11.068702290076336,-5.67175572519084,-1.6030534351145038
6311580199465,4.304249217,2,-3.412934466552734,-9.302670550537108,-2.7054478759765623,-15.969465648854962,8.854961832061068,-4.717557251908397
6311587512903,4.311562655,2,-3.5302503479003904,-9.085995300292968,-2.6312276245117188,-19.96946564885496,15.229007633587786,-6.374045801526718
6311594855403,4.318905155,2,-3.4955344238281247,-8.774749084472656,-2.3427263244628906,-22.435114503816795,24.702290076335878,-12.755725190839694
6311602199986,4.326249738,2,-3.484760516357422,-8.595183959960938,-2.2110452331542967,-20.3206106870229,26.03053435114504,-14.603053435114504
6311609542330,4.333592082,2,-3.2980127868652342,-8.303091357421874,-2.1499930908203124,-13.083969465648854,24.450381679389313,-17.374045801526716
6311616885299,4.340935051,2,-3.1962592163085937,-8.197746484375,-1.9656395629882812,-10.404580152671755,21.87786259541985,-17.709923664122137
6311624204361,4.348254113,2,-3.151966485595703,-7.999027746582031,-1.9285294372558592,-8.458015267175572,14.580152671755725,-16.49618320610687
6311631516288,4.35556604,2,-2.991554974365234,-7.961917620849609,-1.8471265808105468,-7.641221374045801,9.557251908396946,-15.648854961832061
6311638990299,4.363040051,2,-2.8467057739257813,-7.879317663574218,-1.9321207397460936,-5.221374045801527,-3.2977099236641223,-12.740458015267176
6311646297694,4.370347446,2,-2.85388837890625,-7.922413293457031,-1.839943975830078,-2.8244274809160306,-7.564885496183206,-8.717557251908397
6311653646236,4.377695988,2,-2.797624639892578,-7.960720520019531,-2.2086510314941403,2.931297709923664,-16.87786259541985,-2.351145038167939
6311661018215,4.385067967,2,-3.0214824951171875,-8.002619049072266,-2.2182278381347653,4.1603053435114505,-18.47328244274809,1.3740458015267176
6311668320403,4.392370155,2,-2.959233251953125,-8.210914593505859,-2.3546973327636715,5.877862595419847,-24.14503816793893,10.687022900763358
6311675664465,4.399714217,2,-3.189076611328125,-8.560468035888672,-2.5665841796874997,13.51908396946565,-22.580152671755727,13.82442748091603
6311682974049,4.407023801,2,-3.488351818847656,-8.687360723876953,-2.5570073730468748,17.427480916030536,-27.30534351145038,17.297709923664122
6311690323319,4.414373071,2,-3.399766357421875,-9.172186560058593,-2.8119898498535156,21.80916030534351,-21.0,14.992366412213741
6311697604257,4.421654009,2,-3.506308331298828,-9.313444458007812,-2.7928362365722657,26.80916030534351,-4.595419847328245,11.67175572519084
6311704957226,4.429006978,2,-3.2740707702636715,-9.715670336914062,-2.8036101440429686,23.450381679389313,0.11450381679389313,10.305343511450381
6311712283267,4.436333019,2,-3.1639374938964844,-9.811438403320311,-2.645592834472656,23.770992366412212,8.465648854961833,6.641221374045801
6311719584309,4.443634061,2,-3.35188232421875,-9.463082061767578,-2.6048914062499997,16.709923664122137,22.412213740458014,1.1603053435114503
6311726928944,4.450978696,2,-3.3578678283691406,-9.404424121093749,-2.4384943908691405,9.709923664122137,28.549618320610687,0.03816793893129771
6311734295663,4.458345415,2,-3.2884359802246093,-9.42956323852539,-2.139219183349609,8.732824427480915,44.67175572519084,0.7251908396946565
6311741607799,4.465657551,2,-3.1651345947265623,-9.519345800781249,-2.0446482177734375,14.694656488549619,44.51145038167939,1.1068702290076335
6311748958580,4.473008332,2,-3.0035259826660154,-9.581595043945311,-1.7896657409667969,30.85496183206107,40.76335877862596,0.29770992366412213
6311756288476,4.480338228,2,-2.826355059814453,-9.472658868408203,-1.7082628845214842,32.45038167938932,42.25190839694657,0.31297709923664124
6311763588788,4.48763854,2,-2.7329811950683593,-9.527725506591796,-1.4987702392578124,19.87786259541985,44.68702290076336,4.900763358778626
6311770981913,4.495031665,2,-2.6192566162109374,-9.773131176757811,-1.2880804931640624,13.458015267175572,44.12977099236641,5.595419847328245
6311778323632,4.502373384,2,-2.7054478759765623,-9.80066449584961,-1.3215993164062498,8.15267175572519,36.87786259541985,4.137404580152672
6311785642955,4.509692707,2,-2.797624639892578,-9.655815295410155,-1.071405242919922,7.450381679389313,29.389312977099237,2.030534351145038
6311792924153,4.516973905,2,-2.8718448913574215,-9.593566052246093,-1.0510545288085937,7.6106870229007635,19.99236641221374,2.5267175572519083
6311800273059,4.524322811,2,-2.882618798828125,-9.704896429443359,-0.9756371765136718,4.977099236641221,15.122137404580153,4.809160305343512
6311807689726,4.531739478,2,-2.8419173706054686,-9.721655841064452,-1.0869675537109373,5.809160305343512,4.351145038167939,4.206106870229007
6311815042382,4.539092134,2,-3.0119056884765625,-9.692925421142577,-1.0989385620117187,4.030534351145038,-1.916030534351145,4.366412213740458
6311822343163,4.546392915,2,-3.123236065673828,-9.732429748535155,-1.1743559143066407,-0.5114503816793893,-7.312977099236641,4.9465648854961835
6311829663007,4.553712759,2,-3.1794998046874996,-9.878476049804688,-1.254561669921875,-5.251908396946565,-10.587786259541986,4.641221374045801
6311836968423,4.561018175,2,-3.248931652832031,-9.97783541870117,-1.2964601989746094,-4.458015267175573,-14.65648854961832,3.786259541984733
6311844291757,4.568341509,2,-3.1459809814453124,-9.9215716796875,-1.5023615417480467,-1.2595419847328244,-22.83969465648855,-1.748091603053435
6311851608632,4.575658384,2,-3.208230224609375,-9.840168823242188,-1.465251416015625,-3.0763358778625953,-22.0,-3.366412213740458
6311858930871,4.582980623,2,-3.3291374084472656,-9.78031378173828,-1.6424223388671875,-13.450381679389313,-20.519083969465647,-6.061068702290076
6311866320142,4.590369894,2,-3.1196447631835937,-9.753977563476562,-1.6328455322265625,-15.992366412213741,-20.366412213740457,-8.717557251908397
6311873787486,4.597837238,2,-3.199850518798828,-9.562441430664062,-1.7322049011230467,-16.358778625954198,-22.885496183206108,-12.618320610687023
6311881140611,4.605190363,2,-3.058592620849609,-9.451111053466796,-1.849520782470703,-15.442748091603054,-23.52671755725191,-12.50381679389313
6311888484621,4.612534373,2,-2.962824554443359,-9.39125601196289,-1.9943699829101562,-12.549618320610687,-22.793893129770993,-8.030534351145038
6311895781340,4.619831092,2,-2.9568390502929685,-9.270348828125,-1.9847931762695312,-10.961832061068701,-20.198473282442748,-6.824427480916031
6311903145767,4.627195519,2,-2.914940521240234,-9.259574920654297,-2.127248175048828,-15.389312977099237,-20.87786259541985,-3.1374045801526718
6311910525819,4.634575571,2,-2.916137622070312,-9.325415466308593,-2.096123553466797,-16.221374045801525,-18.022900763358777,-2.351145038167939
6311917836913,4.641886665,2,-2.89219560546875,-9.284714038085937,-2.2385785522460937,-12.786259541984732,-17.053435114503817,-2.8702290076335877
6311925148944,4.649198696,2,-2.93050283203125,-9.205705383300781,-2.357091534423828,-11.236641221374045,-16.519083969465647,-3.0381679389312977
6311932466757,4.656516509,2,-3.0142998901367184,-9.060856182861327,-2.3367408203125,-10.48091603053435,-8.854961832061068,-4.213740458015267
6311939912642,4.663962394,2,-2.962824554443359,-8.90643017578125,-2.2637176696777344,-12.251908396946565,-3.8473282442748094,-4.931297709923665
6311947241444,4.671291196,2,-2.8945898071289062,-8.792705596923827,-2.309207501220703,-14.961832061068701,-0.183206106870229,-4.969465648854962
6311954572278,4.67862203,2,-2.8191724548339843,-8.584410052490234,-2.1775264099121094,-14.389312977099237,1.748091603053435,-6.0534351145038165
6311961926236,4.685975988,2,-2.8898014038085935,-8.413224633789062,-2.1547814941406247,-12.587786259541986,2.0229007633587788,-4.977099236641221
6311969247226,4.693296978,2,-2.8287492614746093,-8.26837543334961,-2.1320365783691404,-9.099236641221374,1.702290076335878,-2.4122137404580153
6311976570403,4.700620155,2,-2.9376854370117185,-8.221688500976562,-2.1823148132324217,-5.9541984732824424,2.0839694656488548,0.10687022900763359
6311983892278,4.70794203,2,-2.864662286376953,-8.404844927978516,-2.088940948486328,-0.03816793893129771,-0.6793893129770993,6.137404580152672
6311991238892,4.715288644,2,-2.7748797241210936,-8.565256439208984,-2.110488763427734,6.824427480916031,1.7633587786259541,9.923664122137405
6311998510767,4.722560519,2,-2.7820623291015623,-8.807070806884765,-2.108094561767578,13.572519083969466,1.2671755725190839,15.0
6312005819413,4.729869165,2,-2.8898014038085935,-8.853757739257812,-2.0087351928710935,10.740458015267176,1.5038167938931297,17.34351145038168
6312013210871,4.737260623,2,-3.0813375366210938,-8.989030133056641,-1.9488801513671874,-0.2366412213740458,0.9389312977099237,20.267175572519083
6312020526444,4.744576196,2,-3.5601778686523438,-9.070432989501953,-2.0374656127929685,-3.786259541984733,-1.2671755725190839,20.717557251908396
6312027879673,4.751929425,2,-3.806780639648437,-9.149441644287108,-1.9907786804199217,2.2900763358778624,-2.435114503816794,22.16030534351145
6312035212903,4.759262655,2,-4.042609503173828,-9.320627062988281,-2.021903302001953,8.557251908396946,-1.465648854961832,23.213740458015266
6312042592538,4.76664229,2,-4.151545678710937,-9.478644372558593,-2.032677209472656,15.396946564885496,1.5572519083969465,21.38167938931298
6312049965715,4.774015467,2,-4.218583325195312,-9.67137760620117,-2.059013427734375,13.465648854961833,2.2900763358778624,17.68702290076336
6312057306080,4.781355832,2,-4.240131140136718,-9.842563024902343,-1.9895815795898437,8.694656488549619,9.908396946564885,9.320610687022901
6312064666861,4.788716613,2,-4.177881896972656,-9.941922393798828,-1.9021932189941406,1.4351145038167938,13.67175572519084,4.198473282442748
6312071974361,4.796024113,2,-4.100070343017578,-9.97783541870117,-1.9596540588378906,-0.4198473282442748,16.83969465648855,-6.908396946564886
6312079320611,4.803370363,2,-3.8893805969238278,-9.822212310791015,-1.7764976318359373,-0.16793893129770993,19.893129770992367,-12.488549618320612
6312086600715,4.810650467,2,-3.70263286743164,-9.704896429443359,-1.6986860778808592,-0.8625954198473282,19.99236641221374,-15.877862595419847
6312093989361,4.818039113,2,-3.2884359802246093,-9.465476263427734,-1.5705962890624998,-4.862595419847328,20.99236641221374,-24.297709923664122
6312101362955,4.825412707,2,-3.1842882080078123,-9.270348828125,-1.484405029296875,-7.061068702290076,20.99236641221374,-25.946564885496183
6312108711913,4.832761665,2,-3.019088293457031,-8.82981572265625,-1.4640543151855467,-14.801526717557252,10.206106870229007,-27.419847328244273
6312116089257,4.840139009,2,-3.019088293457031,-8.729259252929687,-1.4724340209960938,-15.0,8.122137404580153,-25.137404580152673
6312123372798,4.84742255,2,-2.9987375793457027,-8.699331732177734,-1.4820108276367188,-8.13740458015267,-0.9770992366412213,-17.091603053435115
6312130728475,4.854778227,2,-2.7425580017089843,-8.77834038696289,-1.5071499450683592,-2.1755725190839694,-6.847328244274809,-13.931297709923664
6312138121028,4.86217078,2,-2.8203695556640622,-8.850166436767578,-1.6316484313964843,2.351145038167939,-17.755725190839694,-7.763358778625954
6312145414517,4.869464269,2,-2.778471026611328,-8.865728747558594,-1.7753005310058592,0.45038167938931295,-20.519083969465647,-5.122137404580153
6312152770038,4.87681979,2,-2.8107927490234372,-9.01536635131836,-1.9285294372558592,-5.786259541984733,-21.938931297709924,-2.1068702290076335
6312160086757,4.884136509,2,-2.9939491760253905,-9.09198080444336,-1.936909143066406,-7.938931297709924,-22.38167938931298,-1.8854961832061068
6312167417278,4.89146703,2,-3.056198419189453,-9.083601098632812,-2.0362685119628905,-7.099236641221374,-22.9618320610687,-3.984732824427481
6312174739673,4.898789425,2,-3.1878795104980466,-9.095572106933593,-2.299630694580078,-5.099236641221374,-20.9618320610687,-4.931297709923665
6312182080194,4.906129946,2,-3.1842882080078123,-9.096769207763671,-2.31758720703125,-3.1297709923664123,-15.290076335877863,-6.67175572519084
6312189480767,4.913530519,2,-3.1124621582031247,-9.089586602783202,-2.3259669128417966,-3.4732824427480917,-12.618320610687023,-7.1603053435114505
6312196837225,4.920886977,2,-3.0226795959472654,-9.09198080444336,-2.424129180908203,-3.122137404580153,-7.603053435114504,-8.580152671755725
6312204139517,4.928189269,2,-2.883815899658203,-9.089586602783202,-2.3906103576660156,0.3053435114503817,-3.9923664122137406,-8.916030534351146
6312211453788,4.93550354,2,-2.9089550170898435,-8.954314208984375,-2.454056701660156,0.9923664122137404,-0.8244274809160306,-8.641221374045802
6312218750663,4.942800415,2,-2.7437551025390623,-8.993818536376953,-2.3139959045410157,-0.09923664122137404,2.49618320610687,-6.580152671755725
6312226192069,4.950241821,2,-2.6994623718261717,-8.991424334716797,-2.3068132995605466,3.7557251908396947,5.7251908396946565,-4.450381679389313
6312233546444,4.957596196,2,-2.6288334228515624,-8.97705912475586,-2.2014684265136717,10.106870229007633,11.816793893129772,0.17557251908396945
6312241054673,4.965104425,2,-2.6671406494140624,-8.948328704833983,-2.1152771667480468,9.091603053435115,13.396946564885496,2.7786259541984735
6312248303319,4.972353071,2,-2.8012159423828122,-9.07163009033203,-1.9512743530273435,4.083969465648855,16.96946564885496,7.0458015267175576
6312255559100,4.979608852,2,-2.7437551025390623,-9.178172064208983,-1.9608511596679685,4.114503816793893,16.557251908396946,9.297709923664122
6312262849153,4.986898905,2,-2.910152117919922,-9.209296685791015,-1.7944541442871094,10.335877862595419,17.259541984732824,14.145038167938932
6312270158111,4.994207863,2,-3.065775225830078,-9.362525592041015,-1.8507178833007811,12.557251908396946,16.893129770992367,17.282442748091604
6312277424361,5.001474113,2,-3.1399954772949217,-9.504980590820312,-1.6615759521484375,13.84732824427481,19.80916030534351,21.709923664122137
6312284889257,5.008939009,2,-3.3028011901855465,-9.757568865966796,-1.6304513305664061,12.198473282442748,19.717557251908396,22.610687022900763
6312292394465,5.016444217,2,-3.393780853271484,-9.90840357055664,-1.5059528442382812,8.679389312977099,17.641221374045802,20.740458015267176
6312299748736,5.023798488,2,-3.6535517333984373,-10.084377392578125,-1.5394716674804687,6.870229007633588,16.68702290076336,18.65648854961832
6312307098632,5.031148384,2,-3.8762124877929685,-10.128670123291014,-1.4221557861328125,3.2290076335877864,16.0381679389313,13.389312977099237
6312314428527,5.038478279,2,-3.766079211425781,-10.250774407958984,-1.419761584472656,2.5877862595419847,16.328244274809162,10.648854961832061
6312321720871,5.045770623,2,-3.83072265625,-10.23401499633789,-1.3479355346679687,2.564885496183206,13.893129770992367,2.83206106870229
6312329042173,5.053091925,2,-3.6475662292480466,-10.177751257324218,-1.2521674682617188,1.083969465648855,11.389312977099237,-2.33587786259542
6312336339048,5.0603888,2,-3.5613749694824217,-10.0748005859375,-1.3096283081054687,-1.9770992366412214,8.572519083969466,-11.526717557251908
6312343596340,5.067646092,2,-3.3782185424804685,-9.93354268798828,-1.064222637939453,-11.267175572519085,4.984732824427481,-14.442748091603054
6312350945298,5.07499505,2,-3.2309751403808593,-9.788693487548828,-1.1575965026855468,-14.625954198473282,2.7404580152671754,-16.358778625954198
6312358327121,5.082376873,2,-3.009511486816406,-9.666589202880859,-1.2605471740722656,-16.221374045801525,-2.4580152671755724,-17.68702290076336
6312365620298,5.08967005,2,-2.89219560546875,-9.630676177978515,-1.3551181396484375,-15.251908396946565,-3.5267175572519083,-16.83206106870229
6312372945246,5.096994998,2,-2.7353753967285153,-9.654618194580078,-1.3730746520996093,-15.86259541984733,-7.297709923664122,-12.687022900763358
6312380292746,5.104342498,2,-2.365471240234375,-9.757568865966796,-1.4101847778320311,-16.755725190839694,-8.977099236641221,-9.885496183206106
6312387594205,5.111643957,2,-2.1823148132324217,-9.821015209960937,-1.5263035583496092,-17.893129770992367,-11.50381679389313,-3.198473282442748
6312394934830,5.118984582,2,-2.072181536865234,-9.706093530273437,-1.5382745666503905,-20.770992366412212,-14.022900763358779,0.3282442748091603
6312403199986,5.127249738,2,-2.2194249389648437,-9.60793126220703,-1.6891092712402342,-32.16793893129771,-10.786259541984732,13.717557251908397
6312411816444,5.135866196,2,-2.412158172607422,-9.70968483276367,-1.6986860778808592,-36.35114503816794,-5.145038167938932,29.61832061068702
6312419347642,5.143397394,2,-3.0897172424316404,-9.944316595458984,-1.753752716064453,-35.19847328244275,-6.580152671755725,36.99236641221374
6312426938163,5.150987915,2,-3.459621398925781,-10.140641131591796,-1.7776947326660155,-30.061068702290076,-12.221374045801527,45.55725190839695
6312434434882,5.158484634,2,-4.090493536376953,-10.585962640380858,-1.8088193542480469,-27.48854961832061,-9.625954198473282,50.961832061068705
6312442262173,5.166311925,2,-4.304774584960938,-10.8409451171875,-1.8638859924316404,-27.366412213740457,2.763358778625954,46.43511450381679
6312450712850,5.174762602,2,-4.8877626892089845,-10.849324822998046,-1.85790048828125,-36.603053435114504,4.748091603053435,24.198473282442748
6312459264100,5.183313852,2,-5.250484240722656,-10.544064111328124,-1.878251202392578,-67.9618320610687,-1.9541984732824427,9.541984732824428
6312467665975,5.191715727,2,-5.495889910888671,-9.595960253906249,-1.7872715393066405,-85.68702290076335,1.3206106870229009,-25.328244274809162
6312476181548,5.2002313,2,-5.4779333984375,-9.06564458618164,-1.7477672119140624,-91.12213740458016,-10.572519083969466,-54.038167938931295
6312484633059,5.208682811,2,-5.0182466796875,-8.14028564453125,-1.8626888916015625,-88.17557251908397,-18.893129770992367,-66.61832061068702
6312493175871,5.217225623,2,-4.3454760131835934,-7.283161450195312,-1.9680337646484374,-73.69465648854961,-34.55725190839695,-87.16030534351145
6312501618840,5.225668592,2,-3.9636008483886718,-6.9719152343749995,-2.0470424194335934,-64.6793893129771,-49.916030534351144,-95.51908396946565
6312509889673,5.233939425,2,-3.1735143005371094,-6.460753179931641,-2.375048046875,-62.16030534351145,-55.9236641221374,-96.6793893129771
6312518233996,5.242283748,2,-2.6204537170410154,-6.019022973632812,-2.6300305236816404,-60.62595419847328,-67.70992366412214,-94.68702290076335
6312526574465,5.250624217,2,-2.473210314941406,-5.801150622558594,-2.7760768249511716,-54.54961832061068,-84.22900763358778,-90.62595419847328
6312534931079,5.258980831,2,-2.0745757385253905,-5.594052178955078,-3.0980969482421874,-48.6412213740458,-93.67175572519083,-87.90839694656489
6312543082538,5.26713229,2,-2.0350714111328125,-5.275623358154297,-3.5721488769531247,-39.23664122137404,-111.7175572519084,-77.19847328244275
6312550443319,5.274493071,2,-1.944091748046875,-5.345055206298828,-3.985148663330078,-35.16030534351145,-113.91603053435115,-67.02290076335878
6312557790767,5.281840519,2,-2.2182278381347653,-5.516240625,-4.337096307373047,-20.87786259541985,-97.29007633587786,-42.0
6312565099882,5.289149634,2,-2.2732944763183593,-5.88614478149414,-4.53940634765625,-13.442748091603054,-92.09923664122137,-30.69465648854962
6312572466027,5.296515779,2,-2.014720697021484,-6.928819604492187,-5.061342309570312,16.015267175572518,-92.21374045801527,-9.541984732824428
6312579767173,5.303816925,2,-1.7788918334960937,-7.296329559326171,-5.249287139892578,38.10687022900763,-82.70992366412214,-1.5190839694656488
6312587136444,5.311186196,2,-1.8531120849609375,-7.7979148071289055,-5.469553692626953,57.13740458015267,-44.06106870229008,23.541984732824428
6312594522486,5.318572238,2,-2.1212626708984375,-8.519766607666016,-5.354632012939453,52.29007633587786,-23.33587786259542,35.87786259541985
6312601842121,5.325891873,2,-1.8088193542480469,-9.076418493652342,-4.594472985839843,53.717557251908396,39.458015267175576,47.31297709923664
6312609142434,5.333192186,2,-2.472013214111328,-9.369708197021485,-4.618415002441406,45.916030534351144,24.946564885496183,51.38167938931298
6312616477434,5.340527186,2,-2.7078420776367187,-9.8449572265625,-4.605246893310547,56.33587786259542,45.67175572519084,61.038167938931295
6312623913527,5.347963279,2,-3.5960908935546874,-10.126275921630858,-4.132392065429687,66.0,67.86259541984732,63.47328244274809
6312631288996,5.355338748,2,-3.7098154724121093,-10.398017810058594,-3.853467572021484,70.19083969465649,86.55725190839695,67.7557251908397
6312638625454,5.362675206,2,-3.939658831787109,-10.909179864501953,-3.460818499755859,75.33587786259542,98.58015267175573,64.54198473282443
6312645972590,5.370022342,2,-4.029441394042968,-11.062408770751953,-3.0621839233398433,76.09160305343511,122.2824427480916,55.93129770992366
6312653336236,5.377385988,2,-4.224568829345703,-11.13423482055664,-2.393004559326172,68.81679389312977,129.26717557251908,47.152671755725194
6312660761861,5.384811613,2,-4.322731097412109,-11.042058056640624,-2.020706201171875,60.14503816793893,132.59541984732823,28.27480916030534
6312668082538,5.39213229,2,-4.1575311828613275,-11.016918939208983,-1.3934253662109375,42.282442748091604,134.9083969465649,22.213740458015266
6312675386704,5.399436456,2,-3.9791631591796874,-11.033678350830078,-0.9756371765136718,40.961832061068705,137.86259541984734,16.14503816793893
6312682719673,5.406769425,2,-3.566163372802734,-10.960655200195312,-0.3459621398925781,49.770992366412216,132.70229007633588,2.435114503816794
6312690025715,5.414075467,2,-3.3028011901855465,-10.89122335205078,-0.1005564697265625,49.45038167938932,120.7557251908397,-4.687022900763359
6312697299309,5.421349061,2,-2.987963671875,-10.55962642211914,0.30406361083984373,32.47328244274809,91.92366412213741,-14.320610687022901
6312704668163,5.428717915,2,-2.770091320800781,-10.535684405517577,0.3699041564941406,19.885496183206108,80.91603053435115,-15.038167938931299
6312711974621,5.436024373,2,-2.6479870361328124,-10.365696087646484,0.6296750366210937,0.13740458015267176,48.908396946564885,-15.106870229007633
6312719381809,5.443431561,2,-2.7341782958984373,-10.236409197998046,0.6284779357910156,-4.3816793893129775,29.0381679389313,-16.870229007633586
6312726740350,5.450790102,2,-2.882618798828125,-10.06881508178711,0.5363011718749999,-11.969465648854962,-16.702290076335878,-18.236641221374047
6312734105454,5.458155206,2,-3.1208418640136717,-9.776722479248047,0.40222587890625,-15.335877862595419,-37.16793893129771,-19.763358778625953
6312741432590,5.465482342,2,-3.1639374938964844,-9.70369932861328,0.27293898925781246,-24.251908396946565,-73.48091603053435,-21.251908396946565
6312748738892,5.472788644,2,-3.411737365722656,-9.41040962524414,-0.43574470214843747,-30.297709923664122,-83.70992366412214,-24.396946564885496
6312756079725,5.480129477,2,-3.5889082885742187,-9.311050256347656,-0.7362170104980469,-39.213740458015266,-103.19847328244275,-27.885496183206108
6312763318996,5.487368748,2,-3.5769372802734374,-9.275137231445312,-1.5263035583496092,-51.0763358778626,-110.32824427480917,-32.19083969465649
6312770651288,5.49470104,2,-3.5960908935546874,-9.234435803222656,-1.8171990600585937,-47.541984732824424,-113.56488549618321,-41.13740458015267
6312777996496,5.502046248,2,-3.361459130859375,-9.003395343017578,-2.461239306640625,-40.51145038167939,-118.7175572519084,-43.44274809160305
6312785316756,5.509366508,2,-3.227383837890625,-8.888473663330078,-2.829946362304687,-39.57251908396947,-114.90839694656489,-45.48854961832061
6312792645559,5.516695311,2,-3.019088293457031,-8.712499841308594,-3.1938650146484373,-42.25954198473283,-99.58015267175573,-45.61068702290076
6312799951288,5.52400104,2,-2.9364883361816405,-8.63827958984375,-3.3446997192382812,-44.32824427480916,-92.8854961832061,-45.31297709923664
6312807308840,5.531358592,2,-2.7533319091796873,-8.371326104736328,-3.688267657470703,-42.47328244274809,-77.92366412213741,-44.83969465648855
6312814591079,5.538640831,2,-2.653972540283203,-8.267178332519531,-3.793612530517578,-39.80152671755725,-70.44274809160305,-43.87022900763359
6312821886913,5.545936665,2,-2.546233465576172,-8.0062103515625,-4.046200805664062,-32.847328244274806,-54.587786259541986,-38.51145038167939
