timestamp_ns,t_s,sensor_id,ax,ay,az,gx,gy,gz
6307445214415,0.169264167,1,-1.656787548828125,3.796006732177734,9.70968483276367,12.702290076335878,-35.49618320610687,30.51145038167939
6307451537800,0.175587552,1,-1.301248602294922,3.7050270690917966,9.261969122314452,16.732824427480917,-56.045801526717554,47.58015267175573
6307457674467,0.181724219,1,-0.7553706237792969,3.191470812988281,8.212111694335936,33.725190839694655,-63.2442748091603,53.6793893129771
6307463658894,0.187708646,1,-0.47884033203125,2.874239093017578,7.625532287597656,40.48854961832061,-68.90839694656489,59.25954198473283
6307469626186,0.193675938,1,-0.21188684692382811,2.5522189697265625,7.123947039794921,39.603053435114504,-73.21374045801527,64.50381679389314
6307475595821,0.199645573,1,0.09935936889648436,2.129642376708984,6.469132885742187,38.42748091603053,-75.3587786259542,68.0381679389313
6307481517175,0.205566927,1,0.3280056274414062,1.714248388671875,6.065709906005859,42.0763358778626,-75.42748091603053,68.43511450381679
6307487455352,0.211505104,1,0.4656722229003906,1.0474632263183594,5.201403106689453,49.603053435114504,-73.07633587786259,66.12977099236642
6307493406238,0.21745599,1,0.8116343627929687,0.8188169677734375,4.741716387939453,46.19847328244275,-70.49618320610686,61.25954198473283
6307499282540,0.223332292,1,0.9552864624023437,0.6260837341308594,4.545391851806641,38.97709923664122,-64.58015267175573,52.717557251908396
6307505212488,0.22926224,1,1.0043675964355467,0.5602431884765625,4.333505004882812,30.137404580152673,-59.099236641221374,43.38931297709924
6307511121758,0.23517151,1,1.1384428894042968,0.48123453369140623,4.153939880371094,22.66412213740458,-54.29770992366412,22.931297709923665
6307517046081,0.241095833,1,1.1456254943847655,0.5291185668945312,4.00310517578125,8.267175572519085,-38.37404580152672,11.259541984732824
6307523008269,0.247058021,1,1.1647791076660157,0.8978256225585937,4.112041351318359,0.030534351145038167,-25.53435114503817,-0.40458015267175573
6307528936706,0.252986458,1,1.3874398620605468,1.1252747802734375,4.21978042602539,-5.900763358778626,-14.290076335877863,-9.770992366412214
6307534796706,0.258846458,1,1.6017209106445311,1.446097802734375,4.452017987060547,-7.9465648854961835,-7.694656488549619,-16.977099236641223
6307540715404,0.264765156,1,1.5298948608398437,1.7393875061035156,4.566939666748047,-11.007633587786259,-1.748091603053435,-21.870229007633586
6307546608165,0.270657917,1,1.3239935180664062,1.9608511596679685,4.784812017822265,-18.282442748091604,16.557251908396946,-29.49618320610687
6307552496342,0.276546094,1,1.0558429321289062,2.499546533203125,5.481524700927734,-16.091603053435115,27.587786259541986,-30.50381679389313
6307558408321,0.282458073,1,1.024718310546875,2.722207287597656,5.960365032958984,-8.587786259541986,37.54961832061068,-29.61832061068702
6307564281498,0.28833125,1,0.7326257080078125,2.9652187561035155,6.347028601074219,0.5648854961832062,44.51908396946565,-26.702290076335878
6307570180665,0.294230417,1,0.5494692810058593,3.068169427490234,6.88213267211914,8.34351145038168,50.274809160305345,-22.946564885496183
6307576096133,0.300145885,1,0.3555389465332031,3.1184476623535153,7.244854223632812,12.740458015267176,51.02290076335878,-18.763358778625953
6307582064675,0.306114427,1,-0.010773907470703125,3.1675287963867187,8.001421948242188,5.343511450381679,51.954198473282446,-17.206106870229007
6307588029831,0.312079583,1,-0.719457598876953,3.1794998046874996,8.339004382324218,1.5267175572519085,48.61832061068702,-17.17557251908397
6307593985769,0.318035521,1,-1.071405242919922,3.2525229553222657,8.571241943359375,-1.5725190839694656,46.587786259541986,-21.290076335877863
6307599951342,0.324001094,1,-1.4592659118652342,3.303998291015625,8.845378033447265,-9.854961832061068,47.29770992366412,-23.946564885496183
6307605915352,0.329965104,1,-1.763329522705078,3.3770214416503905,9.127893829345702,-16.106870229007633,48.30534351145038,-29.740458015267176
6307611869206,0.335918958,1,-1.9021932189941406,3.488351818847656,9.910797772216796,-10.534351145038167,48.13740458015267,-31.435114503816795
6307617831394,0.341881146,1,-1.7800889343261719,3.8762124877929685,10.238803399658202,-7.526717557251908,44.35114503816794,-31.282442748091604
6307623741654,0.347791406,1,-1.571793389892578,4.090493536376953,10.32379755859375,-7.198473282442748,35.343511450381676,-29.908396946564885
6307629654675,0.353704427,1,-1.5442600708007812,4.164713787841797,10.319009155273436,-10.534351145038167,22.14503816793893,-26.709923664122137
6307635602956,0.359652708,1,-1.5693991882324219,4.122815258789062,10.262745416259765,-15.755725190839694,7.2748091603053435,-22.068702290076335
6307641520092,0.365569844,1,-1.7166425903320313,4.0222587890625,10.022128149414062,-16.38167938931298,-13.938931297709924,-13.412213740458014
6307647454779,0.371504531,1,-1.7178396911621092,3.797203833007812,9.380482104492186,-12.053435114503817,-18.717557251908396,-10.068702290076336
6307653392331,0.377442083,1,-1.5203180541992187,3.7337574890136715,9.05367357788086,-7.297709923664122,-21.48854961832061,-7.6106870229007635
6307659328477,0.383378229,1,-1.3335703247070312,3.6152445068359373,8.730456353759765,-3.480916030534351,-25.03053435114504,-5.9541984732824424
6307665252852,0.389302604,1,-1.2114660400390624,3.479972113037109,8.412027532958984,-3.1297709923664123,-29.30534351145038,-4.366412213740458
6307671169779,0.395219531,1,-1.061828436279297,3.3638533325195312,7.939172705078125,-5.290076335877862,-36.16030534351145,-4.305343511450381
6307677044936,0.401094688,1,-0.6703764648437499,3.2620997619628906,7.326257080078125,-11.931297709923664,-29.549618320610687,-7.2748091603053435
6307682976811,0.407026563,1,-0.6416460449218749,2.953247747802734,6.8976949829101555,-10.67175572519084,-40.16793893129771,1.465648854961832
6307688899363,0.412949115,1,-1.0498574279785156,2.919728924560547,6.3973068359375,-1.1908396946564885,-41.48091603053435,-3.198473282442748
6307694827488,0.41887724,1,-1.0103531005859374,2.919728924560547,6.216544610595703,-6.145038167938932,-28.33587786259542,-9.16793893129771
6307700795092,0.424844844,1,-0.6380547424316406,2.817975354003906,6.479906793212891,-14.748091603053435,-9.358778625954198,-15.282442748091603
6307706686133,0.430735885,1,-0.10414777221679687,2.913743420410156,6.546944439697265,-1.8473282442748091,-5.938931297709924,-15.297709923664122
6307712648685,0.436698437,1,-0.14125789794921875,3.008314385986328,6.564900952148437,-6.083969465648855,-4.305343511450381,-11.526717557251908
6307718577488,0.44262724,1,-0.239420166015625,2.7437551025390623,6.718129858398437,-9.267175572519085,0.19083969465648856,-8.213740458015268
6307724495769,0.448545521,1,-0.43574470214843747,2.912546319580078,6.68461103515625,-3.2290076335877864,3.183206106870229,-12.51908396946565
6307730426967,0.454476719,1,-0.5195417602539062,2.9376854370117185,6.847416748046874,-4.427480916030534,11.458015267175572,-13.0
6307736313946,0.460363698,1,-0.4644751220703125,2.938882537841797,7.105990527343749,-7.267175572519084,25.923664122137403,-15.465648854961833
6307742230821,0.466280573,1,-0.31004911499023435,3.1172505615234374,7.671022119140624,-3.931297709923664,29.068702290076335,-13.419847328244275
6307748178581,0.472228333,1,-0.6368576416015624,3.105279553222656,8.019378460693359,-0.03816793893129771,30.12213740458015,-11.404580152671755
6307754095821,0.478145573,1,-0.9050082275390624,3.0837317382812497,8.201337786865233,2.3893129770992365,31.52671755725191,-9.0
6307760069831,0.484119583,1,-1.0797849487304687,3.1208418640136717,8.316259466552735,3.5114503816793894,33.3587786259542,-9.992366412213741
6307766004102,0.490053854,1,-1.1528080993652343,3.1004911499023438,8.643067993164061,1.2366412213740459,39.595419847328245,-10.908396946564885
6307771958113,0.496007865,1,-1.2150573425292968,3.096899847412109,9.309853155517578,2.564885496183206,40.89312977099237,-10.603053435114504
6307777940665,0.501990417,1,-1.1719617126464843,3.113659259033203,9.350554583740234,8.213740458015268,34.62595419847328,-8.045801526717558
6307783977748,0.5080275,1,-1.5263035583496092,3.1004911499023438,9.37210239868164,9.969465648854962,27.137404580152673,-6.648854961832061
6307790098373,0.514148125,1,-1.675941162109375,2.9747955627441405,9.325415466308593,2.519083969465649,21.61832061068702,-7.549618320610687
6307796144727,0.520194479,1,-1.6747440612792968,2.9544448486328125,9.445125549316407,-6.3893129770992365,16.221374045801525,-13.770992366412214
6307802011185,0.526060937,1,-1.5969325073242187,2.967612957763672,9.581595043945311,-8.595419847328245,10.725190839694656,-13.954198473282442
6307807985040,0.532034792,1,-1.2701239807128906,2.8886043029785156,9.464279162597656,-4.1679389312977095,4.847328244274809,-13.335877862595419
6307813971185,0.538020937,1,-1.3299790222167969,2.8012159423828122,9.528922607421874,-0.07633587786259542,-0.19083969465648856,-11.702290076335878
6307819867800,0.543917552,1,-1.2761094848632812,2.912546319580078,9.235632904052734,2.2442748091603053,-6.717557251908397,-13.129770992366412
6307825785092,0.549834844,1,-0.9696516723632812,2.8048072448730466,9.074024291992187,-3.1068702290076335,-11.801526717557252,-11.969465648854962
6307831706185,0.555755937,1,-0.8918401184082031,2.7341782958984373,8.552088330078124,-10.19083969465649,-27.748091603053435,-12.679389312977099
6307837545613,0.561595365,1,-0.7146691955566405,2.1966800231933594,8.281543542480469,-9.389312977099237,-32.76335877862596,-11.450381679389313
6307843427331,0.567477083,1,-0.6105214233398437,2.2002713256835937,7.864952453613281,-8.954198473282442,-37.68702290076336,-15.793893129770993
6307849328165,0.573377917,1,-0.4944026428222656,1.9536685546875,7.700949639892578,-15.732824427480915,-36.76335877862596,-16.717557251908396
6307855249831,0.579299583,1,-0.34835634155273437,1.7669208251953124,7.411251239013671,-16.64885496183206,-39.603053435114504,-17.587786259541986
6307861119623,0.585169375,1,-0.39863457641601563,1.859097589111328,7.104793426513671,-13.793893129770993,-43.595419847328245,-26.106870229007633
6307866980873,0.591030625,1,-0.40462008056640625,1.4520833068847656,6.831854437255859,-26.35114503816794,-40.091603053435115,-28.03053435114504
6307872849363,0.596899115,1,-0.3591302490234375,1.6579846496582031,6.5385647338867185,-19.282442748091604,-41.083969465648856,-35.31297709923664
6307878784571,0.602834323,1,-0.18435352783203124,1.6711527587890624,6.494272003173828,-18.862595419847327,-34.51145038167939,-40.25954198473283
6307884688373,0.608738125,1,-0.11252747802734374,1.6316484313964843,6.4272343566894525,-22.267175572519083,-29.625954198473284,-40.83969465648855
6307890532956,0.614582708,1,-0.0718260498046875,1.7872715393066405,6.240486627197265,-19.977099236641223,-32.10687022900763,-48.0763358778626
6307896416810,0.620466562,1,-0.3746925598144531,1.8171990600585937,6.143521459960938,-28.282442748091604,-24.52671755725191,-53.05343511450382
6307902237435,0.626287187,1,-0.7793126403808593,1.9764134704589842,6.236895324707031,-31.045801526717558,-13.17557251908397,-57.70992366412214
6307908134310,0.632184062,1,-0.8678981018066406,2.2086510314941403,6.2201359130859375,-29.83969465648855,-9.274809160305344,-63.404580152671755
6307914013737,0.638063489,1,-0.8415618835449218,2.3427263244628906,6.593631372070312,-32.12977099236641,5.190839694656488,-70.22137404580153
6307919908165,0.643957917,1,-1.2701239807128906,1.9871873779296874,6.774393597412109,-29.66412213740458,5.908396946564886,-68.87786259541984
6307925836706,0.649886458,1,-1.1875240234375,2.935291235351562,6.672640026855468,-11.282442748091603,36.458015267175576,-71.85496183206106
6307931766342,0.655816094,1,-0.8391676818847655,3.1459809814453124,7.398083129882812,-5.374045801526718,29.282442748091604,-80.33587786259542
6307937702279,0.661752031,1,-1.4257470886230468,3.375824340820312,7.511807708740234,-18.0,26.61832061068702,-84.00763358778626
6307943583581,0.667633333,1,-2.003946789550781,3.3207577026367185,7.958326318359375,-44.274809160305345,34.847328244274806,-79.18320610687023
6307949426185,0.673475937,1,-2.3774422485351563,3.6846763549804686,7.710526446533203,-48.23664122137404,24.236641221374047,-81.78625954198473
6307955254935,0.679304687,1,-2.7186159851074216,3.84987626953125,7.934384301757812,-41.42748091603053,39.51908396946565,-77.93893129770993
6307961164987,0.685214739,1,-2.8479028747558592,4.108450048828125,8.513781103515624,-0.42748091603053434,70.17557251908397,-72.91603053435115
6307967088269,0.691138021,1,-2.748543505859375,4.833893151855468,9.545682019042967,2.9770992366412212,74.52671755725191,-65.90839694656489
6307973024623,0.697074375,1,-2.7629087158203123,5.014655377197266,9.950302099609374,-4.809160305343512,70.38931297709924,-58.74045801526717
6307978944206,0.702993958,1,-2.8335376647949215,5.129577056884766,10.23401499633789,-14.80916030534351,58.48091603053435,-50.11450381679389
6307984851654,0.708901406,1,-3.1483751831054687,5.0960582336425775,10.296264239501953,-22.213740458015266,45.274809160305345,-40.06870229007634
6307990784935,0.714834687,1,-3.399766357421875,5.060145208740234,10.302249743652343,-22.99236641221374,33.099236641221374,-19.366412213740457
6307996639362,0.720689114,1,-3.5027170288085934,4.9069163024902345,10.34893667602539,-5.854961832061068,30.519083969465647,-9.877862595419847
6308002504987,0.726554739,1,-3.506308331298828,4.838681555175781,10.49498297729492,2.8091603053435112,27.450381679389313,-1.4274809160305344
6308008402540,0.732452292,1,-3.24294614868164,4.752490295410156,10.528501800537109,5.763358778625954,21.72519083969466,7.076335877862595
6308014291654,0.738341406,1,-2.938882537841797,4.517858532714843,10.504559783935546,4.9465648854961835,11.267175572519085,15.274809160305344
6308020148581,0.744198333,1,-2.588131994628906,4.2700586608886715,10.238803399658202,2.282442748091603,-1.786259541984733,22.984732824427482
6308026037019,0.750086771,1,-2.4097639709472656,3.919308117675781,9.815029705810547,-0.33587786259541985,-27.450381679389313,38.35114503816794
6308031985144,0.756034896,1,-2.1966800231933594,3.076549133300781,8.876502655029297,2.6564885496183206,-34.56488549618321,44.47328244274809
6308037936915,0.761986667,1,-2.165555401611328,2.7174188842773437,8.43956085205078,8.83969465648855,-37.038167938931295,47.152671755725194
6308043844154,0.767893906,1,-1.916558428955078,2.4061726684570313,7.9463553100585935,13.473282442748092,-34.916030534351144,48.36641221374046
6308049797123,0.773846875,1,-1.7609353210449217,2.1021090576171875,7.721300354003906,15.595419847328245,-31.572519083969464,47.16030534351145
6308055724831,0.779774583,1,-1.3215993164062498,1.917755529785156,7.613561279296874,16.900763358778626,-19.48854961832061,41.83969465648855
6308061650977,0.785700729,1,-1.0917559570312498,1.6124948181152343,7.287949853515625,17.610687022900763,-17.297709923664122,39.656488549618324
6308067552800,0.791602552,1,-0.9133879333496093,1.495178936767578,7.293935357666015,13.580152671755725,-14.786259541984732,36.70992366412214
6308073404154,0.797453906,1,-0.978031378173828,1.3192051147460937,7.274781744384765,8.900763358778626,-11.381679389312977,32.725190839694655
6308079271915,0.803321667,1,-0.9421183532714843,1.2306196533203124,7.390900524902343,6.290076335877862,-5.641221374045801,27.366412213740457
6308085158529,0.809208281,1,-0.9469067565917968,1.2761094848632812,7.428010650634765,5.916030534351145,1.549618320610687,21.16793893129771
6308091106967,0.815156719,1,-0.9169792358398436,1.2581529724121092,7.645883001708984,4.33587786259542,13.297709923664122,9.374045801526718
6308097021862,0.821071614,1,-1.016338604736328,1.5466542724609373,7.976282830810546,2.381679389312977,16.671755725190838,5.198473282442748
6308102952019,0.827001771,1,-1.1061211669921875,1.7429788085937499,8.182184173583984,1.8091603053435115,17.33587786259542,0.5801526717557252
6308108849727,0.832899479,1,-1.2808978881835937,1.936909143066406,8.327033374023436,1.3511450381679388,17.702290076335878,-1.8854961832061068
6308114682696,0.838732448,1,-1.2988544006347655,2.0470424194335934,8.440757952880858,2.015267175572519,17.61832061068702,-4.290076335877862
6308120658477,0.844708229,1,-1.3778630554199218,2.261323468017578,8.577227447509765,3.5343511450381677,14.282442748091603,-6.137404580152672
6308126671133,0.850720885,1,-1.455674609375,2.567781280517578,8.627505682373046,7.061068702290076,11.67175572519084,-5.938931297709924
6308132721081,0.856770833,1,-1.5933412048339843,2.768894219970703,8.641870892333984,7.534351145038168,9.442748091603054,-6.427480916030534
6308138650248,0.8627,1,-1.6603788513183593,2.895786907958984,8.626308581542968,5.580152671755725,8.969465648854962,-7.00763358778626
6308144562487,0.868612239,1,-1.6903063720703124,3.0526071166992184,8.641870892333984,2.984732824427481,7.717557251908397,-7.351145038167939
6308150490352,0.874540104,1,-1.6472107421875,3.1184476623535153,8.696937530517578,2.5419847328244276,7.083969465648855,-2.183206106870229
6308156282852,0.880332604,1,-1.705868682861328,3.1555577880859373,8.556876733398436,10.450381679389313,1.0687022900763359,0.3511450381679389
6308162163685,0.886213437,1,-2.123656872558594,3.248931652832031,8.499415893554687,10.664122137404581,0.8091603053435115,1.7404580152671756
6308168052331,0.892102083,1,-2.2732944763183593,3.345896820068359,8.52934341430664,8.381679389312977,2.717557251908397,0.3511450381679389
6308173980248,0.89803,1,-2.288856787109375,3.527856146240234,8.613140472412109,5.190839694656488,5.099236641221374,-1.6564885496183206
6308179874258,0.90392401,1,-2.1727380065917967,3.6355952209472653,8.832209924316405,3.66412213740458,5.9465648854961835,-2.1526717557251906
6308185791967,0.909841719,1,-2.0542250244140625,3.736151690673828,8.930372192382812,5.786259541984733,-1.0229007633587786,4.419847328244275
6308191739935,0.915789687,1,-1.8519149841308593,3.831919757080078,8.96269391479492,10.83969465648855,-8.145038167938932,10.450381679389313
6308197656446,0.921706198,1,-1.792059942626953,3.737348791503906,8.747215765380858,13.412213740458014,-15.473282442748092,16.50381679389313
6308203579571,0.927629323,1,-1.7465701110839842,3.5972879943847653,8.506598498535157,14.938931297709924,-22.099236641221374,21.801526717557252
6308209477331,0.933527083,1,-1.6328455322265625,3.385401147460937,8.111555224609374,15.687022900763358,-27.198473282442748,25.595419847328245
6308215332592,0.939382344,1,-1.3527239379882812,3.219004132080078,7.842207537841796,15.511450381679388,-29.52671755725191,30.9618320610687
6308221205092,0.945254844,1,-1.1959037292480468,3.0166940917968748,7.269993341064453,17.282442748091604,-31.48854961832061,32.88549618320611
6308227127071,0.951176823,1,-0.7398083129882812,2.6228479187011717,7.000645654296875,18.954198473282442,-31.84732824427481,34.76335877862596
6308233024935,0.957074687,1,-0.5602431884765625,2.3307553161621093,6.8593877563476555,20.404580152671755,-31.80916030534351,36.54961832061068
6308238922383,0.962972135,1,-0.3651157531738281,2.1631611999511717,6.552929943847656,21.778625954198475,-32.38167938931298,36.49618320610687
6308244761498,0.96881125,1,-0.2597708801269531,1.9105729248046874,6.363788012695312,20.923664122137403,-31.572519083969464,34.94656488549618
6308250631394,0.974681146,1,-0.08259995727539061,1.7657237243652342,6.178237384033203,18.557251908396946,-26.595419847328245,30.091603053435115
6308256536289,0.980586041,1,0.11013327636718749,1.4544775085449217,5.971138940429687,13.98473282442748,-23.091603053435115,26.99236641221374
6308262437019,0.986486771,1,0.2214636535644531,1.3730746520996093,5.878962176513672,14.931297709923664,-17.885496183206108,23.458015267175572
6308268298269,0.992348021,1,0.1975216369628906,1.3359645263671873,5.936423016357422,16.00763358778626,-13.236641221374045,20.14503816793893
6308274149935,0.998199687,1,0.23702596435546874,1.3072341064453123,5.92445200805664,16.717557251908396,-7.99236641221374,16.15267175572519
6308280032175,1.004081927,1,0.1388636962890625,1.2689268798828124,5.949591125488281,15.16030534351145,-3.068702290076336,12.435114503816793
6308285974362,1.010024114,1,0.07422025146484375,1.1911153259277343,6.057330200195312,11.51908396946565,3.946564885496183,2.351145038167939
6308291900404,1.015950156,1,-0.15562310791015624,1.3623007446289062,6.253654736328125,5.969465648854962,7.816793893129771,-4.6183206106870225
6308297828112,1.021877864,1,-0.3962403747558593,1.5227122558593749,6.574477758789062,-0.46564885496183206,13.083969465648854,-11.312977099236642
6308303732956,1.027782708,1,-0.5805939025878906,1.7106570861816406,6.902483386230468,-1.3435114503816794,16.801526717557252,-17.862595419847327
6308309640612,1.033690364,1,-0.7398083129882812,2.001552587890625,7.042544183349609,-1.748091603053435,17.946564885496183,-25.50381679389313
6308315535508,1.03958526,1,-0.9085995300292968,2.281674182128906,7.396886029052734,-11.351145038167939,21.076335877862597,-36.05343511450382
6308321403425,1.045453177,1,-0.9133879333496093,2.7653029174804686,7.783549597167968,-23.671755725190838,15.16793893129771,-36.57251908396947
6308327258425,1.051308177,1,-0.9205705383300781,2.912546319580078,7.745242370605468,-22.916030534351144,7.213740458015267,-35.00763358778626
6308333158633,1.057208385,1,-0.9636661682128905,2.972401361083984,7.656656909179687,-21.61832061068702,3.984732824427481,-32.76335877862596
6308339025196,1.063074948,1,-1.216254443359375,3.0550013183593747,7.645883001708984,-19.50381679389313,5.190839694656488,-30.572519083969464
6308344898164,1.068947916,1,-1.139639990234375,3.096899847412109,7.688978631591796,-14.305343511450381,6.9465648854961835,-31.16030534351145
6308350787591,1.074837343,1,-1.0869675537109373,3.2046389221191403,7.692569934082031,-10.106870229007633,10.641221374045802,-25.213740458015266
6308356708894,1.080758646,1,-1.0031704956054688,3.2716765686035156,7.930792999267577,-5.908396946564886,14.01526717557252,-23.85496183206107
6308362612539,1.086662291,1,-0.8750807067871094,3.3195606018066406,7.867346655273437,-3.0229007633587788,10.50381679389313,-20.68702290076336
6308368495248,1.092545,1,-0.9935936889648437,3.2118215270996093,7.790732202148437,-3.5801526717557253,8.297709923664122,-15.274809160305344
6308374352487,1.098402239,1,-1.0235212097167967,3.0909143432617188,7.625532287597656,-4.854961832061068,6.366412213740458,-13.244274809160306
6308380240560,1.104290312,1,-0.9014169250488281,2.7078420776367187,7.7979148071289055,-4.1603053435114505,14.541984732824428,-36.48091603053435
6308386159050,1.110208802,1,-0.8128314636230468,3.575740179443359,7.243657122802734,-62.89312977099237,2.267175572519084,-27.923664122137403
6308392027279,1.116077031,1,-1.8136077575683593,2.750937707519531,7.726088757324218,-77.42748091603053,22.793893129770993,-21.763358778625953
6308397922331,1.121972083,1,-2.184709014892578,3.326743206787109,7.545326531982422,-33.45038167938932,23.748091603053435,-31.419847328244273
6308403815300,1.127865052,1,-2.6013001037597654,3.295618585205078,7.977479931640625,-7.67175572519084,44.45038167938932,-17.68702290076336
6308409685300,1.133735052,1,-2.482787121582031,3.116053460693359,8.468291271972657,8.83206106870229,60.19083969465649,-7.862595419847328
6308415576341,1.139626093,1,-2.5426421630859375,3.383006945800781,9.023746057128905,28.9618320610687,78.00763358778626,-11.022900763358779
6308421473321,1.145523073,1,-2.5234885498046875,3.7205893798828122,10.13226142578125,16.297709923664122,77.19083969465649,-9.221374045801527
6308427311185,1.151360937,1,-2.8981811096191405,3.7612908081054686,10.478223565673828,6.183206106870229,68.50381679389314,-7.404580152671755
6308433218269,1.157268021,1,-3.1830911071777344,3.731363287353515,10.720037933349609,3.2977099236641223,56.954198473282446,-4.465648854961832
6308439118789,1.163168541,1,-3.4572271972656248,3.6080619018554687,10.741585748291016,5.656488549618321,46.412213740458014,-0.8015267175572519
6308445012279,1.169062031,1,-3.736151690673828,3.584119885253906,10.734403143310546,9.351145038167939,36.43511450381679,-1.0763358778625953
6308450904571,1.174954323,1,-3.8079777404785156,3.507505432128906,10.708066925048827,-2.3587786259541983,21.244274809160306,-3.5572519083969465
6308456873425,1.180923177,1,-3.391386651611328,3.5003228271484375,10.700884320068358,-11.442748091603054,12.297709923664122,-4.984732824427481
6308462873425,1.186923177,1,-3.289633081054687,3.6367923217773437,10.575188732910156,-13.740458015267176,0.4580152671755725,-6.015267175572519
6308468859831,1.192909583,1,-3.1268273681640624,3.447650390625,10.421959826660157,-12.534351145038167,-9.732824427480915,-0.2366412213740458
6308474809883,1.198859635,1,-3.0047230834960934,3.384204046630859,10.160991845703125,-2.50381679389313,-21.931297709923665,2.5419847328244276
6308480718112,1.204767864,1,-2.816778253173828,3.3494881225585935,9.73602105102539,6.32824427480916,-38.00763358778626,9.213740458015268
6308486621758,1.21067151,1,-2.3834277526855465,3.1459809814453124,8.77834038696289,1.2213740458015268,-44.51908396946565,8.740458015267176
6308492478373,1.216528125,1,-2.1308394775390624,3.066972326660156,8.400056524658202,-4.206106870229007,-48.717557251908396,8.061068702290076
6308498347071,1.222396823,1,-1.9680337646484374,2.9927520751953125,8.010998754882811,-6.648854961832061,-50.85496183206107,8.717557251908397
6308504194519,1.228244271,1,-1.9668366638183592,2.948459344482422,7.582436657714843,-4.1603053435114505,-49.44274809160305,9.412213740458014
6308510092175,1.234141927,1,-1.8183961608886718,2.8658593872070313,7.234080316162109,0.4122137404580153,-43.25190839694657,7.442748091603053
6308515996706,1.240046458,1,-1.8255787658691405,2.8275521606445313,7.040149981689453,3.053435114503817,-23.946564885496183,5.183206106870229
6308521926446,1.245976198,1,-1.5646107849121094,3.1112650573730467,7.134720947265625,3.2595419847328246,-13.007633587786259,3.1374045801526718
6308527865456,1.251915208,1,-1.3742717529296875,3.2417490478515623,7.340622290039062,5.236641221374046,-4.244274809160306,1.3129770992366412
6308533778321,1.257828073,1,-1.121683477783203,3.383006945800781,7.563283044433593,6.0458015267175576,2.7251908396946565,2.2748091603053435
6308539667435,1.263717187,1,-0.9923965881347656,3.441664886474609,7.746439471435546,7.442748091603053,5.534351145038168,7.244274809160306
6308545542019,1.269591771,1,-1.0821791503906248,3.470395306396484,7.874529260253905,17.641221374045802,8.770992366412214,17.213740458015266
6308551431081,1.275480833,1,-1.0606313354492187,3.219004132080078,8.113949426269532,25.984732824427482,9.01526717557252,23.099236641221374
6308557264310,1.281314062,1,-1.0342951171875,3.105279553222656,8.129511737060547,33.00763358778626,7.984732824427481,27.27480916030534
6308563113008,1.28716276,1,-0.9923965881347656,2.942473840332031,8.18457837524414,33.6793893129771,8.13740458015267,30.893129770992367
6308569006810,1.293056562,1,-0.978031378173828,2.7138275817871094,8.122329132080077,32.48091603053435,7.190839694656488,34.083969465648856
6308574969258,1.29901901,1,-0.8224082702636718,2.474407415771484,8.104372619628906,35.12977099236641,5.702290076335878,39.13740458015267
6308581024831,1.305074583,1,-0.7709329345703124,1.917755529785156,7.791929302978515,41.66412213740458,-4.145038167938932,38.67175572519084
6308586959935,1.311009687,1,-0.7781155395507812,1.7776947326660155,7.678204724121093,37.25954198473283,-7.603053435114504,35.32824427480916
6308592861393,1.316911145,1,-0.718260498046875,1.5825672973632812,7.44357296142578,28.267175572519083,-9.290076335877863,30.213740458015266
6308598736185,1.322785937,1,-0.612915625,1.476025323486328,7.351396197509765,20.49618320610687,-11.961832061068701,24.6793893129771
6308604609779,1.328659531,1,-0.5758054992675781,1.3467384338378905,7.229291912841797,17.045801526717558,-12.931297709923664,19.206106870229007
6308610515977,1.334565729,1,-0.5877765075683593,1.2868833923339842,7.100005023193359,15.641221374045802,-12.893129770992367,6.129770992366412
6308616410977,1.340460729,1,-0.4632780212402344,1.4030021728515625,6.945579016113281,10.534351145038167,-11.236641221374045,-1.7633587786259541
6308622338321,1.346388073,1,-0.45968671875,1.5502455749511719,6.9360022094726554,2.633587786259542,-11.045801526717558,-9.007633587786259
6308628246237,1.352295989,1,-0.6236895324707031,1.5825672973632812,6.864176159667968,-4.221374045801527,-12.145038167938932,-15.381679389312977
6308634185143,1.358234895,1,-0.8259995727539062,1.7226280944824217,6.891709478759765,-8.114503816793894,-16.31297709923664,-19.732824427480917
6308640101550,1.364151302,1,-0.8164227661132812,2.0781670410156248,6.907271789550781,-10.206106870229007,-5.366412213740458,-34.58015267175573
6308646026862,1.370076614,1,-0.6619967590332031,2.6467899353027344,7.078457208251953,-15.251908396946565,-7.076335877862595,-37.0
6308651959831,1.376009583,1,-0.7601590270996094,2.8850130004882812,7.074865905761718,-17.31297709923664,-10.900763358778626,-37.282442748091604
6308657887227,1.381936979,1,-0.9085995300292968,3.086125939941406,6.976703637695312,-20.18320610687023,-12.625954198473282,-36.900763358778626
6308663805248,1.387855,1,-1.035492218017578,3.2716765686035156,6.907271789550781,-21.748091603053435,-12.229007633587786,-37.19847328244275
6308669767383,1.393817135,1,-1.073799444580078,3.4332851806640625,6.886921075439453,-21.6793893129771,-9.969465648854962,-34.534351145038165
6308675721862,1.399771614,1,-1.177947216796875,3.5901053894042967,6.969521032714844,-15.648854961832061,-2.0839694656488548,-32.29007633587786
6308681627279,1.405677031,1,-1.2318167541503906,3.861847277832031,7.018602166748046,-12.404580152671755,2.854961832061069,-29.35114503816794
6308687497435,1.411547187,1,-1.158793603515625,3.9324762268066404,7.180210778808593,-9.335877862595419,7.786259541984733,-25.770992366412212
6308693367539,1.417417291,1,-1.16837041015625,4.034229797363281,7.368155609130859,-6.038167938931298,11.236641221374045,-21.053435114503817
6308699199831,1.423249583,1,-1.255758770751953,4.102464544677734,7.433996154785156,-2.2519083969465647,13.15267175572519,-15.725190839694656
6308705181758,1.42923151,1,-1.2198457458496093,4.019864587402344,7.504625103759765,1.4122137404580153,13.34351145038168,-4.32824427480916
6308711121237,1.435170989,1,-1.2617442749023438,3.778050219726562,7.72489165649414,2.4885496183206106,14.526717557251908,0.35877862595419846
6308717024675,1.441074427,1,-1.47482822265625,3.5793314819335937,7.781155395507812,5.1603053435114505,16.755725190839694,4.763358778625954
6308722887018,1.44693677,1,-1.5610194824218748,3.394977954101562,7.862558251953125,10.748091603053435,18.549618320610687,7.961832061068702
6308728762643,1.452812395,1,-1.6508020446777343,3.3028011901855465,7.979874133300781,15.13740458015267,19.793893129770993,10.687022900763358
6308734657487,1.458707239,1,-1.7094599853515624,3.0621839233398433,8.142679846191406,16.770992366412212,20.51145038167939,11.419847328244275
6308740569466,1.464619218,1,-1.868674395751953,2.9568390502929685,8.364143499755858,13.801526717557252,20.870229007633586,9.877862595419847
6308746433373,1.470483125,1,-1.9225439331054686,2.7569232116699216,8.500612994384765,11.145038167938932,20.374045801526716,7.374045801526718
6308752299518,1.47634927,1,-1.8423381774902343,2.7461493041992187,8.616731774902343,9.34351145038168,18.137404580152673,4.9541984732824424
6308758166602,1.482216354,1,-1.782483135986328,2.7174188842773437,8.664615808105468,7.374045801526718,14.114503816793894,2.648854961832061
6308764045925,1.488095677,1,-1.8124106567382812,2.655169641113281,8.62511148071289,4.33587786259542,9.099236641221374,0.6183206106870229
6308769948373,1.493998125,1,-1.8148048583984373,2.6479870361328124,8.562862237548828,0.8091603053435115,-0.030534351145038167,-3.6030534351145036
6308775881498,1.49993125,1,-1.7860744384765623,2.6623522460937497,8.367734802246094,-2.3053435114503817,-3.1755725190839694,-5.801526717557252
6308781780456,1.505830208,1,-1.686715069580078,2.6300305236816404,8.26119282836914,-2.404580152671756,-5.656488549618321,-7.969465648854962
6308787711654,1.511761406,1,-1.6711527587890624,2.674323254394531,8.090007409667969,-2.687022900763359,-8.465648854961833,-10.412213740458014
6308793674050,1.517723802,1,-1.5574281799316405,2.729389892578125,7.9655089233398435,-5.595419847328245,-11.259541984732824,-12.557251908396946
6308799700925,1.523750677,1,-1.4867992309570313,2.7844565307617186,7.75721337890625,-9.587786259541986,-13.748091603053435,-16.580152671755727
6308805712695,1.529762447,1,-1.4616601135253906,2.8275521606445313,7.542932330322265,-14.045801526717558,-16.51145038167939,-18.099236641221374
6308811625404,1.535675156,1,-1.39821376953125,2.9376854370117185,7.368155609130859,-13.98473282442748,-16.297709923664122,-18.786259541984734
6308817572695,1.541622447,1,-1.3862427612304686,2.981978167724609,7.181407879638671,-12.938931297709924,-14.801526717557252,-19.900763358778626
6308823416914,1.547466666,1,-1.426944189453125,3.0418332092285154,7.085639813232421,-13.442748091603054,-11.709923664122137,-21.297709923664122
6308829341550,1.553391302,1,-1.3563152404785155,3.1842882080078123,7.085639813232421,-14.709923664122137,-7.33587786259542,-22.3206106870229
6308835264414,1.559314166,1,-1.2713210815429687,3.286041778564453,7.126341241455077,-12.603053435114504,0.1297709923664122,-21.15267175572519
6308841170612,1.565220364,1,-1.284489190673828,3.5146880371093747,7.254431030273437,-10.213740458015268,2.564885496183206,-18.6793893129771
6308847043373,1.571093125,1,-1.4736311218261717,3.5338416503906247,7.316680273437499,-8.13740458015267,4.8320610687022905,-15.702290076335878
6308852933216,1.576982968,1,-1.4999673400878906,3.5110967346191404,7.310694769287109,-6.251908396946565,6.748091603053435,-11.450381679389313
6308858771706,1.582821458,1,-1.7465701110839842,3.4835634155273434,7.32266577758789,-2.954198473282443,9.15267175572519,-8.977099236641221
6308864649623,1.588699375,1,-1.8650830932617186,3.5422213562011717,7.473500482177734,-2.015267175572519,14.763358778625955,-6.541984732824427
6308870517279,1.594567031,1,-1.9632453613281249,3.614047406005859,7.89727417602539,0.24427480916030533,28.786259541984734,-5.541984732824427
6308876449310,1.600499062,1,-2.098517755126953,3.604470599365234,8.233659509277343,3.6259541984732824,34.29770992366412,-3.595419847328244
6308882337123,1.606386875,1,-2.1404162841796874,3.602076397705078,8.652644799804687,6.603053435114504,37.14503816793893,-1.0916030534351144
6308888240195,1.612289947,1,-2.2589292663574216,3.5877111877441403,8.881291058349609,8.465648854961833,38.02290076335878,1.4809160305343512
6308894192852,1.618242604,1,-2.436100189208984,3.574543078613281,9.160215551757812,9.068702290076336,37.7557251908397,3.954198473282443
6308900052070,1.624101822,1,-2.597708801269531,3.5314474487304683,9.45470235595703,8.511450381679388,33.656488549618324,6.511450381679389
6308905941133,1.629990885,1,-2.8095956481933593,3.3219548034667965,9.753977563476562,6.32824427480916,29.84732824427481,6.648854961832061
6308911852800,1.635902552,1,-3.1028853515624997,3.2788591735839843,9.911994873046874,2.83206106870229,26.641221374045802,5.229007633587786
6308917770664,1.641820416,1,-3.3542765258789062,3.3710359375,10.175357055664062,-2.2977099236641223,26.015267175572518,1.083969465648855
6308923570873,1.647620625,1,-3.383006945800781,3.404554760742187,10.459069952392577,-6.916030534351145,27.870229007633586,-2.2977099236641223
6308929483008,1.65353276,1,-3.2920272827148436,3.4907460205078125,10.787075579833983,-7.343511450381679,25.755725190839694,-6.236641221374046
6308935322123,1.659371875,1,-3.2501287536621093,3.6272155151367187,11.088744989013671,-8.954198473282442,9.274809160305344,-6.893129770992366
6308941240248,1.66529,1,-3.1471780822753903,3.7888241271972656,11.133037719726563,-16.251908396946565,-2.099236641221374,-6.816793893129771
6308947115664,1.671165416,1,-3.2740707702636715,3.7193922790527343,11.106701501464842,-22.69465648854962,-14.763358778625955,-5.183206106870229
6308953024935,1.677074687,1,-3.2453403503417966,3.8175545471191406,10.873266839599609,-20.748091603053435,-23.458015267175572,-6.175572519083969
6308958887591,1.682937343,1,-3.2166099304199216,3.948038537597656,10.672153900146483,-16.404580152671755,-30.587786259541986,-6.1679389312977095
6308964805560,1.688855312,1,-3.015496990966797,3.912125512695312,10.51533369140625,-13.51908396946565,-46.62595419847328,0.21374045801526717
6308970686498,1.69473625,1,-2.8036101440429686,3.8379052612304685,9.612719665527344,-3.984732824427481,-55.36641221374046,3.3206106870229006
6308976625456,1.700675208,1,-2.2756886779785157,3.805583538818359,9.138667736816405,-3.4732824427480917,-63.67175572519084,6.99236641221374
6308982503268,1.70655302,1,-2.096123553466797,3.669114044189453,8.525752111816406,-4.198473282442748,-70.56488549618321,11.16793893129771
6308988413998,1.71246375,1,-1.8411410766601561,3.4763808105468748,7.93558140258789,-1.4809160305343512,-75.45038167938931,16.374045801526716
6308994367123,1.718416875,1,-1.600523809814453,3.2800562744140622,7.358578802490234,6.32824427480916,-78.83969465648855,22.068702290076335
6309000276445,1.724326197,1,-1.4520833068847656,3.1004911499023438,6.260837341308593,15.633587786259541,-74.06870229007633,24.740458015267176
6309006202122,1.730251874,1,-1.1348515869140625,2.663549346923828,5.837063647460937,17.66412213740458,-70.61832061068702,25.374045801526716
6309012088737,1.736138489,1,-0.9576806640625,2.5378537597656248,5.480327600097656,17.977099236641223,-65.00763358778626,25.00763358778626
6309017993529,1.742043281,1,-0.8714894042968749,2.3918074584960936,5.227739324951171,17.732824427480917,-58.9236641221374,23.916030534351144
6309023917122,1.747966874,1,-0.6021417175292968,2.3511060302734372,5.080495922851562,17.480916030534353,-51.23664122137404,20.66412213740458
6309029882122,1.753931874,1,-0.30406361083984373,2.250549560546875,4.979939453125,15.977099236641221,-39.916030534351144,17.68702290076336
6309035805091,1.759854843,1,-0.14484920043945312,2.1739351074218747,4.752490295410156,16.51145038167939,-36.595419847328245,15.34351145038168
6309041739102,1.765788854,1,0.09457096557617187,2.2074539306640624,4.674678741455078,14.244274809160306,-33.16030534351145,12.290076335877863
6309047657487,1.771707239,1,0.26336218261718747,2.2780828796386716,4.623203405761719,7.580152671755725,-27.938931297709924,8.854961832061068
6309053557747,1.777607499,1,0.3220201232910156,2.2948422912597657,4.703409161376952,1.7328244274809161,-22.129770992366414,6.351145038167939
6309059459206,1.783508958,1,0.44412440795898434,2.357091534423828,4.874594580078124,1.3587786259541985,-15.351145038167939,4.900763358778626
6309065396289,1.789446041,1,0.6141127258300781,2.3331495178222657,4.803965631103515,9.549618320610687,-12.992366412213741,7.8320610687022905
6309071283268,1.79533302,1,0.7517793212890624,2.3235727111816407,4.614823699951172,9.82442748091603,-13.877862595419847,9.099236641221374
6309077186862,1.801236614,1,0.7038952880859375,2.1978771240234374,4.528632440185547,4.442748091603053,-11.83969465648855,10.213740458015268
6309083060456,1.807110208,1,0.7146691955566405,2.184709014892578,4.440046978759765,1.2900763358778626,-7.282442748091603,8.305343511450381
6309088993685,1.813043437,1,0.7757213378906249,2.0973206542968748,4.458003491210937,0.8015267175572519,0.7099236641221374,7.412213740458015
6309094873997,1.818923749,1,0.6548141540527344,2.042254016113281,4.620809204101562,10.34351145038168,20.015267175572518,4.793893129770993
6309100770352,1.824820104,1,0.7817068420410156,1.9955670837402342,5.031414788818359,11.007633587786259,29.52671755725191,3.7557251908396947
6309106673477,1.830723229,1,0.6811503723144531,2.031480108642578,5.276820458984375,8.030534351145038,33.58015267175573,0.6793893129770993
6309112578685,1.836628437,1,0.6500257507324219,2.0973206542968748,5.465962390136719,-1.3511450381679388,37.7557251908397,-4.114503816793893
6309118442591,1.842492343,1,0.4644751220703125,2.0841525451660154,5.786785412597656,-14.969465648854962,41.7557251908397,-5.9465648854961835
6309124430247,1.848479999,1,0.12689268798828124,1.9620482604980467,6.166266375732421,-19.16030534351145,52.01526717557252,-7.9465648854961835
6309130359050,1.854408802,1,-0.2501940734863281,2.099714855957031,6.9144543945312495,-1.0305343511450382,60.51145038167939,-10.534351145038167
6309136389675,1.860439427,1,-0.45489831542968745,2.2206220397949217,7.268796240234375,-1.5114503816793894,68.54198473282443,-13.526717557251908
6309142341914,1.866391666,1,-0.7769184387207031,2.440888592529297,7.936778503417968,-6.870229007633588,73.41984732824427,-17.267175572519083
6309148388633,1.872438385,1,-0.9085995300292968,2.4971523315429685,8.476670977783202,-10.229007633587786,75.1526717557252,-19.34351145038168
6309154326185,1.878375937,1,-0.9564835632324218,2.682702960205078,8.853757739257812,-10.992366412213741,71.76335877862596,-23.893129770992367
6309160231550,1.884281302,1,-1.0977414611816405,2.808398547363281,9.306261853027344,-24.244274809160306,62.80152671755725,-23.206106870229007
6309166113008,1.89016276,1,-2.04943662109375,2.807201446533203,9.6151138671875,-27.442748091603054,58.70229007633588,-22.801526717557252
6309171988164,1.896037916,1,-2.583343591308594,2.7916391357421872,9.751583361816406,-24.68702290076336,59.25954198473283,-23.3206106870229
6309177886550,1.901936302,1,-2.9975404785156248,2.910152117919922,10.193313568115233,-18.442748091603054,64.86259541984732,-25.755725190839694
6309183810195,1.907859947,1,-3.076549133300781,3.1076737548828124,10.45667575073242,-13.061068702290076,72.16793893129771,-29.84732824427481
6309189723893,1.913773645,1,-3.323151904296875,3.31357509765625,11.092336291503905,-11.259541984732824,78.8473282442748,-34.916030534351144
6309195623529,1.919673281,1,-3.3590649291992185,3.640383624267578,11.954248889160155,-12.374045801526718,69.09923664122137,-32.97709923664122
6309201532591,1.925582343,1,-3.257311358642578,3.718195178222656,12.222399475097655,-13.32824427480916,54.20610687022901,-28.52671755725191
6309207440143,1.931489895,1,-3.5326445495605467,3.7014357666015623,12.077550274658202,-11.938931297709924,36.89312977099237,-24.015267175572518
6309213388841,1.937438593,1,-3.7804444213867185,3.725377783203125,12.032060443115233,-10.786259541984732,23.96946564885496,-21.938931297709924
6309219290456,1.943340208,1,-3.851073370361328,3.6715082458496093,11.933898175048828,-9.442748091603054,13.854961832061068,-15.381679389312977
6309225227799,1.949277551,1,-3.621230010986328,3.5494039611816404,11.295843432617186,4.862595419847328,-1.7404580152671756,-16.267175572519083
6309231103008,1.95515276,1,-3.2249896362304686,3.4907460205078125,10.887632049560546,1.1526717557251909,-26.49618320610687,-6.0534351145038165
6309237001237,1.961050989,1,-3.6355952209472653,3.400963458251953,10.134655627441406,-4.801526717557252,-43.55725190839695,-5.00763358778626
6309242848112,1.966897864,1,-3.6104561035156246,3.2740707702636715,9.558850128173827,-13.885496183206106,-51.404580152671755,-6.480916030534351
6309248778581,1.972828333,1,-3.3111808959960936,3.171120098876953,9.228450299072264,-16.099236641221374,-48.465648854961835,-8.473282442748092
6309254679883,1.978729635,1,-2.7928362365722657,3.19865341796875,8.810662109374999,1.4274809160305344,-48.47328244274809,-9.50381679389313
6309260618268,1.98466802,1,-2.1583727966308595,3.161543292236328,7.972691528320312,3.8244274809160306,-52.86259541984733,-7.770992366412214
6309266495404,1.990545156,1,-2.0183119995117185,3.1459809814453124,7.474697583007812,-1.6412213740458015,-57.267175572519086,-7.305343511450381
6309272408216,1.996457968,1,-2.041056915283203,3.037044805908203,7.077260107421875,-10.19083969465649,-58.30534351145038,-7.732824427480916
6309278261341,2.002311093,1,-2.0470424194335934,3.0238766967773434,6.687005236816406,-14.610687022900763,-54.770992366412216,-9.488549618320612
6309284139466,2.008189218,1,-2.0733786376953125,3.1268273681640624,6.609193682861328,-12.129770992366412,-46.83206106870229,-13.442748091603054
6309290056393,2.014106145,1,-2.2385785522460937,3.3171664001464842,6.6905965393066404,2.519083969465649,-15.458015267175572,-14.007633587786259
6309295989622,2.020039374,1,-2.1308394775390624,3.7720647155761715,6.968323931884766,9.32824427480916,-2.099236641221374,-15.13740458015267
6309301930091,2.025979843,1,-2.1883003173828124,4.034229797363281,7.315483172607421,9.358778625954198,8.610687022900763,-14.916030534351146
6309307845508,2.03189526,1,-2.146401788330078,4.218583325195312,7.771578588867187,5.190839694656488,16.244274809160306,-12.946564885496183
6309313804935,2.037854687,1,-2.39420166015625,4.413710760498047,8.282740643310547,2.572519083969466,21.083969465648856,-11.076335877862595
6309319687747,2.043737499,1,-2.645592834472656,4.557362860107421,8.604760766601562,10.358778625954198,32.29007633587786,0.9618320610687023
6309325617383,2.049667135,1,-3.1292215698242187,4.695029455566406,9.677363110351562,21.572519083969464,39.49618320610687,5.977099236641221
6309331487070,2.055536822,1,-3.065775225830078,4.7560815979003905,10.104728106689452,30.80916030534351,45.48091603053435,10.083969465648854
6309337439935,2.061489687,1,-2.626439221191406,4.859032269287109,10.563217724609375,33.213740458015266,49.76335877862596,13.450381679389313
6309343381758,2.06743151,1,-2.6336218261718747,4.867411975097656,10.943895788574219,29.786259541984734,43.48854961832061,22.374045801526716
6309349276445,2.073326197,1,-2.9747955627441405,4.630386010742187,11.168950744628905,28.33587786259542,18.66412213740458,37.55725190839695
6309355133060,2.079182812,1,-3.23696064453125,4.29639487915039,11.265915911865234,33.29770992366412,14.0,43.19847328244275
6309361050872,2.085100624,1,-3.1280244689941403,4.100070343017578,11.36407817993164,38.38167938931298,6.916030534351145,46.7557251908397
6309366960456,2.091010208,1,-2.9077579162597655,3.9133226135253905,11.289857928466796,42.51145038167939,-0.24427480916030533,50.81679389312977
6309372864570,2.096914322,1,-2.6659435485839844,3.6355952209472653,11.075576879882812,45.47328244274809,-10.274809160305344,57.12213740458015
6309378733424,2.102783176,1,-2.6420015319824217,3.3111808959960936,10.819397302246093,50.587786259541986,-23.801526717557252,62.01526717557252
6309384733477,2.108783229,1,-2.5522189697265625,2.9496564453125,10.266336718749999,52.51145038167939,-47.80916030534351,67.30534351145039
6309390686758,2.11473651,1,-2.023100402832031,2.1823148132324217,9.258377819824219,51.221374045801525,-58.55725190839695,66.44274809160305
6309396588997,2.120638749,1,-1.9393033447265624,1.9033903198242186,8.693346228027343,49.42748091603053,-68.54198473282443,63.412213740458014
6309402430820,2.126480572,1,-1.8148048583984373,1.6208745239257811,8.095992913818359,45.41984732824427,-75.8473282442748,57.51145038167939
6309408322070,2.132371822,1,-1.523909356689453,1.5035586425781249,7.562085943603515,39.36641221374046,-79.02290076335878,49.16793893129771
6309414175247,2.138224999,1,-1.2282254516601563,1.4281412902832031,7.104793426513671,33.74809160305343,-83.30534351145039,30.68702290076336
6309420099831,2.144149583,1,-0.8846575134277344,1.5131354492187499,6.119579443359375,25.229007633587788,-86.47328244274809,22.48854961832061
6309426016549,2.150066301,1,-0.2885013000488281,1.6340426330566404,5.629965203857422,20.30534351145038,-89.74045801526718,15.251908396946565
6309431929987,2.155979739,1,-0.16280571289062498,1.6998831787109374,5.086481427001953,14.610687022900763,-92.54961832061069,8.450381679389313
6309437774101,2.161823853,1,-0.07900865478515624,1.8471265808105468,4.653130926513672,8.793893129770993,-92.14503816793894,1.5801526717557253
6309443808737,2.167858489,1,0.015562310791015624,1.9596540588378906,4.266467358398438,4.343511450381679,-88.53435114503817,-11.648854961832061
6309449746341,2.173796093,1,0.07302315063476562,2.1930887207031247,3.706224169921875,1.7709923664122138,-72.38167938931298,-18.328244274809162
6309455626706,2.179676458,1,0.3172317199707031,2.6611551452636717,3.5805285827636717,-0.1450381679389313,-60.61832061068702,-23.328244274809162
6309461530143,2.185579895,1,0.430956298828125,2.914940521240234,3.5697546752929687,-1.3587786259541985,-50.0763358778626,-26.84732824427481
6309467445560,2.191495312,1,0.3950432739257812,3.277662072753906,3.6200329101562496,-1.7404580152671756,-38.0,-31.076335877862597
6309473377435,2.197427187,1,0.5003881469726562,3.575740179443359,3.871424084472656,-3.5877862595419847,-25.862595419847327,-32.76335877862596
6309479268372,2.203318124,1,0.4955997436523437,3.8570588745117185,3.9336733276367184,-4.412213740458015,-9.778625954198473,-31.770992366412212
6309485165560,2.209215312,1,0.4082113830566406,4.375403533935547,4.570530969238281,-7.740458015267175,-1.3282442748091603,-28.984732824427482
6309491027383,2.215077135,1,0.0143652099609375,4.509478826904297,4.830301849365234,-6.297709923664122,6.931297709923665,-25.99236641221374
6309496891185,2.220940937,1,-0.06344634399414062,4.7764323120117185,5.298368273925781,-2.877862595419847,14.709923664122137,-22.31297709923664
6309502820716,2.226870468,1,-0.015562310791015624,4.839878656005859,5.613205792236328,-0.06870229007633588,21.31297709923664,-16.786259541984734
6309508750508,2.23280026,1,0.07062894897460938,4.9416322265625,6.05852730102539,2.6717557251908395,23.740458015267176,0.26717557251908397
6309514655143,2.238704895,1,0.21787235107421873,4.881777185058594,6.308721374511719,9.389312977099237,17.259541984732824,9.977099236641221
6309520549622,2.244599374,1,0.20709844360351562,4.502296221923828,6.349422802734375,10.679389312977099,12.083969465648854,19.404580152671755
6309526507383,2.250557135,1,0.23343466186523437,4.206612316894531,6.23090982055664,11.045801526717558,10.320610687022901,26.900763358778626
6309532397904,2.256447656,1,0.16759411621093748,3.8570588745117185,6.252457635498047,12.961832061068701,12.030534351145038,33.282442748091604
6309538304883,2.262354635,1,0.2442085693359375,3.5003228271484375,6.251260534667968,19.251908396946565,16.435114503816795,37.595419847328245
6309544175404,2.268225156,1,0.4285620971679687,3.1483751831054687,6.257246038818359,26.671755725190838,27.72519083969466,42.030534351145036
6309550048841,2.274098593,1,0.4704606262207031,2.6228479187011717,6.554127044677734,33.2442748091603,31.900763358778626,41.48854961832061
6309555925664,2.279975416,1,0.4225765930175781,2.31758720703125,6.757634185791015,28.893129770992367,34.778625954198475,39.00763358778626
6309561854362,2.285904114,1,0.43574470214843747,2.1607669982910154,6.919242797851562,22.52671755725191,35.51908396946565,34.3587786259542
6309567799206,2.291848958,1,0.37229835815429685,1.9943699829101562,6.998251452636718,14.908396946564885,37.36641221374046,26.595419847328245
6309573743268,2.29779302,1,0.22266075439453123,1.838746875,7.298723760986328,6.206106870229007,40.06106870229008,15.49618320610687
6309579667435,2.303717187,1,0.05626373901367187,1.7310078002929687,7.800309008789062,6.900763358778626,41.85496183206107,9.34351145038168
6309585558424,2.309608176,1,-0.3220201232910156,1.7393875061035156,8.112752325439452,9.091603053435115,43.534351145038165,3.572519083969466
6309591425143,2.315474895,1,-0.45968671875,1.8770541015625,8.329427575683594,7.435114503816794,43.732824427480914,-3.648854961832061
6309597278008,2.32132776,1,-0.5183446594238281,2.0087351928710935,8.556876733398436,1.6106870229007633,41.38931297709924,-11.603053435114504
6309603141289,2.327191041,1,-0.5889736083984375,2.1260510742187497,8.768763580322265,-7.00763358778626,36.030534351145036,-18.84732824427481
6309609039779,2.333089531,1,-0.7505822204589844,2.3056161987304686,8.828618621826172,-15.374045801526718,23.244274809160306,-31.137404580152673
6309614989883,2.339039635,1,-0.928950244140625,2.6192566162109374,9.02733735961914,-22.53435114503817,16.564885496183205,-35.17557251908397
6309620914049,2.344963801,1,-1.1647791076660157,2.8095956481933593,8.908824377441405,-20.396946564885496,10.091603053435115,-38.99236641221374
6309626813945,2.350863697,1,-1.150413897705078,2.896984008789062,8.846575134277343,-20.27480916030534,3.2519083969465647,-41.14503816793893
6309632713737,2.356763489,1,-1.1911153259277343,3.0825346374511717,8.634688287353516,-21.587786259541986,-4.061068702290076,-43.51145038167939
6309638646966,2.362696718,1,-1.1384428894042968,3.3099837951660156,8.323442071533202,-25.53435114503817,-12.396946564885496,-46.66412213740458
6309644544726,2.368594478,1,-1.1516109985351561,3.318363500976562,7.740453967285156,-30.16793893129771,-22.0,-47.51145038167939
6309650399206,2.374448958,1,-0.9528922607421875,3.479972113037109,7.351396197509765,-26.786259541984734,-26.00763358778626,-48.18320610687023
6309656270456,2.380320208,1,-0.852335791015625,3.6152445068359373,6.900089184570312,-26.557251908396946,-28.69465648854962,-47.0763358778626
6309662196653,2.386246405,1,-0.834379278564453,3.5817256835937497,6.563703851318359,-27.763358778625953,-30.610687022900763,-45.9236641221374
6309668083216,2.392132968,1,-0.5159504577636719,3.5901053894042967,6.102820031738281,-26.671755725190838,-30.763358778625953,-44.3206106870229
6309674026914,2.398076666,1,-0.42377369384765623,3.5422213562011717,5.746083984375,-23.229007633587788,-28.33587786259542,-40.80916030534351
6309679944258,2.40399401,1,-0.30047230834960936,3.527856146240234,4.948814831542968,-21.282442748091604,-25.572519083969464,-39.19847328244275
6309685986445,2.410036197,1,-0.1005564697265625,3.4093431640625,4.796783026123046,-25.106870229007633,-19.46564885496183,-35.83206106870229
6309691882174,2.415931926,1,-0.10893617553710937,3.2884359802246093,4.541800549316406,-21.96946564885496,-10.969465648854962,-33.93129770992366
6309697856185,2.421905937,1,-0.17597382202148437,3.239354846191406,4.553771557617187,-14.458015267175572,0.2900763358778626,-32.16030534351145
6309703813581,2.427863333,1,-0.008379705810546874,3.029862200927734,4.678270043945313,-6.068702290076335,22.251908396946565,-27.16030534351145
6309709740143,2.433789895,1,-0.09457096557617187,2.8048072448730466,4.973953948974609,1.0229007633587786,28.938931297709924,-25.580152671755727
6309715638268,2.43968802,1,-0.6967126831054687,2.6300305236816404,5.080495922851562,-5.534351145038168,34.343511450381676,-25.49618320610687
6309721474206,2.445523958,1,-1.209071838378906,2.5474305664062498,5.34984360961914,-9.213740458015268,42.25190839694657,-28.3206106870229
6309727495820,2.451545572,1,-1.5490484741210937,2.7234043884277344,5.942408520507812,-10.458015267175572,64.6030534351145,-40.88549618320611
6309733497383,2.457547135,1,-1.7238251953125,2.996343377685547,6.573280657958984,-16.52671755725191,75.77862595419847,-53.847328244274806
6309739398737,2.463448489,1,-2.2182278381347653,3.3207577026367185,7.977479931640625,-31.16030534351145,90.6793893129771,-57.458015267175576
6309745340508,2.46939026,1,-2.750937707519531,3.909731311035156,8.508992700195313,-31.328244274809162,94.61068702290076,-58.603053435114504
6309751200872,2.475250624,1,-2.8730419921875,4.225765930175781,9.187748870849608,-24.022900763358777,98.57251908396947,-59.7557251908397
6309757059414,2.481109166,1,-2.546233465576172,4.624400506591797,9.80665,-15.419847328244275,104.96946564885496,-59.83206106870229
6309762937956,2.486987708,1,-2.577358087158203,4.742913488769531,10.087968695068358,-11.19083969465649,92.1526717557252,-49.94656488549618
6309768791966,2.492841718,1,-2.8036101440429686,4.7201685729980465,10.198101971435547,-11.618320610687023,62.85496183206107,-36.49618320610687
6309774658789,2.498708541,1,-3.2333693420410152,4.556165759277343,10.123881719970703,-23.580152671755727,56.030534351145036,-37.47328244274809
6309780553737,2.504603489,1,-4.223371728515625,4.726154077148437,9.853336932373047,-37.14503816793893,46.42748091603053,-39.55725190839695
6309786541653,2.510591405,1,-4.708197564697265,4.504690423583984,10.04247886352539,-52.66412213740458,50.66412213740458,-34.56488549618321
6309792481862,2.516531614,1,-5.025429284667968,4.453215087890625,10.299855541992187,-44.534351145038165,63.48854961832061,-31.6793893129771
6309798347851,2.522397603,1,-5.072116217041016,4.7393221862792965,10.548852514648438,-15.98473282442748,78.06106870229007,-34.86259541984733
6309804247226,2.528296978,1,-5.165490081787109,5.002684368896484,10.94269868774414,6.00763358778626,87.66412213740458,-21.427480916030536
6309810098372,2.534148124,1,-5.813121630859374,4.805162731933594,11.690886706542969,5.450381679389313,85.78625954198473,-17.427480916030536
6309815992070,2.540041822,1,-5.728127471923828,4.693832354736328,11.621454858398437,17.900763358778626,72.63358778625954,-9.114503816793894
6309821997956,2.546047708,1,-6.120776544189453,5.099649536132812,11.529278094482422,23.541984732824428,58.97709923664122,-17.61832061068702
6309827998216,2.552047968,1,-6.041767889404296,5.090072729492187,11.614272253417967,-5.015267175572519,55.36641221374046,-14.969465648854962
6309833924153,2.557973905,1,-6.150704064941406,5.307945080566406,11.72799683227539,-27.572519083969464,29.80916030534351,-20.0381679389313
6309839874883,2.563924635,1,-6.010643267822266,5.646724615478515,11.718420025634765,-24.48854961832061,23.870229007633586,-13.19083969465649
6309845863320,2.569913072,1,-5.641936212158202,5.749675286865234,11.690886706542969,-4.801526717557252,17.282442748091604,-1.5419847328244274
6309851816028,2.57586578,1,-5.021837982177734,5.8083332275390624,11.563994018554688,16.045801526717558,7.320610687022901,10.251908396946565
6309857802539,2.581852291,1,-4.716577270507813,5.747281085205078,11.399991204833984,26.69465648854962,-5.862595419847328,24.81679389312977
6309863690872,2.587740624,1,-4.2521021484374995,5.610811590576172,10.946289990234375,24.9618320610687,-38.38931297709924,47.33587786259542
6309869570664,2.593620416,1,-3.803189337158203,4.84586416015625,9.73602105102539,15.290076335877863,-51.7557251908397,55.954198473282446
6309875468320,2.599518072,1,-3.2213983337402343,4.465186096191406,9.132682232666015,21.85496183206107,-59.23664122137404,65.59541984732824
6309881386185,2.605435937,1,-2.7820623291015623,3.976768957519531,8.400056524658202,31.946564885496183,-61.20610687022901,75.54961832061069
6309887278320,2.611328072,1,-2.5139117431640625,3.518279339599609,7.97388862915039,45.63358778625954,-56.66412213740458,82.20610687022901
6309893177278,2.61722703,1,-2.1308394775390624,3.1184476623535153,7.595604766845702,58.94656488549618,-51.74809160305343,84.87786259541984
6309899131185,2.623180937,1,-1.7753005310058592,2.8107927490234372,7.108384729003906,56.29007633587786,-46.17557251908397,85.14503816793894
6309905009205,2.629058957,1,-1.3479355346679687,2.085349645996094,6.621164691162109,46.76335877862596,-45.916030534351144,84.20610687022901
6309910972174,2.635021926,1,-1.2832920898437499,1.839943975830078,6.4284314575195305,43.55725190839695,-44.29770992366412,78.6412213740458
6309916871914,2.640921666,1,-1.1623849060058593,1.4832079284667967,6.19260259399414,43.64885496183206,-37.045801526717554,73.94656488549619
6309922805664,2.646855416,1,-1.2126631408691406,1.3682862487792968,6.199785198974609,47.770992366412216,-29.34351145038168,65.98473282442748
6309928704674,2.652754426,1,-0.9337386474609375,1.4053963745117186,6.112396838378906,47.152671755725194,-17.404580152671755,47.48854961832061
6309934608997,2.658658749,1,-0.7457938171386719,1.3970166687011718,6.332663391113281,29.083969465648856,-17.129770992366414,39.23664122137404
6309940479258,2.66452901,1,-0.39743747558593745,1.4341267944335936,6.274005450439453,23.091603053435115,-18.763358778625953,31.908396946564885
6309946367330,2.670417082,1,-0.3806780639648437,1.4053963745117186,6.241683728027343,20.022900763358777,-19.99236641221374,26.770992366412212
6309952336966,2.676386718,1,-0.41060558471679687,1.543062969970703,6.1088055358886715,18.96946564885496,-22.19083969465649,20.625954198473284
6309958203008,2.68225276,1,-0.3435679382324219,1.5298948608398437,6.050147595214844,17.03053435114504,-22.03053435114504,15.908396946564885
6309964161758,2.68821151,1,-0.6356605407714844,1.5155296508789062,5.870582470703124,16.129770992366414,-23.374045801526716,5.183206106870229
6309970006810,2.694056562,1,-0.1292868896484375,1.8291700683593748,5.955576629638672,13.01526717557252,-17.65648854961832,-1.6793893129770991
6309975940560,2.699990312,1,0.023942016601562498,1.9919757812499999,5.821501336669922,8.923664122137405,-20.068702290076335,-5.755725190839694
6309981864101,2.705913853,1,-0.040701428222656245,2.0542250244140625,5.743689782714843,4.213740458015267,-24.35114503816794,-7.885496183206107
6309987787226,2.711836978,1,-0.23104046020507812,2.123656872558594,5.516240625,-0.061068702290076333,-25.946564885496183,-11.290076335877863
6309993708268,2.71775802,1,-0.4704606262207031,2.1883003173828124,5.4013189453125,-4.145038167938932,-18.396946564885496,-21.374045801526716
6309999567539,2.723617291,1,-0.709880792236328,2.568978381347656,5.485116003417969,-10.419847328244275,-11.50381679389313,-26.977099236641223
6310005663320,2.729713072,1,-0.928950244140625,2.7629087158203123,5.659892724609374,-12.312977099236642,-4.885496183206107,-32.48091603053435
6310012072330,2.736122082,1,-0.9696516723632812,3.1004911499023438,5.961562133789062,-15.0,3.1297709923664123,-37.954198473282446
6310017996601,2.742046353,1,-0.8702923034667969,3.417722869873047,6.233304022216797,-18.251908396946565,6.877862595419847,-40.70229007633588
6310023895664,2.747945416,1,-0.9888052856445312,3.6954502624511716,6.399701037597656,-19.580152671755727,7.32824427480916,-38.221374045801525
6310029895403,2.753945155,1,-1.2904746948242187,4.144363073730468,6.775590698242187,-16.366412213740457,8.221374045801527,-35.29007633587786
6310035802278,2.75985203,1,-1.3156138122558594,4.302380383300781,6.851008050537109,-11.67175572519084,10.16030534351145,-31.221374045801525
6310041802799,2.765852551,1,-1.2689268798828124,4.369418029785156,7.056909393310547,-6.435114503816794,10.938931297709924,-26.69465648854962
6310047743841,2.771793593,1,-1.235408056640625,4.436455676269531,7.037755780029296,-3.3206106870229006,8.801526717557252,-21.053435114503817
6310053678997,2.777728749,1,-1.301248602294922,4.408922357177734,7.0652890991210935,-3.8244274809160306,2.954198473282443,-10.908396946564885
6310059598997,2.783648749,1,-1.301248602294922,4.14316597290039,6.946776116943359,-6.938931297709924,2.183206106870229,-5.923664122137405
6310065653060,2.789702812,1,-1.4772224243164063,3.9372646301269527,6.860584857177734,-2.595419847328244,1.534351145038168,-1.297709923664122
6310071606080,2.795655832,1,-1.4939818359375,3.6906618591308593,6.733692169189453,4.67175572519084,1.5267175572519085,2.114503816793893
6310077541289,2.801591041,1,-1.4592659118652342,3.5673604736328124,6.591237170410156,7.748091603053435,4.099236641221374,3.572519083969466
6310083404414,2.807454166,1,-1.5945383056640625,3.3674446350097655,6.6343328002929685,7.038167938931298,7.236641221374046,1.015267175572519
6310089260455,2.813310207,1,-1.600523809814453,3.2704794677734372,6.580463262939452,-0.9007633587786259,8.992366412213741,-1.3206106870229009
6310095132382,2.819182134,1,-1.7453730102539062,3.086125939941406,6.737283471679687,-4.648854961832061,12.49618320610687,-3.0839694656488548
6310101077591,2.825127343,1,-1.8926164123535154,3.1866824096679687,6.816292126464844,-2.1297709923664123,14.84732824427481,-7.687022900763359
6310106963841,2.831013593,1,-1.9596540588378906,3.24294614868164,7.037755780029296,-2.564885496183206,18.633587786259543,-12.335877862595419
6310112903580,2.836953332,1,-1.9225439331054686,3.3123779968261715,7.335833886718749,-8.465648854961833,20.480916030534353,-13.98473282442748
6310118795976,2.842845728,1,-2.005143890380859,3.384204046630859,7.400477331542969,-16.091603053435115,16.580152671755727,-19.61832061068702
6310124863789,2.848913541,1,-2.1487959899902345,3.496731524658203,7.711723547363281,-16.68702290076336,15.114503816793894,-19.732824427480917
6310130770560,2.854820312,1,-2.1823148132324217,3.6391865234374996,7.788338000488281,-14.213740458015268,12.954198473282442,-21.30534351145038
6310136705612,2.860755364,1,-2.2397756530761717,3.6583401367187496,7.811082916259765,-14.923664122137405,11.717557251908397,-21.48854961832061
6310142666810,2.866716562,1,-2.2110452331542967,3.6355952209472653,7.869740856933594,-15.854961832061068,10.572519083969466,-20.16793893129771
6310148601132,2.872650884,1,-2.110488763427734,3.651157531738281,7.783549597167968,-13.15267175572519,2.5877862595419847,-20.244274809160306
6310154527330,2.878577082,1,-2.1823148132324217,3.6631285400390623,7.710526446533203,-17.908396946564885,0.7633587786259542,-19.938931297709924
6310160457591,2.884507343,1,-2.212242333984375,3.782838623046875,7.5716627502441405,-20.52671755725191,1.0,-22.015267175572518
6310166359362,2.890409114,1,-2.270900274658203,3.7529111022949215,7.729680059814453,-20.717557251908396,2.549618320610687,-22.450381679389313
6310172295195,2.896344947,1,-2.1224597717285154,3.797203833007812,7.735665563964844,-15.648854961832061,4.0534351145038165,-20.977099236641223
6310178175403,2.902225155,1,-2.0925322509765625,3.8582559753417964,7.7608046813964835,-9.473282442748092,3.7938931297709924,-16.206106870229007
6310184073841,2.908123593,1,-2.094926452636719,3.744531396484375,7.511807708740234,-12.17557251908397,-4.152671755725191,-13.50381679389313
6310189998737,2.914048489,1,-2.165555401611328,3.688267657470703,7.419630944824219,-13.893129770992367,-5.511450381679389,-12.48091603053435
6310195929049,2.919978801,1,-2.2445640563964844,3.5218706420898434,7.236474517822265,-15.229007633587786,-4.259541984732825,-11.854961832061068
6310201811341,2.925861093,1,-2.1715409057617188,3.5122938354492184,7.194575988769531,-14.129770992366412,-1.6412213740458015,-12.17557251908397
6310207740195,2.931789947,1,-2.2194249389648437,3.384204046630859,7.256825231933593,-11.82442748091603,1.5572519083969465,-12.404580152671755
6310213675247,2.937724999,1,-2.223016241455078,3.4057518615722655,7.196970190429687,-10.694656488549619,6.122137404580153,-11.687022900763358
6310219599310,2.943649062,1,-2.7329811950683593,3.366247534179687,7.224503509521484,-12.916030534351146,11.801526717557252,-13.435114503816793
6310225560143,2.949609895,1,-2.972401361083984,3.465606903076172,7.4220251464843745,-15.435114503816793,19.82442748091603,-17.946564885496183
6310231461132,2.955510884,1,-3.2549171569824216,3.6750995483398436,7.784746697998046,-18.480916030534353,31.49618320610687,-23.15267175572519
6310237403893,2.961453645,1,-3.372233038330078,3.8893805969238278,8.210914593505859,-18.80916030534351,43.87022900763359,-27.786259541984734
6310243278476,2.967328228,1,-3.5051112304687497,4.271255761718749,8.810662109374999,-15.374045801526718,61.603053435114504,-32.19083969465649
6310249206132,2.973255884,1,-3.70263286743164,4.855440966796874,9.91438907470703,-8.778625954198473,67.50381679389314,-30.870229007633586
6310255075039,2.979124791,1,-3.744531396484375,5.136759661865234,10.493785876464843,-5.66412213740458,73.64885496183206,-29.022900763358777
6310260995924,2.985045676,1,-3.892971899414062,5.111620544433594,10.675745202636719,-3.7709923664122136,51.083969465648856,-15.320610687022901
6310266836810,2.990886562,1,-4.31554849243164,5.084087225341796,10.679336505126953,-0.7099236641221374,39.56488549618321,-8.877862595419847
6310272802018,2.99685177,1,-4.560954162597656,4.994304663085937,10.660182891845702,-4.190839694656488,30.221374045801525,-2.564885496183206
6310278690872,3.002740624,1,-4.551377355957031,4.898536596679687,10.687716210937499,-0.5648854961832062,19.14503816793893,4.312977099236641
6310284600195,3.008649947,1,-4.417302062988281,4.801571429443359,10.75116255493164,8.900763358778626,15.992366412213741,11.022900763358779
6310290523320,3.014573072,1,-4.135983367919922,4.741716387939453,10.734403143310546,19.885496183206108,6.549618320610687,17.717557251908396
6310296453060,3.020502812,1,-3.881000891113281,4.522646936035156,10.53329020385742,26.435114503816795,-5.137404580152672,25.717557251908396
6310302395560,3.026445312,1,-3.5805285827636717,4.3059716857910155,10.062829577636718,27.221374045801525,-18.51145038167939,30.580152671755727
6310308386393,3.032436145,1,-3.337517114257812,4.064157318115234,9.583989245605467,20.03053435114504,-41.282442748091604,34.52671755725191
6310314246862,3.038296614,1,-3.1687258972167966,3.5613749694824217,8.574833245849609,8.633587786259541,-46.93893129770992,32.9236641221374
6310320109153,3.044158905,1,-2.6982652709960937,3.394977954101562,8.079233502197265,8.992366412213741,-47.282442748091604,30.68702290076336
6310326039257,3.050089009,1,-2.492363928222656,3.2800562744140622,7.826645227050781,12.687022900763358,-44.954198473282446,30.16793893129771
6310331951237,3.056000989,1,-2.081758343505859,3.1507693847656246,7.522581616210937,18.46564885496183,-43.81679389312977,29.923664122137403
6310337923945,3.061973697,1,-1.6819266662597656,3.047818713378906,7.181407879638671,23.549618320610687,-43.595419847328245,30.458015267175572
6310343868476,3.067918228,1,-1.5119383483886717,2.952050646972656,6.488286499023437,22.19083969465649,-48.083969465648856,28.80916030534351
6310349781809,3.073831561,1,-1.3096283081054687,2.6144682128906247,6.186617089843749,14.412213740458014,-48.99236641221374,26.641221374045802
6310355643945,3.079693697,1,-1.1659762084960936,2.5163059448242184,5.94360562133789,8.65648854961832,-48.091603053435115,23.64885496183206
6310361659518,3.08570927,1,-1.1037269653320312,2.4133552734375,5.559336254882812,8.282442748091603,-44.396946564885496,20.778625954198475
6310367602747,3.091652499,1,-0.9540893615722655,2.39420166015625,5.415684155273437,12.145038167938932,-39.85496183206107,19.251908396946565
6310373541653,3.097591405,1,-0.8283937744140625,2.347514727783203,5.249287139892578,15.358778625954198,-31.076335877862597,12.900763358778626
6310379439570,3.103489322,1,-0.5710170959472656,2.4109610717773435,5.051765502929687,12.404580152671755,-28.65648854961832,9.381679389312977
6310385350924,3.109400676,1,-0.45489831542968745,2.4193407775878906,4.950011932373046,7.534351145038168,-27.709923664122137,6.259541984732825
6310391244466,3.115294218,1,-0.6141127258300781,2.4157494750976563,4.726154077148437,2.435114503816794,-26.770992366412212,3.366412213740458
6310397113372,3.121163124,1,-0.6200982299804687,2.499546533203125,4.708197564697265,-1.0763358778625953,-23.557251908396946,-0.44274809160305345
6310403098632,3.127148384,1,-0.48123453369140623,2.6192566162109374,4.874594580078124,-2.3740458015267176,-7.885496183206107,-5.824427480916031
6310409067591,3.133117343,1,-0.2059013427734375,2.741360900878906,4.839878656005859,4.259541984732825,-6.961832061068702,-5.129770992366412
6310414991601,3.139041353,1,-0.2920926025390625,2.6958710693359373,4.837484454345703,5.473282442748092,-4.793893129770993,-3.9236641221374047
6310420924778,3.14497453,1,-0.46686932373046874,2.6862942626953124,4.847061260986328,3.6259541984732824,-0.22900763358778625,-3.8473282442748094
6310426747539,3.150797291,1,-0.5542576843261718,2.7473464050292966,4.945223529052734,2.1755725190839694,7.229007633587786,-6.320610687022901
6310432713528,3.15676328,1,-0.5997475158691405,2.701856573486328,5.279214660644531,2.099236641221374,16.763358778625953,-11.687022900763358
6310438610612,3.162660364,1,-0.4740519287109375,2.881421697998047,5.664681127929687,-2.0763358778625953,24.893129770992367,-15.206106870229007
6310444490559,3.168540311,1,-0.63206923828125,2.990357873535156,5.947196923828125,-16.17557251908397,28.435114503816795,-15.458015267175572
6310450357851,3.174407603,1,-0.9792284790039062,2.788047833251953,6.291961962890625,-21.625954198473284,31.740458015267176,-13.603053435114504
6310456278997,3.180328749,1,-1.2401964599609374,2.890998504638672,6.605602380371093,-12.312977099236642,34.847328244274806,-15.557251908396946
6310462243164,3.186292916,1,-1.5502455749511719,2.9891607727050777,6.823474731445312,-5.213740458015267,41.76335877862596,-16.916030534351144
6310468147851,3.192197603,1,-1.8315642700195311,3.0131027893066404,7.273584643554687,-6.916030534351145,53.396946564885496,-23.12213740458015
6310474055612,3.198105364,1,-1.9333178405761717,3.247734552001953,8.267178332519531,-15.442748091603054,55.083969465648856,-25.557251908396946
6310479982487,3.204032239,1,-2.2732944763183593,3.3674446350097655,8.62511148071289,-17.18320610687023,52.89312977099237,-27.053435114503817
6310485937382,3.209987134,1,-2.530671154785156,3.506308331298828,9.01536635131836,-17.610687022900763,48.37404580152672,-27.396946564885496
6310491858737,3.215908489,1,-2.901772412109375,3.5613749694824217,9.217676391601563,-18.374045801526716,43.10687022900763,-26.076335877862597
6310497854987,3.221904739,1,-3.058592620849609,3.5984850952148437,9.249998114013671,-17.572519083969464,37.94656488549618,-28.923664122137403
6310503796237,3.227845989,1,-3.459621398925781,3.712209674072265,9.510966094970703,-22.51145038167939,34.63358778625954,-31.389312977099237
6310509638372,3.233688124,1,-3.870226983642578,3.9995138732910154,9.69771382446289,-26.00763358778626,34.82442748091603,-33.06106870229008
6310515502487,3.239552239,1,-4.197035510253906,4.218583325195312,9.897629663085937,-23.68702290076336,36.74045801526717,-34.12213740458015
6310521376705,3.245426457,1,-4.367023828124999,4.3454760131835934,10.139444030761718,-17.244274809160306,38.41984732824427,-33.47328244274809
6310527302434,3.251352186,1,-4.404133953857421,4.525041137695312,10.334571466064453,-10.801526717557252,37.083969465648856,-31.938931297709924
6310533235039,3.257284791,1,-4.109647149658203,4.675875842285156,10.497377178955077,-10.893129770992367,23.328244274809162,-25.862595419847327
6310539130924,3.263180676,1,-4.1383775695800775,4.932055419921875,10.383652600097655,-16.374045801526716,10.992366412213741,-23.793893129770993
6310545072695,3.269122447,1,-4.806359832763672,4.942829327392578,10.411185919189453,-21.244274809160306,7.450381679389313,-22.297709923664122
6310550979466,3.275029218,1,-4.627991809082031,4.929661218261718,10.363301885986328,-18.66412213740458,2.6106870229007635,-20.099236641221374
6310556916966,3.280966718,1,-4.422090466308593,5.078101721191406,10.286687432861328,-11.969465648854962,-4.66412213740458,-17.15267175572519
6310562775299,3.286825051,1,-4.240131140136718,5.172672686767577,10.129867224121092,-10.007633587786259,-14.717557251908397,-3.687022900763359
6310568648164,3.292697916,1,-4.007893579101562,5.044582897949218,9.424774835205078,-6.549618320610687,-33.99236641221374,3.519083969465649
6310574504882,3.298554634,1,-3.5589807678222654,4.837484454345703,9.06564458618164,0.8473282442748091,-40.67175572519084,11.221374045801527
6310580390455,3.304440207,1,-3.3698388366699215,4.574122271728515,8.546102825927735,8.549618320610687,-46.7557251908397,19.85496183206107
6310586261341,3.310311093,1,-3.046621612548828,4.367023828124999,7.9655089233398435,15.427480916030534,-51.66412213740458,25.022900763358777
6310592109830,3.316159582,1,-2.7246014892578123,4.082113830566406,7.522581616210937,15.786259541984732,-53.587786259541986,28.69465648854962
6310598028528,3.32207828,1,-2.479195819091797,3.821145849609375,7.125144140624999,13.290076335877863,-52.52671755725191,33.89312977099237
6310603912434,3.327962186,1,-2.3678654418945313,3.366247534179687,6.405686541748047,14.541984732824428,-48.56488549618321,35.49618320610687
6310609848684,3.333898436,1,-2.155978594970703,3.1184476623535153,6.0525417968749995,20.625954198473284,-40.6412213740458,35.76335877862596
6310615791653,3.339841405,1,-1.9608511596679685,2.9939491760253905,5.91846650390625,25.587786259541986,-29.49618320610687,33.52671755725191
6310621654726,3.345704478,1,-1.8339584716796873,2.9700071594238278,5.9017070922851556,26.259541984732824,-17.404580152671755,29.52671755725191
6310627581497,3.351631249,1,-1.7022773803710936,2.9269115295410155,6.086060620117187,22.519083969465647,-6.00763358778626,20.977099236641223
6310633471184,3.357520936,1,-1.6723498596191406,2.901772412109375,6.519411120605469,17.480916030534353,10.580152671755725,17.229007633587788
6310639390195,3.363439947,1,-1.927332336425781,3.1220389648437497,6.87614716796875,18.17557251908397,16.15267175572519,14.236641221374045
6310645333268,3.36938302,1,-2.0542250244140625,3.2309751403808593,7.211335400390625,18.603053435114504,22.061068702290076,12.618320610687023
6310651292539,3.375342291,1,-2.1871032165527344,3.347093920898437,7.568071447753906,20.954198473282442,26.16030534351145,10.022900763358779
6310657249518,3.38129927,1,-2.2206220397949217,3.574543078613281,7.957129217529296,22.17557251908397,27.954198473282442,8.198473282442748
6310663111653,3.387161405,1,-2.138022082519531,3.6272155151367187,8.14627114868164,17.755725190839694,19.977099236641223,9.16793893129771
6310669021080,3.393070832,1,-2.203862628173828,3.73495458984375,8.522160809326172,15.045801526717558,11.366412213740459,11.603053435114504
6310674879778,3.39892953,1,-2.2732944763183593,3.707421270751953,8.463502868652343,13.931297709923664,2.1908396946564888,14.19083969465649
6310680782278,3.40483203,1,-2.2936451904296873,3.6092590026855467,8.265981231689453,14.51908396946565,-5.801526717557252,16.587786259541986
6310686670299,3.410720051,1,-2.2290017456054687,3.4727895080566404,8.118737829589843,16.18320610687023,-12.687022900763358,18.282442748091604
6310692617174,3.416666926,1,-2.01112939453125,3.314772198486328,7.81467421875,17.595419847328245,-17.908396946564885,18.16793893129771
6310698596497,3.422646249,1,-1.7705121276855467,3.2812533752441406,7.186196282958984,13.419847328244275,-31.46564885496183,17.404580152671755
6310704498476,3.428548228,1,-1.4377180969238281,2.942473840332031,6.740874774169922,8.038167938931299,-39.213740458015266,16.946564885496183
6310710397018,3.43444677,1,-1.3838485595703125,2.834734765625,6.242880828857421,2.7786259541984735,-44.770992366412216,15.34351145038168
6310716251653,3.440301405,1,-1.3239935180664062,2.701856573486328,5.859808563232422,-0.7175572519083969,-46.48091603053435,12.19083969465649
6310722168268,3.44621802,1,-1.1887211242675781,2.6779145568847653,5.4887073059082025,-2.4122137404580153,-44.79389312977099,7.916030534351145
6310728065559,3.452115311,1,-1.0941501586914062,2.7329811950683593,5.2444987365722655,-5.709923664122138,-35.52671755725191,-1.2290076335877862
6310733988632,3.458038384,1,-0.6943184814453125,2.89219560546875,5.1128176452636716,-8.86259541984733,-30.0381679389313,-4.511450381679389
6310739958841,3.464008593,1,-0.39863457641601563,2.914940521240234,4.967968444824218,-11.15267175572519,-27.0381679389313,-5.427480916030534
6310746034882,3.470084634,1,-0.9062053283691406,2.8850130004882812,4.950011932373046,-10.732824427480915,-31.267175572519083,-2.4732824427480917
6310751978111,3.476027863,1,-0.7410054138183594,2.990357873535156,4.784812017822265,-9.717557251908397,-21.14503816793893,-8.664122137404581
6310757910091,3.481959843,1,-0.38666356811523434,3.047818713378906,4.995501763916016,-11.404580152671755,0.7251908396946565,-10.32824427480916
6310763794049,3.487843801,1,-0.1580173095703125,3.2357635437011716,5.216965417480468,-3.564885496183206,3.427480916030534,-9.259541984732824
6310769728580,3.493778332,1,-0.4752490295410156,3.2225954345703123,5.3019595764160155,-5.244274809160306,7.6106870229007635,-7.198473282442748
6310775583528,3.49963328,1,-0.679953271484375,3.21780703125,5.404910247802734,-9.83969465648855,11.305343511450381,-7.961832061068702
6310781484570,3.505534322,1,-0.9085995300292968,3.2620997619628906,5.747281085205078,-16.259541984732824,19.236641221374047,-9.885496183206106
6310787401653,3.511451405,1,-1.0917559570312498,3.105279553222656,5.984307049560546,-16.83206106870229,29.80916030534351,-11.183206106870228
6310793339726,3.517389478,1,-1.4030021728515625,3.229778039550781,6.788758807373046,-3.0839694656488548,42.57251908396947,-12.312977099236642
6310799265507,3.523315259,1,-1.8519149841308593,3.430890979003906,7.240065820312499,-6.442748091603053,48.50381679389313,-13.587786259541986
6310805327955,3.529377707,1,-2.195482922363281,3.563769171142578,7.745242370605468,-11.908396946564885,52.908396946564885,-17.198473282442748
6310811237591,3.535287343,1,-2.385821954345703,3.7900212280273435,8.315062365722655,-14.82442748091603,56.37404580152672,-19.572519083969464
6310817223424,3.541273176,1,-2.521094348144531,3.9145197143554684,8.728062152099609,-14.419847328244275,57.13740458015267,-20.977099236641223
6310823096288,3.54714604,1,-2.644395733642578,4.053383410644531,9.141061938476563,-13.17557251908397,49.58015267175573,-16.641221374045802
6310828952851,3.553002603,1,-2.886210101318359,4.223371728515625,9.770736975097655,-11.65648854961832,43.954198473282446,-14.587786259541986
6310835393059,3.559442811,1,-3.065775225830078,4.280832568359375,9.982623822021484,-10.908396946564885,37.76335877862596,-12.32824427480916
6310842752851,3.566802603,1,-3.1088708557128903,4.2509050476074215,10.032902056884765,-9.732824427480915,22.641221374045802,-5.351145038167939
6310850148163,3.574197915,1,-3.1376012756347653,4.145560174560547,10.041281762695311,-7.343511450381679,14.82442748091603,-0.9770992366412213
6310857448320,3.581498072,1,-3.191470812988281,3.901351605224609,9.890447058105469,-2.8244274809160306,2.2977099236641223,4.908396946564886
6310864782851,3.588832603,1,-3.1603461914062496,3.517082238769531,9.527725506591796,3.068702290076336,-2.404580152671756,5.977099236641221
6310872124153,3.596173905,1,-3.0825346374511717,3.381809844970703,9.338583575439452,3.2290076335877864,-6.404580152671755,4.32824427480916
6310879499413,3.603549165,1,-3.010708587646484,3.2549171569824216,8.923189587402343,0.648854961832061,-16.82442748091603,0.7251908396946565
6310886805403,3.610855155,1,-2.9735984619140625,3.1974563171386716,8.728062152099609,-3.7480916030534353,-17.51145038167939,-6.213740458015267
6310894142018,3.61819177,1,-2.5845406921386718,3.2453403503417966,8.419210137939453,-5.6183206106870225,-26.14503816793893,-9.435114503816793
6310901450872,3.625500624,1,-2.431311785888672,3.3111808959960936,8.070853796386718,-6.961832061068702,-33.18320610687023,-11.106870229007633
6310908808476,3.632858228,1,-2.2756886779785157,3.3602620300292965,7.350199096679687,-16.6793893129771,-44.29007633587786,-12.977099236641221
6310916173945,3.640223697,1,-2.1978771240234374,3.31357509765625,6.995857250976562,-17.091603053435115,-45.50381679389313,-13.473282442748092
6310923487955,3.647537707,1,-2.032677209472656,3.3865982482910155,6.330269189453125,-9.778625954198473,-41.48854961832061,-15.145038167938932
6310930797434,3.654847186,1,-1.8052280517578123,3.526659045410156,6.185419989013671,-8.877862595419847,-37.48091603053435,-15.50381679389313
6310938221653,3.662271405,1,-1.7106570861816406,3.5901053894042967,5.930437512207031,-9.908396946564885,-26.755725190839694,-15.549618320610687
6310945583684,3.669633436,1,-1.599326708984375,3.6655227416992187,5.985504150390625,-7.900763358778626,-19.793893129770993,-15.213740458015268
6310952954726,3.677004478,1,-1.5466542724609373,3.7409400939941406,6.172251879882812,-2.9389312977099236,-7.0534351145038165,-12.908396946564885
6310960315663,3.684365415,1,-1.4975731384277342,3.912125512695312,6.215347509765625,-2.0381679389312977,-1.5648854961832062,-10.580152671755725
6310967657799,3.691707551,1,-1.6256629272460936,3.9049429077148434,6.303932971191406,1.4351145038167938,7.3816793893129775,-5.709923664122138
6310974955559,3.699005311,1,-1.8459294799804686,3.958812445068359,6.625953094482422,3.0381679389312977,12.580152671755725,-3.404580152671756
6310982332330,3.706382082,1,-1.7609353210449217,3.878606689453125,6.910863092041015,5.625954198473282,17.732824427480917,2.5343511450381677
6310989654153,3.713703905,1,-1.848323681640625,3.878606689453125,7.01620796508789,7.99236641221374,15.893129770992367,2.4122137404580153
6310996973268,3.72102302,1,-1.9393033447265624,3.745728497314453,7.184999182128906,0.030534351145038167,19.30534351145038,4.862595419847328
6311004298580,3.728348332,1,-1.8758570007324218,3.611653204345703,7.559691741943359,3.7557251908396947,24.938931297709924,5.99236641221374
6311011597903,3.735647655,1,-2.023100402832031,3.5697546752929687,7.721300354003906,11.053435114503817,25.83206106870229,8.15267175572519
6311018934934,3.742984686,1,-1.9776105712890624,3.2824504760742186,8.14627114868164,12.98473282442748,26.580152671755727,9.80916030534351
6311026275351,3.750325103,1,-1.9812018737792967,3.2884359802246093,8.239645013427733,11.84732824427481,23.519083969465647,8.473282442748092
6311033650143,3.757699895,1,-2.031480108642578,2.9640216552734375,8.317456567382813,1.5801526717557253,11.34351145038168,6.809160305343512
6311041161861,3.765211613,1,-2.057816326904297,2.8275521606445313,8.194155181884765,-4.244274809160306,6.511450381679389,4.564885496183206
6311048484309,3.772534061,1,-2.1499930908203124,2.7186159851074216,8.0828248046875,-6.3816793893129775,1.7633587786259541,-2.8625954198473282
6311055777226,3.779826978,1,-2.27927998046875,2.7641058166503907,8.08881030883789,-5.862595419847328,2.3740458015267176,-6.67175572519084
6311063119882,3.787169634,1,-2.3427263244628906,2.8706477905273435,7.988253839111327,-5.66412213740458,-1.5877862595419847,-11.229007633587786
6311070452903,3.794502655,1,-2.5641899780273434,2.9556419494628905,7.904456781005859,-7.557251908396947,-2.83206106870229,-13.732824427480915
6311077759257,3.801809009,1,-2.770091320800781,3.046621612548828,7.9092451843261715,-14.396946564885496,1.5190839694656488,-21.14503816793893
6311085135715,3.809185467,1,-3.2130186279296873,3.478775012207031,8.113949426269532,-18.12213740458015,5.480916030534351,-24.15267175572519
6311092529049,3.816578801,1,-3.421314172363281,3.632003918457031,8.147468249511718,-14.83969465648855,16.87786259541985,-27.46564885496183
6311099878476,3.823928228,1,-3.6379894226074216,4.185064501953125,8.883685260009765,-10.297709923664122,22.0,-28.022900763358777
6311107208788,3.83125854,1,-3.6068648010253903,4.432864373779297,9.223661895751952,-8.938931297709924,24.15267175572519,-27.297709923664122
6311114538945,3.838588697,1,-3.4775779113769527,4.784812017822265,9.769539874267577,-15.198473282442748,19.748091603053435,-25.374045801526716
6311121844726,3.845894478,1,-3.422511273193359,4.916493109130859,9.93952819213867,-17.954198473282442,12.15267175572519,-16.793893129770993
6311129168215,3.853217967,1,-3.430890979003906,5.042188696289062,10.038887561035155,-10.381679389312977,2.2595419847328246,-10.870229007633588
6311136552330,3.860602082,1,-3.3973721557617185,5.044582897949218,10.071209283447265,-4.938931297709924,-3.4580152671755724,5.3816793893129775
6311143940820,3.867990572,1,-3.201047619628906,4.836287353515624,9.775525378417969,12.381679389312977,-18.564885496183205,15.358778625954198
6311151350195,3.875399947,1,-3.0933085449218747,4.599261389160156,9.469067565917967,20.83206106870229,-25.114503816793892,24.69465648854962
6311158725976,3.882775728,1,-2.360682836914062,4.140771771240234,8.627505682373046,27.99236641221374,-41.267175572519086,36.70992366412214
6311166100195,3.890149947,1,-2.157175695800781,3.763685009765625,8.005013250732421,24.419847328244273,-49.74809160305343,42.091603053435115
6311173440924,3.897490676,1,-2.051830822753906,2.91134921875,7.0269818725585935,20.557251908396946,-54.62595419847328,46.396946564885496
6311180806340,3.904856092,1,-1.917755529785156,2.6204537170410154,6.744466076660156,24.61832061068702,-45.06870229007634,43.396946564885496
6311188150247,3.912199999,1,-1.696291876220703,2.4480711975097655,6.612784985351562,31.396946564885496,-22.251908396946565,29.14503816793893
6311195490611,3.919540363,1,-1.2521674682617188,2.436100189208984,6.773196496582031,25.27480916030534,-15.34351145038168,23.244274809160306
6311202901549,3.926951301,1,-1.1468225952148436,2.5258827514648434,6.903680487060546,16.755725190839694,-11.641221374045802,13.335877862595419
6311210273215,3.934322967,1,-1.2713210815429687,2.626439221191406,7.041347082519531,16.702290076335878,-10.48091603053435,8.801526717557252
6311217643059,3.941692811,1,-1.35990654296875,2.798821740722656,7.217320904541015,14.045801526717558,-6.419847328244275,1.3893129770992367
6311225063892,3.949113644,1,-1.4006079711914061,3.1100679565429687,7.195773089599609,12.931297709923664,-7.076335877862595,-1.0076335877862594
6311232470142,3.956519894,1,-1.4065934753417968,3.2836475769042965,7.287949853515625,13.335877862595419,-8.82442748091603,1.534351145038168
6311239808788,3.96385854,1,-1.6029180114746093,3.2980127868652342,7.168239770507812,18.84732824427481,-15.961832061068701,-0.6717557251908397
6311247162903,3.971212655,1,-1.5586252807617187,3.3482910217285156,7.066486199951171,9.007633587786259,-18.16030534351145,-0.35877862595419846
6311254490872,3.978540624,1,-1.1635820068359375,3.375824340820312,6.72291826171875,9.98473282442748,-23.96946564885496,-1.0534351145038168
6311261841080,3.985890832,1,-1.0869675537109373,3.323151904296875,6.4846951965332025,9.603053435114504,-32.6793893129771,0.7709923664122137
6311269171028,3.99322078,1,-0.7625532287597656,3.2357635437011716,5.96275923461914,3.9618320610687023,-36.01526717557252,0.5038167938931297
6311276508528,4.00055828,1,-0.699106884765625,3.0825346374511717,5.592855078125,1.1908396946564885,-37.54961832061068,0.22900763358778625
6311283863684,4.007913436,1,-0.40222587890625,2.883815899658203,5.0182466796875,0.3511450381679389,-36.725190839694655,-0.25190839694656486
6311291270663,4.015320415,1,-0.3387795349121094,2.8239608581542965,4.747701892089843,0.12213740458015267,-33.213740458015266,-0.05343511450381679
6311298592330,4.022642082,1,-0.2454056701660156,2.7042507751464844,4.504690423583984,1.9389312977099236,-18.259541984732824,-4.122137404580153
6311305940195,4.029989947,1,-0.2346317626953125,2.711433380126953,4.632780212402343,3.786259541984733,-6.816793893129771,-6.206106870229007
6311313268945,4.037318697,1,-0.4082113830566406,2.7425580017089843,5.0757075195312495,10.442748091603054,12.778625954198473,-9.83969465648855
6311320659413,4.044709165,1,-0.18435352783203124,2.8036101440429686,5.142745166015625,10.557251908396946,13.938931297709924,-11.045801526717558
6311327999882,4.052049634,1,-0.48722003784179685,2.834734765625,5.365405920410156,-11.442748091603054,19.946564885496183,-19.19083969465649
6311335412695,4.059462447,1,-1.3215993164062498,3.0238766967773434,5.641936212158202,-20.015267175572518,27.53435114503817,-25.763358778625953
6311342816340,4.066866092,1,-1.7238251953125,3.484760516357422,6.763619689941406,-16.389312977099237,51.10687022900763,-35.12977099236641
6311350164309,4.074214061,1,-2.012326495361328,3.6547488342285153,7.3466077941894525,-8.083969465648854,59.67175572519084,-36.25190839694657
6311357527851,4.081577603,1,-2.029085906982422,3.9636008483886718,8.189366778564453,-5.282442748091603,54.038167938931295,-39.51908396946565
6311364903736,4.088953488,1,-2.6527754394531247,4.50109912109375,8.487444885253906,-23.748091603053435,47.87786259541985,-39.61832061068702
6311372209413,4.096259165,1,-3.1196447631835937,4.657919329833984,8.865728747558594,-39.69465648854962,42.41984732824427,-38.68702290076336
6311379529726,4.103579478,1,-3.5206735412597654,5.009866973876953,9.568426934814452,-27.358778625954198,45.16793893129771,-34.94656488549618
6311386904049,4.110953801,1,-3.380612744140625,5.1331683593749995,9.894038360595703,-9.86259541984733,41.93129770992366,-23.33587786259542
6311394274049,4.118323801,1,-3.239354846191406,5.346252307128906,10.20887587890625,-0.7480916030534351,31.267175572519083,-16.85496183206107
6311401639986,4.125689738,1,-3.266888165283203,5.214571215820312,10.28549033203125,-9.114503816793894,5.129770992366412,-2.0229007633587788
6311408972694,4.133022446,1,-3.469198205566406,4.777629412841796,9.872490545654296,-11.129770992366412,-5.152671755725191,4.473282442748092
6311416291705,4.140341457,1,-3.4871547180175777,4.50109912109375,9.566032733154296,-2.1068702290076335,-10.488549618320612,13.908396946564885
6311423654517,4.147704269,1,-3.1028853515624997,4.077325427246094,8.978256225585938,9.389312977099237,-15.946564885496183,15.053435114503817
6311430981705,4.155031457,1,-2.8562825805664063,3.8391023620605464,8.608352069091797,5.687022900763359,-19.297709923664122,16.114503816793892
6311438332694,4.162382446,1,-2.7078420776367187,3.4835634155273434,8.049305981445311,-2.648854961832061,-26.85496183206107,14.358778625954198
6311445750924,4.169800676,1,-2.6575638427734374,3.31357509765625,7.809885815429687,-3.4122137404580153,-25.732824427480917,12.366412213740459
6311453080924,4.177130676,1,-2.469619012451172,3.2980127868652342,7.413645440673828,0.0916030534351145,-19.641221374045802,4.885496183206107
6311460464517,4.184514269,1,-2.1116858642578125,3.353079425048828,7.484274389648437,-1.748091603053435,-16.580152671755727,1.5114503816793894
6311467791132,4.191840884,1,-1.9919757812499999,3.418919970703125,7.319074475097656,-8.870229007633588,-16.374045801526716,-2.6106870229007635
6311475134413,4.199184165,1,-1.8435352783203125,3.4165257690429685,7.153874560546875,-10.648854961832061,-16.83969465648855,-2.351145038167939
6311482503372,4.206553124,1,-1.9189526306152342,3.470395306396484,7.058106494140625,-4.709923664122138,-12.259541984732824,-2.50381679389313
6311489834101,4.213883853,1,-1.8902222106933593,3.515885137939453,7.049726788330077,-2.068702290076336,-7.9465648854961835,-3.16793893129771
6311497160403,4.221210155,1,-1.8567033874511718,3.574543078613281,7.18859048461914,-2.6946564885496183,-2.7480916030534353,-3.312977099236641
6311504398267,4.228448019,1,-1.9045874206542968,3.6355952209472653,7.248445526123047,-3.3053435114503817,-1.8091603053435115,-2.145038167938931
6311511729517,4.235779269,1,-2.117671368408203,3.669114044189453,7.147889056396484,-1.6717557251908397,3.8625954198473282,-1.099236641221374
6311519102382,4.243152134,1,-2.1918916198730467,3.861847277832031,7.39928023071289,3.9770992366412212,7.824427480916031,-1.3358778625954197
6311526482434,4.250532186,1,-2.2373814514160153,3.9181110168457027,7.635109094238281,3.5877862595419847,11.587786259541986,-2.6259541984732824
6311533823997,4.257873749,1,-2.195482922363281,4.140771771240234,7.91642778930664,-1.4122137404580153,10.32824427480916,-0.9083969465648855
6311541223111,4.265272863,1,-2.2732944763183593,4.18147319946289,7.975085729980468,-0.7175572519083969,7.900763358778626,4.5038167938931295
6311548497590,4.272547342,1,-2.5546131713867184,4.150348577880859,8.097190014648437,4.9541984732824424,7.824427480916031,6.4961832061068705
6311555844778,4.27989453,1,-2.4660277099609376,4.198232611083984,8.119934930419921,8.297709923664122,8.84732824427481,6.7251908396946565
6311563175038,4.28722479,1,-2.290053887939453,4.18147319946289,8.210914593505859,7.221374045801527,7.1679389312977095,9.702290076335878
6311570474569,4.294524321,1,-2.24097275390625,4.115632653808594,8.214505895996094,4.969465648854962,3.763358778625954,11.51908396946565
6311577753267,4.301803019,1,-2.2673089721679687,3.8845921936035155,8.136694342041014,6.312977099236641,-3.1526717557251906,15.900763358778626
6311585075559,4.309125311,1,-2.041056915283203,3.8007951354980465,7.922413293457031,8.236641221374045,-5.1679389312977095,17.6793893129771
6311592412851,4.316462603,1,-1.8435352783203125,3.708618371582031,7.620743884277343,9.961832061068701,-9.290076335877863,20.442748091603054
6311599728840,4.323778592,1,-1.4987702392578124,3.411737365722656,7.486668591308593,10.366412213740459,-11.679389312977099,21.702290076335878
6311607099934,4.331149686,1,-1.3910311645507811,3.238157745361328,7.333439685058593,10.84732824427481,-16.251908396946565,22.870229007633586
6311614442590,4.338492342,1,-1.139639990234375,2.890998504638672,6.891709478759765,10.19083969465649,-17.022900763358777,22.442748091603054
6311621761236,4.345810988,1,-1.0917559570312498,2.7724855224609373,6.749254479980468,9.50381679389313,-15.67175572519084,19.022900763358777
6311629077694,4.353127446,1,-0.8092401611328125,2.549824768066406,6.434416961669921,9.213740458015268,-13.679389312977099,16.053435114503817
6311636416705,4.360466457,1,-0.7015010864257812,2.481590020751953,6.448782171630859,9.045801526717558,-10.251908396946565,8.679389312977099
6311643779309,4.367829061,1,-0.47285482788085936,2.446874096679687,6.194996795654297,1.7633587786259541,-8.557251908396946,5.1603053435114505
6311651197382,4.375247134,1,-0.6560112548828124,2.479195819091797,6.187814190673827,0.1984732824427481,-6.4961832061068705,-0.08396946564885496
6311658529153,4.382578905,1,-0.8667010009765624,2.4516625,6.214150408935547,-0.12213740458015267,1.1068702290076335,-3.099236641221374
6311665890819,4.389940571,1,-0.7733271362304687,2.483984222412109,6.281188055419921,2.6564885496183206,8.396946564885496,-6.702290076335878
6311673233944,4.397283696,1,-0.948103857421875,2.8526912780761715,6.813897924804687,-3.1068702290076335,18.87786259541985,-19.480916030534353
6311680532851,4.404582603,1,-1.1336544860839843,2.8095956481933593,6.965929730224609,-14.748091603053435,18.50381679389313,-18.587786259541986
6311687836444,4.411886196,1,-1.3251906188964844,3.1376012756347653,6.995857250976562,-5.0534351145038165,15.67175572519084,-23.587786259541986
6311695161913,4.419211665,1,-1.7489643127441405,3.199850518798828,7.243657122802734,-6.534351145038168,19.564885496183205,-24.198473282442748
6311702514465,4.426564217,1,-1.9488801513671874,3.604470599365234,7.526172918701171,-13.15267175572519,23.022900763358777,-31.282442748091604
6311709840507,4.433890259,1,-2.1619640991210938,3.697844464111328,7.876923461914062,-16.83206106870229,25.801526717557252,-31.30534351145038
6311717149205,4.441198957,1,-2.2936451904296873,3.9324762268066404,8.355763793945313,-12.34351145038168,25.671755725190838,-31.595419847328245
6311724497851,4.448547603,1,-2.473210314941406,4.101267443847656,8.48505068359375,-12.13740458015267,22.549618320610687,-28.908396946564885
6311731825611,4.455875363,1,-2.551021868896484,4.220977526855468,8.440757952880858,-11.419847328244275,9.961832061068701,-23.206106870229007
6311739160403,4.463210155,1,-2.6108769104003904,4.266467358398438,8.572439044189453,-12.083969465648854,5.33587786259542,-21.396946564885496
6311746520767,4.470570519,1,-2.6707319519042967,4.247313745117188,8.365340600585936,-12.297709923664122,-1.3358778625954197,-17.51145038167939
6311753841184,4.477890936,1,-2.7461493041992187,4.173093493652344,8.243236315917969,-11.664122137404581,-4.595419847328245,-14.992366412213741
6311761142799,4.485192551,1,-2.7569232116699216,4.102464544677734,8.054094384765625,-10.50381679389313,-5.67175572519084,-12.427480916030534
6311768544934,4.492594686,1,-2.6408044311523438,4.115632653808594,7.937975604248046,-7.3816793893129775,-4.847328244274809,-11.053435114503817
6311775849830,4.499899582,1,-2.551021868896484,4.077325427246094,7.79552060546875,-6.106870229007634,-4.6106870229007635,-9.587786259541986
6311783192174,4.507241926,1,-2.546233465576172,4.116829754638672,7.618349682617187,-7.061068702290076,-7.488549618320611,-8.725190839694656
6311790503371,4.514553123,1,-2.5665841796874997,4.024652990722656,7.541735229492187,-11.717557251908397,-8.557251908396946,-7.0
6311797797121,4.521846873,1,-2.602497204589844,3.9899370666503904,7.4028715332031245,-6.931297709923665,-2.763358778625954,-5.473282442748092
6311805203736,4.529253488,1,-2.498349432373047,4.0066964782714845,7.5142019104003905,-1.8702290076335877,2.1068702290076335,-4.0534351145038165
6311812601965,4.536651717,1,-2.389413256835937,4.077325427246094,7.772775689697265,1.2748091603053435,8.030534351145038,-1.8015267175572518
6311819871965,4.543921717,1,-2.3032219970703123,4.00310517578125,7.841010437011718,-0.6183206106870229,6.961832061068702,2.2595419847328246
6311827219205,4.551268957,1,-2.433705987548828,3.863044378662109,7.766790185546874,4.412213740458015,4.00763358778626,5.541984732824427
6311834530819,4.558580571,1,-2.503137835693359,3.8139632446289062,7.898471276855468,2.9160305343511452,6.396946564885496,5.648854961832061
6311841846705,4.565896457,1,-2.6515783386230467,3.8271313537597655,7.914033587646484,-2.2977099236641223,7.2748091603053435,4.465648854961832
6311849176028,4.57322578,1,-2.549824768066406,3.805583538818359,8.062474090576172,-2.351145038167939,6.870229007633588,5.374045801526718
6311856496392,4.580546144,1,-2.579752288818359,3.763685009765625,8.042123376464843,3.0076335877862594,4.862595419847328,6.343511450381679
6311863765507,4.587815259,1,-2.518700146484375,3.7708676147460936,8.11514652709961,2.198473282442748,3.5419847328244276,6.3893129770992365
6311871296965,4.595346717,1,-2.47081611328125,3.786429925537109,8.136694342041014,-0.7480916030534351,-1.5725190839694656,6.5038167938931295
6311878698944,4.602748696,1,-2.3714567443847656,3.7193922790527343,8.057685687255859,-5.595419847328245,-3.66412213740458,7.351145038167939
6311886042903,4.610092655,1,-2.346317626953125,3.6355952209472653,7.893682873535155,-3.2519083969465647,-5.00763358778626,9.389312977099237
6311893357330,4.617407082,1,-2.2541408630371094,3.564966271972656,7.9092451843261715,4.312977099236641,-0.9236641221374046,10.251908396946565
6311900707330,4.624757082,1,-2.1487959899902345,3.5901053894042967,7.781155395507812,7.152671755725191,-0.6717557251908397,11.16793893129771
6311908073892,4.632123644,1,-2.117671368408203,3.4572271972656248,7.751227874755859,5.129770992366412,-3.2519083969465647,10.13740458015267
6311915413371,4.639463123,1,-2.114080065917969,3.4931402221679684,7.687781530761718,2.3435114503816794,-4.435114503816794,8.732824427480915
6311922704882,4.646754634,1,-2.0925322509765625,3.465606903076172,7.474697583007812,-0.8396946564885496,-5.656488549618321,7.175572519083969
6311930025455,4.654075207,1,-2.1260510742187497,3.436876483154297,7.433996154785156,0.20610687022900764,-4.854961832061068,5.931297709923665
6311937351444,4.661401196,1,-2.2936451904296873,3.4165257690429685,7.4603323730468745,-0.5954198473282443,-4.175572519083969,4.137404580152672
6311944794830,4.668844582,1,-2.013523596191406,3.5051112304687497,7.5716627502441405,-1.6717557251908397,-3.595419847328244,2.66412213740458
6311952122746,4.676172498,1,-1.9393033447265624,3.418919970703125,7.581239556884765,-2.6030534351145036,-7.587786259541985,2.83206106870229
6311959479413,4.683529165,1,-1.8136077575683593,3.5577836669921874,7.4208280456542965,-2.66412213740458,-10.488549618320612,4.0458015267175576
6311966802851,4.690852603,1,-1.7788918334960937,3.488351818847656,7.088034014892577,-3.984732824427481,-15.687022900763358,5.534351145038168
6311974127538,4.69817729,1,-1.7741034301757812,3.423708374023437,7.095216619873047,-5.244274809160306,-15.572519083969466,5.732824427480916
6311981448840,4.705498592,1,-1.5454571716308594,3.229778039550781,6.998251452636718,-1.4427480916030535,-19.045801526717558,7.778625954198473
6311988794882,4.712844634,1,-1.4784195251464842,3.1411925781249996,6.567295153808593,-2.1908396946564888,-19.557251908396946,7.229007633587786
6311996095923,4.720145675,1,-1.5442600708007812,3.087323040771484,6.467935784912109,-6.793893129770993,-11.961832061068701,2.549618320610687
6312003370871,4.727420623,1,-1.5155296508789062,3.153163586425781,6.458358978271484,-9.366412213740459,-4.145038167938932,-0.816793893129771
6312010730298,4.73478005,1,-1.3874398620605468,3.2357635437011716,6.707355950927734,-6.152671755725191,5.854961832061068,-4.9541984732824424
6312018086653,4.742136405,1,-1.0630255371093749,3.469198205566406,7.030573175048827,-3.435114503816794,12.595419847328245,-2.8931297709923665
6312025435663,4.749485415,1,-1.1372457885742187,3.436876483154297,7.184999182128906,-1.8091603053435115,11.931297709923664,-0.6946564885496184
6312032769413,4.756819165,1,-1.7022773803710936,3.4105402648925778,7.400477331542969,-1.9236641221374047,14.786259541984732,2.3435114503816794
6312040148215,4.764197967,1,-1.8327613708496093,3.4536358947753905,7.570465649414062,-1.6793893129770991,19.786259541984734,0.4961832061068702
6312047483840,4.771533592,1,-1.7274164978027342,3.5338416503906247,8.197746484375,3.8625954198473282,28.786259541984734,1.6412213740458015
6312054866028,4.77891578,1,-1.6938976745605467,3.4620156005859375,8.407239129638672,10.274809160305344,25.0381679389313,3.969465648854962
6312062216861,4.786266613,1,-1.89620771484375,3.265691064453125,8.394071020507813,7.679389312977099,12.206106870229007,8.816793893129772
6312069538319,4.793588071,1,-2.2026655273437497,3.1124621582031247,8.321047869873047,3.2748091603053435,7.4961832061068705,7.763358778625954
6312076886809,4.800936561,1,-2.3032219970703123,3.019088293457031,8.129511737060547,1.0,5.801526717557252,2.33587786259542
6312084155507,4.808205259,1,-2.129642376708984,3.0226795959472654,8.147468249511718,2.7099236641221376,5.755725190839694,-0.7786259541984732
6312091496288,4.81554604,1,-2.1260510742187497,3.0741549316406247,8.182184173583984,-1.1297709923664123,1.3282442748091603,-6.488549618320611
6312098908007,4.822957759,1,-2.1499930908203124,3.2812533752441406,8.100781317138672,-7.748091603053435,-0.6183206106870229,-10.251908396946565
6312106272382,4.830322134,1,-2.146401788330078,3.2620997619628906,8.123526232910155,-9.251908396946565,-5.908396946564886,-11.076335877862595
6312113613267,4.837663019,1,-2.003946789550781,3.402160559082031,7.917624890136718,-4.633587786259542,-8.648854961832061,-10.106870229007633
6312120927173,4.844976925,1,-2.031480108642578,3.423708374023437,7.821856823730468,-2.8702290076335877,-11.030534351145038,-10.488549618320612
6312128274309,4.852324061,1,-1.9536685546875,3.5015199279785154,7.461529473876952,-7.641221374045801,-10.770992366412214,-10.946564885496183
6312135629048,4.8596788,1,-1.8722656982421875,3.5673604736328124,7.389703424072265,-8.381679389312977,-11.679389312977099,-10.50381679389313
6312142935663,4.866985415,1,-1.8770541015625,3.6176387084960937,7.213729602050781,-2.7099236641221376,-8.687022900763358,-8.969465648854962
6312150318423,4.874368175,1,-1.8531120849609375,3.584119885253906,7.1586629638671875,-0.7633587786259542,-7.396946564885496,-9.610687022900763
6312157633267,4.881683019,1,-1.9512743530273435,3.6427778259277344,7.058106494140625,-1.0916030534351144,-3.3282442748091605,-7.770992366412214
6312164974725,4.889024477,1,-1.85790048828125,3.7134067749023436,7.000645654296875,-1.465648854961832,-1.015267175572519,-7.458015267175573
6312172295767,4.896345519,1,-1.926135235595703,3.6750995483398436,7.097610821533203,1.1755725190839694,1.450381679389313,-5.458015267175573
6312179642382,4.903692134,1,-1.9045874206542968,3.731363287353515,7.090428216552734,1.8549618320610688,2.4656488549618323,-4.3816793893129775
6312187034517,4.911084269,1,-1.8854338073730468,3.6762966491699216,7.179013677978515,2.7786259541984735,5.931297709923665,-2.4427480916030535
6312194375923,4.918425675,1,-1.8734627990722654,3.7134067749023436,7.249642626953125,5.114503816793893,6.175572519083969,-1.366412213740458
6312201710715,4.925760467,1,-1.93451494140625,3.5482068603515624,7.236474517822265,5.00763358778626,5.732824427480916,0.5114503816793893
6312209042278,4.93309203,1,-2.053027923583984,3.5146880371093747,7.285555651855469,3.33587786259542,6.824427480916031,-0.26717557251908397
6312216311653,4.940361405,1,-2.1416133850097654,3.5051112304687497,7.308300567626953,1.099236641221374,9.84732824427481,-2.5267175572519083
6312223719725,4.947769477,1,-2.070984436035156,3.554192364501953,7.48906279296875,0.6564885496183206,9.595419847328245,-3.053435114503817
6312231109621,4.955159373,1,-2.120065570068359,3.5206735412597654,7.6099699768066404,-2.2519083969465647,7.656488549618321,-3.1603053435114505
6312238450975,4.962500727,1,-2.27927998046875,3.5805285827636717,7.656656909179687,-2.099236641221374,7.3816793893129775,-3.099236641221374
6312245900194,4.969949946,1,-2.2936451904296873,3.6906618591308593,7.730877160644531,0.648854961832061,7.572519083969466,-4.778625954198473
6312253110559,4.977160311,1,-2.1487959899902345,3.73495458984375,7.830236529541015,-2.198473282442748,6.900763358778626,-4.801526717557252
6312260412017,4.984461769,1,-2.195482922363281,3.7289690856933593,7.880514764404296,-5.022900763358779,4.847328244274809,-3.7557251908396947
6312267699257,4.991749009,1,-2.4133552734375,3.7229835815429686,7.879317663574218,-6.557251908396947,2.145038167938931,-2.267175572519084
6312274985402,4.999035154,1,-2.450465399169922,3.7014357666015623,7.864952453613281,-2.5877862595419847,3.0916030534351147,-1.3969465648854962
6312282317746,5.006367498,1,-2.3906103576660156,3.786429925537109,7.99304224243164,2.732824427480916,6.793893129770993,-0.9236641221374046
6312289872902,5.013922654,1,-2.3630770385742186,3.812766143798828,8.044517578125,1.099236641221374,6.33587786259542,-0.48091603053435117
6312297311340,5.021361092,1,-2.3391350219726563,3.81156904296875,8.005013250732421,-1.5801526717557253,4.236641221374046,1.450381679389313
6312304659152,5.028708904,1,-2.473210314941406,3.706224169921875,8.070853796386718,0.007633587786259542,3.6030534351145036,3.053435114503817
6312311968580,5.036018332,1,-2.5665841796874997,3.641580725097656,8.06367119140625,4.320610687022901,5.282442748091603,3.8625954198473282
6312319283475,5.043333227,1,-2.5845406921386718,3.594893792724609,8.092401611328125,3.6412213740458017,6.801526717557252,2.6106870229007635
6312326572382,5.050622134,1,-2.511517541503906,3.6427778259277344,8.2743609375,-0.549618320610687,4.6106870229007635,0.16793893129770993
6312333905611,5.057955363,1,-2.5246856506347655,3.6655227416992187,8.221688500976562,-2.877862595419847,1.5725190839694656,0.16030534351145037
6312341155819,5.065205571,1,-2.6204537170410154,3.6343981201171873,8.167818963623047,-3.854961832061069,-3.1908396946564888,0.3893129770992366
6312348491340,5.072541092,1,-2.612074011230469,3.6846763549804686,8.13310303955078,-3.4732824427480917,-3.2900763358778624,-0.648854961832061
6312355838788,5.07988854,1,-2.5570073730468748,3.7576995056152342,8.124723333740233,-4.229007633587786,-4.083969465648855,-1.5572519083969465
6312363174205,5.087223957,1,-2.6671406494140624,3.8103719421386715,8.092401611328125,-3.7251908396946565,-6.244274809160306,-1.3893129770992367
6312370508527,5.094558279,1,-2.6898855651855467,3.8199487487792965,8.022969763183593,-3.198473282442748,-8.473282442748092,-1.916030534351145
6312377840767,5.101890519,1,-2.922123126220703,3.997119671630859,7.869740856933594,-6.778625954198473,-7.343511450381679,-3.549618320610687
6312385160715,5.109210467,1,-3.1004911499023438,4.163516687011718,8.074445098876952,-11.038167938931299,-4.969465648854962,-9.068702290076336
6312392502694,5.116552446,1,-3.248931652832031,4.540603448486328,8.665812908935546,-18.47328244274809,5.748091603053435,-10.145038167938932
6312399762642,5.123812394,1,-3.314772198486328,4.651933825683593,8.981847528076171,-15.83206106870229,8.083969465648854,-7.8396946564885495
6312409264413,5.133314165,1,-3.5027170288085934,5.015852478027344,9.536105212402344,-7.6183206106870225,3.404580152671756,-1.3206106870229009
6312416886809,5.140936561,1,-3.5194764404296874,5.197811804199218,9.798270294189452,-8.86259541984733,-5.122137404580153,8.877862595419847
6312424475611,5.148525363,1,-3.2716765686035156,5.221753820800781,9.803058697509766,-5.290076335877862,-9.435114503816793,13.83206106870229
6312431943059,5.155992811,1,-3.020285394287109,4.953603234863281,9.501389288330078,9.618320610687023,-23.33587786259542,32.83969465648855
6312439577277,5.163627029,1,-3.065775225830078,4.777629412841796,9.041702569580078,16.96946564885496,-27.82442748091603,38.587786259541986
6312447890402,5.171940154,1,-2.7042507751464844,4.304774584960938,8.884882360839843,20.099236641221374,-21.083969465648856,46.51145038167939
6312456491965,5.180541717,1,-2.224213342285156,4.2317514343261715,8.659827404785156,31.755725190839694,-23.931297709923665,52.97709923664122
6312464889152,5.188938904,1,-1.5322890624999999,3.6284126159667967,8.512584002685546,34.25954198473283,-28.763358778625953,61.16030534351145
6312473446652,5.197496404,1,-1.0319009155273438,2.9544448486328125,7.831433630371094,37.6793893129771,-44.954198473282446,65.58778625954199
6312481840402,5.205890154,1,-0.9014169250488281,2.2649147705078123,6.965929730224609,41.267175572519086,-55.86259541984733,66.3206106870229
6312490378319,5.214428071,1,-0.11013327636718749,1.9189526306152342,6.487089398193359,42.33587786259542,-66.81679389312977,63.87022900763359
6312498807642,5.222857394,1,0.3172317199707031,1.2988544006347655,5.279214660644531,39.732824427480914,-71.33587786259542,59.7557251908397
6312507085559,5.231135311,1,0.5578489868164063,0.8032546569824218,4.31554849243164,23.709923664122137,-69.33587786259542,43.18320610687023
6312515423944,5.239473696,1,0.6835445739746093,0.6763619689941406,3.88818349609375,18.85496183206107,-57.267175572519086,23.83206106870229
6312523776496,5.247826248,1,1.042674822998047,0.6715735656738281,3.375824340820312,15.679389312977099,-50.778625954198475,11.82442748091603
6312532158319,5.256208071,1,1.369483349609375,1.0749965454101562,3.1579519897460937,-2.145038167938931,-34.30534351145038,-11.98473282442748
6312540526965,5.264576717,1,1.341950030517578,1.3215993164062498,3.24294614868164,-13.48091603053435,-17.755725190839694,-27.442748091603054
6312547963215,5.272012967,1,1.5275006591796874,1.715445489501953,3.314772198486328,-15.717557251908397,-11.732824427480915,-31.33587786259542
6312555319829,5.279369581,1,1.2318167541503906,1.915361328125,3.411737365722656,-10.412213740458014,11.038167938931299,-38.458015267175576
6312562665038,5.28671479,1,0.8164227661132812,2.3965958618164063,3.882197991943359,-11.633587786259541,20.900763358778626,-43.12213740458015
6312570003215,5.294052967,1,0.6476315490722656,2.711433380126953,4.21978042602539,-17.27480916030534,29.244274809160306,-50.900763358778626
6312577333579,5.301383331,1,-0.028730419921875,3.2405519470214843,5.032611889648437,-28.30534351145038,48.083969465648856,-53.717557251908396
6312584692017,5.308741769,1,-0.7122749938964843,3.4249054748535155,5.562927557373047,-28.977099236641223,58.541984732824424,-54.81679389312977
6312592078111,5.316127863,1,-1.6400281372070311,3.900154504394531,6.886921075439453,-14.633587786259541,80.90839694656489,-55.412213740458014
6312599405454,5.323455206,1,-1.6807295654296874,4.241328240966797,7.437587457275391,-9.32824427480916,89.99236641221374,-56.213740458015266
6312606707382,5.330757134,1,-1.70467158203125,4.563348364257812,8.413224633789062,-19.328244274809162,83.41221374045801,-49.87022900763359
6312614039882,5.338089634,1,-2.942473840332031,4.667496136474609,8.815450512695312,-22.435114503816795,78.02290076335878,-48.030534351145036
6312621469152,5.345518904,1,-3.3877953491210935,5.111620544433594,9.637858782958984,-28.045801526717558,82.1526717557252,-48.94656488549618
6312628848007,5.352897759,1,-3.5769372802734374,5.309142181396484,10.249577307128906,-25.068702290076335,84.47328244274809,-46.52671755725191
6312636180819,5.360230571,1,-3.5865140869140624,5.499481213378906,10.945092889404297,-6.595419847328245,70.50381679389314,-32.70229007633588
6312643495923,5.367545675,1,-3.84987626953125,5.53539423828125,11.03846675415039,-2.312977099236641,56.70229007633588,-24.076335877862597
6312650891913,5.374941665,1,-4.007893579101562,5.436034869384765,11.068394274902342,-5.67175572519084,30.66412213740458,-10.381679389312977
6312658296340,5.382346092,1,-4.110844250488281,5.04338579711914,10.958260998535156,-3.984732824427481,19.03053435114504,-4.740458015267175
6312665643215,5.389692967,1,-3.944447235107422,4.878185882568359,10.687716210937499,4.801526717557252,-5.862595419847328,4.862595419847328
6312672953736,5.397003488,1,-3.896563201904297,4.422090466308593,9.861716638183593,3.633587786259542,-17.938931297709924,8.412213740458014
6312680280038,5.40432979,1,-3.864241479492187,4.133589166259766,9.399635717773437,-0.16030534351145037,-32.229007633587784,8.16793893129771
6312687584100,5.411633852,1,-3.484760516357422,3.9408559326171875,8.492233288574218,-5.511450381679389,-33.099236641221374,5.549618320610687
6312694902902,5.418952654,1,-3.1735143005371094,3.83072265625,8.173804467773436,-4.67175572519084,-33.045801526717554,1.1755725190839694
6312702199361,5.426249113,1,-2.7916391357421872,3.860650177001953,7.6087728759765625,-3.9389312977099236,-31.50381679389313,-0.7633587786259542
6312709541913,5.433591665,1,-2.644395733642578,3.938461730957031,7.3861121215820305,-6.977099236641221,-28.671755725190838,-2.6030534351145036
6312716890611,5.440940363,1,-2.4109610717773435,4.039018200683594,7.019799267578125,-9.427480916030534,-20.34351145038168,-6.1679389312977095
6312724299100,5.448348852,1,-2.308010400390625,4.152742779541016,7.125144140624999,-9.17557251908397,-13.488549618320612,-6.396946564885496
6312731662590,5.455712342,1,-2.096123553466797,4.42448466796875,7.153874560546875,-2.1755725190839694,-2.9618320610687023,-3.8931297709923665
6312738980142,5.463029894,1,-1.859097589111328,4.446032482910156,7.292738256835937,0.9541984732824428,0.31297709923664124,-0.24427480916030533
6312746315194,5.470364946,1,-1.9500772521972656,4.389768743896484,7.401674432373047,10.48091603053435,5.99236641221374,9.931297709923664
6312753618059,5.477667811,1,-1.915361328125,4.210203619384766,7.389703424072265,18.557251908396946,6.00763358778626,16.389312977099237
6312760921444,5.484971196,1,-1.9021932189941406,4.095281939697266,7.314286071777343,25.99236641221374,6.5038167938931295,22.81679389312977
6312768220142,5.492269894,1,-1.697488977050781,3.821145849609375,7.34181939086914,21.61832061068702,6.717557251908397,24.083969465648856
6312775530194,5.499579946,1,-1.62805712890625,3.660734338378906,7.332242584228515,18.3206106870229,3.9236641221374047,26.633587786259543
6312782894881,5.506944633,1,-1.7238251953125,3.303998291015625,7.273584643554687,21.16030534351145,3.3893129770992365,27.404580152671755
6312790223215,5.514272967,1,-1.6543933471679686,3.1364041748046874,7.248445526123047,23.770992366412212,5.534351145038168,23.923664122137403
6312797520402,5.521570154,1,-1.3682862487792968,2.96881005859375,7.186196282958984,20.68702290076336,5.549618320610687,20.64885496183206
6312804882902,5.528932654,1,-1.2880804931640624,2.9664158569335934,7.113173132324218,16.34351145038168,5.465648854961832,13.977099236641221
6312812165454,5.536215206,1,-1.3275848205566405,2.938882537841797,6.907271789550781,8.679389312977099,-0.7862595419847328,11.01526717557252
6312819457017,5.543506769,1,-1.3766659545898436,2.940079638671875,6.86297905883789,6.374045801526718,-1.282442748091603,8.427480916030534
6312826745871,5.550795623,1,-1.3527239379882812,3.019088293457031,6.692990740966796,5.900763358778626,2.435114503816794,1.282442748091603
6312834072746,5.558122498,1,-1.3359645263671873,3.113659259033203,6.736086370849609,3.3893129770992365,3.9083969465648853,-2.2213740458015265
6312841347069,5.565396821,1,-1.4496891052246093,3.3028011901855465,6.845022546386718,-3.9618320610687023,4.480916030534351,-6.625954198473282
6312848839152,5.572888904,1,-1.407790576171875,3.3674446350097655,6.720524060058593,-4.404580152671755,3.1603053435114505,-7.893129770992366
6312856124569,5.580174321,1,-1.618480322265625,3.5051112304687497,6.847416748046874,-6.32824427480916,6.961832061068702,-10.587786259541986
6312863461340,5.587511092,1,-1.4999673400878906,3.67749375,6.995857250976562,-4.793893129770993,9.198473282442748,-11.473282442748092
6312870752954,5.594802706,1,-1.3958195678710936,3.7888241271972656,7.113173132324218,-1.5572519083969465,10.091603053435115,-9.732824427480915
6312878018215,5.602067967,1,-1.5502455749511719,3.843890765380859,7.095216619873047,-1.3511450381679388,8.83969465648855,-8.13740458015267
6312885349725,5.609399477,1,-1.6112977172851561,3.8666356811523435,7.159860064697265,0.09923664122137404,9.679389312977099,-5.229007633587786
6312892675402,5.616725154,1,-1.744175909423828,3.787627026367187,7.117961535644531,3.045801526717557,10.84732824427481,-5.083969465648855
