timestamp_ns,t_s,sensor_id,ax,ay,az
3543495902292,0.058229219,1,0.21787235107421873,1.7274164978027342,-11.14022032470703
3543499185573,0.0615125,1,0.19991583862304688,1.714248388671875,-11.141417425537108
3543502516146,0.064843073,1,0.1927332336425781,1.7106570861816406,-11.167753643798827
3543505855105,0.068182032,1,0.19991583862304688,1.714248388671875,-11.165359442138671
3543509181823,0.07150875,1,0.21787235107421873,1.7298106994628906,-11.162965240478515
3543512515469,0.074842396,1,0.2262520568847656,1.7429788085937499,-11.21084927368164
3543515845834,0.078172761,1,0.2154781494140625,1.7262193969726563,-11.184513055419922
3543519179844,0.081506771,1,0.23822306518554687,1.734599102783203,-11.189301458740234
3543522513646,0.084840573,1,0.24061726684570311,1.7369933044433592,-11.166556542968749
3543525848802,0.088175729,1,0.23104046020507812,1.734599102783203,-11.183315954589844
3543529181198,0.091508125,1,0.22864625854492185,1.7178396911621092,-11.194089862060546
3543532514688,0.094841615,1,0.23822306518554687,1.7286135986328124,-11.176133349609374
3543535844792,0.098171719,1,0.23582886352539062,1.7178396911621092,-11.197681164550781
3543539179063,0.10150599,1,0.23343466186523437,1.7166425903320313,-11.188104357910156
3543542512084,0.104839011,1,0.24301146850585936,1.6986860778808592,-11.19169566040039
3543545847500,0.108174427,1,0.26216508178710934,1.7334020019531249,-11.183315954589844
3543549181198,0.111508125,1,0.2549824768066406,1.7393875061035156,-11.037269653320312
3543552514532,0.114841459,1,0.20350714111328125,1.7094599853515624,-11.225214483642578
3543555845157,0.118172084,1,0.22505495605468748,1.7214309936523438,-11.21084927368164
3543559179896,0.121506823,1,0.22385785522460935,1.7262193969726563,-11.21683477783203
3543562511980,0.124838907,1,0.22266075439453123,1.7477672119140624,-11.183315954589844
3543565848282,0.128175209,1,0.229843359375,1.734599102783203,-11.186907257080078
3543569180782,0.131507709,1,0.239420166015625,1.7525556152343749,-11.174936248779296
3543572514688,0.134841615,1,0.23223756103515625,1.734599102783203,-11.162965240478515
3543575845625,0.138172552,1,0.229843359375,1.7262193969726563,-11.219228979492186
3543579176771,0.141503698,1,0.22744915771484372,1.7393875061035156,-11.036072552490234
3543582514219,0.144841146,1,0.2501940734863281,1.7369933044433592,-11.18571015625
3543585848698,0.148175625,1,0.2166752502441406,1.7393875061035156,-11.206060870361327
3543589181355,0.151508282,1,0.2262520568847656,1.7477672119140624,-11.194089862060546
3543592515261,0.154842188,1,0.22266075439453123,1.7298106994628906,-11.19887826538086
3543595846146,0.158173073,1,0.20470424194335937,1.714248388671875,-11.202469567871093
3543599179011,0.161505938,1,0.1975216369628906,1.7034744812011717,-11.190498559570312
3543602511563,0.16483849,1,0.1975216369628906,1.714248388671875,-11.18571015625
3543605848073,0.168175,1,0.23223756103515625,1.7238251953125,-11.213243475341796
3543609181302,0.171508229,1,0.2537853759765625,1.7262193969726563,-11.316194146728515
3543612512396,0.174839323,1,0.24660277099609373,1.7334020019531249,-11.214440576171874
3543615845834,0.178172761,1,0.20829554443359374,1.7298106994628906,-11.227608685302734
3543619178698,0.181505625,1,0.2214636535644531,1.7226280944824217,-11.200075366210937
3543622512084,0.184839011,1,0.22505495605468748,1.7334020019531249,-11.204863769531249
3543625848386,0.188175313,1,0.21188684692382811,1.7094599853515624,-11.215637677001952
3543629181407,0.191508334,1,0.24181436767578124,1.715445489501953,-11.173739147949219
3543632514427,0.194841354,1,0.22026655273437498,1.7238251953125,-11.196484063720703
3543635845521,0.198172448,1,0.20949264526367187,1.7525556152343749,-11.227608685302734
3543639178750,0.201505677,1,0.22026655273437498,1.7381904052734374,-11.196484063720703
3543642512136,0.204839063,1,0.23104046020507812,1.725022296142578,-11.196484063720703
3543645848021,0.208174948,1,0.26336218261718747,1.744175909423828,-11.19169566040039
3543649181250,0.211508177,1,0.258573779296875,1.753752716064453,-11.166556542968749
3543652515365,0.214842292,1,0.2454056701660156,1.734599102783203,-11.170147845458983
3543655845313,0.21817224,1,0.22744915771484372,1.7334020019531249,-11.171344946289063
3543659178907,0.221505834,1,0.19871873779296872,1.7238251953125,-11.192892761230468
3543662511823,0.22483875,1,0.1927332336425781,1.734599102783203,-11.190498559570312
3543665847813,0.22817474,1,0.19393033447265623,1.7477672119140624,-11.227608685302734
3543669180938,0.231507865,1,0.201112939453125,1.7381904052734374,-11.189301458740234
3543672514584,0.234841511,1,0.21068974609375,1.7429788085937499,-11.17254204711914
3543675845782,0.238172709,1,0.21787235107421873,1.734599102783203,-11.190498559570312
3543679179219,0.241506146,1,0.20829554443359374,1.7094599853515624,-11.179724652099608
3543682509844,0.244836771,1,0.2166752502441406,1.7274164978027342,-11.208455072021483
3543685845677,0.248172604,1,0.20709844360351562,1.7334020019531249,-11.225214483642578
3543689181302,0.251508229,1,0.22026655273437498,1.744175909423828,-11.2240173828125
3543692514688,0.254841615,1,0.21068974609375,1.7393875061035156,-11.23000288696289
3543695845625,0.258172552,1,0.2059013427734375,1.753752716064453,-11.218031878662108
3543699178750,0.261505677,1,0.2166752502441406,1.7549498168945312,-11.184513055419922
3543702511771,0.264838698,1,0.2262520568847656,1.7525556152343749,-11.174936248779296
3543705847813,0.26817474,1,0.22744915771484372,1.7417817077636717,-11.159373937988281
3543709181042,0.271507969,1,0.21188684692382811,1.744175909423828,-11.184513055419922
3543712514323,0.27484125,1,0.2442085693359375,1.7130512878417967,-11.182118853759764
3543715845625,0.278172552,1,0.20949264526367187,1.7178396911621092,-11.189301458740234
3543719178698,0.281505625,1,0.20231004028320312,1.7190367919921874,-11.189301458740234
3543722512240,0.284839167,1,0.21068974609375,1.7298106994628906,-11.17852755126953
3543725848073,0.288175,1,0.21906945190429686,1.7501614135742187,-11.195286962890624
3543729180365,0.291507292,1,0.22744915771484372,1.7405846069335937,-11.17852755126953
3543732514115,0.294841042,1,0.2214636535644531,1.715445489501953,-11.165359442138671
3543735845625,0.298172552,1,0.22864625854492185,1.7082628845214842,-11.16057103881836
3543739178594,0.301505521,1,0.22385785522460935,1.7334020019531249,-11.176133349609374
3543742512188,0.304839115,1,0.2537853759765625,1.7130512878417967,-11.176133349609374
3543745847709,0.308174636,1,0.23582886352539062,1.7118541870117185,-11.18571015625
3543749180938,0.311507865,1,0.22744915771484372,1.7429788085937499,-11.156979736328124
3543752514636,0.314841563,1,0.24660277099609373,1.725022296142578,-11.18571015625
3543755845729,0.318172656,1,0.23223756103515625,1.7238251953125,-11.320982550048827
3543759178854,0.321505781,1,0.22505495605468748,1.7357962036132812,-11.18571015625
3543762511042,0.324837969,1,0.19991583862304688,1.7334020019531249,-11.201272467041015
3543765847969,0.328174896,1,0.20350714111328125,1.7322049011230467,-11.215637677001952
3543769180938,0.331507865,1,0.20470424194335937,1.7190367919921874,-11.196484063720703
3543772513490,0.334840417,1,0.2059013427734375,1.707065783691406,-11.180921752929686
3543775844532,0.338171459,1,0.2262520568847656,1.7082628845214842,-11.158176837158203
3543779178334,0.341505261,1,0.2059013427734375,1.7094599853515624,-11.150994232177734
3543782512865,0.344839792,1,0.2214636535644531,1.7226280944824217,-11.189301458740234
3543785847761,0.348174688,1,0.21188684692382811,1.7298106994628906,-11.19887826538086
3543789180625,0.351507552,1,0.2154781494140625,1.7094599853515624,-11.18571015625
3543792514740,0.354841667,1,0.258573779296875,1.7178396911621092,-11.184513055419922
3543795845677,0.358172604,1,0.23104046020507812,1.725022296142578,-11.183315954589844
3543799178959,0.361505886,1,0.2537853759765625,1.7238251953125,-11.177330450439452
3543802511875,0.364838802,1,0.2442085693359375,1.7262193969726563,-11.173739147949219
3543805847136,0.368174063,1,0.2262520568847656,1.7226280944824217,-11.192892761230468
3543809179740,0.371506667,1,0.2154781494140625,1.7298106994628906,-11.206060870361327
3543812523542,0.374850469,1,0.2166752502441406,1.7274164978027342,-11.186907257080078
3543815847396,0.378174323,1,0.22864625854492185,1.7381904052734374,-11.314997045898437
3543819179531,0.381506458,1,0.2214636535644531,1.715445489501953,-11.166556542968749
3543822511823,0.38483875,1,0.19512743530273435,1.7118541870117185,-11.155782635498046
3543825846459,0.388173386,1,0.21308394775390624,1.7082628845214842,-11.173739147949219
3543829182344,0.391509271,1,0.23104046020507812,1.7298106994628906,-11.159373937988281
3543832514531,0.394841458,1,0.22864625854492185,1.7286135986328124,-11.167753643798827
3543835845261,0.398172188,1,0.21906945190429686,1.7238251953125,-11.177330450439452
3543839178750,0.401505677,1,0.2059013427734375,1.7369933044433592,-11.179724652099608
3543842512448,0.404839375,1,0.229843359375,1.7238251953125,-11.16057103881836
3543845847865,0.408174792,1,0.24181436767578124,1.7274164978027342,-11.039663854980468
3543849181146,0.411508073,1,0.24061726684570311,1.7226280944824217,-11.158176837158203
3543852514688,0.414841615,1,0.21787235107421873,1.715445489501953,-11.171344946289063
3543855844584,0.418171511,1,0.21787235107421873,1.7334020019531249,-11.192892761230468
3543859179427,0.421506354,1,0.2549824768066406,1.7453730102539062,-11.2240173828125
3543862511302,0.424838229,1,0.23343466186523437,1.744175909423828,-11.214440576171874
3543865847656,0.428174583,1,0.22385785522460935,1.7393875061035156,-11.182118853759764
3543869179323,0.43150625,1,0.25139117431640623,1.7453730102539062,-11.192892761230468
3543872515104,0.434842031,1,0.25737667846679685,1.7322049011230467,-11.148600030517578
3543875845261,0.438172188,1,0.258573779296875,1.7417817077636717,-11.034875451660156
3543879179323,0.44150625,1,0.2166752502441406,1.7274164978027342,-11.190498559570312
3543882511459,0.444838386,1,0.21188684692382811,1.7417817077636717,-11.202469567871093
3543885848438,0.448175365,1,0.22385785522460935,1.7238251953125,-11.192892761230468
3543889181146,0.451508073,1,0.20231004028320312,1.7082628845214842,-11.171344946289063
3543892513386,0.454840313,1,0.22266075439453123,1.6915034729003906,-11.171344946289063
3543895844636,0.458171563,1,0.2442085693359375,1.70467158203125,-11.170147845458983
3543899177136,0.461504063,1,0.23702596435546874,1.7190367919921874,-11.186907257080078
3543902512396,0.464839323,1,0.23582886352539062,1.7214309936523438,-11.165359442138671
3543905847292,0.468174219,1,0.1975216369628906,1.7166425903320313,-11.177330450439452
3543909180000,0.471506927,1,0.20709844360351562,1.7094599853515624,-11.176133349609374
3543912513854,0.474840781,1,0.23223756103515625,1.7393875061035156,-11.195286962890624
3543915844531,0.478171458,1,0.239420166015625,1.7298106994628906,-11.180921752929686
3543919178386,0.481505313,1,0.2346317626953125,1.7202338928222656,-11.19169566040039
3543922512084,0.484839011,1,0.22744915771484372,1.6998831787109374,-11.2240173828125
3543925847761,0.488174688,1,0.23343466186523437,1.6998831787109374,-11.202469567871093
3543929180625,0.491507552,1,0.2346317626953125,1.7106570861816406,-11.209652172851563
3543932514375,0.494841302,1,0.2346317626953125,1.725022296142578,-11.212046374511718
3543935844792,0.498171719,1,0.23702596435546874,1.7238251953125,-11.17852755126953
3543939178594,0.501505521,1,0.2346317626953125,1.7369933044433592,-11.177330450439452
3543942512084,0.504839011,1,0.20829554443359374,1.725022296142578,-11.184513055419922
3543945848125,0.508175052,1,0.21906945190429686,1.7082628845214842,-11.17852755126953
3543949180417,0.511507344,1,0.21428104858398436,1.7118541870117185,-11.195286962890624
3543952513750,0.514840677,1,0.2166752502441406,1.7130512878417967,-11.206060870361327
3543955845052,0.518171979,1,0.22266075439453123,1.7465701110839842,-11.184513055419922
3543959179219,0.521506146,1,0.23104046020507812,1.7465701110839842,-11.17852755126953
3543962512396,0.524839323,1,0.2214636535644531,1.7429788085937499,-11.164162341308593
3543965847656,0.528174583,1,0.22026655273437498,1.7501614135742187,-11.189301458740234
3543969180729,0.531507656,1,0.21068974609375,1.7298106994628906,-11.19887826538086
3543972513750,0.534840677,1,0.21308394775390624,1.7202338928222656,-11.195286962890624
3543975845469,0.538172396,1,0.22505495605468748,1.7166425903320313,-11.200075366210937
3543979179219,0.541506146,1,0.23702596435546874,1.7274164978027342,-11.194089862060546
3543982511771,0.544838698,1,0.2442085693359375,1.7286135986328124,-11.196484063720703
3543985847188,0.548174115,1,0.22266075439453123,1.7405846069335937,-11.21084927368164
3543989180000,0.551506927,1,0.23104046020507812,1.7429788085937499,-11.215637677001952
3543992513698,0.554840625,1,0.2262520568847656,1.7310078002929687,-11.188104357910156
3543995845000,0.558171927,1,0.1975216369628906,1.7477672119140624,-11.18571015625
3543999178073,0.561505,1,0.19393033447265623,1.7310078002929687,-11.1474029296875
3544002528125,0.564855052,1,0.21428104858398436,1.753752716064453,-11.152191333007812
3544005955886,0.568282813,1,0.21308394775390624,1.744175909423828,-11.186907257080078
3544009194688,0.571521615,1,0.22026655273437498,1.7334020019531249,-11.195286962890624
3544012516198,0.574843125,1,0.22385785522460935,1.7226280944824217,-11.209652172851563
3544015846146,0.578173073,1,0.22026655273437498,1.7322049011230467,-11.186907257080078
3544019178906,0.581505833,1,0.229843359375,1.7453730102539062,-11.165359442138671
3544022512500,0.584839427,1,0.21787235107421873,1.7453730102539062,-11.154585534667968
3544025847969,0.588174896,1,0.20709844360351562,1.714248388671875,-11.161768139648437
3544029180000,0.591506927,1,0.2214636535644531,1.7334020019531249,-11.183315954589844
3544032513698,0.594840625,1,0.2154781494140625,1.7501614135742187,-11.218031878662108
3544035845990,0.598172917,1,0.22744915771484372,1.734599102783203,-11.204863769531249
3544039180729,0.601507656,1,0.22026655273437498,1.7310078002929687,-11.176133349609374
3544042511146,0.604838073,1,0.2154781494140625,1.7310078002929687,-11.192892761230468
3544045848594,0.608175521,1,0.21188684692382811,1.734599102783203,-11.209652172851563
3544049181042,0.611507969,1,0.2059013427734375,1.7429788085937499,-11.231199987792968
3544052514219,0.614841146,1,0.21068974609375,1.734599102783203,-11.206060870361327
3544055844375,0.618171302,1,0.21906945190429686,1.7226280944824217,-11.215637677001952
3544059178750,0.621505677,1,0.22266075439453123,1.7310078002929687,-11.18571015625
3544062511354,0.624838281,1,0.21308394775390624,1.7405846069335937,-11.173739147949219
3544065848073,0.628175,1,0.20949264526367187,1.7262193969726563,-11.21084927368164
3544069180208,0.631507135,1,0.2537853759765625,1.7417817077636717,-11.200075366210937
3544072512917,0.634839844,1,0.239420166015625,1.7597382202148437,-11.192892761230468
3544075845156,0.638172083,1,0.2214636535644531,1.734599102783203,-11.176133349609374
3544079178906,0.641505833,1,0.21906945190429686,1.7393875061035156,-11.176133349609374
3544082511198,0.644838125,1,0.21906945190429686,1.734599102783203,-11.200075366210937
3544085847292,0.648174219,1,0.21787235107421873,1.7298106994628906,-11.215637677001952
3544089180521,0.651507448,1,0.20949264526367187,1.7322049011230467,-11.202469567871093
3544092513490,0.654840417,1,0.20949264526367187,1.7393875061035156,-11.182118853759764
3544095844844,0.658171771,1,0.22744915771484372,1.7393875061035156,-11.161768139648437
3544099179167,0.661506094,1,0.22744915771484372,1.7393875061035156,-11.167753643798827
3544102511979,0.664838906,1,0.23104046020507812,1.7381904052734374,-11.209652172851563
3544105847552,0.668174479,1,0.22385785522460935,1.7477672119140624,-11.194089862060546
3544109181250,0.671508177,1,0.20949264526367187,1.7274164978027342,-11.176133349609374
3544112515052,0.674841979,1,0.22266075439453123,1.7477672119140624,-11.037269653320312
3544115844531,0.678171458,1,0.23582886352539062,1.7393875061035156,-11.168950744628905
3544119178490,0.681505417,1,0.23702596435546874,1.7202338928222656,-11.171344946289063
3544122511823,0.68483875,1,0.23343466186523437,1.714248388671875,-11.123460913085937
3544125850313,0.68817724,1,0.2154781494140625,1.7357962036132812,-11.136629022216797
3544129183698,0.691510625,1,0.2346317626953125,1.744175909423828,-11.174936248779296
3544132514688,0.694841615,1,0.23822306518554687,1.7190367919921874,-11.16057103881836
3544135845261,0.698172188,1,0.23822306518554687,1.7310078002929687,-11.213243475341796
3544139178281,0.701505208,1,0.24301146850585936,1.7334020019531249,-11.240776794433593
3544142511250,0.704838177,1,0.2454056701660156,1.7286135986328124,-11.201272467041015
3544145848021,0.708174948,1,0.2346317626953125,1.7322049011230467,-11.196484063720703
3544149181094,0.711508021,1,0.2214636535644531,1.7226280944824217,-11.17852755126953
3544152514063,0.71484099,1,0.19512743530273435,1.7334020019531249,-11.192892761230468
3544155844375,0.718171302,1,0.201112939453125,1.714248388671875,-11.165359442138671
3544159178958,0.721505885,1,0.19871873779296872,1.7130512878417967,-11.162965240478515
3544162512292,0.724839219,1,0.20949264526367187,1.7178396911621092,-11.146205828857422
3544165848594,0.728175521,1,0.23223756103515625,1.7262193969726563,-11.182118853759764
3544169180573,0.7315075,1,0.21906945190429686,1.714248388671875,-11.179724652099608
3544172514063,0.73484099,1,0.22385785522460935,1.7130512878417967,-11.17254204711914
3544175845469,0.738172396,1,0.25139117431640623,1.7357962036132812,-11.182118853759764
3544179178125,0.741505052,1,0.25737667846679685,1.7501614135742187,-11.213243475341796
3544182511875,0.744838802,1,0.24061726684570311,1.7477672119140624,-11.212046374511718
3544185847813,0.74817474,1,0.23702596435546874,1.7106570861816406,-11.200075366210937
3544189180677,0.751507604,1,0.24660277099609373,1.7130512878417967,-11.203666668701171
3544192513802,0.754840729,1,0.22505495605468748,1.7226280944824217,-11.208455072021483
3544195845208,0.758172135,1,0.22864625854492185,1.7357962036132812,-11.18571015625
3544199179479,0.761506406,1,0.23343466186523437,1.734599102783203,-11.167753643798827
3544202512240,0.764839167,1,0.22864625854492185,1.7334020019531249,-11.194089862060546
3544205847708,0.768174635,1,0.24779987182617186,1.7286135986328124,-11.166556542968749
3544209180365,0.771507292,1,0.2442085693359375,1.7106570861816406,-11.183315954589844
3544212514011,0.774840938,1,0.22505495605468748,1.7166425903320313,-11.215637677001952
3544215845208,0.778172135,1,0.229843359375,1.7190367919921874,-11.17254204711914
3544219179011,0.781505938,1,0.21308394775390624,1.7357962036132812,-11.179724652099608
3544222511667,0.784838594,1,0.21906945190429686,1.715445489501953,-11.195286962890624
3544225847604,0.788174531,1,0.2166752502441406,1.715445489501953,-11.19887826538086
3544229180781,0.791507708,1,0.21188684692382811,1.7322049011230467,-11.197681164550781
3544232514583,0.79484151,1,0.20949264526367187,1.7322049011230467,-11.190498559570312
3544235844792,0.798171719,1,0.2262520568847656,1.7453730102539062,-11.213243475341796
3544239178958,0.801505885,1,0.22385785522460935,1.7214309936523438,-11.183315954589844
3544242511615,0.804838542,1,0.2214636535644531,1.7202338928222656,-11.188104357910156
3544245846927,0.808173854,1,0.229843359375,1.7298106994628906,-11.189301458740234
3544249180052,0.811506979,1,0.23104046020507812,1.7310078002929687,-11.19887826538086
3544252513802,0.814840729,1,0.2262520568847656,1.7477672119140624,-11.194089862060546
3544255845417,0.818172344,1,0.23822306518554687,1.744175909423828,-11.152191333007812
3544259179531,0.821506458,1,0.23822306518554687,1.744175909423828,-11.176133349609374
3544262511875,0.824838802,1,0.23582886352539062,1.7262193969726563,-11.168950744628905
3544265846875,0.828173802,1,0.2346317626953125,1.7214309936523438,-11.16057103881836
3544269180260,0.831507187,1,0.24061726684570311,1.7298106994628906,-11.207257971191405
3544272513542,0.834840469,1,0.2549824768066406,1.7369933044433592,-11.23000288696289
3544275844948,0.838171875,1,0.23582886352539062,1.734599102783203,-11.19169566040039
3544279178229,0.841505156,1,0.22864625854492185,1.7334020019531249,-11.195286962890624
3544282511615,0.844838542,1,0.19393033447265623,1.715445489501953,-11.188104357910156
3544285847708,0.848174635,1,0.19632453613281248,1.715445489501953,-11.231199987792968
3544289179792,0.851506719,1,0.19871873779296872,1.6903063720703124,-11.227608685302734
3544292513802,0.854840729,1,0.20470424194335937,1.7214309936523438,-11.2240173828125
3544295845052,0.858171979,1,0.21787235107421873,1.7286135986328124,-11.180921752929686
3544299178490,0.861505417,1,0.19153613281249998,1.7022773803710936,-11.188104357910156
3544302511458,0.864838385,1,0.18914193115234373,1.7226280944824217,-11.17852755126953
3544305847083,0.86817401,1,0.22266075439453123,1.7094599853515624,-11.165359442138671
3544309180365,0.871507292,1,0.20231004028320312,1.7082628845214842,-11.177330450439452
3544312513438,0.874840365,1,0.21428104858398436,1.7166425903320313,-11.18571015625
3544315844792,0.878171719,1,0.22744915771484372,1.725022296142578,-11.194089862060546
3544319178490,0.881505417,1,0.21787235107421873,1.7381904052734374,-11.184513055419922
3544322511927,0.884838854,1,0.201112939453125,1.7262193969726563,-11.202469567871093
3544325847969,0.888174896,1,0.21906945190429686,1.7453730102539062,-11.177330450439452
3544329180938,0.891507865,1,0.229843359375,1.7465701110839842,-11.188104357910156
3544332514792,0.894841719,1,0.23582886352539062,1.7513585144042967,-11.170147845458983
3544335845625,0.898172552,1,0.2537853759765625,1.7405846069335937,-11.202469567871093
3544339179323,0.90150625,1,0.24301146850585936,1.7178396911621092,-11.218031878662108
3544342512031,0.904838958,1,0.239420166015625,1.7178396911621092,-11.204863769531249
3544345847865,0.908174792,1,0.23343466186523437,1.7357962036132812,-11.17852755126953
3544349180625,0.911507552,1,0.2214636535644531,1.7405846069335937,-11.18571015625
3544352515208,0.914842135,1,0.22026655273437498,1.707065783691406,-11.166556542968749
3544355844896,0.918171823,1,0.22026655273437498,1.7238251953125,-11.156979736328124
3544359178750,0.921505677,1,0.21787235107421873,1.7357962036132812,-11.141417425537108
3544362511406,0.924838333,1,0.23104046020507812,1.7513585144042967,-11.17852755126953
3544365847813,0.92817474,1,0.22744915771484372,1.7334020019531249,-11.17852755126953
3544369180469,0.931507396,1,0.2214636535644531,1.7393875061035156,-11.18571015625
3544372513646,0.934840573,1,0.23822306518554687,1.7178396911621092,-11.19169566040039
3544375844583,0.93817151,1,0.2214636535644531,1.7405846069335937,-11.17254204711914
3544379178594,0.941505521,1,0.23223756103515625,1.7501614135742187,-11.161768139648437
3544382511979,0.944838906,1,0.23343466186523437,1.734599102783203,-11.161768139648437
3544385848333,0.94817526,1,0.21188684692382811,1.744175909423828,-11.159373937988281
3544389181979,0.951508906,1,0.201112939453125,1.7525556152343749,-11.164162341308593
3544392515260,0.954842187,1,0.22744915771484372,1.7369933044433592,-11.192892761230468
3544395845677,0.958172604,1,0.239420166015625,1.7501614135742187,-11.206060870361327
3544399178333,0.96150526,1,0.22744915771484372,1.7393875061035156,-11.203666668701171
3544402511250,0.964838177,1,0.22744915771484372,1.7298106994628906,-11.197681164550781
3544405847135,0.968174062,1,0.2214636535644531,1.7417817077636717,-11.183315954589844
3544409180573,0.9715075,1,0.23822306518554687,1.7298106994628906,-11.207257971191405
3544412513646,0.974840573,1,0.2454056701660156,1.7322049011230467,-11.182118853759764
3544415844531,0.978171458,1,0.24301146850585936,1.7286135986328124,-11.203666668701171
3544419178750,0.981505677,1,0.25737667846679685,1.7334020019531249,-11.200075366210937
3544422511927,0.984838854,1,0.23104046020507812,1.7298106994628906,-11.189301458740234
3544425848125,0.988175052,1,0.21906945190429686,1.725022296142578,-11.179724652099608
3544429181354,0.991508281,1,0.21068974609375,1.7429788085937499,-11.200075366210937
3544432513854,0.994840781,1,0.20231004028320312,1.734599102783203,-11.201272467041015
3544435845104,0.998172031,1,0.21188684692382811,1.7429788085937499,-11.212046374511718
3544439183750,1.001510677,1,0.2166752502441406,1.7453730102539062,-11.202469567871093
3544442514063,1.00484099,1,0.22266075439453123,1.753752716064453,-11.221623181152344
3544445847917,1.008174844,1,0.229843359375,1.744175909423828,-11.195286962890624
3544449180313,1.01150724,1,0.2214636535644531,1.734599102783203,-11.200075366210937
3544452514427,1.014841354,1,0.2346317626953125,1.7310078002929687,-11.231199987792968
3544455845365,1.018172292,1,0.2166752502441406,1.7310078002929687,-11.201272467041015
3544459178854,1.021505781,1,0.22266075439453123,1.7310078002929687,-11.149797131347656
3544462512552,1.024839479,1,0.22864625854492185,1.7393875061035156,-11.212046374511718
3544465848177,1.028175104,1,0.20829554443359374,1.7322049011230467,-11.206060870361327
3544469180365,1.031507292,1,0.20829554443359374,1.734599102783203,-11.192892761230468
3544472513594,1.034840521,1,0.22385785522460935,1.7393875061035156,-11.202469567871093
3544475845417,1.038172344,1,0.23104046020507812,1.744175909423828,-11.174936248779296
3544479178906,1.041505833,1,0.24061726684570311,1.714248388671875,-11.179724652099608
3544482513333,1.04484026,1,0.21068974609375,1.7357962036132812,-11.183315954589844
3544485848385,1.048175312,1,0.20949264526367187,1.7322049011230467,-11.145008728027342
3544489180625,1.051507552,1,0.22505495605468748,1.7274164978027342,-11.145008728027342
3544492513542,1.054840469,1,0.2166752502441406,1.7322049011230467,-11.177330450439452
3544495844635,1.058171562,1,0.22266075439453123,1.7274164978027342,-11.200075366210937
3544499178906,1.061505833,1,0.2166752502441406,1.7357962036132812,-11.235988391113281
3544502511615,1.064838542,1,0.22505495605468748,1.7357962036132812,-11.232397088623046
3544505847656,1.068174583,1,0.24061726684570311,1.7357962036132812,-11.212046374511718
3544509180469,1.071507396,1,0.22505495605468748,1.7274164978027342,-11.214440576171874
3544512514375,1.074841302,1,0.22385785522460935,1.734599102783203,-11.188104357910156
3544515844531,1.078171458,1,0.21787235107421873,1.725022296142578,-11.182118853759764
3544519179375,1.081506302,1,0.23343466186523437,1.7214309936523438,-11.226411584472656
3544522512031,1.084838958,1,0.229843359375,1.7477672119140624,-11.190498559570312
3544525847292,1.088174219,1,0.23104046020507812,1.7322049011230467,-11.17852755126953
3544529180521,1.091507448,1,0.239420166015625,1.725022296142578,-11.202469567871093
3544532514583,1.09484151,1,0.2442085693359375,1.7298106994628906,-11.227608685302734
3544535844740,1.098171667,1,0.20709844360351562,1.7477672119140624,-11.200075366210937
3544539178385,1.101505312,1,0.21068974609375,1.7657237243652342,-11.19887826538086
3544542511875,1.104838802,1,0.23822306518554687,1.7405846069335937,-11.202469567871093
3544545847812,1.108174739,1,0.22266075439453123,1.7405846069335937,-11.203666668701171
3544549180521,1.111507448,1,0.22505495605468748,1.7286135986328124,-11.206060870361327
3544552514635,1.114841562,1,0.23104046020507812,1.725022296142578,-11.219228979492186
3544555845990,1.118172917,1,0.23582886352539062,1.7322049011230467,-11.235988391113281
3544559179375,1.121506302,1,0.24779987182617186,1.7226280944824217,-11.215637677001952
3544562511615,1.124838542,1,0.22864625854492185,1.7369933044433592,-11.21084927368164
3544565847448,1.128174375,1,0.2262520568847656,1.7334020019531249,-11.21084927368164
3544569179219,1.131506146,1,0.229843359375,1.7226280944824217,-11.190498559570312
3544572515417,1.134842344,1,0.22266075439453123,1.7130512878417967,-11.179724652099608
3544575845521,1.138172448,1,0.2059013427734375,1.7238251953125,-11.240776794433593
3544579179167,1.141506094,1,0.21188684692382811,1.7298106994628906,-11.23000288696289
3544582512344,1.144839271,1,0.21787235107421873,1.7369933044433592,-11.209652172851563
3544585848021,1.148174948,1,0.22864625854492185,1.753752716064453,-11.186907257080078
3544589180729,1.151507656,1,0.22026655273437498,1.7214309936523438,-11.206060870361327
3544592513646,1.154840573,1,0.20231004028320312,1.7178396911621092,-11.2240173828125
3544595843281,1.158170208,1,0.20829554443359374,1.7310078002929687,-11.186907257080078
3544599178229,1.161505156,1,0.2166752502441406,1.7178396911621092,-11.176133349609374
3544602509635,1.164836562,1,0.21428104858398436,1.7178396911621092,-11.170147845458983
3544605847031,1.168173958,1,0.2166752502441406,1.7238251953125,-11.177330450439452
3544609181771,1.171508698,1,0.21188684692382811,1.7202338928222656,-11.206060870361327
3544612515156,1.174842083,1,0.22505495605468748,1.7417817077636717,-11.19169566040039
3544615844948,1.178171875,1,0.239420166015625,1.7561469177246092,-11.170147845458983
3544619179271,1.181506198,1,0.24181436767578124,1.753752716064453,-11.195286962890624
3544622511875,1.184838802,1,0.23822306518554687,1.7393875061035156,-11.161768139648437
3544625847083,1.18817401,1,0.21188684692382811,1.7298106994628906,-11.162965240478515
3544629180833,1.19150776,1,0.20829554443359374,1.7310078002929687,-11.192892761230468
3544632514271,1.194841198,1,0.20470424194335937,1.7453730102539062,-11.196484063720703
3544635844740,1.198171667,1,0.21068974609375,1.7274164978027342,-11.228805786132812
3544639179531,1.201506458,1,0.2154781494140625,1.7214309936523438,-11.226411584472656
3544642512083,1.20483901,1,0.24061726684570311,1.7381904052734374,-11.222820281982422
3544645847500,1.208174427,1,0.24660277099609373,1.7513585144042967,-11.21084927368164
3544649181615,1.211508542,1,0.2442085693359375,1.705868682861328,-11.189301458740234
3544652514583,1.21484151,1,0.22026655273437498,1.725022296142578,-11.197681164550781
3544655845156,1.218172083,1,0.22864625854492185,1.7202338928222656,-11.219228979492186
3544659179375,1.221506302,1,0.25258827514648435,1.7393875061035156,-11.233594189453123
3544662512292,1.224839219,1,0.25737667846679685,1.7322049011230467,-11.180921752929686
3544665847969,1.228174896,1,0.23223756103515625,1.725022296142578,-11.168950744628905
3544669181146,1.231508073,1,0.2154781494140625,1.7334020019531249,-11.196484063720703
3544672514583,1.23484151,1,0.21906945190429686,1.7130512878417967,-11.190498559570312
3544675845156,1.238172083,1,0.2154781494140625,1.7238251953125,-11.158176837158203
3544679178490,1.241505417,1,0.20829554443359374,1.7094599853515624,-11.12226381225586
3544682511562,1.244838489,1,0.2346317626953125,1.7238251953125,-11.176133349609374
3544685846823,1.24817375,1,0.22026655273437498,1.7310078002929687,-11.17852755126953
3544689180573,1.2515075,1,0.19991583862304688,1.7357962036132812,-11.177330450439452
3544692512396,1.254839323,1,0.18435352783203124,1.7477672119140624,-11.195286962890624
3544695846042,1.258172969,1,0.22266075439453123,1.7369933044433592,-11.194089862060546
3544699179323,1.26150625,1,0.23104046020507812,1.7178396911621092,-11.213243475341796
3544702511614,1.264838541,1,0.24061726684570311,1.734599102783203,-11.19169566040039
3544705847500,1.268174427,1,0.23822306518554687,1.7322049011230467,-11.179724652099608
3544709180208,1.271507135,1,0.21906945190429686,1.7238251953125,-11.17254204711914
3544712514896,1.274841823,1,0.2214636535644531,1.7094599853515624,-11.202469567871093
3544715844427,1.278171354,1,0.22026655273437498,1.7166425903320313,-11.197681164550781
3544719178333,1.28150526,1,0.22864625854492185,1.7310078002929687,-11.225214483642578
3544722512812,1.284839739,1,0.23343466186523437,1.7405846069335937,-11.202469567871093
3544725848385,1.288175312,1,0.23223756103515625,1.7453730102539062,-11.179724652099608
3544729180364,1.291507291,1,0.22026655273437498,1.7429788085937499,-11.188104357910156
3544732513750,1.294840677,1,0.2346317626953125,1.7429788085937499,-11.182118853759764
3544735845052,1.298171979,1,0.20829554443359374,1.7429788085937499,-11.195286962890624
3544739178750,1.301505677,1,0.21428104858398436,1.7310078002929687,-11.156979736328124
3544742511614,1.304838541,1,0.23582886352539062,1.7334020019531249,-11.159373937988281
3544745848229,1.308175156,1,0.23822306518554687,1.7429788085937499,-11.184513055419922
3544749180312,1.311507239,1,0.24301146850585936,1.7202338928222656,-11.19169566040039
3544752519583,1.31484651,1,0.27174188842773433,1.7190367919921874,-11.21084927368164
3544755846354,1.318173281,1,0.2693476867675781,1.7226280944824217,-11.214440576171874
3544759179062,1.321505989,1,0.24301146850585936,1.7298106994628906,-11.190498559570312
3544762512656,1.324839583,1,0.2154781494140625,1.7190367919921874,-11.214440576171874
3544765846979,1.328173906,1,0.22026655273437498,1.7429788085937499,-11.177330450439452
3544769180677,1.331507604,1,0.23702596435546874,1.7405846069335937,-11.189301458740234
3544772514323,1.33484125,1,0.258573779296875,1.7238251953125,-11.188104357910156
3544775845364,1.338172291,1,0.24061726684570311,1.734599102783203,-11.186907257080078
3544779178542,1.341505469,1,0.2442085693359375,1.7298106994628906,-11.17254204711914
3544782512239,1.344839166,1,0.24301146850585936,1.7357962036132812,-11.206060870361327
3544785846771,1.348173698,1,0.24061726684570311,1.7357962036132812,-11.213243475341796
3544789180312,1.351507239,1,0.23582886352539062,1.7417817077636717,-11.195286962890624
3544792513698,1.354840625,1,0.23343466186523437,1.7525556152343749,-11.146205828857422
3544795844896,1.358171823,1,0.21068974609375,1.7417817077636717,-11.182118853759764
3544799180156,1.361507083,1,0.2214636535644531,1.715445489501953,-11.186907257080078
3544802512239,1.364839166,1,0.24061726684570311,1.7190367919921874,-11.148600030517578
3544805848021,1.368174948,1,0.25139117431640623,1.7298106994628906,-11.174936248779296
3544809180364,1.371507291,1,0.24779987182617186,1.7417817077636717,-11.164162341308593
3544812514271,1.374841198,1,0.24181436767578124,1.7310078002929687,-11.156979736328124
3544815845104,1.378172031,1,0.24899697265624998,1.7274164978027342,-11.174936248779296
3544819179635,1.381506562,1,0.239420166015625,1.7417817077636717,-11.16057103881836
3544822512135,1.384839062,1,0.22744915771484372,1.725022296142578,-11.152191333007812
3544825847708,1.388174635,1,0.2346317626953125,1.7298106994628906,-11.197681164550781
3544829180364,1.391507291,1,0.2597708801269531,1.7274164978027342,-11.200075366210937
3544832514531,1.394841458,1,0.22744915771484372,1.7118541870117185,-11.188104357910156
3544835845989,1.398172916,1,0.21906945190429686,1.725022296142578,-11.194089862060546
3544839179167,1.401506094,1,0.20709844360351562,1.7286135986328124,-11.226411584472656
3544842511927,1.404838854,1,0.22266075439453123,1.725022296142578,-11.227608685302734
3544845847239,1.408174166,1,0.20709844360351562,1.7357962036132812,-11.2240173828125
3544849180677,1.411507604,1,0.19991583862304688,1.7501614135742187,-11.213243475341796
3544852514271,1.414841198,1,0.20470424194335937,1.7298106994628906,-11.190498559570312
3544855844687,1.418171614,1,0.21787235107421873,1.7334020019531249,-11.186907257080078
3544859179114,1.421506041,1,0.21787235107421873,1.734599102783203,-11.189301458740234
3544862511927,1.424838854,1,0.21787235107421873,1.7489643127441405,-11.162965240478515
3544865848281,1.428175208,1,0.23582886352539062,1.734599102783203,-11.127052215576171
3544869181979,1.431508906,1,0.22744915771484372,1.7453730102539062,-11.130643518066405
3544872514062,1.434840989,1,0.24181436767578124,1.7609353210449217,-11.152191333007812
3544875845364,1.438172291,1,0.229843359375,1.7381904052734374,-11.149797131347656
3544879179114,1.441506041,1,0.229843359375,1.7262193969726563,-11.189301458740234
3544882510937,1.444837864,1,0.21787235107421873,1.7118541870117185,-11.203666668701171
3544885846875,1.448173802,1,0.2154781494140625,1.7286135986328124,-11.200075366210937
3544889181094,1.451508021,1,0.21188684692382811,1.7381904052734374,-11.220426080322264
3544892514010,1.454840937,1,0.1927332336425781,1.7393875061035156,-11.239579693603515
3544895846614,1.458173541,1,0.21068974609375,1.734599102783203,-11.201272467041015
3544899178542,1.461505469,1,0.2442085693359375,1.7405846069335937,-11.201272467041015
3544902511510,1.464838437,1,0.24660277099609373,1.7417817077636717,-11.21084927368164
3544905847864,1.468174791,1,0.24061726684570311,1.7477672119140624,-11.207257971191405
3544909180156,1.471507083,1,0.24061726684570311,1.7381904052734374,-11.222820281982422
3544912514219,1.474841146,1,0.23582886352539062,1.7106570861816406,-11.208455072021483
3544915844635,1.478171562,1,0.24301146850585936,1.70467158203125,-11.21683477783203
3544919178333,1.48150526,1,0.239420166015625,1.7130512878417967,-11.220426080322264
3544922509583,1.48483651,1,0.22505495605468748,1.7106570861816406,-11.202469567871093
3544925845885,1.488172812,1,0.2214636535644531,1.7334020019531249,-11.177330450439452
3544929181458,1.491508385,1,0.2346317626953125,1.7178396911621092,-11.165359442138671
3544932514219,1.494841146,1,0.2442085693359375,1.734599102783203,-11.197681164550781
3544935845364,1.498172291,1,0.21188684692382811,1.7190367919921874,-11.228805786132812
3544939179583,1.50150651,1,0.21906945190429686,1.7190367919921874,-11.197681164550781
3544942511979,1.504838906,1,0.229843359375,1.7238251953125,-11.200075366210937
3544945848229,1.508175156,1,0.229843359375,1.7274164978027342,-11.209652172851563
3544949180312,1.511507239,1,0.2262520568847656,1.7214309936523438,-11.201272467041015
3544952514271,1.514841198,1,0.2154781494140625,1.7357962036132812,-11.179724652099608
3544955845000,1.518171927,1,0.22266075439453123,1.7489643127441405,-11.19169566040039
3544959178021,1.521504948,1,0.229843359375,1.7465701110839842,-11.177330450439452
3544962511510,1.524838437,1,0.21906945190429686,1.7274164978027342,-11.173739147949219
3544965849531,1.528176458,1,0.22744915771484372,1.744175909423828,-11.156979736328124
3544969181041,1.531507968,1,0.22266075439453123,1.7334020019531249,-11.170147845458983
3544972514062,1.534840989,1,0.21308394775390624,1.725022296142578,-11.194089862060546
3544975845208,1.538172135,1,0.20949264526367187,1.7429788085937499,-11.19887826538086
3544979178854,1.541505781,1,0.23343466186523437,1.7573440185546874,-11.180921752929686
3544982511510,1.544838437,1,0.22385785522460935,1.7357962036132812,-11.188104357910156
3544985848177,1.548175104,1,0.20949264526367187,1.7298106994628906,-11.19169566040039
3544989181666,1.551508593,1,0.21308394775390624,1.7310078002929687,-11.189301458740234
3544992513802,1.554840729,1,0.20949264526367187,1.7405846069335937,-11.179724652099608
3544995845364,1.558172291,1,0.21787235107421873,1.7549498168945312,-11.171344946289063
3544999179635,1.561506562,1,0.22026655273437498,1.7585411193847655,-11.182118853759764
3545002511562,1.564838489,1,0.22385785522460935,1.7573440185546874,-11.165359442138671
3545005847135,1.568174062,1,0.22505495605468748,1.7238251953125,-11.188104357910156
3545009180781,1.571507708,1,0.24061726684570311,1.7429788085937499,-11.194089862060546
3545012514166,1.574841093,1,0.23582886352539062,1.7274164978027342,-11.177330450439452
3545015845104,1.578172031,1,0.23223756103515625,1.7310078002929687,-11.165359442138671
3545019178541,1.581505468,1,0.2214636535644531,1.7166425903320313,-11.182118853759764
3545022511979,1.584838906,1,0.23104046020507812,1.7286135986328124,-11.21683477783203
3545025848385,1.588175312,1,0.24779987182617186,1.7429788085937499,-11.196484063720703
3545029181094,1.591508021,1,0.22864625854492185,1.7322049011230467,-11.156979736328124
3545032514479,1.594841406,1,0.21308394775390624,1.7094599853515624,-11.143811627197264
3545035844844,1.598171771,1,0.22385785522460935,1.696291876220703,-11.188104357910156
3545039178958,1.601505885,1,0.23223756103515625,1.7166425903320313,-11.201272467041015
3545042511979,1.604838906,1,0.21428104858398436,1.7214309936523438,-11.192892761230468
3545045847708,1.608174635,1,0.2154781494140625,1.7166425903320313,-11.189301458740234
3545049180416,1.611507343,1,0.21787235107421873,1.7525556152343749,-11.190498559570312
3545052513802,1.614840729,1,0.21068974609375,1.7429788085937499,-11.184513055419922
3545055845208,1.618172135,1,0.22864625854492185,1.7405846069335937,-11.19887826538086
3545059179479,1.621506406,1,0.2442085693359375,1.7190367919921874,-11.192892761230468
3545062512239,1.624839166,1,0.23104046020507812,1.7298106994628906,-11.335347760009764
3545065850000,1.628176927,1,0.2262520568847656,1.7310078002929687,-11.176133349609374
3545069184062,1.631510989,1,0.22864625854492185,1.7214309936523438,-11.179724652099608
3545072514323,1.63484125,1,0.23582886352539062,1.7334020019531249,-11.168950744628905
3545075845469,1.638172396,1,0.22505495605468748,1.7525556152343749,-11.16057103881836
3545079178906,1.641505833,1,0.22505495605468748,1.7286135986328124,-11.173739147949219
3545082511198,1.644838125,1,0.21068974609375,1.7357962036132812,-11.194089862060546
3545085848021,1.648174948,1,0.2214636535644531,1.7621324218749999,-11.184513055419922
3545089180416,1.651507343,1,0.22864625854492185,1.7657237243652342,-11.179724652099608
3545092514948,1.654841875,1,0.20470424194335937,1.734599102783203,-11.183315954589844
3545095845260,1.658172187,1,0.2262520568847656,1.7381904052734374,-11.182118853759764
3545099178906,1.661505833,1,0.1975216369628906,1.7417817077636717,-11.190498559570312
3545102511562,1.664838489,1,0.21068974609375,1.7357962036132812,-11.177330450439452
3545105846875,1.668173802,1,0.2214636535644531,1.7381904052734374,-11.197681164550781
3545109180052,1.671506979,1,0.2166752502441406,1.734599102783203,-11.183315954589844
3545112513802,1.674840729,1,0.21308394775390624,1.725022296142578,-11.17254204711914
3545115845521,1.678172448,1,0.2154781494140625,1.7477672119140624,-11.197681164550781
3545119179271,1.681506198,1,0.2059013427734375,1.7334020019531249,-11.209652172851563
3545122512135,1.684839062,1,0.229843359375,1.7322049011230467,-11.206060870361327
3545125847343,1.68817427,1,0.23822306518554687,1.725022296142578,-11.220426080322264
3545129180416,1.691507343,1,0.24181436767578124,1.7405846069335937,-11.19887826538086
3545132514479,1.694841406,1,0.22505495605468748,1.7417817077636717,-11.200075366210937
3545135851041,1.698177968,1,0.22266075439453123,1.7238251953125,-11.188104357910156
3545139213385,1.701540312,1,0.23104046020507812,1.7190367919921874,-11.18571015625
3545142546614,1.704873541,1,0.2214636535644531,1.7238251953125,-11.17852755126953
3545145852760,1.708179687,1,0.2214636535644531,1.734599102783203,-11.179724652099608
3545149180521,1.711507448,1,0.23343466186523437,1.7429788085937499,-11.186907257080078
3545152513437,1.714840364,1,0.229843359375,1.7369933044433592,-11.170147845458983
3545155846198,1.718173125,1,0.229843359375,1.744175909423828,-11.165359442138671
3545159179896,1.721506823,1,0.23822306518554687,1.7357962036132812,-11.195286962890624
3545162512031,1.724838958,1,0.25737667846679685,1.7322049011230467,-11.180921752929686
3545165845468,1.728172395,1,0.22864625854492185,1.7322049011230467,-11.208455072021483
3545169179479,1.731506406,1,0.22385785522460935,1.7405846069335937,-11.19887826538086
3545172513385,1.734840312,1,0.2262520568847656,1.7357962036132812,-11.174936248779296
3545175845208,1.738172135,1,0.22864625854492185,1.734599102783203,-11.179724652099608
3545179179218,1.741506145,1,0.23104046020507812,1.7298106994628906,-11.203666668701171
3545182512187,1.744839114,1,0.229843359375,1.7214309936523438,-11.19887826538086
3545185848177,1.748175104,1,0.24061726684570311,1.7334020019531249,-11.19169566040039
3545189182083,1.75150901,1,0.23104046020507812,1.7513585144042967,-11.17852755126953
3545192513958,1.754840885,1,0.2454056701660156,1.7489643127441405,-11.170147845458983
3545195844687,1.758171614,1,0.239420166015625,1.7322049011230467,-11.166556542968749
3545199178646,1.761505573,1,0.2501940734863281,1.7274164978027342,-11.201272467041015
3545202512083,1.76483901,1,0.2262520568847656,1.7178396911621092,-11.213243475341796
3545205847239,1.768174166,1,0.24061726684570311,1.7226280944824217,-11.233594189453123
3545209181406,1.771508333,1,0.21787235107421873,1.7334020019531249,-11.226411584472656
3545212514062,1.774840989,1,0.22026655273437498,1.7405846069335937,-11.207257971191405
3545215844739,1.778171666,1,0.24779987182617186,1.7082628845214842,-11.19169566040039
3545219179531,1.781506458,1,0.2346317626953125,1.7226280944824217,-11.206060870361327
3545222512291,1.784839218,1,0.23343466186523437,1.725022296142578,-11.188104357910156
3545225848177,1.788175104,1,0.2501940734863281,1.744175909423828,-11.189301458740234
3545229180989,1.791507916,1,0.23702596435546874,1.7310078002929687,-11.202469567871093
3545232514791,1.794841718,1,0.22864625854492185,1.7298106994628906,-11.21683477783203
3545235845000,1.798171927,1,0.21068974609375,1.7238251953125,-11.18571015625
3545239178281,1.801505208,1,0.2214636535644531,1.7238251953125,-11.179724652099608
3545242511510,1.804838437,1,0.2262520568847656,1.7238251953125,-11.162965240478515
3545245847552,1.808174479,1,0.24660277099609373,1.7477672119140624,-11.17852755126953
3545249179427,1.811506354,1,0.2346317626953125,1.7357962036132812,-11.164162341308593
3545252514531,1.814841458,1,0.239420166015625,1.7357962036132812,-11.142614526367186
3545255845312,1.818172239,1,0.22026655273437498,1.7453730102539062,-11.150994232177734
3545259178593,1.82150552,1,0.21906945190429686,1.744175909423828,-11.155782635498046
3545262511510,1.824838437,1,0.22744915771484372,1.7357962036132812,-11.142614526367186
3545265847604,1.828174531,1,0.23702596435546874,1.7298106994628906,-11.152191333007812
3545269181041,1.831507968,1,0.2442085693359375,1.7334020019531249,-11.177330450439452
3545272513750,1.834840677,1,0.24061726684570311,1.7106570861816406,-11.152191333007812
3545275844635,1.838171562,1,0.23104046020507812,1.715445489501953,-11.165359442138671
3545279178750,1.841505677,1,0.23822306518554687,1.7166425903320313,-11.188104357910156
3545282512448,1.844839375,1,0.21188684692382811,1.7190367919921874,-11.215637677001952
3545285847968,1.848174895,1,0.21188684692382811,1.763329522705078,-11.221623181152344
3545289181406,1.851508333,1,0.19393033447265623,1.7525556152343749,-11.2240173828125
3545292514271,1.854841198,1,0.22026655273437498,1.7286135986328124,-11.214440576171874
3545295845000,1.858171927,1,0.2262520568847656,1.7226280944824217,-11.1474029296875
3545299177343,1.86150427,1,0.2166752502441406,1.7214309936523438,-11.184513055419922
3545302512135,1.864839062,1,0.23343466186523437,1.725022296142578,-11.18571015625
3545305847343,1.86817427,1,0.21308394775390624,1.7298106994628906,-11.192892761230468
3545309176406,1.871503333,1,0.2166752502441406,1.7178396911621092,-11.206060870361327
3545312513333,1.87484026,1,0.22266075439453123,1.7178396911621092,-11.204863769531249
3545315845729,1.878172656,1,0.21068974609375,1.7429788085937499,-11.227608685302734
3545319179062,1.881505989,1,0.2346317626953125,1.7322049011230467,-11.194089862060546
3545322512083,1.88483901,1,0.22505495605468748,1.7262193969726563,-11.173739147949219
3545325847396,1.888174323,1,0.22505495605468748,1.7298106994628906,-11.200075366210937
3545329180156,1.891507083,1,0.19991583862304688,1.725022296142578,-11.228805786132812
3545332514479,1.894841406,1,0.21308394775390624,1.7298106994628906,-11.207257971191405
3545335844739,1.898171666,1,0.22385785522460935,1.7178396911621092,-11.200075366210937
3545339179323,1.90150625,1,0.23822306518554687,1.714248388671875,-11.189301458740234
3545342512552,1.904839479,1,0.24899697265624998,1.7453730102539062,-11.21683477783203
3545345847500,1.908174427,1,0.21787235107421873,1.7477672119140624,-11.21084927368164
3545349180989,1.911507916,1,0.20949264526367187,1.7417817077636717,-11.170147845458983
3545352514687,1.914841614,1,0.2059013427734375,1.7417817077636717,-11.177330450439452
3545355844895,1.918171822,1,0.20829554443359374,1.7513585144042967,-11.189301458740234
3545359178333,1.92150526,1,0.2214636535644531,1.7405846069335937,-11.189301458740234
3545362511770,1.924838697,1,0.2214636535644531,1.7310078002929687,-11.200075366210937
3545365847864,1.928174791,1,0.22026655273437498,1.715445489501953,-11.173739147949219
3545369180520,1.931507447,1,0.22266075439453123,1.7357962036132812,-11.186907257080078
3545372514479,1.934841406,1,0.21787235107421873,1.7322049011230467,-11.220426080322264
3545375845260,1.938172187,1,0.22385785522460935,1.7214309936523438,-11.189301458740234
3545379185312,1.941512239,1,0.20470424194335937,1.7274164978027342,-11.17852755126953
3545382514062,1.944840989,1,0.201112939453125,1.7262193969726563,-11.173739147949219
3545385848750,1.948175677,1,0.229843359375,1.734599102783203,-11.170147845458983
3545389180468,1.951507395,1,0.20829554443359374,1.7381904052734374,-11.226411584472656
3545392513906,1.954840833,1,0.21188684692382811,1.7501614135742187,-11.23718549194336
3545395845625,1.958172552,1,0.22385785522460935,1.7405846069335937,-11.228805786132812
3545399179843,1.96150677,1,0.23223756103515625,1.7417817077636717,-11.227608685302734
3545402509843,1.96483677,1,0.2166752502441406,1.7417817077636717,-11.231199987792968
3545405847864,1.968174791,1,0.20709844360351562,1.734599102783203,-11.207257971191405
3545409182864,1.971509791,1,0.23582886352539062,1.7274164978027342,-11.202469567871093
3545412514375,1.974841302,1,0.25139117431640623,1.725022296142578,-11.201272467041015
3545415845729,1.978172656,1,0.23343466186523437,1.715445489501953,-11.219228979492186
3545419178593,1.98150552,1,0.21308394775390624,1.7477672119140624,-11.207257971191405
3545422511510,1.984838437,1,0.21428104858398436,1.7298106994628906,-11.177330450439452
3545425847239,1.988174166,1,0.2154781494140625,1.7166425903320313,-11.204863769531249
3545429180989,1.991507916,1,0.20350714111328125,1.7214309936523438,-11.202469567871093
3545432514948,1.994841875,1,0.1975216369628906,1.7310078002929687,-11.194089862060546
3545435845312,1.998172239,1,0.22505495605468748,1.7310078002929687,-11.201272467041015
3545439178541,2.001505468,1,0.20829554443359374,1.7178396911621092,-11.208455072021483
3545442511927,2.004838854,1,0.20470424194335937,1.7226280944824217,-11.202469567871093
3545445848073,2.008175,1,0.2059013427734375,1.7202338928222656,-11.221623181152344
3545449181718,2.011508645,1,0.20470424194335937,1.7322049011230467,-11.165359442138671
3545452513906,2.014840833,1,0.19393033447265623,1.7214309936523438,-11.179724652099608
3545455844843,2.01817177,1,0.23104046020507812,1.7322049011230467,-11.218031878662108
3545459179531,2.021506458,1,0.2442085693359375,1.7381904052734374,-11.21683477783203
3545462511562,2.024838489,1,0.2346317626953125,1.7405846069335937,-11.235988391113281
3545465849062,2.028175989,1,0.22744915771484372,1.7513585144042967,-11.244368096923827
3545469181093,2.03150802,1,0.20709844360351562,1.744175909423828,-11.215637677001952
3545472514843,2.03484177,1,0.23223756103515625,1.7298106994628906,-11.176133349609374
3545475844948,2.038171875,1,0.2346317626953125,1.7334020019531249,-11.159373937988281
3545479178958,2.041505885,1,0.18435352783203124,1.7429788085937499,-11.221623181152344
3545482511145,2.044838072,1,0.19871873779296872,1.725022296142578,-11.203666668701171
3545485848385,2.048175312,1,0.2214636535644531,1.7226280944824217,-11.188104357910156
3545489180729,2.051507656,1,0.21906945190429686,1.7214309936523438,-11.180921752929686
3545492519323,2.05484625,1,0.20829554443359374,1.7238251953125,-11.164162341308593
3545495847187,2.058174114,1,0.18315642700195311,1.7405846069335937,-11.188104357910156
3545499179062,2.061505989,1,0.19871873779296872,1.763329522705078,-11.18571015625
3545502512083,2.06483901,1,0.21188684692382811,1.7597382202148437,-11.194089862060546
3545505848229,2.068175156,1,0.20829554443359374,1.7609353210449217,-11.190498559570312
3545509180312,2.071507239,1,0.2262520568847656,1.7429788085937499,-11.174936248779296
3545512514479,2.074841406,1,0.229843359375,1.7489643127441405,-11.177330450439452
3545515845729,2.078172656,1,0.2214636535644531,1.7334020019531249,-11.189301458740234
3545519178698,2.081505625,1,0.22026655273437498,1.7274164978027342,-11.212046374511718
3545522511875,2.084838802,1,0.21308394775390624,1.7417817077636717,-11.21084927368164
3545525848437,2.088175364,1,0.20949264526367187,1.7417817077636717,-11.19887826538086
3545529181145,2.091508072,1,0.23104046020507812,1.7465701110839842,-11.19169566040039
3545532514010,2.094840937,1,0.21188684692382811,1.7393875061035156,-11.161768139648437
3545535845260,2.098172187,1,0.2154781494140625,1.7334020019531249,-11.173739147949219
3545539179270,2.101506197,1,0.2166752502441406,1.7513585144042967,-11.192892761230468
3545542511979,2.104838906,1,0.1975216369628906,1.7501614135742187,-11.194089862060546
3545545847864,2.108174791,1,0.20470424194335937,1.7405846069335937,-11.192892761230468
3545549180416,2.111507343,1,0.21787235107421873,1.7417817077636717,-11.21683477783203
3545552514635,2.114841562,1,0.2501940734863281,1.7298106994628906,-11.19887826538086
3545555844323,2.11817125,1,0.24779987182617186,1.7322049011230467,-11.188104357910156
3545559178437,2.121505364,1,0.23822306518554687,1.7274164978027342,-11.220426080322264
3545562512135,2.124839062,1,0.24660277099609373,1.7310078002929687,-11.190498559570312
3545565848385,2.128175312,1,0.2346317626953125,1.7298106994628906,-11.043255157470702
3545569180833,2.13150776,1,0.23343466186523437,1.7477672119140624,-11.19169566040039
3545572514531,2.134841458,1,0.2214636535644531,1.7357962036132812,-11.176133349609374
3545575844791,2.138171718,1,0.22744915771484372,1.7477672119140624,-11.182118853759764
3545579178229,2.141505156,1,0.20470424194335937,1.734599102783203,-11.206060870361327
3545582511927,2.144838854,1,0.2214636535644531,1.7357962036132812,-11.226411584472656
3545585847031,2.148173958,1,0.21308394775390624,1.744175909423828,-11.188104357910156
3545589180885,2.151507812,1,0.22864625854492185,1.7310078002929687,-11.194089862060546
3545592514010,2.154840937,1,0.23343466186523437,1.7298106994628906,-11.180921752929686
3545595845416,2.158172343,1,0.21188684692382811,1.725022296142578,-11.316194146728515
3545599179427,2.161506354,1,0.19393033447265623,1.7357962036132812,-11.156979736328124
3545602512447,2.164839374,1,0.21308394775390624,1.7166425903320313,-11.184513055419922
3545605848281,2.168175208,1,0.21308394775390624,1.7262193969726563,-11.195286962890624
3545609180312,2.171507239,1,0.21068974609375,1.725022296142578,-11.201272467041015
3545612514583,2.17484151,1,0.20949264526367187,1.7214309936523438,-11.21683477783203
3545615844739,2.178171666,1,0.2154781494140625,1.7298106994628906,-11.231199987792968
3545619179062,2.181505989,1,0.24181436767578124,1.7286135986328124,-11.200075366210937
3545622511250,2.184838177,1,0.2454056701660156,1.7393875061035156,-11.173739147949219
3545625847343,2.18817427,1,0.21906945190429686,1.7381904052734374,-11.212046374511718
3545629179843,2.19150677,1,0.19871873779296872,1.7310078002929687,-11.206060870361327
3545632515000,2.194841927,1,0.18315642700195311,1.744175909423828,-11.192892761230468
3545635845625,2.198172552,1,0.2059013427734375,1.7238251953125,-11.219228979492186
3545639178750,2.201505677,1,0.201112939453125,1.7094599853515624,-11.215637677001952
3545642511250,2.204838177,1,0.21308394775390624,1.725022296142578,-11.241973895263671
3545645847500,2.208174427,1,0.2059013427734375,1.7405846069335937,-11.241973895263671
3545649180364,2.211507291,1,0.23104046020507812,1.7429788085937499,-11.244368096923827
3545652513541,2.214840468,1,0.23582886352539062,1.7381904052734374,-11.212046374511718
3545655845260,2.218172187,1,0.2262520568847656,1.7190367919921874,-11.186907257080078
3545659179166,2.221506093,1,0.2346317626953125,1.7178396911621092,-11.164162341308593
3545662511197,2.224838124,1,0.2166752502441406,1.725022296142578,-11.184513055419922
3545665847552,2.228174479,1,0.1879448303222656,1.7453730102539062,-11.218031878662108
3545669181093,2.23150802,1,0.20829554443359374,1.7405846069335937,-11.207257971191405
3545672514114,2.234841041,1,0.2154781494140625,1.7381904052734374,-11.207257971191405
3545675845000,2.238171927,1,0.22026655273437498,1.7118541870117185,-11.167753643798827
3545679178593,2.24150552,1,0.24061726684570311,1.7190367919921874,-11.19169566040039
3545682511822,2.244838749,1,0.22864625854492185,1.7262193969726563,-11.19887826538086
3545685847135,2.248174062,1,0.2346317626953125,1.725022296142578,-11.164162341308593
3545689181093,2.25150802,1,0.23223756103515625,1.7334020019531249,-11.188104357910156
3545692514635,2.254841562,1,0.20949264526367187,1.714248388671875,-11.213243475341796
3545695845000,2.258171927,1,0.1927332336425781,1.7094599853515624,-11.196484063720703
3545699176197,2.261503124,1,0.22744915771484372,1.7238251953125,-11.170147845458983
3545702513333,2.26484026,1,0.24899697265624998,1.7274164978027342,-11.18571015625
3545705848229,2.268175156,1,0.23822306518554687,1.7549498168945312,-11.173739147949219
3545709181145,2.271508072,1,0.23104046020507812,1.7369933044433592,-11.158176837158203
3545712514218,2.274841145,1,0.24899697265624998,1.7298106994628906,-11.168950744628905
3545715845625,2.278172552,1,0.24779987182617186,1.7405846069335937,-11.208455072021483
3545719178541,2.281505468,1,0.23343466186523437,1.7286135986328124,-11.219228979492186
3545722511614,2.284838541,1,0.22266075439453123,1.7094599853515624,-11.202469567871093
3545725847239,2.288174166,1,0.23104046020507812,1.714248388671875,-11.173739147949219
3545729180468,2.291507395,1,0.21906945190429686,1.7118541870117185,-11.158176837158203
3545732513906,2.294840833,1,0.2154781494140625,1.7166425903320313,-11.168950744628905
3545735845156,2.298172083,1,0.24181436767578124,1.705868682861328,-11.171344946289063
3545739179114,2.301506041,1,0.24301146850585936,1.714248388671875,-11.167753643798827
3545742511770,2.304838697,1,0.23582886352539062,1.7334020019531249,-11.173739147949219
3545745847395,2.308174322,1,0.21787235107421873,1.7489643127441405,-11.162965240478515
3545749180989,2.311507916,1,0.22026655273437498,1.7298106994628906,-11.183315954589844
3545752514062,2.314840989,1,0.23822306518554687,1.7369933044433592,-11.21683477783203
3545755844947,2.318171874,1,0.23104046020507812,1.7429788085937499,-11.17852755126953
3545759179218,2.321506145,1,0.24899697265624998,1.7334020019531249,-11.173739147949219
3545762511822,2.324838749,1,0.23582886352539062,1.7262193969726563,-11.183315954589844
3545765847708,2.328174635,1,0.23104046020507812,1.7274164978027342,-11.168950744628905
3545769180729,2.331507656,1,0.2501940734863281,1.734599102783203,-11.17254204711914
3545772513906,2.334840833,1,0.24660277099609373,1.7393875061035156,-11.170147845458983
3545775845625,2.338172552,1,0.239420166015625,1.7465701110839842,-11.171344946289063
3545779178385,2.341505312,1,0.22505495605468748,1.725022296142578,-11.148600030517578
3545782511718,2.344838645,1,0.24779987182617186,1.7178396911621092,-11.148600030517578
3545785848697,2.348175624,1,0.2645592834472656,1.705868682861328,-11.174936248779296
3545789181562,2.351508489,1,0.23343466186523437,1.715445489501953,-11.166556542968749
3545792514583,2.35484151,1,0.2154781494140625,1.7262193969726563,-11.170147845458983
3545795845572,2.358172499,1,0.2214636535644531,1.7166425903320313,-11.167753643798827
3545799179895,2.361506822,1,0.2154781494140625,1.725022296142578,-11.164162341308593
3545802511458,2.364838385,1,0.2059013427734375,1.7118541870117185,-11.184513055419922
3545805848072,2.368174999,1,0.19991583862304688,1.7286135986328124,-11.212046374511718
3545809183906,2.371510833,1,0.2059013427734375,1.7477672119140624,-11.189301458740234
3545812517499,2.374844426,1,0.20350714111328125,1.7489643127441405,-11.19887826538086
3545815845312,2.378172239,1,0.21906945190429686,1.7453730102539062,-11.176133349609374
3545819179166,2.381506093,1,0.2154781494140625,1.7429788085937499,-11.190498559570312
3545822512083,2.38483901,1,0.239420166015625,1.7429788085937499,-11.206060870361327
3545825847760,2.388174687,1,0.22864625854492185,1.7381904052734374,-11.197681164550781
3545829181041,2.391507968,1,0.20709844360351562,1.7393875061035156,-11.170147845458983
3545832514374,2.394841301,1,0.21068974609375,1.7405846069335937,-11.207257971191405
3545835845312,2.398172239,1,0.2166752502441406,1.7681179260253905,-11.183315954589844
3545839178958,2.401505885,1,0.22744915771484372,1.7429788085937499,-11.207257971191405
3545842512447,2.404839374,1,0.2059013427734375,1.7477672119140624,-11.226411584472656
3545845847291,2.408174218,1,0.21188684692382811,1.7238251953125,-11.195286962890624
3545849180156,2.411507083,1,0.21188684692382811,1.7094599853515624,-11.189301458740234
3545852512604,2.414839531,1,0.21308394775390624,1.6915034729003906,-11.17852755126953
3545855845364,2.418172291,1,0.21787235107421873,1.7226280944824217,-11.180921752929686
3545859179010,2.421505937,1,0.2262520568847656,1.7381904052734374,-11.171344946289063
3545862512083,2.42483901,1,0.23582886352539062,1.7322049011230467,-11.215637677001952
3545865848072,2.428174999,1,0.23343466186523437,1.7286135986328124,-11.202469567871093
3545869180729,2.431507656,1,0.229843359375,1.7405846069335937,-11.195286962890624
3545872513385,2.434840312,1,0.22505495605468748,1.7286135986328124,-11.19169566040039
3545875845104,2.438172031,1,0.2166752502441406,1.7417817077636717,-11.16057103881836
3545879179062,2.441505989,1,0.229843359375,1.7417817077636717,-11.161768139648437
3545882512343,2.44483927,1,0.21787235107421873,1.7477672119140624,-11.184513055419922
3545885847135,2.448174062,1,0.21308394775390624,1.7513585144042967,-11.19169566040039
3545889180312,2.451507239,1,0.22266075439453123,1.7417817077636717,-11.167753643798827
3545892514531,2.454841458,1,0.22744915771484372,1.734599102783203,-11.146205828857422
3545895844895,2.458171822,1,0.1975216369628906,1.7130512878417967,-11.124658013916015
3545899178437,2.461505364,1,0.19393033447265623,1.695094775390625,-11.159373937988281
3545902509947,2.464836874,1,0.19632453613281248,1.697488977050781,-11.180921752929686
3545905847604,2.468174531,1,0.21188684692382811,1.7130512878417967,-11.179724652099608
3545909180624,2.471507551,1,0.2166752502441406,1.725022296142578,-11.176133349609374
3545912514635,2.474841562,1,0.22385785522460935,1.7286135986328124,-11.148600030517578
3545915845624,2.478172551,1,0.19991583862304688,1.7322049011230467,-11.194089862060546
3545919180260,2.481507187,1,0.20829554443359374,1.7178396911621092,-11.214440576171874
3545922512239,2.484839166,1,0.23104046020507812,1.7262193969726563,-11.323376751708985
3545925848229,2.488175156,1,0.22026655273437498,1.7322049011230467,-11.164162341308593
3545929180520,2.491507447,1,0.201112939453125,1.7393875061035156,-11.200075366210937
3545932514114,2.494841041,1,0.2214636535644531,1.7429788085937499,-11.184513055419922
3545935845520,2.498172447,1,0.23582886352539062,1.7513585144042967,-11.173739147949219
3545939179218,2.501506145,1,0.23702596435546874,1.7381904052734374,-11.170147845458983
3545942511562,2.504838489,1,0.229843359375,1.7166425903320313,-11.177330450439452
3545945847656,2.508174583,1,0.22026655273437498,1.734599102783203,-11.180921752929686
3545949179010,2.511505937,1,0.2262520568847656,1.7417817077636717,-11.173739147949219
3545952514010,2.514840937,1,0.2214636535644531,1.7381904052734374,-11.039663854980468
3545955845052,2.518171979,1,0.23822306518554687,1.725022296142578,-11.19887826538086
3545959179114,2.521506041,1,0.21906945190429686,1.714248388671875,-11.225214483642578
3545962511874,2.524838801,1,0.23104046020507812,1.7178396911621092,-11.23718549194336
3545965847135,2.528174062,1,0.22505495605468748,1.705868682861328,-11.226411584472656
3545969180416,2.531507343,1,0.21308394775390624,1.7178396911621092,-11.189301458740234
3545972514218,2.534841145,1,0.21308394775390624,1.7298106994628906,-11.179724652099608
3545975844895,2.538171822,1,0.21787235107421873,1.744175909423828,-11.17852755126953
3545979178593,2.54150552,1,0.20709844360351562,1.7393875061035156,-11.158176837158203
3545982511822,2.544838749,1,0.21308394775390624,1.7525556152343749,-11.149797131347656
3545985847083,2.54817401,1,0.23104046020507812,1.7405846069335937,-11.179724652099608
3545989181614,2.551508541,1,0.239420166015625,1.7381904052734374,-11.155782635498046
3545992513854,2.554840781,1,0.2454056701660156,1.7513585144042967,-11.171344946289063
3545995844895,2.558171822,1,0.24181436767578124,1.7357962036132812,-11.17852755126953
3545999178749,2.561505676,1,0.2262520568847656,1.7369933044433592,-11.170147845458983
3546002513072,2.564839999,1,0.23343466186523437,1.7310078002929687,-11.183315954589844
3546005847656,2.568174583,1,0.23822306518554687,1.7357962036132812,-11.190498559570312
3546009180833,2.57150776,1,0.24061726684570311,1.7417817077636717,-11.203666668701171
3546012512864,2.574839791,1,0.24061726684570311,1.772906329345703,-11.21683477783203
3546015844947,2.578171874,1,0.23223756103515625,1.7322049011230467,-11.180921752929686
3546019180104,2.581507031,1,0.201112939453125,1.7369933044433592,-11.1474029296875
3546022511666,2.584838593,1,0.20709844360351562,1.7262193969726563,-11.186907257080078
3546025846093,2.58817302,1,0.2154781494140625,1.7417817077636717,-11.214440576171874
3546029179062,2.591505989,1,0.23702596435546874,1.7489643127441405,-11.206060870361327
3546032514218,2.594841145,1,0.22026655273437498,1.7369933044433592,-11.195286962890624
3546035844010,2.598170937,1,0.21188684692382811,1.7286135986328124,-11.194089862060546
3546039178593,2.60150552,1,0.21787235107421873,1.7405846069335937,-11.219228979492186
3546042511562,2.604838489,1,0.21906945190429686,1.744175909423828,-11.19169566040039
3546045848020,2.608174947,1,0.22505495605468748,1.7381904052734374,-11.202469567871093
3546049180729,2.611507656,1,0.22505495605468748,1.7334020019531249,-11.188104357910156
3546052514531,2.614841458,1,0.2154781494140625,1.7178396911621092,-11.184513055419922
3546055845885,2.618172812,1,0.20350714111328125,1.7214309936523438,-11.19169566040039
3546059179010,2.621505937,1,0.20231004028320312,1.714248388671875,-11.189301458740234
3546062512031,2.624838958,1,0.22385785522460935,1.7130512878417967,-11.197681164550781
3546065848333,2.62817526,1,0.22385785522460935,1.7334020019531249,-11.15338843383789
3546069180937,2.631507864,1,0.23343466186523437,1.7405846069335937,-11.170147845458983
3546072514062,2.634840989,1,0.22266075439453123,1.725022296142578,-11.21084927368164
3546075844791,2.638171718,1,0.23223756103515625,1.7202338928222656,-11.179724652099608
3546079178906,2.641505833,1,0.24779987182617186,1.7238251953125,-11.194089862060546
3546082512656,2.644839583,1,0.22744915771484372,1.714248388671875,-11.214440576171874
3546085847656,2.648174583,1,0.18315642700195311,1.7166425903320313,-11.204863769531249
3546089180260,2.651507187,1,0.17956512451171874,1.7238251953125,-11.182118853759764
3546092513645,2.654840572,1,0.20709844360351562,1.7286135986328124,-11.19887826538086
3546095844843,2.65817177,1,0.2166752502441406,1.7357962036132812,-11.17852755126953
3546099178593,2.66150552,1,0.2346317626953125,1.7262193969726563,-11.179724652099608
3546102511614,2.664838541,1,0.24061726684570311,1.715445489501953,-11.192892761230468
3546105848020,2.668174947,1,0.2501940734863281,1.7262193969726563,-11.214440576171874
3546109179895,2.671506822,1,0.23223756103515625,1.725022296142578,-11.209652172851563
3546112513958,2.674840885,1,0.2262520568847656,1.7118541870117185,-11.203666668701171
3546115845364,2.678172291,1,0.2214636535644531,1.696291876220703,-11.19169566040039
3546119178854,2.681505781,1,0.22864625854492185,1.725022296142578,-11.17852755126953
3546122515051,2.684841978,1,0.23223756103515625,1.7334020019531249,-11.180921752929686
3546125850520,2.688177447,1,0.229843359375,1.7369933044433592,-11.146205828857422
3546129180208,2.691507135,1,0.2214636535644531,1.7298106994628906,-11.17254204711914
3546132514479,2.694841406,1,0.22505495605468748,1.7214309936523438,-11.18571015625
3546135844843,2.69817177,1,0.24779987182617186,1.7453730102539062,-11.188104357910156
3546139178906,2.701505833,1,0.23582886352539062,1.7501614135742187,-11.152191333007812
3546142511562,2.704838489,1,0.22864625854492185,1.7489643127441405,-11.176133349609374
3546145847499,2.708174426,1,0.21787235107421873,1.7393875061035156,-11.189301458740234
3546149181249,2.711508176,1,0.22864625854492185,1.7357962036132812,-11.194089862060546
3546152514426,2.714841353,1,0.24061726684570311,1.7369933044433592,-11.156979736328124
3546155844895,2.718171822,1,0.23343466186523437,1.7322049011230467,-11.166556542968749
3546159179531,2.721506458,1,0.24061726684570311,1.7381904052734374,-11.161768139648437
3546162512187,2.724839114,1,0.22864625854492185,1.7322049011230467,-11.17254204711914
3546165847708,2.728174635,1,0.22385785522460935,1.7357962036132812,-11.173739147949219
3546169180520,2.731507447,1,0.22266075439453123,1.7094599853515624,-11.197681164550781
3546172512656,2.734839583,1,0.21787235107421873,1.715445489501953,-11.232397088623046
3546175845885,2.738172812,1,0.2154781494140625,1.7214309936523438,-11.219228979492186
3546179178489,2.741505416,1,0.23343466186523437,1.7286135986328124,-11.184513055419922
3546182511926,2.744838853,1,0.22505495605468748,1.7214309936523438,-11.19169566040039
3546185847656,2.748174583,1,0.21906945190429686,1.7357962036132812,-11.186907257080078
3546189179687,2.751506614,1,0.20350714111328125,1.7334020019531249,-11.192892761230468
3546192514479,2.754841406,1,0.181959326171875,1.7214309936523438,-11.186907257080078
3546195845156,2.758172083,1,0.201112939453125,1.7453730102539062,-11.189301458740234
3546199179166,2.761506093,1,0.20949264526367187,1.7334020019531249,-11.221623181152344
3546202511093,2.76483802,1,0.19033903198242186,1.7130512878417967,-11.232397088623046
3546205847135,2.768174062,1,0.19871873779296872,1.7190367919921874,-11.233594189453123
3546209179791,2.771506718,1,0.201112939453125,1.7322049011230467,-11.194089862060546
3546212514218,2.774841145,1,0.20709844360351562,1.7214309936523438,-11.189301458740234
3546215845312,2.778172239,1,0.22026655273437498,1.707065783691406,-11.196484063720703
3546219178541,2.781505468,1,0.229843359375,1.7238251953125,-11.159373937988281
3546222511874,2.784838801,1,0.2346317626953125,1.7286135986328124,-11.182118853759764
3546225847291,2.788174218,1,0.2501940734863281,1.7190367919921874,-11.180921752929686
3546229180676,2.791507603,1,0.23702596435546874,1.7334020019531249,-11.209652172851563
3546232514218,2.794841145,1,0.2059013427734375,1.7489643127441405,-11.174936248779296
3546235845364,2.798172291,1,0.23104046020507812,1.7501614135742187,-11.196484063720703
3546239178124,2.801505051,1,0.2442085693359375,1.7393875061035156,-11.21084927368164
3546242512291,2.804839218,1,0.2561795776367187,1.7322049011230467,-11.173739147949219
3546245847499,2.808174426,1,0.25737667846679685,1.7118541870117185,-11.166556542968749
3546249180676,2.811507603,1,0.2549824768066406,1.7178396911621092,-11.042058056640624
3546252514166,2.814841093,1,0.23702596435546874,1.7334020019531249,-11.188104357910156
3546255844947,2.818171874,1,0.22026655273437498,1.7238251953125,-11.168950744628905
3546259178385,2.821505312,1,0.2501940734863281,1.7274164978027342,-11.162965240478515
3546262512083,2.82483901,1,0.24899697265624998,1.715445489501953,-11.17254204711914
3546265847291,2.828174218,1,0.23223756103515625,1.7202338928222656,-11.170147845458983
3546269180937,2.831507864,1,0.2214636535644531,1.7381904052734374,-11.203666668701171
3546272513958,2.834840885,1,0.21428104858398436,1.7465701110839842,-11.190498559570312
3546275844999,2.838171926,1,0.19512743530273435,1.7465701110839842,-11.173739147949219
3546279179531,2.841506458,1,0.21308394775390624,1.7501614135742187,-11.209652172851563
3546282511145,2.844838072,1,0.22266075439453123,1.725022296142578,-11.218031878662108
3546285846458,2.848173385,1,0.21068974609375,1.7322049011230467,-11.207257971191405
3546289180781,2.851507708,1,0.20350714111328125,1.7298106994628906,-11.197681164550781
3546292514114,2.854841041,1,0.21068974609375,1.7298106994628906,-11.197681164550781
3546295845364,2.858172291,1,0.21906945190429686,1.7393875061035156,-11.168950744628905
3546299178385,2.861505312,1,0.21906945190429686,1.7429788085937499,-11.155782635498046
3546302511093,2.86483802,1,0.229843359375,1.7310078002929687,-11.159373937988281
3546305846458,2.868173385,1,0.25139117431640623,1.7369933044433592,-11.171344946289063
3546309182291,2.871509218,1,0.24301146850585936,1.7178396911621092,-11.19169566040039
3546312514166,2.874841093,1,0.23343466186523437,1.7166425903320313,-11.218031878662108
3546315844947,2.878171874,1,0.21308394775390624,1.7010802795410156,-11.219228979492186
3546319178385,2.881505312,1,0.2214636535644531,1.725022296142578,-11.203666668701171
3546322511770,2.884838697,1,0.23104046020507812,1.715445489501953,-11.209652172851563
3546325847968,2.888174895,1,0.20829554443359374,1.7262193969726563,-11.141417425537108
3546329180624,2.891507551,1,0.22505495605468748,1.7465701110839842,-11.156979736328124
3546332514322,2.894841249,1,0.20709844360351562,1.7381904052734374,-11.15338843383789
3546335844478,2.898171405,1,0.229843359375,1.7429788085937499,-11.162965240478515
3546339179010,2.901505937,1,0.24899697265624998,1.7357962036132812,-11.215637677001952
3546342511718,2.904838645,1,0.24181436767578124,1.7298106994628906,-11.21683477783203
3546345847708,2.908174635,1,0.23702596435546874,1.7477672119140624,-11.202469567871093
3546349180468,2.911507395,1,0.22864625854492185,1.7381904052734374,-11.188104357910156
3546352514062,2.914840989,1,0.20949264526367187,1.734599102783203,-11.202469567871093
3546355845208,2.918172135,1,0.22266075439453123,1.7573440185546874,-11.208455072021483
3546359178176,2.921505103,1,0.2154781494140625,1.7477672119140624,-11.201272467041015
3546362511145,2.924838072,1,0.21188684692382811,1.7298106994628906,-11.186907257080078
3546365847812,2.928174739,1,0.2154781494140625,1.7166425903320313,-11.171344946289063
3546369179999,2.931506926,1,0.24301146850585936,1.7298106994628906,-11.18571015625
3546372514322,2.934841249,1,0.23223756103515625,1.7465701110839842,-11.17254204711914
3546375845051,2.938171978,1,0.2346317626953125,1.734599102783203,-11.15338843383789
3546379178489,2.941505416,1,0.2442085693359375,1.7489643127441405,-11.17852755126953
3546382512031,2.944838958,1,0.23582886352539062,1.7369933044433592,-11.156979736328124
3546385847656,2.948174583,1,0.2214636535644531,1.7166425903320313,-11.19169566040039
3546389181249,2.951508176,1,0.21787235107421873,1.715445489501953,-11.189301458740234
3546392514374,2.954841301,1,0.22864625854492185,1.7274164978027342,-11.213243475341796
3546395844478,2.958171405,1,0.2262520568847656,1.7453730102539062,-11.231199987792968
3546399179426,2.961506353,1,0.23223756103515625,1.7226280944824217,-11.220426080322264
3546402511874,2.964838801,1,0.21188684692382811,1.7238251953125,-11.171344946289063
3546405846874,2.968173801,1,0.23702596435546874,1.7202338928222656,-11.173739147949219
3546409180312,2.971507239,1,0.22266075439453123,1.725022296142578,-11.168950744628905
3546412513489,2.974840416,1,0.22864625854492185,1.7262193969726563,-11.156979736328124
3546415845260,2.978172187,1,0.21906945190429686,1.7238251953125,-11.200075366210937
3546419179635,2.981506562,1,0.21188684692382811,1.7274164978027342,-11.188104357910156
3546422512291,2.984839218,1,0.22744915771484372,1.7190367919921874,-11.182118853759764
3546425846978,2.988173905,1,0.2154781494140625,1.734599102783203,-11.195286962890624
3546429179218,2.991506145,1,0.21906945190429686,1.7513585144042967,-11.161768139648437
3546432514374,2.994841301,1,0.23223756103515625,1.753752716064453,-11.212046374511718
3546435849583,2.99817651,1,0.21787235107421873,1.7369933044433592,-11.17254204711914
3546439180155,3.001507082,1,0.22026655273437498,1.7393875061035156,-11.171344946289063
3546442511666,3.004838593,1,0.20470424194335937,1.734599102783203,-11.201272467041015
3546445847708,3.008174635,1,0.2262520568847656,1.7322049011230467,-11.220426080322264
3546449180833,3.01150776,1,0.239420166015625,1.7369933044433592,-11.207257971191405
3546452513437,3.014840364,1,0.2214636535644531,1.7298106994628906,-11.197681164550781
3546455844218,3.018171145,1,0.19871873779296872,1.7166425903320313,-11.190498559570312
3546459178801,3.021505728,1,0.22266075439453123,1.7334020019531249,-11.197681164550781
3546462511145,3.024838072,1,0.22385785522460935,1.744175909423828,-11.21084927368164
3546465848593,3.02817552,1,0.21428104858398436,1.744175909423828,-11.176133349609374
3546469180572,3.031507499,1,0.2442085693359375,1.7429788085937499,-11.195286962890624
3546472514478,3.034841405,1,0.2454056701660156,1.7334020019531249,-11.209652172851563
3546475845728,3.038172655,1,0.2454056701660156,1.7286135986328124,-11.195286962890624
3546479180103,3.04150703,1,0.22026655273437498,1.7094599853515624,-11.222820281982422
3546482511978,3.044838905,1,0.22864625854492185,1.7214309936523438,-11.207257971191405
3546485847395,3.048174322,1,0.24779987182617186,1.7334020019531249,-11.201272467041015
3546489179895,3.051506822,1,0.23582886352539062,1.7214309936523438,-11.180921752929686
3546492514322,3.054841249,1,0.20709844360351562,1.7202338928222656,-11.182118853759764
3546495844478,3.058171405,1,0.201112939453125,1.7274164978027342,-11.170147845458983
3546499178489,3.061505416,1,0.1975216369628906,1.714248388671875,-11.208455072021483
3546502511770,3.064838697,1,0.21188684692382811,1.6891092712402342,-11.188104357910156
3546505846822,3.068173749,1,0.20231004028320312,1.7010802795410156,-11.16057103881836
3546509180676,3.071507603,1,0.2154781494140625,1.7202338928222656,-11.170147845458983
3546512514635,3.074841562,1,0.21787235107421873,1.7238251953125,-11.158176837158203
3546515845260,3.078172187,1,0.23343466186523437,1.7334020019531249,-11.056423266601563
3546519179010,3.081505937,1,0.2454056701660156,1.6998831787109374,-11.238382592773437
3546522511353,3.08483828,1,0.22505495605468748,1.696291876220703,-11.232397088623046
3546525846874,3.088173801,1,0.20829554443359374,1.7034744812011717,-11.190498559570312
3546529180728,3.091507655,1,0.22505495605468748,1.7166425903320313,-11.173739147949219
3546532513801,3.094840728,1,0.22744915771484372,1.7202338928222656,-11.168950744628905
3546535844947,3.098171874,1,0.23343466186523437,1.7369933044433592,-11.176133349609374
3546539178593,3.10150552,1,0.239420166015625,1.7645266235351562,-11.207257971191405
3546542510989,3.104837916,1,0.22266075439453123,1.7489643127441405,-11.212046374511718
3546545847499,3.108174426,1,0.2262520568847656,1.7310078002929687,-11.312602844238281
3546549181614,3.111508541,1,0.23582886352539062,1.7226280944824217,-11.176133349609374
3546552512499,3.114839426,1,0.26216508178710934,1.7166425903320313,-11.184513055419922
3546555844791,3.118171718,1,0.24061726684570311,1.715445489501953,-11.197681164550781
3546559179010,3.121505937,1,0.23702596435546874,1.7274164978027342,-11.220426080322264
3546562511614,3.124838541,1,0.22744915771484372,1.7405846069335937,-11.189301458740234
3546565847343,3.12817427,1,0.22864625854492185,1.7357962036132812,-11.190498559570312
3546569180624,3.131507551,1,0.23582886352539062,1.7369933044433592,-11.173739147949219
3546572514374,3.134841301,1,0.23702596435546874,1.7334020019531249,-11.164162341308593
3546575844583,3.13817151,1,0.22864625854492185,1.7369933044433592,-11.200075366210937
3546579178749,3.141505676,1,0.20231004028320312,1.7094599853515624,-11.183315954589844
3546582514426,3.144841353,1,0.2059013427734375,1.7118541870117185,-11.189301458740234
3546585847760,3.148174687,1,0.23104046020507812,1.707065783691406,-11.17852755126953
3546589180364,3.151507291,1,0.2166752502441406,1.7262193969726563,-11.168950744628905
3546592515208,3.154842135,1,0.21188684692382811,1.7393875061035156,-11.162965240478515
3546595845416,3.158172343,1,0.21308394775390624,1.7393875061035156,-11.177330450439452
3546599178645,3.161505572,1,0.21308394775390624,1.7310078002929687,-11.188104357910156
3546602511458,3.164838385,1,0.19153613281249998,1.7334020019531249,-11.189301458740234
3546605847916,3.168174843,1,0.19871873779296872,1.7381904052734374,-11.167753643798827
3546609181510,3.171508437,1,0.22385785522460935,1.7214309936523438,-11.19169566040039
3546612514010,3.174840937,1,0.21068974609375,1.7214309936523438,-11.21084927368164
3546615845208,3.178172135,1,0.20829554443359374,1.7238251953125,-11.204863769531249
3546619178853,3.18150578,1,0.21308394775390624,1.7130512878417967,-11.209652172851563
3546622511666,3.184838593,1,0.21787235107421873,1.7214309936523438,-11.226411584472656
3546625848385,3.188175312,1,0.21308394775390624,1.7190367919921874,-11.231199987792968
3546629181405,3.191508332,1,0.239420166015625,1.715445489501953,-11.23000288696289
3546632514218,3.194841145,1,0.23223756103515625,1.705868682861328,-11.214440576171874
3546635845103,3.19817203,1,0.23702596435546874,1.705868682861328,-11.203666668701171
3546639179687,3.201506614,1,0.25139117431640623,1.744175909423828,-11.19887826538086
3546642511614,3.204838541,1,0.239420166015625,1.744175909423828,-11.17254204711914
3546645848385,3.208175312,1,0.2166752502441406,1.7226280944824217,-11.167753643798827
3546649180364,3.211507291,1,0.22026655273437498,1.7453730102539062,-11.19887826538086
3546652512395,3.214839322,1,0.2166752502441406,1.7369933044433592,-11.204863769531249
3546655844687,3.218171614,1,0.2214636535644531,1.7322049011230467,-11.215637677001952
3546659178801,3.221505728,1,0.229843359375,1.7202338928222656,-11.189301458740234
3546662512030,3.224838957,1,0.22266075439453123,1.7238251953125,-11.202469567871093
3546665848905,3.228175832,1,0.22385785522460935,1.7178396911621092,-11.208455072021483
3546669180260,3.231507187,1,0.21787235107421873,1.725022296142578,-11.208455072021483
3546672513801,3.234840728,1,0.23343466186523437,1.7166425903320313,-11.196484063720703
3546675845312,3.238172239,1,0.22505495605468748,1.7525556152343749,-11.16057103881836
3546679178905,3.241505832,1,0.21787235107421873,1.7585411193847655,-11.167753643798827
3546682512447,3.244839374,1,0.21428104858398436,1.7489643127441405,-11.183315954589844
3546685844843,3.24817177,1,0.2214636535644531,1.7381904052734374,-11.182118853759764
3546689181353,3.25150828,1,0.22026655273437498,1.725022296142578,-11.196484063720703
3546692513749,3.254840676,1,0.2346317626953125,1.7334020019531249,-11.182118853759764
3546695845260,3.258172187,1,0.22505495605468748,1.7334020019531249,-11.209652172851563
3546699178385,3.261505312,1,0.21188684692382811,1.7417817077636717,-11.189301458740234
3546702511822,3.264838749,1,0.21906945190429686,1.7525556152343749,-11.213243475341796
3546705847707,3.268174634,1,0.2262520568847656,1.7477672119140624,-11.190498559570312
3546709179062,3.271505989,1,0.2166752502441406,1.7298106994628906,-11.170147845458983
3546712514947,3.274841874,1,0.2154781494140625,1.7393875061035156,-11.194089862060546
3546715845155,3.278172082,1,0.2166752502441406,1.7274164978027342,-11.206060870361327
3546719178072,3.281504999,1,0.21068974609375,1.7274164978027342,-11.234791290283203
3546722511822,3.284838749,1,0.2059013427734375,1.7226280944824217,-11.231199987792968
3546725848124,3.288175051,1,0.22026655273437498,1.7369933044433592,-11.189301458740234
3546729180832,3.291507759,1,0.23104046020507812,1.7381904052734374,-11.149797131347656
3546732514010,3.294840937,1,0.22864625854492185,1.7298106994628906,-11.180921752929686
3546735845416,3.298172343,1,0.2154781494140625,1.7525556152343749,-11.165359442138671
3546739179374,3.301506301,1,0.2166752502441406,1.7513585144042967,-11.136629022216797
3546742511926,3.304838853,1,0.21068974609375,1.7393875061035156,-11.183315954589844
3546745847916,3.308174843,1,0.21428104858398436,1.7393875061035156,-11.17254204711914
3546749186197,3.311513124,1,0.23582886352539062,1.7310078002929687,-11.17254204711914
3546752515572,3.314842499,1,0.22026655273437498,1.734599102783203,-11.336544860839844
3546755844322,3.318171249,1,0.21068974609375,1.744175909423828,-11.162965240478515
3546759179478,3.321506405,1,0.23582886352539062,1.7357962036132812,-11.179724652099608
3546762511510,3.324838437,1,0.23104046020507812,1.7465701110839842,-11.161768139648437
3546765847916,3.328174843,1,0.21787235107421873,1.744175909423828,-11.174936248779296
3546769180520,3.331507447,1,0.21906945190429686,1.744175909423828,-11.173739147949219
3546772514010,3.334840937,1,0.20709844360351562,1.7465701110839842,-11.177330450439452
3546775845207,3.338172134,1,0.20470424194335937,1.7525556152343749,-11.19887826538086
3546779178801,3.341505728,1,0.1975216369628906,1.7429788085937499,-11.171344946289063
3546782510989,3.344837916,1,0.21188684692382811,1.7322049011230467,-11.036072552490234
3546785847447,3.348174374,1,0.21428104858398436,1.7489643127441405,-11.192892761230468
3546789180676,3.351507603,1,0.23343466186523437,1.7417817077636717,-11.173739147949219
3546792514739,3.354841666,1,0.20829554443359374,1.725022296142578,-11.174936248779296
3546795845207,3.358172134,1,0.20350714111328125,1.7334020019531249,-11.159373937988281
3546799178905,3.361505832,1,0.22026655273437498,1.7322049011230467,-11.152191333007812
3546802511510,3.364838437,1,0.23822306518554687,1.7417817077636717,-11.214440576171874
3546805847551,3.368174478,1,0.2442085693359375,1.7417817077636717,-11.171344946289063
3546809180572,3.371507499,1,0.2442085693359375,1.7238251953125,-11.166556542968749
3546812513385,3.374840312,1,0.22026655273437498,1.7202338928222656,-11.179724652099608
3546815844582,3.378171509,1,0.2454056701660156,1.7166425903320313,-11.213243475341796
3546819178280,3.381505207,1,0.2262520568847656,1.734599102783203,-11.204863769531249
3546822511614,3.384838541,1,0.22744915771484372,1.7010802795410156,-11.189301458740234
3546825847812,3.388174739,1,0.22026655273437498,1.7238251953125,-11.177330450439452
3546829181197,3.391508124,1,0.2059013427734375,1.7310078002929687,-11.190498559570312
3546832514530,3.394841457,1,0.21308394775390624,1.7310078002929687,-11.200075366210937
3546835844478,3.398171405,1,0.22266075439453123,1.744175909423828,-11.174936248779296
3546839178749,3.401505676,1,0.22026655273437498,1.7202338928222656,-11.21084927368164
3546842511145,3.404838072,1,0.22864625854492185,1.7214309936523438,-11.161768139648437
3546845847447,3.408174374,1,0.21308394775390624,1.7369933044433592,-11.189301458740234
3546849180312,3.411507239,1,0.21308394775390624,1.734599102783203,-11.189301458740234
3546852514478,3.414841405,1,0.21308394775390624,1.7501614135742187,-11.174936248779296
3546855846197,3.418173124,1,0.21188684692382811,1.7465701110839842,-11.166556542968749
3546859178645,3.421505572,1,0.22266075439453123,1.734599102783203,-11.190498559570312
3546862511718,3.424838645,1,0.22266075439453123,1.7238251953125,-11.220426080322264
3546865847916,3.428174843,1,0.2262520568847656,1.734599102783203,-11.208455072021483
3546869180624,3.431507551,1,0.24301146850585936,1.7334020019531249,-11.195286962890624
3546872513645,3.434840572,1,0.23702596435546874,1.734599102783203,-11.226411584472656
3546875844999,3.438171926,1,0.2442085693359375,1.7190367919921874,-11.203666668701171
3546879178749,3.441505676,1,0.23702596435546874,1.7106570861816406,-11.21683477783203
3546882512134,3.444839061,1,0.229843359375,1.7166425903320313,-11.213243475341796
3546885848957,3.448175884,1,0.2501940734863281,1.7322049011230467,-11.204863769531249
3546889181093,3.45150802,1,0.24779987182617186,1.7274164978027342,-11.195286962890624
3546892514218,3.454841145,1,0.21906945190429686,1.7286135986328124,-11.204863769531249
3546895844582,3.458171509,1,0.21308394775390624,1.7369933044433592,-11.19887826538086
3546899178541,3.461505468,1,0.22266075439453123,1.7178396911621092,-11.183315954589844
3546902511614,3.464838541,1,0.22744915771484372,1.707065783691406,-11.195286962890624
3546905847916,3.468174843,1,0.22385785522460935,1.7118541870117185,-11.165359442138671
3546909180103,3.47150703,1,0.24181436767578124,1.7298106994628906,-11.164162341308593
3546912513541,3.474840468,1,0.23223756103515625,1.7286135986328124,-11.186907257080078
3546915844947,3.478171874,1,0.2346317626953125,1.7477672119140624,-11.203666668701171
3546919178645,3.481505572,1,0.23223756103515625,1.7226280944824217,-11.19887826538086
3546922511926,3.484838853,1,0.2214636535644531,1.734599102783203,-11.194089862060546
3546925848020,3.488174947,1,0.21428104858398436,1.7286135986328124,-11.222820281982422
3546929180259,3.491507186,1,0.229843359375,1.7334020019531249,-11.226411584472656
3546932513905,3.494840832,1,0.24660277099609373,1.753752716064453,-11.183315954589844
3546935844582,3.498171509,1,0.23702596435546874,1.7477672119140624,-11.17852755126953
3546939179114,3.501506041,1,0.19632453613281248,1.7405846069335937,-11.189301458740234
3546942512187,3.504839114,1,0.20231004028320312,1.7322049011230467,-11.214440576171874
3546945848280,3.508175207,1,0.23104046020507812,1.7381904052734374,-11.220426080322264
3546949180780,3.511507707,1,0.23104046020507812,1.7286135986328124,-11.167753643798827
3546952513957,3.514840884,1,0.23104046020507812,1.7130512878417967,-11.15338843383789
3546955845103,3.51817203,1,0.23223756103515625,1.7118541870117185,-11.176133349609374
3546959179166,3.521506093,1,0.2346317626953125,1.7094599853515624,-11.189301458740234
3546962512239,3.524839166,1,0.239420166015625,1.7166425903320313,-11.19169566040039
3546965848280,3.528175207,1,0.22864625854492185,1.7334020019531249,-11.214440576171874
3546969180520,3.531507447,1,0.24660277099609373,1.744175909423828,-11.214440576171874
3546972512082,3.534839009,1,0.23702596435546874,1.7453730102539062,-11.215637677001952
3546975844999,3.538171926,1,0.23822306518554687,1.7393875061035156,-11.201272467041015
3546979179270,3.541506197,1,0.22026655273437498,1.744175909423828,-11.213243475341796
3546982511978,3.544838905,1,0.2214636535644531,1.7513585144042967,-11.206060870361327
3546985917812,3.548244739,1,0.21428104858398436,1.7477672119140624,-11.201272467041015
3546989196041,3.551522968,1,0.2166752502441406,1.7310078002929687,-11.235988391113281
3546992527864,3.554854791,1,0.22266075439453123,1.7118541870117185,-11.207257971191405
3546995857968,3.558184895,1,0.24181436767578124,1.7202338928222656,-11.208455072021483
3546999190937,3.561517864,1,0.23582886352539062,1.7298106994628906,-11.200075366210937
3547002523384,3.564850311,1,0.21906945190429686,1.7310078002929687,-11.168950744628905
3547005858593,3.56818552,1,0.19991583862304688,1.7334020019531249,-11.182118853759764
3547009194739,3.571521666,1,0.20949264526367187,1.7393875061035156,-11.190498559570312
3547012528020,3.574854947,1,0.19393033447265623,1.7465701110839842,-11.203666668701171
3547015857030,3.578183957,1,0.239420166015625,1.7429788085937499,-11.202469567871093
3547019190312,3.581517239,1,0.2059013427734375,1.7549498168945312,-11.174936248779296
3547022523593,3.58485052,1,0.1975216369628906,1.7298106994628906,-11.154585534667968
3547025858697,3.588185624,1,0.20949264526367187,1.744175909423828,-11.179724652099608
3547029193749,3.591520676,1,0.2262520568847656,1.7393875061035156,-11.201272467041015
3547032528384,3.594855311,1,0.22385785522460935,1.7381904052734374,-11.202469567871093
3547035857864,3.598184791,1,0.23223756103515625,1.7477672119140624,-11.200075366210937
3547039191405,3.601518332,1,0.23104046020507812,1.7357962036132812,-11.17852755126953
3547042524322,3.604851249,1,0.23343466186523437,1.7393875061035156,-11.196484063720703
3547045859634,3.608186561,1,0.21068974609375,1.7357962036132812,-11.33175645751953
3547049191822,3.611518749,1,0.19632453613281248,1.7118541870117185,-11.194089862060546
3547052527551,3.614854478,1,0.2214636535644531,1.7310078002929687,-11.167753643798827
3547055857291,3.618184218,1,0.21308394775390624,1.7238251953125,-11.17852755126953
3547059190676,3.621517603,1,0.2214636535644531,1.7322049011230467,-11.183315954589844
3547062532707,3.624859634,1,0.20231004028320312,1.744175909423828,-11.219228979492186
3547065861562,3.628188489,1,0.20709844360351562,1.7334020019531249,-11.19169566040039
3547069195207,3.631522134,1,0.20949264526367187,1.7429788085937499,-11.17852755126953
3547072528228,3.634855155,1,0.20350714111328125,1.7549498168945312,-11.182118853759764
3547075857655,3.638184582,1,0.21308394775390624,1.7549498168945312,-11.1474029296875
3547079190259,3.641517186,1,0.21188684692382811,1.7310078002929687,-11.182118853759764
3547082524634,3.644851561,1,0.2154781494140625,1.7214309936523438,-11.196484063720703
3547085902864,3.648229791,1,0.23822306518554687,1.715445489501953,-11.21084927368164
3547089196197,3.651523124,1,0.20231004028320312,1.7178396911621092,-11.197681164550781
3547092527916,3.654854843,1,0.20350714111328125,1.7094599853515624,-11.189301458740234
3547095857916,3.658184843,1,0.22266075439453123,1.7082628845214842,-11.203666668701171
3547099188176,3.661515103,1,0.20829554443359374,1.707065783691406,-11.214440576171874
3547102528384,3.664855311,1,0.21787235107421873,1.7130512878417967,-11.201272467041015
3547105860103,3.66818703,1,0.22744915771484372,1.7298106994628906,-11.332953558349608
3547109195416,3.671522343,1,0.2166752502441406,1.7465701110839842,-11.184513055419922
3547112527759,3.674854686,1,0.22505495605468748,1.7286135986328124,-11.183315954589844
3547115857759,3.678184686,1,0.20709844360351562,1.7190367919921874,-11.184513055419922
3547119190989,3.681517916,1,0.21906945190429686,1.7274164978027342,-11.158176837158203
3547122524218,3.684851145,1,0.22385785522460935,1.7214309936523438,-11.18571015625
3547125858905,3.688185832,1,0.21906945190429686,1.7393875061035156,-11.173739147949219
3547129195103,3.69152203,1,0.21068974609375,1.7381904052734374,-11.17254204711914
3547132527186,3.694854113,1,0.2214636535644531,1.7334020019531249,-11.133037719726563
3547135857030,3.698183957,1,0.22744915771484372,1.7286135986328124,-11.179724652099608
3547139191978,3.701518905,1,0.24660277099609373,1.7214309936523438,-11.195286962890624
3547142524843,3.70485177,1,0.25139117431640623,1.7226280944824217,-11.201272467041015
3547145858645,3.708185572,1,0.258573779296875,1.707065783691406,-11.209652172851563
3547149194061,3.711520988,1,0.24660277099609373,1.7118541870117185,-11.220426080322264
3547152527239,3.714854166,1,0.20949264526367187,1.7262193969726563,-11.215637677001952
3547155857239,3.718184166,1,0.20350714111328125,1.7286135986328124,-11.208455072021483
3547159191405,3.721518332,1,0.2059013427734375,1.725022296142578,-11.165359442138671
3547162523749,3.724850676,1,0.22744915771484372,1.7369933044433592,-11.190498559570312
3547165859061,3.728185988,1,0.23702596435546874,1.7118541870117185,-11.3389390625
3547169195311,3.731522238,1,0.2214636535644531,1.7381904052734374,-11.174936248779296
3547172529114,3.734856041,1,0.22505495605468748,1.7369933044433592,-11.154585534667968
3547175857551,3.738184478,1,0.24779987182617186,1.7310078002929687,-11.161768139648437
3547179191093,3.74151802,1,0.23822306518554687,1.7393875061035156,-11.19887826538086
3547182523436,3.744850363,1,0.24779987182617186,1.7453730102539062,-11.189301458740234
3547185857916,3.748184843,1,0.20949264526367187,1.7262193969726563,-11.179724652099608
3547189196197,3.751523124,1,0.20709844360351562,1.7334020019531249,-11.16057103881836
3547192528020,3.754854947,1,0.21787235107421873,1.7238251953125,-11.188104357910156
3547195858332,3.758185259,1,0.2346317626953125,1.7357962036132812,-11.176133349609374
3547199192134,3.761519061,1,0.24301146850585936,1.7298106994628906,-11.190498559570312
3547202525155,3.764852082,1,0.22266075439453123,1.7274164978027342,-11.202469567871093
3547205858593,3.76818552,1,0.21787235107421873,1.7429788085937499,-11.206060870361327
3547209195051,3.771521978,1,0.21188684692382811,1.7513585144042967,-11.189301458740234
3547212527082,3.774854009,1,0.22505495605468748,1.7453730102539062,-11.176133349609374
3547215857291,3.778184218,1,0.21308394775390624,1.7298106994628906,-11.200075366210937
3547219190572,3.781517499,1,0.2214636535644531,1.7262193969726563,-11.19887826538086
3547222523697,3.784850624,1,0.22744915771484372,1.7262193969726563,-11.158176837158203
3547225859270,3.788186197,1,0.2166752502441406,1.7226280944824217,-11.196484063720703
3547229195259,3.791522186,1,0.239420166015625,1.725022296142578,-11.194089862060546
3547232529009,3.794855936,1,0.25258827514648435,1.707065783691406,-11.183315954589844
3547235859166,3.798186093,1,0.24181436767578124,1.714248388671875,-11.180921752929686
3547239191041,3.801517968,1,0.21787235107421873,1.725022296142578,-11.190498559570312
3547242524061,3.804850988,1,0.2166752502441406,1.7262193969726563,-11.186907257080078
3547245858072,3.808184999,1,0.23582886352539062,1.7549498168945312,-11.176133349609374
3547249193645,3.811520572,1,0.23343466186523437,1.7705121276855467,-11.190498559570312
3547252527864,3.814854791,1,0.22864625854492185,1.763329522705078,-11.177330450439452
3547255857343,3.81818427,1,0.2262520568847656,1.7369933044433592,-11.18571015625
3547259191353,3.82151828,1,0.2214636535644531,1.7094599853515624,-11.208455072021483
3547262523853,3.82485078,1,0.23104046020507812,1.7357962036132812,-11.21084927368164
3547265859114,3.828186041,1,0.229843359375,1.7477672119140624,-11.19887826538086
3547269195624,3.831522551,1,0.24061726684570311,1.7513585144042967,-11.201272467041015
3547272528697,3.834855624,1,0.22864625854492185,1.7166425903320313,-11.171344946289063
3547275857239,3.838184166,1,0.20470424194335937,1.714248388671875,-11.189301458740234
3547279190207,3.841517134,1,0.2262520568847656,1.714248388671875,-11.19887826538086
3547282524530,3.844851457,1,0.24301146850585936,1.714248388671875,-11.227608685302734
3547285857968,3.848184895,1,0.23343466186523437,1.725022296142578,-11.209652172851563
3547289195572,3.851522499,1,0.22026655273437498,1.7262193969726563,-11.203666668701171
3547292528541,3.854855468,1,0.24061726684570311,1.7286135986328124,-11.190498559570312
3547295857603,3.85818453,1,0.2346317626953125,1.7118541870117185,-11.165359442138671
3547299190728,3.861517655,1,0.23822306518554687,1.7082628845214842,-11.164162341308593
3547302524947,3.864851874,1,0.2346317626953125,1.7202338928222656,-11.170147845458983
3547305859634,3.868186561,1,0.23702596435546874,1.734599102783203,-11.196484063720703
3547309195311,3.871522238,1,0.2549824768066406,1.715445489501953,-11.215637677001952
3547312527811,3.874854738,1,0.24301146850585936,1.7310078002929687,-11.218031878662108
3547315858280,3.878185207,1,0.23104046020507812,1.7501614135742187,-11.176133349609374
3547319190884,3.881517811,1,0.22744915771484372,1.7334020019531249,-11.213243475341796
3547322524374,3.884851301,1,0.2214636535644531,1.7322049011230467,-11.219228979492186
3547325859166,3.888186093,1,0.22385785522460935,1.7214309936523438,-11.183315954589844
3547329195572,3.891522499,1,0.22026655273437498,1.7310078002929687,-11.21683477783203
3547332528020,3.894854947,1,0.2214636535644531,1.7322049011230467,-11.192892761230468
3547335857343,3.89818427,1,0.23104046020507812,1.7202338928222656,-11.184513055419922
3547339190416,3.901517343,1,0.24181436767578124,1.7262193969726563,-11.197681164550781
3547342525155,3.904852082,1,0.229843359375,1.7369933044433592,-11.204863769531249
3547345858593,3.90818552,1,0.23822306518554687,1.7417817077636717,-11.21084927368164
3547349193853,3.91152078,1,0.23343466186523437,1.7226280944824217,-11.19169566040039
3547352527447,3.914854374,1,0.23343466186523437,1.6927005737304686,-11.183315954589844
3547355857863,3.91818479,1,0.22266075439453123,1.7166425903320313,-11.195286962890624
3547359191509,3.921518436,1,0.20709844360351562,1.7381904052734374,-11.183315954589844
3547362525676,3.924852603,1,0.21906945190429686,1.725022296142578,-11.184513055419922
3547365858957,3.928185884,1,0.2059013427734375,1.7429788085937499,-11.19169566040039
3547369195988,3.931522915,1,0.22744915771484372,1.7429788085937499,-11.162965240478515
3547372528072,3.934854999,1,0.22026655273437498,1.7322049011230467,-11.049240661621093
3547375863697,3.938190624,1,0.19991583862304688,1.7465701110839842,-11.171344946289063
3547379194322,3.941521249,1,0.20470424194335937,1.7214309936523438,-11.154585534667968
3547382524530,3.944851457,1,0.239420166015625,1.7393875061035156,-11.186907257080078
3547385859686,3.948186613,1,0.2442085693359375,1.7513585144042967,-11.192892761230468
3547389199218,3.951526145,1,0.2262520568847656,1.7549498168945312,-11.203666668701171
3547392529999,3.954856926,1,0.20231004028320312,1.7525556152343749,-11.195286962890624
3547395860468,3.958187395,1,0.22505495605468748,1.7178396911621092,-11.183315954589844
3547399194322,3.961521249,1,0.21787235107421873,1.7226280944824217,-11.19169566040039
3547402527134,3.964854061,1,0.239420166015625,1.7334020019531249,-11.213243475341796
3547405862030,3.968188957,1,0.25139117431640623,1.725022296142578,-11.201272467041015
3547409197603,3.97152453,1,0.23343466186523437,1.707065783691406,-11.176133349609374
3547412530416,3.974857343,1,0.21188684692382811,1.707065783691406,-11.21084927368164
3547415860155,3.978187082,1,0.21188684692382811,1.714248388671875,-11.219228979492186
3547419189791,3.981516718,1,0.20470424194335937,1.7238251953125,-11.21084927368164
3547422529009,3.984855936,1,0.20231004028320312,1.725022296142578,-11.192892761230468
3547425861561,3.988188488,1,0.20829554443359374,1.734599102783203,-11.179724652099608
3547429197447,3.991524374,1,0.19632453613281248,1.7274164978027342,-11.192892761230468
3547432530363,3.99485729,1,0.20709844360351562,1.7106570861816406,-11.319785449218749
3547435860676,3.998187603,1,0.23104046020507812,1.7214309936523438,-11.164162341308593
3547439193749,4.001520676,1,0.2166752502441406,1.7214309936523438,-11.200075366210937
3547442526874,4.004853801,1,0.24660277099609373,1.7405846069335937,-11.197681164550781
3547445893072,4.008219999,1,0.24061726684570311,1.7369933044433592,-11.142614526367186
3547449195259,4.011522186,1,0.21068974609375,1.7298106994628906,-11.171344946289063
3547452525936,4.014852863,1,0.22385785522460935,1.7214309936523438,-11.190498559570312
3547455858072,4.018184999,1,0.23343466186523437,1.7322049011230467,-11.15338843383789
3547459190988,4.021517915,1,0.22744915771484372,1.7322049011230467,-11.195286962890624
3547462523957,4.024850884,1,0.2346317626953125,1.7238251953125,-11.182118853759764
3547465858905,4.028185832,1,0.22744915771484372,1.7298106994628906,-11.184513055419922
3547469194738,4.031521665,1,0.23582886352539062,1.7310078002929687,-11.208455072021483
3547472527291,4.034854218,1,0.24061726684570311,1.7274164978027342,-11.195286962890624
3547475857186,4.038184113,1,0.2214636535644531,1.7393875061035156,-11.186907257080078
3547479191249,4.041518176,1,0.2166752502441406,1.7166425903320313,-11.166556542968749
3547482524009,4.044850936,1,0.20709844360351562,1.705868682861328,-11.167753643798827
3547485858280,4.048185207,1,0.22744915771484372,1.7094599853515624,-11.182118853759764
3547489235884,4.051562811,1,0.2346317626953125,1.7322049011230467,-11.188104357910156
3547492533801,4.054860728,1,0.22026655273437498,1.7429788085937499,-11.184513055419922
3547495858853,4.05818578,1,0.22505495605468748,1.725022296142578,-11.162965240478515
3547499190728,4.061517655,1,0.21068974609375,1.7238251953125,-11.165359442138671
3547502524009,4.064850936,1,0.22266075439453123,1.7178396911621092,-11.16057103881836
3547505859009,4.068185936,1,0.22744915771484372,1.7357962036132812,-11.161768139648437
3547509193332,4.071520259,1,0.2454056701660156,1.7357962036132812,-11.184513055419922
3547512528957,4.074855884,1,0.23223756103515625,1.7405846069335937,-11.171344946289063
3547515858124,4.078185051,1,0.22505495605468748,1.734599102783203,-11.177330450439452
3547519190832,4.081517759,1,0.25737667846679685,1.7202338928222656,-11.197681164550781
3547522524166,4.084851093,1,0.25139117431640623,1.7298106994628906,-11.226411584472656
3547525858541,4.088185468,1,0.23822306518554687,1.7429788085937499,-11.19887826538086
3547529194009,4.091520936,1,0.23702596435546874,1.7417817077636717,-11.186907257080078
3547532527655,4.094854582,1,0.22505495605468748,1.7274164978027342,-11.203666668701171
3547535856926,4.098183853,1,0.229843359375,1.7262193969726563,-11.167753643798827
3547539189843,4.10151677,1,0.24061726684570311,1.7094599853515624,-11.189301458740234
3547542524061,4.104850988,1,0.21428104858398436,1.7130512878417967,-11.18571015625
3547545858645,4.108185572,1,0.2166752502441406,1.725022296142578,-11.182118853759764
3547549194426,4.111521353,1,0.23582886352539062,1.7190367919921874,-11.165359442138671
3547552527290,4.114854217,1,0.25139117431640623,1.7393875061035156,-11.214440576171874
3547555856561,4.118183488,1,0.23343466186523437,1.7130512878417967,-11.19887826538086
3547559191197,4.121518124,1,0.19512743530273435,1.7286135986328124,-11.209652172851563
3547562524009,4.124850936,1,0.20231004028320312,1.7334020019531249,-11.218031878662108
3547565857499,4.128184426,1,0.20231004028320312,1.7381904052734374,-11.222820281982422
3547569192655,4.131519582,1,0.21906945190429686,1.7429788085937499,-11.214440576171874
3547572526926,4.134853853,1,0.24181436767578124,1.7429788085937499,-11.226411584472656
3547575858332,4.138185259,1,0.258573779296875,1.7322049011230467,-11.18571015625
3547579191040,4.141517967,1,0.2609679809570312,1.7010802795410156,-11.156979736328124
3547582523540,4.144850467,1,0.25139117431640623,1.70467158203125,-11.168950744628905
3547585857238,4.148184165,1,0.24301146850585936,1.7357962036132812,-11.208455072021483
3547589193905,4.151520832,1,0.22505495605468748,1.7334020019531249,-11.21683477783203
3547592528593,4.15485552,1,0.2166752502441406,1.7465701110839842,-11.19887826538086
3547595858332,4.158185259,1,0.23343466186523437,1.7561469177246092,-11.200075366210937
3547599190884,4.161517811,1,0.21188684692382811,1.7513585144042967,-11.208455072021483
3547602523176,4.164850103,1,0.19033903198242186,1.7453730102539062,-11.190498559570312
3547605858384,4.168185311,1,0.19632453613281248,1.7393875061035156,-11.174936248779296
3547609194165,4.171521092,1,0.21308394775390624,1.734599102783203,-11.215637677001952
3547612526770,4.174853697,1,0.24301146850585936,1.7405846069335937,-11.195286962890624
3547615857551,4.178184478,1,0.22864625854492185,1.7322049011230467,-11.165359442138671
3547619190936,4.181517863,1,0.2214636535644531,1.715445489501953,-11.203666668701171
3547622523124,4.184850051,1,0.22026655273437498,1.7010802795410156,-11.203666668701171
3547625857290,4.188184217,1,0.19991583862304688,1.6998831787109374,-11.166556542968749
3547629193905,4.191520832,1,0.21068974609375,1.7166425903320313,-11.135431921386719
3547632527603,4.19485453,1,0.21068974609375,1.7393875061035156,-11.162965240478515
3547635857447,4.198184374,1,0.22026655273437498,1.7274164978027342,-11.19169566040039
3547639191040,4.201517967,1,0.22505495605468748,1.7274164978027342,-11.202469567871093
3547642523280,4.204850207,1,0.23582886352539062,1.744175909423828,-11.21084927368164
3547645857290,4.208184217,1,0.2262520568847656,1.734599102783203,-11.21084927368164
3547649193749,4.211520676,1,0.21787235107421873,1.7298106994628906,-11.16057103881836
3547652528176,4.214855103,1,0.22864625854492185,1.744175909423828,-11.159373937988281
3547655857811,4.218184738,1,0.22385785522460935,1.7118541870117185,-11.164162341308593
3547659190676,4.221517603,1,0.2262520568847656,1.7274164978027342,-11.170147845458983
3547662523540,4.224850467,1,0.22026655273437498,1.7369933044433592,-11.204863769531249
3547665856978,4.228183905,1,0.22864625854492185,1.7369933044433592,-11.195286962890624
3547669193853,4.23152078,1,0.21428104858398436,1.7274164978027342,-11.294646331787108
3547672527707,4.234854634,1,0.24061726684570311,1.7381904052734374,-11.167753643798827
3547675857290,4.238184217,1,0.24061726684570311,1.7357962036132812,-11.196484063720703
3547679192030,4.241518957,1,0.23702596435546874,1.714248388671875,-11.207257971191405
3547682523853,4.24485078,1,0.2501940734863281,1.6998831787109374,-11.213243475341796
3547685856718,4.248183645,1,0.26216508178710934,1.7178396911621092,-11.204863769531249
3547689194165,4.251521092,1,0.23343466186523437,1.7190367919921874,-11.180921752929686
3547692528072,4.254854999,1,0.23822306518554687,1.707065783691406,-11.182118853759764
3547695857395,4.258184322,1,0.24779987182617186,1.725022296142578,-11.186907257080078
3547699190259,4.261517186,1,0.24181436767578124,1.7334020019531249,-11.044452258300781
3547702524582,4.264851509,1,0.23343466186523437,1.7477672119140624,-11.218031878662108
3547705857551,4.268184478,1,0.22505495605468748,1.7429788085937499,-11.192892761230468
3547709191249,4.271518176,1,0.2262520568847656,1.7417817077636717,-11.215637677001952
3547712527447,4.274854374,1,0.2501940734863281,1.7513585144042967,-11.176133349609374
3547715853697,4.278180624,1,0.21906945190429686,1.7513585144042967,-11.170147845458983
3547719191665,4.281518592,1,0.22266075439453123,1.7465701110839842,-11.202469567871093
3547722523020,4.284849947,1,0.21787235107421873,1.7405846069335937,-11.219228979492186
3547725859165,4.288186092,1,0.2059013427734375,1.734599102783203,-11.208455072021483
3547729194426,4.291521353,1,0.22864625854492185,1.7202338928222656,-11.336544860839844
3547732526978,4.294853905,1,0.23343466186523437,1.7357962036132812,-11.196484063720703
3547735857811,4.298184738,1,0.2346317626953125,1.7310078002929687,-11.183315954589844
3547739190728,4.301517655,1,0.201112939453125,1.7238251953125,-11.202469567871093
3547742523280,4.304850207,1,0.21308394775390624,1.7465701110839842,-11.220426080322264
3547745857967,4.308184894,1,0.22744915771484372,1.7477672119140624,-11.207257971191405
3547749195051,4.311521978,1,0.20949264526367187,1.7334020019531249,-11.166556542968749
3547752526613,4.31485354,1,0.19871873779296872,1.7405846069335937,-11.190498559570312
3547755856874,4.318183801,1,0.19393033447265623,1.7477672119140624,-11.226411584472656
3547759190832,4.321517759,1,0.17956512451171874,1.7705121276855467,-11.212046374511718
3547762523592,4.324850519,1,0.19512743530273435,1.7226280944824217,-11.194089862060546
3547765857395,4.328184322,1,0.22026655273437498,1.744175909423828,-11.162965240478515
3547769193228,4.331520155,1,0.20709844360351562,1.7238251953125,-11.164162341308593
3547772527030,4.334853957,1,0.2166752502441406,1.7381904052734374,-11.19169566040039
3547775856457,4.338183384,1,0.2262520568847656,1.7393875061035156,-11.184513055419922
3547779189842,4.341516769,1,0.22505495605468748,1.7513585144042967,-11.182118853759764
3547782524582,4.344851509,1,0.2154781494140625,1.7393875061035156,-11.173739147949219
3547785858488,4.348185415,1,0.229843359375,1.7238251953125,-11.159373937988281
3547789193749,4.351520676,1,0.24181436767578124,1.725022296142578,-11.164162341308593
3547792524686,4.354851613,1,0.2346317626953125,1.707065783691406,-11.164162341308593
3547795860311,4.358187238,1,0.24660277099609373,1.7178396911621092,-11.183315954589844
3547799194790,4.361521717,1,0.24660277099609373,1.7274164978027342,-11.176133349609374
3547802527967,4.364854894,1,0.2537853759765625,1.7429788085937499,-11.195286962890624
3547805861613,4.36818854,1,0.24181436767578124,1.7310078002929687,-11.203666668701171
3547809205103,4.37153203,1,0.24899697265624998,1.7393875061035156,-11.176133349609374
3547812531874,4.374858801,1,0.23104046020507812,1.7429788085937499,-11.192892761230468
3547815859478,4.378186405,1,0.22026655273437498,1.734599102783203,-11.200075366210937
3547819192655,4.381519582,1,0.2346317626953125,1.7226280944824217,-11.177330450439452
3547822526613,4.38485354,1,0.24899697265624998,1.7130512878417967,-11.162965240478515
3547825861301,4.388188228,1,0.24779987182617186,1.7094599853515624,-11.188104357910156
3547829197082,4.391524009,1,0.23582886352539062,1.7238251953125,-11.18571015625
3547832530467,4.394857394,1,0.229843359375,1.7298106994628906,-11.190498559570312
3547835859634,4.398186561,1,0.239420166015625,1.7453730102539062,-11.177330450439452
3547839194530,4.401521457,1,0.22385785522460935,1.7573440185546874,-11.203666668701171
3547842526978,4.404853905,1,0.21068974609375,1.7501614135742187,-11.201272467041015
3547845874374,4.408201301,1,0.21188684692382811,1.7525556152343749,-11.197681164550781
3547849196770,4.411523697,1,0.2262520568847656,1.7286135986328124,-11.196484063720703
3547852528072,4.414854999,1,0.20829554443359374,1.744175909423828,-11.192892761230468
3547855857030,4.418183957,1,0.24061726684570311,1.744175909423828,-11.206060870361327
3547859191145,4.421518072,1,0.22026655273437498,1.7310078002929687,-11.180921752929686
3547862524165,4.424851092,1,0.20829554443359374,1.7262193969726563,-11.196484063720703
3547865858540,4.428185467,1,0.2454056701660156,1.7429788085937499,-11.164162341308593
3547869192447,4.431519374,1,0.23223756103515625,1.7286135986328124,-11.155782635498046
3547872528853,4.43485578,1,0.23582886352539062,1.7369933044433592,-11.145008728027342
3547875856613,4.43818354,1,0.2501940734863281,1.7393875061035156,-11.161768139648437
3547879191197,4.441518124,1,0.2549824768066406,1.7501614135742187,-11.197681164550781
3547882524999,4.444851926,1,0.229843359375,1.734599102783203,-11.182118853759764
3547885857082,4.448184009,1,0.23822306518554687,1.7178396911621092,-11.186907257080078
3547889193540,4.451520467,1,0.21787235107421873,1.7298106994628906,-11.2240173828125
3547892528957,4.454855884,1,0.24779987182617186,1.7393875061035156,-11.206060870361327
3547895857499,4.458184426,1,0.2561795776367187,1.7405846069335937,-11.179724652099608
3547899190676,4.461517603,1,0.2346317626953125,1.7274164978027342,-11.177330450439452
3547902523592,4.464850519,1,0.2214636535644531,1.7310078002929687,-11.188104357910156
3547905858436,4.468185363,1,0.19871873779296872,1.714248388671875,-11.176133349609374
3547909194426,4.471521353,1,0.22266075439453123,1.7262193969726563,-11.200075366210937
3547912527342,4.474854269,1,0.19632453613281248,1.7357962036132812,-11.188104357910156
3547915857030,4.478183957,1,0.20470424194335937,1.7393875061035156,-11.201272467041015
3547919190572,4.481517499,1,0.1927332336425781,1.7082628845214842,-11.220426080322264
3547922522603,4.48484953,1,0.18914193115234373,1.7118541870117185,-11.19169566040039
3547925858124,4.488185051,1,0.1975216369628906,1.7274164978027342,-11.21683477783203
3547929194895,4.491521822,1,0.20949264526367187,1.7381904052734374,-11.212046374511718
3547932528280,4.494855207,1,0.23822306518554687,1.7286135986328124,-11.179724652099608
3547935856978,4.498183905,1,0.22266075439453123,1.725022296142578,-11.322179650878905
3547939190103,4.50151703,1,0.22026655273437498,1.7274164978027342,-11.183315954589844
3547942524842,4.504851769,1,0.21906945190429686,1.763329522705078,-11.21084927368164
3547945858905,4.508185832,1,0.21906945190429686,1.7369933044433592,-11.201272467041015
3547949193124,4.511520051,1,0.22864625854492185,1.7202338928222656,-11.206060870361327
3547952526926,4.514853853,1,0.22744915771484372,1.7106570861816406,-11.184513055419922
3547955856822,4.518183749,1,0.23582886352539062,1.7106570861816406,-11.186907257080078
3547959190936,4.521517863,1,0.23822306518554687,1.7226280944824217,-11.19887826538086
3547962524478,4.524851405,1,0.2442085693359375,1.7573440185546874,-11.200075366210937
3547965859322,4.528186249,1,0.2166752502441406,1.7453730102539062,-11.173739147949219
3547969197082,4.531524009,1,0.229843359375,1.7262193969726563,-11.195286962890624
3547972527394,4.534854321,1,0.22385785522460935,1.734599102783203,-11.213243475341796
3547975858176,4.538185103,1,0.20829554443359374,1.7274164978027342,-11.190498559570312
3547979190415,4.541517342,1,0.21068974609375,1.7286135986328124,-11.17254204711914
3547982522915,4.544849842,1,0.2214636535644531,1.7274164978027342,-11.183315954589844
3547985857967,4.548184894,1,0.229843359375,1.70467158203125,-11.170147845458983
3547989194999,4.551521926,1,0.22026655273437498,1.7178396911621092,-11.180921752929686
3547992568280,4.554895207,1,0.23223756103515625,1.7214309936523438,-11.207257971191405
3547995857915,4.558184842,1,0.22864625854492185,1.7322049011230467,-11.19169566040039
3547999192915,4.561519842,1,0.22864625854492185,1.7262193969726563,-11.196484063720703
3548002525363,4.56485229,1,0.21787235107421873,1.7429788085937499,-11.196484063720703
3548005858905,4.568185832,1,0.1975216369628906,1.725022296142578,-11.177330450439452
3548009195572,4.571522499,1,0.2346317626953125,1.7286135986328124,-11.215637677001952
3548012527447,4.574854374,1,0.23702596435546874,1.734599102783203,-11.197681164550781
3548015857342,4.578184269,1,0.22864625854492185,1.7178396911621092,-11.206060870361327
3548019190988,4.581517915,1,0.23822306518554687,1.7166425903320313,-11.176133349609374
3548022524790,4.584851717,1,0.23223756103515625,1.7106570861816406,-11.171344946289063
3548025857967,4.588184894,1,0.20949264526367187,1.7513585144042967,-11.170147845458983
3548029195103,4.59152203,1,0.20231004028320312,1.7369933044433592,-11.208455072021483
3548032527811,4.594854738,1,0.19871873779296872,1.7322049011230467,-11.202469567871093
3548035858072,4.598184999,1,0.22864625854492185,1.7405846069335937,-11.218031878662108
3548039188749,4.601515676,1,0.22744915771484372,1.7369933044433592,-11.225214483642578
3548042525415,4.604852342,1,0.22026655273437498,1.7214309936523438,-11.214440576171874
3548045858488,4.608185415,1,0.23223756103515625,1.7226280944824217,-11.197681164550781
3548049195259,4.611522186,1,0.24181436767578124,1.7262193969726563,-11.200075366210937
3548052527655,4.614854582,1,0.23702596435546874,1.7429788085937499,-11.201272467041015
3548055857290,4.618184217,1,0.22864625854492185,1.7417817077636717,-11.235988391113281
3548059191405,4.621518332,1,0.2166752502441406,1.7274164978027342,-11.234791290283203
3548062524374,4.624851301,1,0.2346317626953125,1.7262193969726563,-11.23000288696289
3548065857134,4.628184061,1,0.2154781494140625,1.7202338928222656,-11.194089862060546
3548069194738,4.631521665,1,0.20231004028320312,1.7310078002929687,-11.189301458740234
3548072528592,4.634855519,1,0.20709844360351562,1.7238251953125,-11.180921752929686
3548075857863,4.63818479,1,0.229843359375,1.7357962036132812,-11.176133349609374
3548079191144,4.641518071,1,0.23223756103515625,1.7393875061035156,-11.184513055419922
3548082524061,4.644850988,1,0.23582886352539062,1.7381904052734374,-11.190498559570312
3548085857811,4.648184738,1,0.24779987182617186,1.7226280944824217,-11.197681164550781
3548089195467,4.651522394,1,0.24301146850585936,1.725022296142578,-11.218031878662108
3548092566353,4.65489328,1,0.24899697265624998,1.7286135986328124,-11.192892761230468
3548095859165,4.658186092,1,0.2501940734863281,1.7274164978027342,-11.182118853759764
3548099191457,4.661518384,1,0.2262520568847656,1.7322049011230467,-11.166556542968749
3548102524738,4.664851665,1,0.21068974609375,1.7226280944824217,-11.200075366210937
3548105857967,4.668184894,1,0.21308394775390624,1.7238251953125,-11.238382592773437
3548109193436,4.671520363,1,0.21906945190429686,1.7357962036132812,-11.202469567871093
3548112527603,4.67485453,1,0.22026655273437498,1.7214309936523438,-11.201272467041015
3548115856978,4.678183905,1,0.23702596435546874,1.7106570861816406,-11.194089862060546
3548119190780,4.681517707,1,0.22266075439453123,1.7501614135742187,-11.194089862060546
3548122529582,4.684856509,1,0.22026655273437498,1.7369933044433592,-11.162965240478515
3548125860572,4.688187499,1,0.2214636535644531,1.7525556152343749,-11.183315954589844
3548129196040,4.691522967,1,0.22026655273437498,1.744175909423828,-11.177330450439452
3548132528592,4.694855519,1,0.21068974609375,1.7298106994628906,-11.17852755126953
3548135858801,4.698185728,1,0.21428104858398436,1.7477672119140624,-11.159373937988281
3548139191405,4.701518332,1,0.22026655273437498,1.7513585144042967,-11.176133349609374
3548142523592,4.704850519,1,0.21308394775390624,1.7334020019531249,-11.221623181152344
3548145859009,4.708185936,1,0.25139117431640623,1.7274164978027342,-11.218031878662108
