timestamp_ns,t_s,sensor_id,ax,ay,az
4858972761634,0.074844896,1,0.22385785522460935,1.763329522705078,-11.174936248779296
4858992720592,0.094803854,1,0.2597708801269531,1.7645266235351562,-11.167753643798827
4859012715801,0.114799063,1,0.25258827514648435,1.7381904052734374,-11.165359442138671
4859032717259,0.134800521,1,0.24061726684570311,1.6998831787109374,-11.149797131347656
4859052712728,0.15479599,1,0.21308394775390624,1.7369933044433592,-11.173739147949219
4859072711321,0.174794583,1,0.1352723937988281,1.7609353210449217,-11.21084927368164
4859092707207,0.194790469,1,0.26815058593749996,1.715445489501953,-11.118672509765624
4859112710905,0.214794167,1,0.24660277099609373,1.7130512878417967,-11.149797131347656
4859132711634,0.234794896,1,0.22864625854492185,1.7286135986328124,-11.201272467041015
4859152707207,0.254790469,1,0.2214636535644531,1.7094599853515624,-11.200075366210937
4859172709655,0.274792917,1,0.22505495605468748,1.7525556152343749,-11.204863769531249
4859192711061,0.294794323,1,0.23702596435546874,1.7477672119140624,-11.213243475341796
4859212711634,0.314794896,1,0.2741360900878906,1.7022773803710936,-11.21084927368164
4859232710071,0.334793333,1,0.25258827514648435,1.7166425903320313,-11.204863769531249
4859252709394,0.354792656,1,0.22864625854492185,1.7022773803710936,-11.15338843383789
4859272706738,0.37479,1,0.21428104858398436,1.7621324218749999,-11.225214483642578
4859292710801,0.394794063,1,0.26216508178710934,1.7226280944824217,-11.168950744628905
4859312710019,0.414793281,1,0.21906945190429686,1.7082628845214842,-11.186907257080078
4859332706269,0.434789531,1,0.21188684692382811,1.744175909423828,-11.244368096923827
4859352709603,0.454792865,1,0.22026655273437498,1.7597382202148437,-11.204863769531249
4859372709915,0.474793177,1,0.2561795776367187,1.7573440185546874,-11.215637677001952
4859392706478,0.49478974,1,0.23223756103515625,1.7501614135742187,-11.188104357910156
4859412709238,0.5147925,1,0.22266075439453123,1.7812860351562498,-11.21084927368164
4859432710696,0.534793958,1,0.24660277099609373,1.7322049011230467,-11.146205828857422
4859452707207,0.554790469,1,0.19632453613281248,1.7262193969726563,-11.238382592773437
4859472711113,0.574794375,1,0.2561795776367187,1.7130512878417967,-11.159373937988281
4859492709811,0.594793073,1,0.23822306518554687,1.7298106994628906,-11.194089862060546
4859512706009,0.614789271,1,0.20949264526367187,1.697488977050781,-11.25514200439453
4859532709342,0.634792604,1,0.23104046020507812,1.7872715393066405,-11.190498559570312
4859552709811,0.654793073,1,0.2861070983886719,1.7357962036132812,-11.201272467041015
4859572706217,0.674789479,1,0.24061726684570311,1.7465701110839842,-11.18571015625
4859592709655,0.694792917,1,0.21906945190429686,1.707065783691406,-11.1474029296875
4859612710227,0.714793489,1,0.21787235107421873,1.7357962036132812,-11.202469567871093
4859632706113,0.734789375,1,0.2501940734863281,1.6891092712402342,-11.117475408935546
4859652708925,0.754792187,1,0.2501940734863281,1.7477672119140624,-11.146205828857422
4859672709602,0.774792864,1,0.2537853759765625,1.7501614135742187,-11.15338843383789
4859692705800,0.794789062,1,0.18914193115234373,1.7585411193847655,-11.124658013916015
4859712707780,0.814791042,1,0.23343466186523437,1.6891092712402342,-11.174936248779296
4859732710071,0.834793333,1,0.21188684692382811,1.7429788085937499,-11.218031878662108
4859752708040,0.854791302,1,0.22026655273437498,1.7357962036132812,-11.128249316406249
4859772711113,0.874794375,1,0.24660277099609373,1.7381904052734374,-11.182118853759764
4859792710123,0.894793385,1,0.21906945190429686,1.7417817077636717,-11.156979736328124
4859812706738,0.91479,1,0.22026655273437498,1.6639701538085936,-11.196484063720703
4859832709394,0.934792656,1,0.26336218261718747,1.7034744812011717,-11.14022032470703
4859852713665,0.954796927,1,0.2442085693359375,1.7106570861816406,-11.171344946289063
4859872707415,0.974790677,1,0.258573779296875,1.7405846069335937,-11.14022032470703
4859892710540,0.994793802,1,0.2214636535644531,1.7118541870117185,-11.23718549194336
4859912709394,1.014792656,1,0.22385785522460935,1.7082628845214842,-11.19887826538086
4859932706634,1.034789896,1,0.2346317626953125,1.7621324218749999,-11.162965240478515
4859952710748,1.05479401,1,0.3076549133300781,1.7393875061035156,-11.245565197753905
4859972711321,1.074794583,1,0.23582886352539062,1.753752716064453,-11.176133349609374
4859992706946,1.094790208,1,0.1867477294921875,1.7357962036132812,-11.252747802734374
4860012710488,1.11479375,1,0.229843359375,1.734599102783203,-11.16057103881836
4860032710644,1.134793906,1,0.20350714111328125,1.7262193969726563,-11.212046374511718
4860052706269,1.154789531,1,0.21787235107421873,1.7764976318359373,-11.215637677001952
4860072710696,1.174793958,1,0.26216508178710934,1.705868682861328,-11.162965240478515
4860092710279,1.194793541,1,0.24779987182617186,1.7238251953125,-11.200075366210937
4860112706686,1.214789948,1,0.239420166015625,1.6986860778808592,-11.142614526367186
4860132709550,1.234792812,1,0.20470424194335937,1.7381904052734374,-11.222820281982422
4860152710540,1.254793802,1,0.19393033447265623,1.7322049011230467,-11.150994232177734
4860172706165,1.274789427,1,0.19871873779296872,1.7357962036132812,-11.121066711425781
4860192710384,1.294793646,1,0.2154781494140625,1.6903063720703124,-11.201272467041015
4860212711113,1.314794375,1,0.23343466186523437,1.7489643127441405,-11.215637677001952
4860232707311,1.334790573,1,0.21188684692382811,1.6747440612792968,-11.129446417236327
4860252709758,1.35479302,1,0.19033903198242186,1.6903063720703124,-11.234791290283203
4860272710696,1.374793958,1,0.22266075439453123,1.7274164978027342,-11.158176837158203
4860292706738,1.39479,1,0.24899697265624998,1.6795324645996093,-11.15338843383789
4860312709967,1.414793229,1,0.23822306518554687,1.7022773803710936,-11.201272467041015
4860332710331,1.434793593,1,0.22864625854492185,1.7322049011230467,-11.165359442138671
4860352706842,1.454790104,1,0.2154781494140625,1.753752716064453,-11.194089862060546
4860372709186,1.474792448,1,0.1867477294921875,1.7010802795410156,-11.159373937988281
4860392710488,1.49479375,1,0.2154781494140625,1.7884686401367187,-11.124658013916015
4860412706061,1.514789323,1,0.20231004028320312,1.7322049011230467,-11.089942089843749
4860432709967,1.534793229,1,0.239420166015625,1.7597382202148437,-11.12226381225586
4860452711269,1.554794531,1,0.22744915771484372,1.7609353210449217,-11.21683477783203
4860472707935,1.574791197,1,0.3028665100097656,1.7645266235351562,-11.213243475341796
4860492711373,1.594794635,1,0.21428104858398436,1.687912170410156,-11.218031878662108
4860512710592,1.614793854,1,0.23702596435546874,1.7621324218749999,-11.168950744628905
4860532707206,1.634790468,1,0.239420166015625,1.7286135986328124,-11.167753643798827
4860552710488,1.65479375,1,0.2059013427734375,1.7166425903320313,-11.124658013916015
4860572710227,1.674793489,1,0.20949264526367187,1.7274164978027342,-11.184513055419922
4860592706321,1.694789583,1,0.20949264526367187,1.7334020019531249,-11.118672509765624
4860612709967,1.714793229,1,0.26216508178710934,1.725022296142578,-11.176133349609374
4860632709446,1.734792708,1,0.2549824768066406,1.7298106994628906,-11.168950744628905
4860652707154,1.754790416,1,0.2214636535644531,1.7669208251953124,-11.184513055419922
4860672710123,1.774793385,1,0.20829554443359374,1.7741034301757812,-11.105504400634764
4860692710487,1.794793749,1,0.21787235107421873,1.7106570861816406,-11.222820281982422
4860712707258,1.81479052,1,0.2454056701660156,1.70467158203125,-11.17254204711914
4860732707779,1.834791041,1,0.19991583862304688,1.734599102783203,-11.195286962890624
4860752710279,1.854793541,1,0.20231004028320312,1.6998831787109374,-11.131840618896483
4860772707675,1.874790937,1,0.26815058593749996,1.7178396911621092,-11.206060870361327
4860792711269,1.894794531,1,0.2454056701660156,1.7393875061035156,-11.170147845458983
4860812709915,1.914793177,1,0.21906945190429686,1.6915034729003906,-11.162965240478515
4860832706790,1.934790052,1,0.1975216369628906,1.7669208251953124,-11.182118853759764
4860852718248,1.95480151,1,0.24061726684570311,1.6938976745605467,-11.281478222656249
4860872711998,1.97479526,1,0.2346317626953125,1.7178396911621092,-11.206060870361327
4860892712519,1.994795781,1,0.23822306518554687,1.7010802795410156,-11.184513055419922
4860912712519,2.014795781,1,0.21188684692382811,1.7369933044433592,-11.220426080322264
4860932710852,2.034794114,1,0.2537853759765625,1.7513585144042967,-11.17852755126953
4860952707623,2.054790885,1,0.21188684692382811,1.715445489501953,-11.19169566040039
4860972714029,2.074797291,1,0.258573779296875,1.7238251953125,-11.158176837158203
4860992711894,2.094795156,1,0.24660277099609373,1.696291876220703,-11.09592759399414
4861012706269,2.114789531,1,0.277727392578125,1.753752716064453,-11.227608685302734
4861032709914,2.134793176,1,0.181959326171875,1.7645266235351562,-11.155782635498046
4861052709862,2.154793124,1,0.19871873779296872,1.7274164978027342,-11.104307299804686
4861072707154,2.174790416,1,0.20231004028320312,1.715445489501953,-11.21683477783203
4861092710644,2.194793906,1,0.22744915771484372,1.7130512878417967,-11.207257971191405
4861112710331,2.214793593,1,0.22026655273437498,1.7298106994628906,-11.148600030517578
4861132706581,2.234789843,1,0.25737667846679685,1.7585411193847655,-11.097124694824219
4861152709862,2.254793124,1,0.2346317626953125,1.686715069580078,-11.19169566040039
4861172710175,2.274793437,1,0.26336218261718747,1.753752716064453,-11.17852755126953
4861192706789,2.294790051,1,0.23702596435546874,1.763329522705078,-11.143811627197264
4861212710852,2.314794114,1,0.2597708801269531,1.707065783691406,-11.201272467041015
4861232710696,2.334793958,1,0.2154781494140625,1.7573440185546874,-11.176133349609374
4861252707987,2.354791249,1,0.19871873779296872,1.7357962036132812,-11.192892761230468
4861272710487,2.374793749,1,0.24779987182617186,1.7298106994628906,-11.152191333007812
4861292709498,2.39479276,1,0.20350714111328125,1.7369933044433592,-11.188104357910156
4861312707154,2.414790416,1,0.23582886352539062,1.7322049011230467,-11.148600030517578
4861332709758,2.43479302,1,0.22266075439453123,1.695094775390625,-11.219228979492186
4861352710331,2.454793593,1,0.2765302917480469,1.714248388671875,-11.186907257080078
4861372706998,2.47479026,1,0.26216508178710934,1.7621324218749999,-11.164162341308593
4861392710435,2.494793697,1,0.18914193115234373,1.7669208251953124,-11.093533392333983
4861412709550,2.514792812,1,0.24181436767578124,1.7717092285156248,-11.149797131347656
4861432706893,2.534790155,1,0.22505495605468748,1.7082628845214842,-11.21084927368164
4861452710800,2.554794062,1,0.23343466186523437,1.7681179260253905,-11.189301458740234
4861472710435,2.574793697,1,0.21906945190429686,1.707065783691406,-11.121066711425781
4861492706893,2.594790155,1,0.21787235107421873,1.7226280944824217,-11.159373937988281
4861512717154,2.614800416,1,0.23582886352539062,1.753752716064453,-11.180921752929686
4861532712883,2.634796145,1,0.2537853759765625,1.753752716064453,-11.194089862060546
4861552707675,2.654790937,1,0.24899697265624998,1.7286135986328124,-11.180921752929686
4861572710435,2.674793697,1,0.28730419921875,1.7322049011230467,-11.15338843383789
4861592710331,2.694793593,1,0.24899697265624998,1.6723498596191406,-11.166556542968749
4861612706633,2.714789895,1,0.2609679809570312,1.7130512878417967,-11.162965240478515
4861632709550,2.734792812,1,0.22266075439453123,1.7549498168945312,-11.146205828857422
4861652709706,2.754792968,1,0.18315642700195311,1.7238251953125,-11.209652172851563
4861672706789,2.774790051,1,0.22744915771484372,1.7525556152343749,-11.183315954589844
4861692709341,2.794792603,1,0.21068974609375,1.7549498168945312,-11.164162341308593
4861712709966,2.814793228,1,0.1975216369628906,1.707065783691406,-11.141417425537108
4861732706425,2.834789687,1,0.21787235107421873,1.7310078002929687,-11.215637677001952
4861752710018,2.85479328,1,0.20829554443359374,1.7477672119140624,-11.173739147949219
4861772711060,2.874794322,1,0.23343466186523437,1.6903063720703124,-11.212046374511718
4861792710591,2.894793853,1,0.28371289672851563,1.7884686401367187,-11.162965240478515
4861812711060,2.914794322,1,0.20709844360351562,1.7609353210449217,-11.139023223876952
4861832709602,2.934792864,1,0.24181436767578124,1.7513585144042967,-11.177330450439452
4861852707831,2.954791093,1,0.24301146850585936,1.696291876220703,-11.228805786132812
4861872710539,2.974793801,1,0.20470424194335937,1.7214309936523438,-11.182118853759764
4861892710747,2.994794009,1,0.21308394775390624,1.7357962036132812,-11.194089862060546
4861912707831,3.014791093,1,0.2454056701660156,1.7322049011230467,-11.170147845458983
4861932710383,3.034793645,1,0.2214636535644531,1.7405846069335937,-11.23000288696289
4861952709445,3.054792707,1,0.22026655273437498,1.7226280944824217,-11.155782635498046
4861972707049,3.074790311,1,0.2346317626953125,1.7477672119140624,-11.197681164550781
4861992710852,3.094794114,1,0.239420166015625,1.7549498168945312,-11.21084927368164
4862012711060,3.114794322,1,0.24779987182617186,1.7717092285156248,-11.221623181152344
4862032708508,3.13479177,1,0.201112939453125,1.7226280944824217,-11.176133349609374
4862052710799,3.154794061,1,0.201112939453125,1.7405846069335937,-11.202469567871093
4862072709966,3.174793228,1,0.2825157958984375,1.7262193969726563,-11.130643518066405
4862092707831,3.194791093,1,0.25139117431640623,1.7561469177246092,-11.17254204711914
4862112710487,3.214793749,1,0.21906945190429686,1.7621324218749999,-11.156979736328124
4862132710227,3.234793489,1,0.19871873779296872,1.7465701110839842,-11.131840618896483
4862152706685,3.254789947,1,0.19632453613281248,1.7525556152343749,-11.158176837158203
4862172709810,3.274793072,1,0.2609679809570312,1.7286135986328124,-11.262324609375
4862192708039,3.294791301,1,0.24660277099609373,1.7286135986328124,-11.16057103881836
4862212706581,3.314789843,1,0.25139117431640623,1.801636749267578,-11.17254204711914
4862232709601,3.334792863,1,0.22505495605468748,1.725022296142578,-11.170147845458983
4862252709393,3.354792655,1,0.2597708801269531,1.7202338928222656,-11.168950744628905
4862272708924,3.374792186,1,0.24899697265624998,1.707065783691406,-11.166556542968749
4862292710851,3.394794113,1,0.22266075439453123,1.6891092712402342,-11.166556542968749
4862312710591,3.414793853,1,0.2346317626953125,1.7489643127441405,-11.168950744628905
4862332707622,3.434790884,1,0.23223756103515625,1.7561469177246092,-11.139023223876952
4862352710643,3.454793905,1,0.26216508178710934,1.7609353210449217,-11.2240173828125
4862372783247,3.474866509,1,0.25737667846679685,1.725022296142578,-11.18571015625
4862392726581,3.494809843,1,0.2262520568847656,1.7393875061035156,-11.146205828857422
4862412726008,3.51480927,1,0.24301146850585936,1.7274164978027342,-11.17254204711914
4862432724810,3.534808072,1,0.21068974609375,1.714248388671875,-11.11508120727539
4862452724706,3.554807968,1,0.2537853759765625,1.7417817077636717,-11.183315954589844
4862472720591,3.574803853,1,0.2154781494140625,1.707065783691406,-11.166556542968749
4862492729914,3.594813176,1,0.23104046020507812,1.7657237243652342,-11.239579693603515
4862512735383,3.614818645,1,0.239420166015625,1.7585411193847655,-11.244368096923827
4862532732935,3.634816197,1,0.2154781494140625,1.7322049011230467,-11.143811627197264
4862552729341,3.654812603,1,0.23582886352539062,1.7465701110839842,-11.184513055419922
4862572733091,3.674816353,1,0.22505495605468748,1.7381904052734374,-11.154585534667968
4862592734393,3.694817655,1,0.28012159423828126,1.7298106994628906,-11.113884106445312
4862612730956,3.714814218,1,0.23822306518554687,1.6831237670898436,-11.235988391113281
4862632732726,3.734815988,1,0.2561795776367187,1.7477672119140624,-11.23000288696289
4862652727049,3.754810311,1,0.24301146850585936,1.7405846069335937,-11.12226381225586
4862672732935,3.774816197,1,0.20829554443359374,1.697488977050781,-11.164162341308593
4862692736580,3.794819842,1,0.24181436767578124,1.7310078002929687,-11.214440576171874
4862712735747,3.814819009,1,0.20231004028320312,1.7310078002929687,-11.149797131347656
4862732731997,3.834815259,1,0.23104046020507812,1.7298106994628906,-11.156979736328124
4862752727205,3.854810467,1,0.2262520568847656,1.7178396911621092,-11.17852755126953
4862772732726,3.874815988,1,0.19871873779296872,1.763329522705078,-11.208455072021483
4862792737883,3.894821145,1,0.23582886352539062,1.7022773803710936,-11.21683477783203
4862812730955,3.914814217,1,0.2346317626953125,1.7561469177246092,-11.188104357910156
4862832733403,3.934816665,1,0.2501940734863281,1.734599102783203,-11.204863769531249
4862852727205,3.954810467,1,0.2537853759765625,1.7118541870117185,-11.176133349609374
4862872740799,3.974824061,1,0.25258827514648435,1.753752716064453,-11.164162341308593
4862892736476,3.994819738,1,0.18914193115234373,1.7214309936523438,-11.17254204711914
4862912733195,4.014816457,1,0.24301146850585936,1.7238251953125,-11.189301458740234
4862932731841,4.034815103,1,0.2454056701660156,1.7417817077636717,-11.128249316406249
4862952727935,4.054811197,1,0.24301146850585936,1.7298106994628906,-11.222820281982422
4862972734810,4.074818072,1,0.2346317626953125,1.7226280944824217,-11.135431921386719
4862992778768,4.09486203,1,0.22266075439453123,1.7597382202148437,-11.231199987792968
4863012732987,4.114816249,1,0.2705447875976562,1.6903063720703124,-11.155782635498046
4863032733820,4.134817082,1,0.2154781494140625,1.7262193969726563,-11.145008728027342
4863052727257,4.154810519,1,0.15562310791015624,1.7298106994628906,-11.225214483642578
4863072733664,4.174816926,1,0.2214636535644531,1.705868682861328,-11.186907257080078
4863092731893,4.194815155,1,0.22744915771484372,1.744175909423828,-11.137826123046874
4863112733559,4.214816821,1,0.21428104858398436,1.7657237243652342,-11.155782635498046
4863132732049,4.234815311,1,0.20829554443359374,1.6903063720703124,-11.241973895263671
4863152726632,4.254809894,1,0.2549824768066406,1.7609353210449217,-11.166556542968749
4863172731841,4.274815103,1,0.22026655273437498,1.7561469177246092,-11.156979736328124
4863192734289,4.294817551,1,0.23822306518554687,1.7298106994628906,-11.222820281982422
4863212735487,4.314818749,1,0.18555062866210936,1.7621324218749999,-11.206060870361327
4863232733403,4.334816665,1,0.21428104858398436,1.7513585144042967,-11.212046374511718
4863252726216,4.354809478,1,0.24899697265624998,1.715445489501953,-11.117475408935546
4863272731684,4.374814946,1,0.2262520568847656,1.7717092285156248,-11.174936248779296
4863292727205,4.394810467,1,0.2657563842773437,1.7501614135742187,-11.179724652099608
4863312734393,4.414817655,1,0.21308394775390624,1.7262193969726563,-11.225214483642578
4863332731164,4.434814426,1,0.2214636535644531,1.714248388671875,-11.166556542968749
4863352728039,4.454811301,1,0.23223756103515625,1.7501614135742187,-11.156979736328124
4863372731216,4.474814478,1,0.23343466186523437,1.7082628845214842,-11.133037719726563
4863392733247,4.494816509,1,0.229843359375,1.7118541870117185,-11.2240173828125
4863412733820,4.514817082,1,0.23822306518554687,1.687912170410156,-11.168950744628905
4863432728455,4.534811717,1,0.22266075439453123,1.6891092712402342,-11.200075366210937
4863452725799,4.554809061,1,0.28371289672851563,1.7645266235351562,-11.275492718505859
4863472734757,4.574818019,1,0.229843359375,1.7226280944824217,-11.227608685302734
4863492731580,4.594814842,1,0.22385785522460935,1.7178396911621092,-11.15338843383789
4863512732986,4.614816248,1,0.2920926025390625,1.7357962036132812,-11.179724652099608
4863532733768,4.63481703,1,0.20709844360351562,1.7597382202148437,-11.215637677001952
4863552730851,4.654814113,1,0.2765302917480469,1.7274164978027342,-11.179724652099608
4863572741580,4.674824842,1,0.19393033447265623,1.7357962036132812,-11.202469567871093
4863592778768,4.69486203,1,0.2501940734863281,1.7489643127441405,-11.124658013916015
4863612738820,4.714822082,1,0.24899697265624998,1.696291876220703,-11.143811627197264
4863632736632,4.734819894,1,0.2154781494140625,1.7453730102539062,-11.156979736328124
4863652728716,4.754811978,1,0.19033903198242186,1.7202338928222656,-11.088744989013671
4863672734184,4.774817446,1,0.26216508178710934,1.7190367919921874,-11.156979736328124
4863692733351,4.794816613,1,0.1867477294921875,1.7214309936523438,-11.206060870361327
4863712776372,4.814859634,1,0.21068974609375,1.7585411193847655,-11.214440576171874
4863732732309,4.834815571,1,0.2214636535644531,1.70467158203125,-11.214440576171874
4863752727674,4.854810936,1,0.20709844360351562,1.7106570861816406,-11.16057103881836
4863772732257,4.874815519,1,0.2166752502441406,1.714248388671875,-11.149797131347656
4863792732413,4.894815675,1,0.19393033447265623,1.7369933044433592,-11.206060870361327
4863812773455,4.914856717,1,0.2166752502441406,1.7094599853515624,-11.141417425537108
4863832734184,4.934817446,1,0.20709844360351562,1.7812860351562498,-11.221623181152344
4863852727882,4.954811144,1,0.22744915771484372,1.7226280944824217,-11.180921752929686
4863872734497,4.974817759,1,0.22385785522460935,1.7525556152343749,-11.171344946289063
4863892733247,4.994816509,1,0.20350714111328125,1.7429788085937499,-11.170147845458983
4863912730278,5.01481354,1,0.20231004028320312,1.744175909423828,-11.162965240478515
4863932733142,5.034816404,1,0.20949264526367187,1.7022773803710936,-11.119869610595703
4863952726476,5.054809738,1,0.24899697265624998,1.7322049011230467,-11.192892761230468
4863972737986,5.074821248,1,0.2501940734863281,1.7405846069335937,-11.19887826538086
4863992733090,5.094816352,1,0.2501940734863281,1.7561469177246092,-11.186907257080078
4864012759236,5.114842498,1,0.19871873779296872,1.7621324218749999,-11.127052215576171
4864032741372,5.134824634,1,0.23223756103515625,1.7166425903320313,-11.171344946289063
4864052728507,5.154811769,1,0.21188684692382811,1.7226280944824217,-11.218031878662108
4864072733663,5.174816925,1,0.24181436767578124,1.7848773376464844,-11.0707884765625
4864092734132,5.194817394,1,0.2442085693359375,1.7357962036132812,-11.215637677001952
4864112731320,5.214814582,1,0.24779987182617186,1.7585411193847655,-11.142614526367186
4864132732309,5.234815571,1,0.19512743530273435,1.7262193969726563,-11.194089862060546
4864152726944,5.254810206,1,0.18435352783203124,1.7753005310058592,-11.162965240478515
4864172732309,5.274815571,1,0.2214636535644531,1.7417817077636717,-11.165359442138671
4864192732153,5.294815415,1,0.17357962036132812,1.7513585144042967,-11.182118853759764
4864212734080,5.314817342,1,0.20709844360351562,1.7369933044433592,-11.192892761230468
4864232734288,5.33481755,1,0.201112939453125,1.7094599853515624,-11.228805786132812
4864252726684,5.354809946,1,0.229843359375,1.7381904052734374,-11.112687005615234
4864272733247,5.374816509,1,0.26695348510742184,1.7369933044433592,-11.239579693603515
4864292732622,5.394815884,1,0.23223756103515625,1.705868682861328,-11.112687005615234
4864312731319,5.414814581,1,0.28012159423828126,1.686715069580078,-11.183315954589844
4864332734653,5.434817915,1,0.24061726684570311,1.7501614135742187,-11.168950744628905
4864352728663,5.454811925,1,0.23822306518554687,1.7022773803710936,-11.166556542968749
4864372732934,5.474816196,1,0.1879448303222656,1.7381904052734374,-11.232397088623046
4864392732726,5.494815988,1,0.21068974609375,1.7429788085937499,-11.162965240478515
4864412732361,5.514815623,1,0.24061726684570311,1.7274164978027342,-11.180921752929686
4864432734288,5.53481755,1,0.20350714111328125,1.6938976745605467,-11.149797131347656
4864452728142,5.554811404,1,0.28012159423828126,1.7549498168945312,-11.152191333007812
4864472734496,5.574817758,1,0.2059013427734375,1.7334020019531249,-11.197681164550781
4864492733246,5.594816508,1,0.22864625854492185,1.696291876220703,-11.156979736328124
4864512734340,5.614817602,1,0.24181436767578124,1.734599102783203,-11.24915650024414
4864532733715,5.634816977,1,0.2059013427734375,1.7190367919921874,-11.246762298583985
4864552729549,5.654812811,1,0.23702596435546874,1.7202338928222656,-11.19887826538086
4864572731267,5.674814529,1,0.23702596435546874,1.782483135986328,-11.177330450439452
4864592733351,5.694816613,1,0.1975216369628906,1.7190367919921874,-11.259930407714844
4864612731840,5.714815102,1,0.201112939453125,1.7681179260253905,-11.19887826538086
4864632735121,5.734818383,1,0.19033903198242186,1.7657237243652342,-11.139023223876952
4864652728038,5.7548113,1,0.17597382202148437,1.7094599853515624,-11.173739147949219
4864672729444,5.774812706,1,0.239420166015625,1.7465701110839842,-11.145008728027342
4864692734392,5.794817654,1,0.229843359375,1.734599102783203,-11.17852755126953
4864712731840,5.814815102,1,0.21906945190429686,1.7322049011230467,-11.18571015625
4864732732205,5.834815467,1,0.23702596435546874,1.7226280944824217,-11.183315954589844
4864752727830,5.854811092,1,0.16998831787109375,1.7393875061035156,-11.19169566040039
4864772733246,5.874816508,1,0.19153613281249998,1.7489643127441405,-11.136629022216797
4864792733507,5.894816769,1,0.26216508178710934,1.7178396911621092,-11.182118853759764
4864812731840,5.914815102,1,0.19512743530273435,1.7238251953125,-11.195286962890624
4864832735017,5.934818279,1,0.22385785522460935,1.753752716064453,-11.195286962890624
4864852729080,5.954812342,1,0.2693476867675781,1.7334020019531249,-11.204863769531249
4864872753142,5.974836404,1,0.24301146850585936,1.7286135986328124,-11.112687005615234
4864892737986,5.994821248,1,0.24061726684570311,1.7477672119140624,-11.156979736328124
4864912734028,6.01481729,1,0.18435352783203124,1.707065783691406,-11.19169566040039
4864932782569,6.034865831,1,0.2561795776367187,1.7513585144042967,-11.232397088623046
4864952727621,6.054810883,1,0.24779987182617186,1.714248388671875,-11.269507214355468
4864972731892,6.074815154,1,0.21428104858398436,1.7465701110839842,-11.247959399414063
4864992734548,6.09481781,1,0.24061726684570311,1.7705121276855467,-11.279084020996093
4865012732309,6.114815571,1,0.20231004028320312,1.7286135986328124,-11.209652172851563
4865032732465,6.134815727,1,0.27892449340820313,1.7190367919921874,-11.112687005615234
4865052727205,6.154810467,1,0.25139117431640623,1.7465701110839842,-11.113884106445312
4865072731944,6.174815206,1,0.20829554443359374,1.7262193969726563,-11.256339105224608
4865092733559,6.194816821,1,0.2442085693359375,1.744175909423828,-11.197681164550781
4865112732100,6.214815362,1,0.296881005859375,1.7202338928222656,-11.177330450439452
4865132732309,6.234815571,1,0.17118541870117188,1.7286135986328124,-11.227608685302734
4865152727413,6.254810675,1,0.22266075439453123,1.7405846069335937,-11.24915650024414
4865172732621,6.274815883,1,0.2609679809570312,1.7561469177246092,-11.168950744628905
4865192733298,6.29481656,1,0.24301146850585936,1.744175909423828,-11.117475408935546
4865212730694,6.314813956,1,0.20709844360351562,1.7489643127441405,-11.192892761230468
4865232731580,6.334814842,1,0.2454056701660156,1.7118541870117185,-11.234791290283203
4865252727048,6.35481031,1,0.21308394775390624,1.7274164978027342,-11.250353601074218
4865272732465,6.374815727,1,0.25258827514648435,1.744175909423828,-11.14022032470703
4865292731423,6.394814685,1,0.1975216369628906,1.714248388671875,-11.195286962890624
4865312731319,6.414814581,1,0.19632453613281248,1.7202338928222656,-11.18571015625
4865332731996,6.434815258,1,0.21308394775390624,1.7357962036132812,-11.213243475341796
4865352729392,6.454812654,1,0.22744915771484372,1.7549498168945312,-11.228805786132812
4865372732569,6.474815831,1,0.2442085693359375,1.7262193969726563,-11.17254204711914
4865392731527,6.494814789,1,0.26336218261718747,1.7513585144042967,-11.221623181152344
4865412731215,6.514814477,1,0.229843359375,1.7717092285156248,-11.190498559570312
4865432730434,6.534813696,1,0.24301146850585936,1.7705121276855467,-11.200075366210937
4865452727257,6.554810519,1,0.229843359375,1.7513585144042967,-11.165359442138671
4865472732881,6.574816143,1,0.22864625854492185,1.7322049011230467,-11.2240173828125
4865492731423,6.594814685,1,0.23822306518554687,1.7130512878417967,-11.158176837158203
4865512731111,6.614814373,1,0.22026655273437498,1.734599102783203,-11.17852755126953
4865532730486,6.634813748,1,0.23702596435546874,1.7585411193847655,-11.164162341308593
4865552727934,6.654811196,1,0.22505495605468748,1.7621324218749999,-11.173739147949219
4865572732725,6.674815987,1,0.2753331909179687,1.7657237243652342,-11.257536206054686
4865592733923,6.694817185,1,0.21428104858398436,1.695094775390625,-11.179724652099608
4865612733402,6.714816664,1,0.1927332336425781,1.7609353210449217,-11.142614526367186
4865632732881,6.734816143,1,0.1879448303222656,1.7262193969726563,-11.226411584472656
4865652728038,6.7548113,1,0.2346317626953125,1.7166425903320313,-11.226411584472656
4865672733298,6.77481656,1,0.2214636535644531,1.7166425903320313,-11.129446417236327
4865692731683,6.794814945,1,0.20709844360351562,1.7298106994628906,-11.139023223876952
4865712731319,6.814814581,1,0.18315642700195311,1.7465701110839842,-11.124658013916015
4865732732256,6.834815518,1,0.19991583862304688,1.7405846069335937,-11.192892761230468
4865752726788,6.85481005,1,0.22026655273437498,1.7214309936523438,-11.094730493164063
4865772731788,6.87481505,1,0.24899697265624998,1.7609353210449217,-11.162965240478515
4865792732152,6.894815414,1,0.29568390502929687,1.705868682861328,-11.21683477783203
4865812732777,6.914816039,1,0.2154781494140625,1.7717092285156248,-11.165359442138671
4865832732829,6.934816091,1,0.1867477294921875,1.7465701110839842,-11.222820281982422
4865852728871,6.954812133,1,0.22026655273437498,1.7741034301757812,-11.177330450439452
4865872733611,6.974816873,1,0.28012159423828126,1.7405846069335937,-11.212046374511718
4865892733142,6.994816404,1,0.2166752502441406,1.7477672119140624,-11.167753643798827
4865912729079,7.014812341,1,0.17956512451171874,1.7357962036132812,-11.142614526367186
4865932731006,7.034814268,1,0.25139117431640623,1.7262193969726563,-11.130643518066405
4865952727829,7.054811091,1,0.23104046020507812,1.7477672119140624,-11.17254204711914
4865972732621,7.074815883,1,0.24779987182617186,1.7106570861816406,-11.197681164550781
4865992730017,7.094813279,1,0.19632453613281248,1.707065783691406,-11.137826123046874
4866012734860,7.114818122,1,0.20231004028320312,1.7130512878417967,-11.208455072021483
4866032735225,7.134818487,1,0.24899697265624998,1.715445489501953,-11.165359442138671
4866052729704,7.154812966,1,0.23702596435546874,1.7609353210449217,-11.182118853759764
4866072732517,7.174815779,1,0.21428104858398436,1.7645266235351562,-11.133037719726563
4866092731631,7.194814893,1,0.2454056701660156,1.705868682861328,-11.155782635498046
4866112732829,7.214816091,1,0.21188684692382811,1.744175909423828,-11.281478222656249
4866132732308,7.23481557,1,0.19033903198242186,1.7561469177246092,-11.128249316406249
4866152764756,7.254848018,1,0.2154781494140625,1.6938976745605467,-11.194089862060546
4866172734340,7.274817602,1,0.20949264526367187,1.7298106994628906,-11.17852755126953
4866192731787,7.294815049,1,0.2597708801269531,1.7453730102539062,-11.1474029296875
4866212731579,7.314814841,1,0.21188684692382811,1.7238251953125,-11.215637677001952
4866232731319,7.334814581,1,0.20350714111328125,1.772906329345703,-11.13423482055664
4866252765277,7.354848539,1,0.239420166015625,1.7334020019531249,-11.133037719726563
4866272733194,7.374816456,1,0.25139117431640623,1.7393875061035156,-11.208455072021483
4866292731683,7.394814945,1,0.21906945190429686,1.7429788085937499,-11.121066711425781
4866312731840,7.414815102,1,0.22505495605468748,1.70467158203125,-11.195286962890624
4866332731579,7.434814841,1,0.17597382202148437,1.7489643127441405,-11.231199987792968
4866352762985,7.454846247,1,0.2645592834472656,1.715445489501953,-11.177330450439452
4866372733506,7.474816768,1,0.20949264526367187,1.70467158203125,-11.159373937988281
4866392733402,7.494816664,1,0.2501940734863281,1.707065783691406,-11.19169566040039
4866412733871,7.514817133,1,0.1640028137207031,1.7513585144042967,-11.189301458740234
4866432733350,7.534816612,1,0.201112939453125,1.695094775390625,-11.220426080322264
4866452765069,7.554848331,1,0.277727392578125,1.7417817077636717,-11.14022032470703
4866472734339,7.574817601,1,0.229843359375,1.7525556152343749,-11.24915650024414
4866492731319,7.594814581,1,0.2693476867675781,1.714248388671875,-11.196484063720703
4866512731319,7.614814581,1,0.24899697265624998,1.6915034729003906,-11.176133349609374
4866532731527,7.634814789,1,0.23343466186523437,1.705868682861328,-11.171344946289063
4866552726319,7.654809581,1,0.239420166015625,1.7369933044433592,-11.188104357910156
4866572732829,7.674816091,1,0.21428104858398436,1.7369933044433592,-11.243170996093749
4866592735694,7.694818956,1,0.24899697265624998,1.7022773803710936,-11.130643518066405
4866612733819,7.714817081,1,0.23223756103515625,1.7082628845214842,-11.119869610595703
4866632733298,7.73481656,1,0.16639701538085935,1.7657237243652342,-11.176133349609374
4866652727829,7.754811091,1,0.2549824768066406,1.7609353210449217,-11.225214483642578
4866672733141,7.774816403,1,0.21906945190429686,1.7477672119140624,-11.219228979492186
4866692733506,7.794816768,1,0.2214636535644531,1.6903063720703124,-11.244368096923827
4866712732204,7.814815466,1,0.277727392578125,1.7621324218749999,-11.182118853759764
4866732731996,7.834815258,1,0.23822306518554687,1.7369933044433592,-11.196484063720703
4866752725902,7.854809164,1,0.22026655273437498,1.7166425903320313,-11.200075366210937
4866772732152,7.874815414,1,0.22266075439453123,1.7262193969726563,-11.170147845458983
4866792730433,7.894813695,1,0.18435352783203124,1.7417817077636717,-11.220426080322264
4866812729600,7.914812862,1,0.24061726684570311,1.7429788085937499,-11.130643518066405
4866832731527,7.934814789,1,0.20949264526367187,1.744175909423828,-11.159373937988281
4866852725277,7.954808539,1,0.19033903198242186,1.7166425903320313,-11.1474029296875
4866872733193,7.974816455,1,0.19991583862304688,1.7130512878417967,-11.149797131347656
4866892737048,7.99482031,1,0.26216508178710934,1.7190367919921874,-11.116278308105468
4866912735016,8.014818278,1,0.2657563842773437,1.70467158203125,-11.203666668701171
4866932732568,8.03481583,1,0.19153613281249998,1.7274164978027342,-11.164162341308593
4866952726058,8.05480932,1,0.2501940734863281,1.7465701110839842,-11.220426080322264
4866972733818,8.07481708,1,0.19871873779296872,1.7022773803710936,-11.231199987792968
4866992733662,8.094816924,1,0.2501940734863281,1.7190367919921874,-11.21084927368164
4867012731683,8.114814945,1,0.2765302917480469,1.7812860351562498,-11.165359442138671
4867032732308,8.13481557,1,0.21068974609375,1.7381904052734374,-11.188104357910156
4867052726370,8.154809632,1,0.21428104858398436,1.6986860778808592,-11.197681164550781
4867072774183,8.174857445,1,0.21068974609375,1.7082628845214842,-11.17852755126953
4867092732673,8.194815935,1,0.20470424194335937,1.7298106994628906,-11.195286962890624
4867112733402,8.214816664,1,0.22266075439453123,1.7010802795410156,-11.183315954589844
4867132730641,8.234813903,1,0.20709844360351562,1.7238251953125,-11.21683477783203
4867152727516,8.254810778,1,0.229843359375,1.753752716064453,-11.196484063720703
4867172772412,8.274855674,1,0.25139117431640623,1.6927005737304686,-11.212046374511718
4867192732725,8.294815987,1,0.21068974609375,1.7621324218749999,-11.16057103881836
4867212734235,8.314817497,1,0.2059013427734375,1.7310078002929687,-11.173739147949219
4867232733454,8.334816716,1,0.22505495605468748,1.7357962036132812,-11.173739147949219
4867252726891,8.354810153,1,0.20709844360351562,1.715445489501953,-11.227608685302734
4867272732725,8.374815987,1,0.24899697265624998,1.705868682861328,-11.143811627197264
4867292728506,8.394811768,1,0.24061726684570311,1.7310078002929687,-11.180921752929686
4867312763922,8.414847184,1,0.22266075439453123,1.715445489501953,-11.212046374511718
4867332741527,8.434824789,1,0.2346317626953125,1.7226280944824217,-11.190498559570312
4867352728714,8.454811976,1,0.28012159423828126,1.792059942626953,-11.141417425537108
4867372732933,8.474816195,1,0.1975216369628906,1.7082628845214842,-11.215637677001952
4867392734443,8.494817705,1,0.1975216369628906,1.7657237243652342,-11.201272467041015
4867412739964,8.514823226,1,0.21787235107421873,1.753752716064453,-11.127052215576171
4867432734964,8.534818226,1,0.24181436767578124,1.7884686401367187,-11.166556542968749
4867452727204,8.554810466,1,0.21428104858398436,1.7453730102539062,-11.196484063720703
4867472735537,8.574818799,1,0.1771709228515625,1.7417817077636717,-11.23718549194336
4867492733037,8.594816299,1,0.2166752502441406,1.734599102783203,-11.174936248779296
4867512733193,8.614816455,1,0.23343466186523437,1.70467158203125,-11.206060870361327
4867532732516,8.634815778,1,0.2346317626953125,1.6903063720703124,-11.250353601074218
4867552727152,8.654810414,1,0.24301146850585936,1.7262193969726563,-11.245565197753905
4867572730329,8.674813591,1,0.1867477294921875,1.7082628845214842,-11.19887826538086
4867592758662,8.694841924,1,0.24899697265624998,1.772906329345703,-11.240776794433593
4867612734287,8.714817549,1,0.22864625854492185,1.7166425903320313,-11.213243475341796
4867632733974,8.734817236,1,0.21906945190429686,1.7178396911621092,-11.180921752929686
4867652731943,8.754815205,1,0.25258827514648435,1.7501614135742187,-11.162965240478515
4867672733193,8.774816455,1,0.2059013427734375,1.695094775390625,-11.218031878662108
4867692740849,8.794824111,1,0.24899697265624998,1.7286135986328124,-11.23000288696289
4867712733870,8.814817132,1,0.2262520568847656,1.7322049011230467,-11.201272467041015
4867732731422,8.834814684,1,0.25737667846679685,1.7010802795410156,-11.106701501464842
4867752726995,8.854810257,1,0.24899697265624998,1.7262193969726563,-11.15338843383789
4867772732204,8.874815466,1,0.2442085693359375,1.7106570861816406,-11.184513055419922
4867792732568,8.89481583,1,0.23582886352539062,1.6915034729003906,-11.228805786132812
4867812740693,8.914823955,1,0.24181436767578124,1.7489643127441405,-11.183315954589844
4867832734131,8.934817393,1,0.24061726684570311,1.7513585144042967,-11.192892761230468
4867852727985,8.954811247,1,0.18435352783203124,1.7453730102539062,-11.116278308105468
4867872734078,8.97481734,1,0.2166752502441406,1.7453730102539062,-11.15338843383789
4867892731995,8.994815257,1,0.21068974609375,1.7513585144042967,-11.238382592773437
4867912761110,9.014844372,1,0.2741360900878906,1.7357962036132812,-11.086350787353515
4867932734183,9.034817445,1,0.20829554443359374,1.7106570861816406,-11.164162341308593
4867952729235,9.054812497,1,0.18315642700195311,1.7238251953125,-11.128249316406249
4867972731422,9.074814684,1,0.2825157958984375,1.714248388671875,-11.166556542968749
4867992778818,9.09486208,1,0.27892449340820313,1.725022296142578,-11.233594189453123
4868012740120,9.114823382,1,0.2657563842773437,1.715445489501953,-11.142614526367186
4868032733245,9.134816507,1,0.2645592834472656,1.7022773803710936,-11.17852755126953
4868052725901,9.154809163,1,0.239420166015625,1.7166425903320313,-11.238382592773437
4868072733297,9.174816559,1,0.22744915771484372,1.7357962036132812,-11.164162341308593
4868092733297,9.194816559,1,0.2442085693359375,1.6903063720703124,-11.186907257080078
4868112733089,9.214816351,1,0.2214636535644531,1.7322049011230467,-11.208455072021483
4868132731526,9.234814788,1,0.23822306518554687,1.7226280944824217,-11.227608685302734
4868152727933,9.254811195,1,0.23582886352539062,1.744175909423828,-11.158176837158203
4868172732464,9.274815726,1,0.22864625854492185,1.7322049011230467,-11.155782635498046
4868192733193,9.294816455,1,0.20949264526367187,1.7549498168945312,-11.117475408935546
4868212732828,9.31481609,1,0.23104046020507812,1.7681179260253905,-11.174936248779296
4868232986839,9.335070101,1,0.22505495605468748,1.753752716064453,-11.174936248779296
4868252740120,9.354823382,1,0.24061726684570311,1.7118541870117185,-11.219228979492186
4868272735901,9.374819163,1,0.18914193115234373,1.7501614135742187,-11.219228979492186
4868292732933,9.394816195,1,0.19632453613281248,1.7202338928222656,-11.186907257080078
4868312734078,9.41481734,1,0.19632453613281248,1.7741034301757812,-11.222820281982422
4868332725849,9.434809111,1,0.22864625854492185,1.7621324218749999,-11.16057103881836
4868352732047,9.454815309,1,0.23822306518554687,1.7334020019531249,-11.23718549194336
4868372731787,9.474815049,1,0.18555062866210936,1.7573440185546874,-11.202469567871093
4868392728505,9.494811767,1,0.2154781494140625,1.7501614135742187,-11.215637677001952
4868412729703,9.514812965,1,0.17956512451171874,1.7753005310058592,-11.200075366210937
4868432729287,9.534812549,1,0.2454056701660156,1.7489643127441405,-11.221623181152344
4868452732620,9.554815882,1,0.23104046020507812,1.7262193969726563,-11.215637677001952
4868472733610,9.574816872,1,0.2645592834472656,1.705868682861328,-11.186907257080078
4868492733245,9.594816507,1,0.23104046020507812,1.705868682861328,-11.139023223876952
4868512733714,9.614816976,1,0.21308394775390624,1.7501614135742187,-11.192892761230468
4868532727255,9.634810517,1,0.22266075439453123,1.7357962036132812,-11.234791290283203
4868552733609,9.654816871,1,0.25258827514648435,1.7417817077636717,-11.182118853759764
4868572732307,9.674815569,1,0.2346317626953125,1.7453730102539062,-11.154585534667968
4868592733557,9.694816819,1,0.23582886352539062,1.7549498168945312,-11.257536206054686
4868612769755,9.714853017,1,0.24301146850585936,1.7717092285156248,-11.127052215576171
4868632735641,9.734818903,1,0.239420166015625,1.7298106994628906,-11.142614526367186
4868652736943,9.754820205,1,0.25139117431640623,1.7310078002929687,-11.226411584472656
4868672733662,9.774816924,1,0.20470424194335937,1.7549498168945312,-11.194089862060546
4868692733401,9.794816663,1,0.24301146850585936,1.7381904052734374,-11.133037719726563
4868712785901,9.814869163,1,0.21308394775390624,1.7585411193847655,-11.171344946289063
4868732737880,9.834821142,1,0.2454056701660156,1.7226280944824217,-11.18571015625
4868752738089,9.854821351,1,0.22266075439453123,1.7310078002929687,-11.208455072021483
4868772732516,9.874815778,1,0.25258827514648435,1.7094599853515624,-11.177330450439452
4868792732359,9.894815621,1,0.2454056701660156,1.7561469177246092,-11.176133349609374
4868812730953,9.914814215,1,0.239420166015625,1.7190367919921874,-11.129446417236327
4868832727516,9.934810778,1,0.22385785522460935,1.7501614135742187,-11.190498559570312
4868852732776,9.954816038,1,0.21787235107421873,1.7776947326660155,-11.137826123046874
4868872731370,9.974814632,1,0.23343466186523437,1.7465701110839842,-11.19169566040039
4868892738714,9.994821976,1,0.229843359375,1.7022773803710936,-11.235988391113281
4868912736578,10.01481984,1,0.21188684692382811,1.7166425903320313,-11.19169566040039
4868932728453,10.034811715,1,0.229843359375,1.7776947326660155,-11.154585534667968
4868952732151,10.054815413,1,0.23582886352539062,1.725022296142578,-11.240776794433593
4868972733036,10.074816298,1,0.20829554443359374,1.7010802795410156,-11.179724652099608
4868992735641,10.094818903,1,0.26695348510742184,1.7764976318359373,-11.203666668701171
4869012733193,10.114816455,1,0.19033903198242186,1.7274164978027342,-11.203666668701171
4869032726995,10.134810257,1,0.25139117431640623,1.7106570861816406,-11.208455072021483
4869052730745,10.154814007,1,0.2346317626953125,1.7226280944824217,-11.165359442138671
4869072732568,10.17481583,1,0.20231004028320312,1.7082628845214842,-11.179724652099608
4869092734130,10.194817392,1,0.23104046020507812,1.7836802368164062,-11.159373937988281
4869112733349,10.214816611,1,0.2154781494140625,1.6711527587890624,-11.130643518066405
4869132728193,10.234811455,1,0.2501940734863281,1.7429788085937499,-11.21683477783203
4869152732151,10.254815413,1,0.21428104858398436,1.7453730102539062,-11.196484063720703
4869172732099,10.274815361,1,0.25737667846679685,1.7453730102539062,-11.182118853759764
4869192733297,10.294816559,1,0.22864625854492185,1.7238251953125,-11.159373937988281
4869212733349,10.314816611,1,0.20949264526367187,1.7381904052734374,-11.261127508544922
4869232728401,10.334811663,1,0.2214636535644531,1.7585411193847655,-11.180921752929686
4869252732047,10.354815309,1,0.239420166015625,1.7310078002929687,-11.189301458740234
4869272732880,10.374816142,1,0.2346317626953125,1.7226280944824217,-11.168950744628905
4869292731422,10.394814684,1,0.2454056701660156,1.7465701110839842,-11.18571015625
4869312731890,10.414815152,1,0.23343466186523437,1.7130512878417967,-11.271901416015623
4869332727463,10.434810725,1,0.24181436767578124,1.7310078002929687,-11.197681164550781
4869352731786,10.454815048,1,0.258573779296875,1.7214309936523438,-11.155782635498046
4869372732828,10.47481609,1,0.22266075439453123,1.7238251953125,-11.167753643798827
4869392732932,10.494816194,1,0.2059013427734375,1.695094775390625,-11.186907257080078
4869412734234,10.514817496,1,0.21428104858398436,1.6986860778808592,-11.244368096923827
4869432728817,10.534812079,1,0.21068974609375,1.7645266235351562,-11.188104357910156
4869452731890,10.554815152,1,0.23104046020507812,1.7322049011230467,-11.19887826538086
4869472734599,10.574817861,1,0.17357962036132812,1.7214309936523438,-11.15338843383789
4869492732567,10.594815829,1,0.26336218261718747,1.7453730102539062,-11.174936248779296
4869512733713,10.614816975,1,0.239420166015625,1.7298106994628906,-11.186907257080078
4869532728088,10.63481135,1,0.23223756103515625,1.7393875061035156,-11.2240173828125
4869552733505,10.654816767,1,0.1867477294921875,1.7369933044433592,-11.259930407714844
4869572733192,10.674816454,1,0.24061726684570311,1.7501614135742187,-11.207257971191405
4869592732411,10.694815673,1,0.23822306518554687,1.7130512878417967,-11.196484063720703
4869612732047,10.714815309,1,0.24779987182617186,1.7741034301757812,-11.17852755126953
4869632727672,10.734810934,1,0.21188684692382811,1.7573440185546874,-11.184513055419922
4869652734494,10.754817756,1,0.22266075439453123,1.68551796875,-11.196484063720703
4869672733609,10.774816871,1,0.20350714111328125,1.7214309936523438,-11.182118853759764
4869692729547,10.794812809,1,0.24779987182617186,1.7681179260253905,-11.125855114746093
4869712733349,10.814816611,1,0.21906945190429686,1.7310078002929687,-11.235988391113281
4869732728505,10.834811767,1,0.2454056701660156,1.7393875061035156,-11.184513055419922
4869752734130,10.854817392,1,0.2346317626953125,1.7681179260253905,-11.16057103881836
4869772731526,10.874814788,1,0.23702596435546874,1.70467158203125,-11.150994232177734
4869792733401,10.894816663,1,0.17836802368164062,1.7310078002929687,-11.21683477783203
4869812731578,10.91481484,1,0.25139117431640623,1.7549498168945312,-11.141417425537108
4869832764130,10.934847392,1,0.21308394775390624,1.725022296142578,-11.201272467041015
4869852733505,10.954816767,1,0.17238251953125,1.7645266235351562,-11.111489904785156
4869872732567,10.974815829,1,0.24660277099609373,1.7178396911621092,-11.148600030517578
4869892733609,10.994816871,1,0.20709844360351562,1.7322049011230467,-11.186907257080078
4869912734286,11.014817548,1,0.2549824768066406,1.7657237243652342,-11.184513055419922
4869932760536,11.034843798,1,0.21308394775390624,1.7549498168945312,-11.209652172851563
4869952733192,11.054816454,1,0.21787235107421873,1.6927005737304686,-11.21084927368164
4869972732932,11.074816194,1,0.23343466186523437,1.7166425903320313,-11.124658013916015
4869992734026,11.094817288,1,0.19153613281249998,1.7166425903320313,-11.222820281982422
4870012788088,11.11487135,1,0.19512743530273435,1.7357962036132812,-11.159373937988281
4870032786734,11.134869996,1,0.24181436767578124,1.7477672119140624,-11.15338843383789
4870052736890,11.154820152,1,0.23702596435546874,1.734599102783203,-11.21683477783203
4870072734494,11.174817756,1,0.2693476867675781,1.7298106994628906,-11.149797131347656
4870092733609,11.194816871,1,0.21906945190429686,1.7034744812011717,-11.209652172851563
4870112725848,11.21480911,1,0.24660277099609373,1.725022296142578,-11.189301458740234
4870132731682,11.234814944,1,0.23702596435546874,1.7609353210449217,-11.241973895263671
4870152732828,11.25481609,1,0.19393033447265623,1.7130512878417967,-11.192892761230468
4870172732723,11.274815985,1,0.20949264526367187,1.734599102783203,-11.21683477783203
4870192731994,11.294815256,1,0.2442085693359375,1.7262193969726563,-11.17254204711914
4870212727411,11.314810673,1,0.22505495605468748,1.7214309936523438,-11.234791290283203
4870232732359,11.334815621,1,0.22385785522460935,1.68551796875,-11.116278308105468
4870252732098,11.35481536,1,0.19393033447265623,1.7226280944824217,-11.164162341308593
4870272732411,11.374815673,1,0.27293898925781246,1.734599102783203,-11.145008728027342
4870292731578,11.39481484,1,0.201112939453125,1.705868682861328,-11.192892761230468
4870312725848,11.41480911,1,0.2346317626953125,1.7178396911621092,-11.174936248779296
4870332731786,11.434815048,1,0.23223756103515625,1.725022296142578,-11.171344946289063
4870352732828,11.45481609,1,0.2166752502441406,1.7106570861816406,-11.202469567871093
4870372732255,11.474815517,1,0.2346317626953125,1.6831237670898436,-11.21084927368164
4870392732515,11.494815777,1,0.20949264526367187,1.7262193969726563,-11.166556542968749
4870412727203,11.514810465,1,0.24181436767578124,1.7118541870117185,-11.128249316406249
4870432732203,11.534815465,1,0.20231004028320312,1.7405846069335937,-11.094730493164063
4870452732880,11.554816142,1,0.2262520568847656,1.7238251953125,-11.174936248779296
4870472732307,11.574815569,1,0.21787235107421873,1.7357962036132812,-11.150994232177734
4870492734182,11.594817444,1,0.23822306518554687,1.7238251953125,-11.19887826538086
4870512728609,11.614811871,1,0.2346317626953125,1.7226280944824217,-11.171344946289063
4870532732567,11.634815829,1,0.21068974609375,1.7166425903320313,-11.186907257080078
4870552733296,11.654816558,1,0.1867477294921875,1.7465701110839842,-11.206060870361327
4870572732463,11.674815725,1,0.24061726684570311,1.7561469177246092,-11.174936248779296
4870592733505,11.694816767,1,0.2501940734863281,1.6903063720703124,-11.190498559570312
4870612728192,11.714811454,1,0.24301146850585936,1.687912170410156,-11.208455072021483
4870632733140,11.734816402,1,0.23702596435546874,1.7429788085937499,-11.177330450439452
4870652732880,11.754816142,1,0.2262520568847656,1.7274164978027342,-11.222820281982422
4870672733557,11.774816819,1,0.19512743530273435,1.7489643127441405,-11.145008728027342
4870692733557,11.794816819,1,0.26216508178710934,1.725022296142578,-11.213243475341796
4870712729286,11.814812548,1,0.201112939453125,1.7286135986328124,-11.168950744628905
4870732733400,11.834816662,1,0.23702596435546874,1.7525556152343749,-11.168950744628905
4870752734494,11.854817756,1,0.2454056701660156,1.7334020019531249,-11.21084927368164
4870772732879,11.874816141,1,0.23343466186523437,1.7848773376464844,-11.220426080322264
4870792734234,11.894817496,1,0.258573779296875,1.725022296142578,-11.182118853759764
4870812727671,11.914810933,1,0.22744915771484372,1.7477672119140624,-11.234791290283203
4870832731473,11.934814735,1,0.26216508178710934,1.7597382202148437,-11.208455072021483
4870852772307,11.954855569,1,0.22266075439453123,1.7980454467773437,-11.135431921386719
4870872747254,11.974830516,1,0.1867477294921875,1.7393875061035156,-11.166556542968749
4870892739650,11.994822912,1,0.201112939453125,1.705868682861328,-11.171344946289063
4870912728609,12.014811871,1,0.27892449340820313,1.7202338928222656,-11.167753643798827
4870932731734,12.034814996,1,0.18914193115234373,1.7298106994628906,-11.174936248779296
4870952779754,12.054863016,1,0.21308394775390624,1.7489643127441405,-11.244368096923827
4870972729702,12.074812964,1,0.24061726684570311,1.7106570861816406,-11.244368096923827
4870992733088,12.09481635,1,0.18555062866210936,1.7357962036132812,-11.221623181152344
4871012729702,12.114812964,1,0.2693476867675781,1.6747440612792968,-11.209652172851563
4871032735119,12.134818381,1,0.23702596435546874,1.7298106994628906,-11.213243475341796
4871052773869,12.154857131,1,0.20231004028320312,1.7776947326660155,-11.220426080322264
4871072732411,12.174815673,1,0.22864625854492185,1.7298106994628906,-11.088744989013671
4871092731942,12.194815204,1,0.22505495605468748,1.7357962036132812,-11.207257971191405
4871112725848,12.21480911,1,0.21906945190429686,1.7573440185546874,-11.16057103881836
4871132735431,12.234818693,1,0.21428104858398436,1.744175909423828,-11.184513055419922
4871152775119,12.254858381,1,0.23223756103515625,1.7369933044433592,-11.124658013916015
4871172738244,12.274821506,1,0.1927332336425781,1.8076222534179687,-11.136629022216797
4871192733817,12.294817079,1,0.2214636535644531,1.7525556152343749,-11.146205828857422
4871212728504,12.314811766,1,0.23104046020507812,1.7334020019531249,-11.19887826538086
4871232733556,12.334816818,1,0.21308394775390624,1.714248388671875,-11.141417425537108
4871252732671,12.354815933,1,0.22505495605468748,1.7190367919921874,-11.16057103881836
4871272734181,12.374817443,1,0.21428104858398436,1.7621324218749999,-11.154585534667968
4871292733504,12.394816766,1,0.22505495605468748,1.7094599853515624,-11.274295617675781
4871312726994,12.414810256,1,0.20231004028320312,1.7453730102539062,-11.129446417236327
4871332731681,12.434814943,1,0.20949264526367187,1.7381904052734374,-11.13423482055664
4871352727098,12.45481036,1,0.22864625854492185,1.7310078002929687,-11.19169566040039
4871372733348,12.47481661,1,0.19033903198242186,1.7262193969726563,-11.220426080322264
4871392732827,12.494816089,1,0.1879448303222656,1.753752716064453,-11.128249316406249
4871412726994,12.514810256,1,0.181959326171875,1.68551796875,-11.170147845458983
4871432731160,12.534814422,1,0.2693476867675781,1.7585411193847655,-11.21084927368164
4871452731213,12.554814475,1,0.2262520568847656,1.7453730102539062,-11.14022032470703
4871472733869,12.574817131,1,0.229843359375,1.7022773803710936,-11.13423482055664
4871492731890,12.594815152,1,0.2501940734863281,1.7489643127441405,-11.183315954589844
4871512727306,12.614810568,1,0.2454056701660156,1.7657237243652342,-11.213243475341796
4871532733608,12.63481687,1,0.22864625854492185,1.714248388671875,-11.218031878662108
4871552731629,12.654814891,1,0.17836802368164062,1.7310078002929687,-11.093533392333983
4871572732723,12.674815985,1,0.20949264526367187,1.7429788085937499,-11.214440576171874
4871592732723,12.694815985,1,0.2645592834472656,1.7262193969726563,-11.180921752929686
4871612727098,12.71481036,1,0.2346317626953125,1.70467158203125,-11.176133349609374
4871632732098,12.73481536,1,0.2825157958984375,1.7465701110839842,-11.231199987792968
4871652732775,12.754816037,1,0.25258827514648435,1.7453730102539062,-11.158176837158203
4871672773296,12.774856558,1,0.21906945190429686,1.7190367919921874,-11.152191333007812
4871692733504,12.794816766,1,0.20350714111328125,1.7489643127441405,-11.222820281982422
4871712732150,12.814815412,1,0.21428104858398436,1.763329522705078,-11.156979736328124
4871732733556,12.834816818,1,0.24061726684570311,1.7405846069335937,-11.171344946289063
4871752733712,12.854816974,1,0.22864625854492185,1.7513585144042967,-11.196484063720703
4871772771785,12.874855047,1,0.20949264526367187,1.7298106994628906,-11.21683477783203
4871792731994,12.894815256,1,0.21906945190429686,1.7178396911621092,-11.239579693603515
4871812726004,12.914809266,1,0.22026655273437498,1.70467158203125,-11.221623181152344
4871832733504,12.934816766,1,0.22864625854492185,1.7405846069335937,-11.23718549194336
4871852732983,12.954816245,1,0.229843359375,1.7369933044433592,-11.212046374511718
4871872733712,12.974816974,1,0.19393033447265623,1.7262193969726563,-11.156979736328124
4871892735327,12.994818589,1,0.21787235107421873,1.7764976318359373,-11.179724652099608
4871912727567,13.014810829,1,0.18914193115234373,1.7274164978027342,-11.240776794433593
4871932728973,13.034812235,1,0.21787235107421873,1.7381904052734374,-11.116278308105468
4871952732567,13.054815829,1,0.20949264526367187,1.7010802795410156,-11.195286962890624
4871972731473,13.074814735,1,0.23582886352539062,1.7573440185546874,-11.206060870361327
4871992733973,13.094817235,1,0.24779987182617186,1.7286135986328124,-11.190498559570312
4872012728191,13.114811453,1,0.22026655273437498,1.7884686401367187,-11.197681164550781
4872032733191,13.134816453,1,0.2597708801269531,1.7645266235351562,-11.176133349609374
4872052733035,13.154816297,1,0.23343466186523437,1.707065783691406,-11.173739147949219
4872072731369,13.174814631,1,0.24061726684570311,1.7513585144042967,-11.150994232177734
4872092733764,13.194817026,1,0.2501940734863281,1.707065783691406,-11.110292803955078
4872112725900,13.214809162,1,0.27174188842773433,1.70467158203125,-11.164162341308593
4872132731525,13.234814787,1,0.22385785522460935,1.7417817077636717,-11.194089862060546
4872152732046,13.254815308,1,0.20709844360351562,1.7477672119140624,-11.231199987792968
4872172731212,13.274814474,1,0.2980781066894531,1.6986860778808592,-11.159373937988281
4872192733139,13.294816401,1,0.20231004028320312,1.7106570861816406,-11.219228979492186
4872212727983,13.314811245,1,0.2214636535644531,1.7334020019531249,-11.19887826538086
4872232731733,13.334814995,1,0.20350714111328125,1.7334020019531249,-11.196484063720703
4872252730431,13.354813693,1,0.23223756103515625,1.7609353210449217,-11.206060870361327
4872272734129,13.374817391,1,0.22266075439453123,1.7429788085937499,-11.220426080322264
4872292774650,13.394857912,1,0.22864625854492185,1.7310078002929687,-11.207257971191405
4872312726212,13.414809474,1,0.23343466186523437,1.7022773803710936,-11.186907257080078
4872332730587,13.434813849,1,0.26695348510742184,1.7022773803710936,-11.149797131347656
4872352732931,13.454816193,1,0.17597382202148437,1.7381904052734374,-11.110292803955078
4872372733296,13.474816558,1,0.23223756103515625,1.7010802795410156,-11.145008728027342
4872392732046,13.494815308,1,0.22864625854492185,1.7645266235351562,-11.21683477783203
4872412727150,13.514810412,1,0.23702596435546874,1.6807295654296874,-11.21084927368164
4872432732046,13.534815308,1,0.239420166015625,1.7645266235351562,-11.129446417236327
4872452731941,13.554815203,1,0.26216508178710934,1.6891092712402342,-11.192892761230468
4872472734806,13.574818068,1,0.258573779296875,1.70467158203125,-11.18571015625
4872492732514,13.594815776,1,0.229843359375,1.7453730102539062,-11.166556542968749
4872512731160,13.614814422,1,0.26695348510742184,1.7226280944824217,-11.207257971191405
4872532732983,13.634816245,1,0.2059013427734375,1.705868682861328,-11.182118853759764
4872552731941,13.654815203,1,0.2609679809570312,1.7262193969726563,-11.18571015625
4872572731577,13.674814839,1,0.20470424194335937,1.7417817077636717,-11.226411584472656
4872592731889,13.694815151,1,0.23702596435546874,1.707065783691406,-11.14022032470703
4872612730170,13.714813432,1,0.2501940734863281,1.725022296142578,-11.137826123046874
4872632732879,13.734816141,1,0.2645592834472656,1.7310078002929687,-11.146205828857422
4872652730952,13.754814214,1,0.1927332336425781,1.7681179260253905,-11.221623181152344
4872672732358,13.77481562,1,0.22026655273437498,1.7202338928222656,-11.220426080322264
4872692730431,13.794813693,1,0.20470424194335937,1.7238251953125,-11.118672509765624
4872712727983,13.814811245,1,0.20709844360351562,1.7561469177246092,-11.201272467041015
4872732728400,13.834811662,1,0.229843359375,1.6711527587890624,-11.121066711425781
4872752732931,13.854816193,1,0.2537853759765625,1.7549498168945312,-11.123460913085937
4872772732879,13.874816141,1,0.23104046020507812,1.7334020019531249,-11.192892761230468
4872792732358,13.89481562,1,0.27892449340820313,1.7190367919921874,-11.152191333007812
4872812726941,13.914810203,1,0.17238251953125,1.7106570861816406,-11.17852755126953
4872832731785,13.934815047,1,0.20470424194335937,1.753752716064453,-11.18571015625
4872852730795,13.954814057,1,0.2597708801269531,1.7298106994628906,-11.106701501464842
4872872730952,13.974814214,1,0.22385785522460935,1.714248388671875,-11.328165155029296
4872892741681,13.994824943,1,0.22744915771484372,1.7717092285156248,-11.154585534667968
4872912729597,14.014812859,1,0.20709844360351562,1.70467158203125,-11.042058056640624
4872932731056,14.034814318,1,0.2346317626953125,1.7298106994628906,-11.209652172851563
4872952731264,14.054814526,1,0.20709844360351562,1.696291876220703,-11.244368096923827
4872972732306,14.074815568,1,0.24061726684570311,1.7166425903320313,-11.328165155029296
4872992731629,14.094814891,1,0.24301146850585936,1.734599102783203,-11.043255157470702
4873012727358,14.11481062,1,0.20709844360351562,1.7010802795410156,-11.209652172851563
4873032735379,14.134818641,1,0.2214636535644531,1.7262193969726563,-11.226411584472656
4873052729441,14.154812703,1,0.2442085693359375,1.7202338928222656,-11.207257971191405
4873072731941,14.174815203,1,0.20350714111328125,1.734599102783203,-11.326968054199218
4873092733191,14.194816453,1,0.22385785522460935,1.782483135986328,-11.174936248779296
4873112766837,14.214850099,1,0.22385785522460935,1.7369933044433592,-11.188104357910156
4873132733243,14.234816505,1,0.2214636535644531,1.7836802368164062,-11.098321795654297
4873152732410,14.254815672,1,0.229843359375,1.7010802795410156,-11.232397088623046
4873172731212,14.274814474,1,0.2214636535644531,1.7178396911621092,-11.218031878662108
4873192732774,14.294816036,1,0.201112939453125,1.7489643127441405,-11.214440576171874
4873212763243,14.314846505,1,0.23343466186523437,1.7429788085937499,-11.162965240478515
4873232731056,14.334814318,1,0.23104046020507812,1.7705121276855467,-11.16057103881836
4873252730379,14.354813641,1,0.17238251953125,1.6986860778808592,-11.168950744628905
4873272730535,14.374813797,1,0.20829554443359374,1.7130512878417967,-11.121066711425781
4873292731681,14.394814943,1,0.21308394775390624,1.7561469177246092,-11.179724652099608
4873312726681,14.414809943,1,0.2753331909179687,1.7262193969726563,-11.221623181152344
4873332732618,14.43481588,1,0.2442085693359375,1.7585411193847655,-11.16057103881836
4873352727670,14.454810932,1,0.2501940734863281,1.7753005310058592,-11.130643518066405
4873372732566,14.474815828,1,0.1975216369628906,1.7369933044433592,-11.177330450439452
4873392732253,14.494815515,1,0.21906945190429686,1.7334020019531249,-11.243170996093749
4873412725639,14.514808901,1,0.2705447875976562,1.7238251953125,-11.18571015625
4873432731837,14.534815099,1,0.20350714111328125,1.7872715393066405,-11.166556542968749
4873452731941,14.554815203,1,0.20829554443359374,1.7836802368164062,-11.166556542968749
4873472733399,14.574816661,1,0.239420166015625,1.7274164978027342,-11.200075366210937
4873492730274,14.594813536,1,0.2214636535644531,1.7393875061035156,-11.105504400634764
4873512726681,14.614809943,1,0.22505495605468748,1.7381904052734374,-11.17852755126953
4873532724337,14.634807599,1,0.20829554443359374,1.6915034729003906,-11.206060870361327
4873552732722,14.654815984,1,0.2346317626953125,1.7465701110839842,-11.195286962890624
4873572731368,14.67481463,1,0.28371289672851563,1.7525556152343749,-11.17254204711914
4873592730951,14.694814213,1,0.27892449340820313,1.7010802795410156,-11.182118853759764
4873612772253,14.714855515,1,0.2645592834472656,1.7262193969726563,-11.179724652099608
4873632773972,14.734857234,1,0.27174188842773433,1.686715069580078,-11.204863769531249
4873652740066,14.754823328,1,0.27174188842773433,1.7393875061035156,-11.232397088623046
4873672733712,14.774816974,1,0.201112939453125,1.7669208251953124,-11.208455072021483
4873692728764,14.794812026,1,0.20350714111328125,1.6927005737304686,-11.166556542968749
4873712725535,14.814808797,1,0.26336218261718747,1.7693150268554687,-11.12226381225586
4873732784180,14.834867442,1,0.24061726684570311,1.7262193969726563,-11.17254204711914
4873752733608,14.85481687,1,0.24061726684570311,1.7525556152343749,-11.15338843383789
4873772732878,14.87481614,1,0.22385785522460935,1.7513585144042967,-11.201272467041015
4873792732878,14.89481614,1,0.22266075439453123,1.725022296142578,-11.164162341308593
4873812727982,14.914811244,1,0.1927332336425781,1.7405846069335937,-11.218031878662108
4873832731785,14.934815047,1,0.23702596435546874,1.7405846069335937,-11.195286962890624
4873852734805,14.954818067,1,0.21308394775390624,1.7022773803710936,-11.208455072021483
4873872734441,14.974817703,1,0.2645592834472656,1.7214309936523438,-11.137826123046874
4873892730951,14.994814213,1,0.2442085693359375,1.7489643127441405,-11.182118853759764
4873912727045,15.014810307,1,0.21787235107421873,1.7202338928222656,-11.204863769531249
4873932730847,15.034814109,1,0.23582886352539062,1.7238251953125,-11.200075366210937
4873952734128,15.05481739,1,0.26216508178710934,1.6998831787109374,-11.14022032470703
