timestamp_ns,t_s,sensor_id,ax,ay,az
5907687667588,0.059860156,1,-3.399766357421875,7.597998968505859,2.7198130859375
5907692625609,0.064818177,1,-3.355473626708984,7.675810522460937,2.902969512939453
5907697625505,0.069818073,1,-3.3674446350097655,7.709329345703124,3.0597897216796874
5907702631807,0.074824375,1,-3.421314172363281,7.793126403808594,3.2118215270996093
5907707623890,0.079816458,1,-3.423708374023437,7.8362220336914055,3.4201170715332028
5907712623057,0.084815625,1,-3.4955344238281247,7.861361151123046,3.5721488769531247
5907717623005,0.089815573,1,-3.6248213134765623,7.8541785461425775,3.793612530517578
5907722623213,0.094815781,1,-3.6679169433593746,7.708132244873046,3.9372646301269527
5907727620661,0.099813229,1,-3.786429925537109,7.64827720336914,3.9899370666503904
5907732621859,0.104814427,1,-4.033032696533203,7.772775689697265,4.337096307373047
5907737621807,0.109814375,1,-3.864241479492187,7.771578588867187,4.641159918212891
5907742621963,0.114814531,1,-3.803189337158203,7.767987286376953,4.825513446044922
5907747621338,0.119813906,1,-3.5506010620117183,7.830236529541015,5.044582897949218
5907752621390,0.124813958,1,-3.554192364501953,7.754819177246094,5.310339282226562
5907757621442,0.12981401,1,-3.537432952880859,7.621940985107422,5.425260961914062
5907762619776,0.134812344,1,-3.5517981628417967,7.570465649414062,5.561730456542969
5907767622119,0.139814687,1,-3.712209674072265,7.414842541503906,5.635950708007812
5907772619463,0.144812031,1,-3.7529111022949215,7.34181939086914,5.6586956237792965
5907777622171,0.149814739,1,-3.861847277832031,7.281964349365234,5.729324572753906
5907782621651,0.154814219,1,-3.8486791687011714,7.252036828613281,5.883750579833984
5907787622015,0.159814583,1,-3.7385458923339843,7.2903440551757805,6.057330200195312
5907792622119,0.164814687,1,-3.77326181640625,7.406462835693359,6.121973645019531
5907797621078,0.169813646,1,-3.7720647155761715,7.3849150207519525,6.272808349609375
5907802621338,0.174813906,1,-3.8187516479492185,7.368155609130859,6.199785198974609
5907807621598,0.179814166,1,-3.8750153869628905,7.279570147705078,6.05852730102539
5907812621390,0.184813958,1,-3.864241479492187,7.216123803710937,5.989095452880859
5907817620661,0.189813229,1,-3.843890765380859,7.107187628173827,5.779602807617187
5907822621598,0.194814166,1,-3.845087866210937,7.032967376708984,5.5820811706542965
5907827621911,0.199814479,1,-3.833116857910156,7.031770275878906,5.3761798278808595
5907832622067,0.204814635,1,-3.8103719421386715,6.999448553466796,5.178658190917968
5907837621598,0.209814166,1,-3.697844464111328,6.907271789550781,4.892551092529296
5907842620869,0.214813437,1,-3.5721488769531247,6.902483386230468,4.576516473388671
5907847621442,0.21981401,1,-3.3123779968261715,6.819883428955078,4.413710760498047
5907852621755,0.224814323,1,-3.161543292236328,6.795941412353515,3.9085342102050777
5907857621755,0.229814323,1,-3.21780703125,6.714538555908203,3.5494039611816404
5907862621442,0.23481401,1,-3.1842882080078123,6.527790826416015,3.143586779785156
5907867621651,0.239814219,1,-3.2225954345703123,6.3973068359375,2.7473464050292966
5907872621078,0.244813646,1,-3.153163586425781,6.254851837158203,2.437297290039062
5907877621182,0.24981375,1,-3.010708587646484,6.141127258300781,2.0183119995117185
5907882621703,0.254814271,1,-2.8658593872070313,6.232106921386718,1.9297265380859374
5907887621598,0.259814166,1,-2.729389892578125,6.282385156249999,1.7094599853515624
5907892621442,0.26481401,1,-3.0597897216796874,6.319495281982421,1.7453730102539062
5907897621130,0.269813698,1,-2.663549346923828,6.657077716064452,1.4772224243164063
5907902622328,0.274814896,1,-2.6910826660156246,6.640318304443359,1.5251064575195312
5907907621651,0.279814219,1,-2.748543505859375,6.706158850097656,1.6065093139648436
5907912622015,0.284814583,1,-2.8107927490234372,6.993463049316406,1.5203180541992187
5907917621338,0.289813906,1,-2.929305731201172,6.945579016113281,1.6172832214355468
5907922621546,0.294814114,1,-2.9664158569335934,7.071274603271484,1.7908628417968748
5907927621650,0.299814218,1,-3.057395520019531,7.254431030273437,1.9668366638183592
5907932621234,0.304813802,1,-3.23696064453125,7.481880187988281,2.2170307373046874
5907937621807,0.309814375,1,-3.35188232421875,7.673416320800781,2.414552374267578
5907942621546,0.314814114,1,-3.4644098022460934,7.920019091796875,2.674323254394531
5907947621182,0.31981375,1,-3.564966271972656,8.068459594726562,3.0801404357910154
5907952621234,0.324813802,1,-3.6248213134765623,8.098387115478515,3.3686417358398435
5907957621755,0.329814323,1,-3.6008792968749996,8.215702996826172,3.7205893798828122
5907962621078,0.334813646,1,-3.900154504394531,8.295908752441406,4.114435552978516
5907967621442,0.33981401,1,-3.891774798583984,8.192958081054687,4.374206433105469
5907972621442,0.34481401,1,-4.080916729736328,8.129511737060547,4.566939666748047
5907977622067,0.349814635,1,-4.144363073730468,8.007407452392577,4.815936639404296
5907982621025,0.354813593,1,-4.127603662109375,8.08881030883789,5.12000025024414
5907987621494,0.359814062,1,-4.011484881591796,8.105569720458984,5.304353778076171
5907992621078,0.364813646,1,-3.861847277832031,8.002619049072266,5.518634826660156
5907997621286,0.369813854,1,-3.758896606445312,7.942764007568359,5.791573815917968
5908002632744,0.374825312,1,-3.797203833007812,7.843404638671874,5.948394024658203
5908007637848,0.379830416,1,-3.88818349609375,7.632714892578124,5.949591125488281
5908012629984,0.384822552,1,-3.9624037475585934,7.4579381713867186,6.005854864501953
5908017622119,0.389814687,1,-4.056974713134766,7.414842541503906,6.1076084350585935
5908022619828,0.394812396,1,-4.113238452148437,7.30351216430664,6.187814190673827
5908027622432,0.399815,1,-3.9887399658203124,7.302315063476562,6.205770703124999
5908032622223,0.404814791,1,-3.954024041748047,7.277175946044921,6.317101080322265
5908037618838,0.409811406,1,-3.842693664550781,7.170633972167968,6.361393811035156
5908042623057,0.414815625,1,-3.8295255554199215,7.116764434814453,6.217741711425781
5908047620557,0.419813125,1,-3.775656018066406,7.018602166748046,6.100425830078125
5908052621234,0.424813802,1,-3.7397429931640622,6.867767462158203,5.876567974853515
5908057621546,0.429814114,1,-3.669114044189453,6.894103680419922,5.664681127929687
5908062620609,0.434813177,1,-3.547009759521484,6.724115362548828,5.346252307128906
5908067620036,0.439812604,1,-3.392583752441406,6.580463262939452,5.175066888427734
5908072621234,0.444813802,1,-3.2561142578125,6.537367633056641,4.854243865966796
5908077620869,0.449813437,1,-3.1854853088378903,6.3973068359375,4.544194750976562
5908082620609,0.454813177,1,-3.1100679565429687,6.405686541748047,4.223371728515625
5908087617015,0.459809583,1,-3.1830911071777344,6.315903979492187,3.7397429931640622
5908092620609,0.464813177,1,-3.199850518798828,6.302735870361328,3.4105402648925778
5908097620400,0.469812968,1,-3.180696905517578,6.358999609374999,3.1938650146484373
5908102621338,0.474813906,1,-3.1364041748046874,6.399701037597656,2.953247747802734
5908107620505,0.479813073,1,-3.047818713378906,6.624755993652343,2.7473464050292966
5908112621078,0.484813646,1,-2.971204260253906,6.745663177490234,2.6515783386230467
5908117620765,0.489813333,1,-2.924517327880859,6.931213806152344,2.5570073730468748
5908122621130,0.494813698,1,-3.104082452392578,7.091625317382812,2.426523382568359
5908127620713,0.499813281,1,-3.2154128295898436,7.183802081298828,2.3331495178222657
5908132621025,0.504813593,1,-3.384204046630859,7.345410693359375,2.2661118713378903
5908137616963,0.509809531,1,-3.4620156005859375,7.4399816589355465,2.318784307861328
5908142621442,0.51481401,1,-3.4823663146972654,7.578845355224609,2.3630770385742186
5908147620661,0.519813229,1,-3.5529952636718747,7.71890615234375,2.4588451049804685
5908152620452,0.52481302,1,-3.518279339599609,7.841010437011718,2.521094348144531
5908157621546,0.529814114,1,-3.5673604736328124,7.9272016967773435,2.5737667846679684
5908162623317,0.534815885,1,-3.6810850524902343,8.005013250732421,2.8036101440429686
5908167621807,0.539814375,1,-3.7995980346679685,7.981071234130859,2.890998504638672
5908172631077,0.544823645,1,-3.8582559753417964,7.975085729980468,3.105279553222656
5908177624567,0.549817135,1,-3.8666356811523435,8.015787158203125,3.289633081054687
5908182621494,0.554814062,1,-3.845087866210937,7.9655089233398435,3.4668040039062498
5908187620400,0.559812968,1,-3.83072265625,7.93558140258789,3.6272155151367187
5908192621286,0.564813854,1,-3.9085342102050777,7.805097412109374,3.756502404785156
5908197621442,0.56981401,1,-4.064157318115234,7.651868505859374,3.8462849670410155
5908202622119,0.574814687,1,-4.092887738037109,7.5165961120605465,3.939658831787109
5908207621182,0.57981375,1,-3.995922570800781,7.3932947265625,4.1946413085937495
5908212622015,0.584814583,1,-3.938461730957031,7.400477331542969,4.183867401123047
5908217621650,0.589814218,1,-3.9408559326171875,7.381323718261719,4.35385571899414
5908222621182,0.59481375,1,-3.9731776550292968,7.34181939086914,4.298789080810547
5908227620817,0.599813385,1,-3.897760302734375,7.141903552246093,4.3239281982421875
5908232621755,0.604814323,1,-3.925293621826172,6.9360022094726554,4.267664459228516
5908237621182,0.60981375,1,-3.9264907226562498,6.92043989868164,4.152742779541016
5908242621130,0.614813698,1,-3.8570588745117185,6.78636460571289,4.188655804443359
5908247621182,0.61981375,1,-3.785232824707031,6.787561706542968,3.9839515624999997
5908252621390,0.624813958,1,-3.6822821533203123,6.7839704040527335,3.912125512695312
5908257619567,0.629812135,1,-3.6439749267578123,6.868964562988281,3.8462849670410155
5908262621494,0.634814062,1,-3.4907460205078125,6.969521032714844,3.8857892944335934
5908267621234,0.639813802,1,-3.337517114257812,7.156268762207031,3.9276878234863277
5908272620661,0.644813229,1,-3.106476654052734,7.305906365966797,4.018667486572266
5908277621755,0.649814323,1,-3.1794998046874996,7.4782888854980465,4.053383410644531
5908282620609,0.654813177,1,-3.2525229553222657,7.5333555236816405,4.031835595703125
5908287618786,0.659811354,1,-3.336320013427734,7.548917834472656,4.052186309814453
5908292621598,0.664814166,1,-3.392583752441406,7.675810522460937,4.14316597290039
5908297621650,0.669814218,1,-3.343502618408203,7.726088757324218,4.2497079467773435
5908302621963,0.674814531,1,-3.2321722412109373,7.826645227050781,4.413710760498047
5908307621130,0.679813698,1,-3.1771056030273437,7.838616235351562,4.564545465087891
5908312621286,0.684813854,1,-3.0933085449218747,7.960720520019531,4.716577270507813
5908317620244,0.689812812,1,-2.991554974365234,7.920019091796875,4.808754034423828
5908322621755,0.694814323,1,-2.8562825805664063,7.886500268554687,4.908113403320312
5908327621442,0.69981401,1,-2.7054478759765623,7.80150610961914,5.204994409179688
5908332621963,0.704814531,1,-2.5522189697265625,7.753622076416015,5.364208819580078
5908337621755,0.709814323,1,-2.346317626953125,7.475894683837891,5.465962390136719
5908342621598,0.714814166,1,-2.3535002319335936,7.313088970947265,5.522226129150391
5908347620713,0.719813281,1,-2.2661118713378903,6.985083343505859,5.629965203857422
5908352621442,0.72481401,1,-2.2637176696777344,6.701370446777343,5.735310076904296
5908357621025,0.729813593,1,-2.2254104431152344,6.479906793212891,5.7508723876953125
5908362621286,0.734813854,1,-2.042254016113281,6.224924316406249,5.729324572753906
5908367621129,0.739813697,1,-2.062604730224609,5.984307049560546,5.7317187744140625
5908372620504,0.744813072,1,-2.142810485839844,5.840654949951172,5.6586956237792965
5908377621650,0.749814218,1,-2.464830609130859,5.693411547851563,5.6311623046875
5908382622223,0.754814791,1,-2.6695348510742187,5.517437725830078,5.701791253662109
5908387620713,0.759813281,1,-2.8514941772460936,5.479130499267578,5.68862314453125
5908392621025,0.764813593,1,-2.913743420410156,5.579686968994141,5.674257934570313
5908397621598,0.769814166,1,-2.9448680419921875,5.668272430419922,5.560533355712891
5908402621911,0.774814479,1,-3.027467999267578,5.785588311767578,5.6012347839355465
5908407620713,0.779813281,1,-3.2213983337402343,5.945999822998046,5.377376928710937
5908412620973,0.784813541,1,-3.393780853271484,6.102820031738281,5.159504577636718
5908417621129,0.789813697,1,-3.517082238769531,6.358999609374999,4.874594580078124
5908422621338,0.794813906,1,-3.5865140869140624,6.629544396972656,4.770446807861328
5908427620817,0.799813385,1,-3.7995980346679685,6.992265948486327,4.6651019348144525
5908432621911,0.804814479,1,-3.9923312683105467,7.343016491699219,4.523844036865234
5908437621442,0.80981401,1,-4.152742779541016,7.611167077636718,4.3251252990722655
5908442621442,0.81481401,1,-4.255693450927734,7.9846625366210935,4.234145635986328
5908447622484,0.819815052,1,-4.425681768798828,8.224082702636718,4.013879083251953
5908452623682,0.82481625,1,-4.465186096191406,8.461108666992187,3.8953661010742184
5908457621129,0.829813697,1,-4.50109912109375,8.602366564941406,3.6571430358886716
5908462621494,0.834814062,1,-4.529829541015625,8.722076647949219,3.421314172363281
5908467621859,0.839814427,1,-4.525041137695312,8.750807067871094,3.3171664001464842
5908472620504,0.844813072,1,-4.564545465087891,8.72087954711914,3.104082452392578
5908477620973,0.849813541,1,-4.574122271728515,8.699331732177734,2.8993782104492185
5908482620921,0.854813489,1,-4.498704919433593,8.675389715576172,2.663549346923828
5908487620244,0.859812812,1,-4.3801919372558595,8.544905725097657,2.607285607910156
5908492620973,0.864813541,1,-4.311957189941406,8.398859423828124,2.472013214111328
5908497621129,0.869813697,1,-4.357447021484375,8.580818749999999,2.365471240234375
5908502621650,0.874814218,1,-4.043806604003906,8.479065179443358,2.393004559326172
5908507618317,0.879810885,1,-3.8750153869628905,8.189366778564453,2.4768016174316405
5908512621442,0.88481401,1,-3.6571430358886716,8.128314636230469,2.3546973327636715
5908517621807,0.889814375,1,-3.5122938354492184,7.824251025390624,2.3523031311035156
5908522621702,0.89481427,1,-3.3710359375,7.662642413330078,2.2361843505859373
5908527621754,0.899814322,1,-3.1687258972167966,7.430404852294921,2.2972364929199216
5908532621598,0.904814166,1,-3.0442274108886718,7.195773089599609,2.360682836914062
5908537621025,0.909813593,1,-2.931699932861328,7.011419561767577,2.433705987548828
5908542620557,0.914813125,1,-2.779668127441406,6.884526873779296,2.540247961425781
5908547622275,0.919814843,1,-2.607285607910156,6.771999395751953,2.6671406494140624
5908552622171,0.924814739,1,-2.4779987182617185,6.514622717285156,2.807201446533203
5908557621077,0.929813645,1,-2.436100189208984,6.332663391113281,2.9843723693847655
5908562621129,0.934813697,1,-2.357091534423828,6.203376501464843,3.0885201416015624
5908567621338,0.939813906,1,-2.3906103576660156,6.042964990234375,3.2070331237792966
5908572621234,0.944813802,1,-2.3355437194824216,5.971138940429687,3.3351229125976563
5908577620921,0.949813489,1,-2.3618799377441406,5.965153436279296,3.465606903076172
5908582621129,0.954813697,1,-2.3870190551757813,5.968744738769531,3.555389465332031
5908587621077,0.959813645,1,-2.308010400390625,5.865794067382812,3.5817256835937497
5908592622015,0.964814583,1,-2.3786393493652342,5.796362219238281,3.6954502624511716
5908597621025,0.969813593,1,-2.541445062255859,5.871779571533203,3.7624879089355465
5908602620713,0.974813281,1,-2.7545290100097652,6.056133099365234,3.835511059570312
5908607620765,0.979813333,1,-2.920926025390625,6.285976458740234,4.017470385742187
5908612621390,0.984813958,1,-3.056198419189453,6.542156036376952,4.272452862548828
5908617621650,0.989814218,1,-3.2632968627929686,6.918045697021484,4.642357019042969
5908622621494,0.994814062,1,-3.180696905517578,7.091625317382812,5.033808990478516
5908627620869,0.999813437,1,-3.247734552001953,7.436390356445312,5.313930584716797
5908632621494,1.004814062,1,-3.306392492675781,7.60398447265625,5.358223315429687
5908637620817,1.009813385,1,-3.4919431213378904,7.777564093017578,5.625176800537109
5908642618994,1.014811562,1,-3.7050270690917966,7.936778503417968,5.702988354492187
5908647622223,1.019814791,1,-3.7984009338378906,8.03134946899414,5.685031842041015
5908652628421,1.024820989,1,-3.954024041748047,8.249221820068358,5.837063647460937
5908657623473,1.029816041,1,-4.068945721435546,8.340201483154296,5.801150622558594
5908662621911,1.034814479,1,-4.2137949218749995,8.434772448730468,5.944802722167968
5908667620817,1.039813385,1,-4.316745593261719,8.458714465332031,6.084863519287109
5908672621077,1.044813645,1,-4.402936853027343,8.559270935058594,6.189011291503906
5908677621494,1.049814062,1,-4.262876055908203,8.560468035888672,6.319495281982421
5908682621494,1.054814062,1,-4.359841223144531,8.493430389404296,6.282385156249999
5908687621181,1.059813749,1,-4.339490509033203,8.453926062011718,6.142324359130859
5908692619619,1.064812187,1,-4.440046978759765,8.271966735839843,5.969941839599609
5908697620921,1.069813489,1,-4.44962378540039,8.147468249511718,5.756857891845703
5908702620869,1.074813437,1,-4.314351391601562,7.862558251953125,5.6215854980468745
5908707621546,1.079814114,1,-4.211400720214844,7.638700396728515,5.382165332031249
5908712621911,1.084814479,1,-3.9659950500488277,7.389703424072265,5.240907434082031
5908717621702,1.08981427,1,-3.900154504394531,7.2915411560058585,4.973953948974609
5908722621546,1.094814114,1,-3.7325603881835936,7.055712292480468,4.796783026123046
5908727621650,1.099814218,1,-3.5422213562011717,6.798335614013672,4.420893365478515
5908732620609,1.104813177,1,-3.388992449951172,6.673837127685546,4.134786267089844
5908737622067,1.109814635,1,-3.2620997619628906,6.514622717285156,3.9049429077148434
5908742619515,1.114812083,1,-3.210624426269531,6.5026517089843745,3.603273498535156
5908747621442,1.11981401,1,-3.1124621582031247,6.554127044677734,3.35188232421875
5908752618317,1.124810885,1,-3.086125939941406,6.420051751708984,3.2130186279296873
5908757621286,1.129813854,1,-3.019088293457031,6.448782171630859,2.905363714599609
5908762620713,1.134813281,1,-3.084928839111328,6.333860491943359,2.710236279296875
5908767621025,1.139813593,1,-3.058592620849609,6.361393811035156,2.4851813232421875
5908772621598,1.144814166,1,-3.0334535034179684,6.415263348388671,2.2768857788085937
5908777621181,1.149813749,1,-2.971204260253906,6.4272343566894525,2.1595698974609374
5908782621129,1.154813697,1,-2.8479028747558592,6.440402465820312,1.9129671264648436
5908787620973,1.159813541,1,-2.7724855224609373,6.592434271240234,1.8914193115234375
5908792620192,1.16481276,1,-2.721010186767578,6.696582043457031,1.8471265808105468
5908797619671,1.169812239,1,-2.7174188842773437,6.883329772949218,1.8327613708496093
5908802622431,1.174814999,1,-2.73896669921875,6.969521032714844,1.8255787658691405
5908807621233,1.179813801,1,-2.789244934082031,7.094019519042968,1.878251202392578
5908812621911,1.184814479,1,-2.895786907958984,7.097610821533203,2.0829554443359375
5908817620973,1.189813541,1,-3.005920184326172,7.279570147705078,2.031480108642578
5908822621338,1.194813906,1,-3.104082452392578,7.432799053955078,2.1703438049316404
5908827621025,1.199813593,1,-3.143586779785156,7.541735229492187,2.5761609863281247
5908832620817,1.204813385,1,-3.1507693847656246,7.679401824951172,2.7449522033691403
5908837620869,1.209813437,1,-3.228580938720703,7.684190228271484,2.914940521240234
5908842620036,1.214812604,1,-3.31357509765625,7.812280017089844,3.2261867370605466
5908847621390,1.219813958,1,-3.4153286682128905,7.937975604248046,3.555389465332031
5908852621858,1.224814426,1,-3.4452561889648434,7.808688714599609,3.716998077392578
5908857622483,1.229815051,1,-3.436876483154297,7.748833673095703,3.9552211425781247
5908862621911,1.234814479,1,-3.6954502624511716,7.767987286376953,4.265270257568359
5908867621286,1.239813854,1,-3.6451720275878903,7.697358337402343,4.552574456787109
5908872622483,1.244815051,1,-3.7385458923339843,7.704540942382812,4.669890338134765
5908877621338,1.249813906,1,-3.7624879089355465,7.6087728759765625,5.03740029296875
5908882620817,1.254813385,1,-3.7708676147460936,7.570465649414062,5.202600207519531
5908887620973,1.259813541,1,-3.7696705139160156,7.605181573486328,5.2816088623046875
5908892621494,1.264814062,1,-3.6715082458496093,7.447164263916015,5.615599993896484
5908897620556,1.269813124,1,-3.6008792968749996,7.3837179199218745,5.692214447021484
5908902621806,1.274814374,1,-3.6739024475097652,7.352593298339843,5.949591125488281
5908907621442,1.27981401,1,-3.725377783203125,7.352593298339843,5.717353564453124
5908912621233,1.284813801,1,-3.883395092773437,7.344213592529297,5.888538983154296
5908917621754,1.289814322,1,-3.9624037475585934,7.281964349365234,5.877765075683594
5908922622067,1.294814635,1,-4.015076184082031,7.247248425292969,5.972336041259766
5908927621390,1.299813958,1,-4.068945721435546,7.314286071777343,5.911283898925781
5908932621129,1.304813697,1,-3.9600095458984375,7.357381701660156,5.823895538330078
5908937621911,1.309814479,1,-3.782838623046875,7.430404852294921,5.980715747070312
5908942621129,1.314813697,1,-3.8187516479492185,7.4699091796875,5.827486840820312
5908947621077,1.319813645,1,-3.7624879089355465,7.503428002929687,5.687426043701172
5908952621286,1.324813854,1,-3.737348791503906,7.45075556640625,5.383362432861328
5908957621338,1.329813906,1,-3.6750995483398436,7.466317877197265,5.1331683593749995
5908962621858,1.334814426,1,-3.547009759521484,7.413645440673828,5.045779998779296
5908967620556,1.339813124,1,-3.4584242980957027,7.3657614074707025,4.7943888244628905
5908972621806,1.344814374,1,-3.353079425048828,7.302315063476562,4.598064288330078
5908977621181,1.349813749,1,-3.318363500976562,7.212532501220703,4.43047017211914
5908982621702,1.35481427,1,-3.3291374084472656,7.208941198730468,4.314351391601562
5908987621546,1.359814114,1,-3.1938650146484373,7.152677459716797,4.225765930175781
5908992621077,1.364813645,1,-3.1507693847656246,7.230489013671875,4.129997863769531
5908997621598,1.369814166,1,-3.132812872314453,7.3274541809082026,4.100070343017578
5909002620192,1.37481276,1,-3.1280244689941403,7.264007836914062,4.037821099853516
5909007622900,1.379815468,1,-3.1567548889160153,7.225700610351562,3.892971899414062
5909012620921,1.384813489,1,-3.210624426269531,7.164648468017577,3.745728497314453
5909017621181,1.389813749,1,-3.295618585205078,7.116764434814453,3.6643256408691403
5909022620504,1.394813072,1,-3.2537200561523436,7.086836914062499,3.563769171142578
5909027622015,1.399814583,1,-3.2932243835449215,7.074865905761718,3.4727895080566404
5909032621910,1.404814478,1,-3.294421484375,7.122749938964843,3.441664886474609
5909037620765,1.409813333,1,-3.3171664001464842,7.05451519165039,3.361459130859375
5909042621494,1.414814062,1,-3.31357509765625,6.969521032714844,3.2740707702636715
5909047621181,1.419813749,1,-3.2513258544921873,6.864176159667968,3.094505645751953
5909052621963,1.424814531,1,-3.2692823669433593,6.666654522705078,2.932897033691406
5909057623160,1.429815728,1,-3.3004069885253906,6.561309649658202,2.7246014892578123
5909062621285,1.434813853,1,-3.345896820068359,6.426037255859375,2.596511700439453
5909067622119,1.439814687,1,-3.355473626708984,6.279990954589843,2.4516625
5909072621546,1.444814114,1,-3.3255461059570313,6.229712719726562,2.3678654418945313
5909077620817,1.449813385,1,-3.266888165283203,6.196193896484375,2.3211785095214843
5909082621338,1.454813906,1,-3.2501287536621093,6.36498511352539,2.270900274658203
5909087621233,1.459813801,1,-3.1292215698242187,6.394912634277343,2.2744915771484373
5909092620660,1.464813228,1,-3.1316157714843746,6.441599566650391,2.328361114501953
5909097621754,1.469814322,1,-3.1184476623535153,6.746860278320312,2.431311785888672
5909102621598,1.474814166,1,-3.106476654052734,6.962338427734375,2.460042205810547
5909107621754,1.479814322,1,-3.220201232910156,7.232883215332031,2.460042205810547
5909112621233,1.484813801,1,-3.257311358642578,7.6099699768066404,2.5522189697265625
5909117621025,1.489813593,1,-3.2824504760742186,7.639897497558593,2.596511700439453
5909122621077,1.494813645,1,-3.305195391845703,7.791929302978515,2.7928362365722657
5909127620817,1.499813385,1,-3.3865982482910155,7.868543756103515,3.047818713378906
5909132627431,1.504819999,1,-3.4093431640625,8.119934930419921,3.2225954345703123
5909137622640,1.509815208,1,-3.494337322998047,8.085219006347655,3.4524387939453125
5909142620660,1.514813228,1,-3.612850305175781,7.893682873535155,3.563769171142578
5909147621390,1.519813958,1,-3.707421270751953,7.900865478515625,3.7816415222167965
5909152620713,1.524813281,1,-3.8845921936035155,7.893682873535155,4.092887738037109
5909157622015,1.529814583,1,-3.8295255554199215,8.054094384765625,4.513070129394531
5909162621806,1.534814374,1,-3.8762124877929685,8.134300140380859,4.92846411743164
5909167621285,1.539813853,1,-3.842693664550781,8.432378247070313,5.360617517089843
5909172621129,1.544813697,1,-3.8235400512695312,8.693346228027343,5.904101293945312
5909177621494,1.549814062,1,-3.8295255554199215,8.696937530517578,6.1830257873535155
5909182621702,1.55481427,1,-3.8857892944335934,8.62511148071289,6.451176373291015
5909187620713,1.559813281,1,-3.897760302734375,8.718485345458983,6.566098052978515
5909192621233,1.564813801,1,-4.055777612304687,8.504204296874999,6.657077716064452
5909197621806,1.569814374,1,-4.169502191162109,8.288726147460936,6.756437084960937
5909202622483,1.574815051,1,-4.189852905273438,8.206126190185547,6.791153009033203
5909207622327,1.579814895,1,-3.9264907226562498,8.012195855712891,7.005434057617187
5909212638160,1.584830728,1,-3.883395092773437,7.481880187988281,6.9910688476562495
5909217631390,1.589823958,1,-3.707421270751953,7.196970190429687,6.871358764648437
5909222631338,1.594823906,1,-3.6846763549804686,6.8402341430664055,6.726509564208984
5909227625296,1.599817864,1,-3.5805285827636717,6.543353137207031,6.544550238037109
5909232621806,1.604814374,1,-3.5781343811035153,6.325480786132812,6.21175620727539
5909237620973,1.609813541,1,-3.4344822814941405,6.11598814086914,5.922057806396484
5909242621233,1.614813801,1,-3.2884359802246093,6.083666418457031,5.706579656982422
5909247621546,1.619814114,1,-3.2237925354003902,5.949591125488281,5.397727642822265
5909252622483,1.624815051,1,-3.0226795959472654,5.859808563232422,5.1140147460937495
5909257621650,1.629814218,1,-3.0262708984374997,5.729324572753906,4.705803363037109
5909262621077,1.634813645,1,-2.940079638671875,5.533000036621093,4.303577484130859
5909267621598,1.639814166,1,-2.9472622436523435,5.430049365234375,3.860650177001953
5909272622379,1.644814947,1,-2.877830395507812,5.529408734130859,3.451241693115234
5909277622067,1.649814635,1,-2.8610709838867185,5.6012347839355465,2.948459344482422
5909282621806,1.654814374,1,-2.8107927490234372,5.711368060302734,2.6707319519042967
5909287621390,1.659813958,1,-2.855085479736328,5.843049151611328,2.365471240234375
5909292621598,1.664814166,1,-2.9269115295410155,6.027402679443359,2.085349645996094
5909297621546,1.669814114,1,-2.881421697998047,6.361393811035156,1.9213468322753906
5909302618265,1.674810833,1,-2.835931866455078,6.584054565429687,1.772906329345703
5909307620973,1.679813541,1,-2.7916391357421872,6.900089184570312,1.7010802795410156
5909312621598,1.684814166,1,-2.7281927917480466,7.098807922363281,1.4999673400878906
5909317621650,1.689814218,1,-2.8227637573242186,7.275978845214843,1.495178936767578
5909322621702,1.69481427,1,-2.935291235351562,7.504625103759765,1.3575123413085937
5909327621337,1.699813905,1,-2.980781066894531,7.730877160644531,1.438915197753906
5909332621233,1.704813801,1,-3.1172505615234374,7.943961108398437,1.6436194396972654
5909337621181,1.709813749,1,-3.2740707702636715,8.182184173583984,1.8435352783203125
5909342619202,1.71481177,1,-3.2525229553222657,8.2743609375,2.04943662109375
5909347617900,1.719810468,1,-3.2345664428710936,8.479065179443358,2.1487959899902345
5909352621233,1.724813801,1,-3.4153286682128905,8.574833245849609,2.407369769287109
5909357620765,1.729813333,1,-3.6930560607910152,8.615534674072265,2.8287492614746093
5909362621285,1.734813853,1,-3.8666356811523435,8.689754925537109,3.238157745361328
5909367620921,1.739813489,1,-3.9647979492187497,8.725667950439453,3.604470599365234
5909372620765,1.744813333,1,-3.764882110595703,8.70172593383789,3.9839515624999997
5909377621025,1.749813593,1,-3.793612530517578,8.627505682373046,4.337096307373047
5909382621546,1.754814114,1,-3.72178648071289,8.503007196044921,4.514267230224609
5909387621233,1.759813801,1,-3.1771056030273437,7.87812056274414,4.991910461425781
5909392621910,1.764814478,1,-3.6846763549804686,7.771578588867187,4.503493322753906
5909397617848,1.769810416,1,-4.378994836425781,7.258022332763671,4.517858532714843
5909402621077,1.774813645,1,-4.376600634765625,7.070077502441406,4.88417138671875
5909407621025,1.779813593,1,-4.3801919372558595,7.181407879638671,5.026626385498046
5909412621546,1.784814114,1,-4.056974713134766,7.24605132446289,5.464765289306641
5909417618994,1.789811562,1,-3.843890765380859,7.258022332763671,5.719747766113281
5909422621442,1.79481401,1,-3.6846763549804686,7.271190441894531,5.834669445800781
5909427621962,1.79981453,1,-3.5601778686523438,7.182604980468749,6.003460662841796
5909432620921,1.804813489,1,-3.5039141296386718,7.098807922363281,6.03937368774414
5909437621233,1.809813801,1,-3.246537451171875,7.017405065917968,5.9579708312988275
5909442621233,1.814813801,1,-3.2537200561523436,6.946776116943359,5.98191284790039
5909447619775,1.819812343,1,-3.2405519470214843,6.815095025634765,5.832275244140624
5909452621702,1.82481427,1,-3.3710359375,6.756437084960937,5.960365032958984
5909457621077,1.829813645,1,-3.3698388366699215,6.768408093261718,5.8454433532714845
5909462621077,1.834813645,1,-3.104082452392578,6.781576202392578,5.86699116821289
5909467622275,1.839814843,1,-3.247734552001953,6.835445739746094,5.865794067382812
5909472621806,1.844814374,1,-3.3506852233886715,6.848613848876953,5.692214447021484
5909477621962,1.84981453,1,-3.3542765258789062,6.88213267211914,5.556942053222656
5909482620608,1.854813176,1,-3.35188232421875,6.941987713623046,5.442020373535156
5909487621494,1.859814062,1,-3.2249896362304686,6.891709478759765,5.248090039062499
5909492621910,1.864814478,1,-3.372233038330078,6.849810949707031,5.02423218383789
5909497619098,1.869811666,1,-3.460818499755859,6.861781958007812,4.857835168457031
5909502621129,1.874813697,1,-3.2549171569824216,6.848613848876953,4.618415002441406
5909507620817,1.879813385,1,-3.268085266113281,6.815095025634765,4.313154290771484
5909512621025,1.884813593,1,-3.3865982482910155,6.760028387451172,4.173093493652344
5909517621025,1.889813593,1,-3.3973721557617185,6.842628344726562,3.841496563720703
5909522620869,1.894813437,1,-3.4153286682128905,6.880935571289062,3.6152445068359373
5909527621129,1.899813697,1,-3.289633081054687,6.928819604492187,3.465606903076172
5909532620817,1.904813385,1,-3.1771056030273437,7.053318090820312,3.3303345092773435
5909537620869,1.909813437,1,-3.0741549316406247,7.096413720703125,3.21780703125
5909542621389,1.914813957,1,-3.027467999267578,7.105990527343749,2.914940521240234
5909547621442,1.91981401,1,-3.0238766967773434,7.088034014892577,2.7712884216308593
5909552621337,1.924813905,1,-3.161543292236328,7.0461354858398435,2.5725696838378904
5909557620452,1.92981302,1,-3.2644939636230466,7.080851409912109,2.3642741394042965
5909562620504,1.934813072,1,-3.3195606018066406,7.001842755126953,2.270900274658203
5909567619567,1.939812135,1,-3.31357509765625,6.980294940185546,2.2158336364746094
5909572621650,1.944814218,1,-3.2908301818847656,7.055712292480468,2.2301988464355467
5909577622014,1.949814582,1,-3.2501287536621093,7.146691955566406,2.155978594970703
5909582621546,1.954814114,1,-3.2525229553222657,7.229291912841797,2.309207501220703
5909587620869,1.959813437,1,-3.3219548034667965,7.2723875427246085,2.2553379638671873
5909592621337,1.964813905,1,-3.3399113159179685,7.438784558105469,2.3499089294433593
5909597621442,1.96981401,1,-3.337517114257812,7.575254052734374,2.602497204589844
5909602621181,1.974813749,1,-3.392583752441406,7.675810522460937,2.7641058166503907
5909607621650,1.979814218,1,-3.412934466552734,7.7799582946777335,2.932897033691406
5909612628004,1.984820572,1,-3.4452561889648434,7.808688714599609,3.1004911499023438
5909617623942,1.98981651,1,-3.4440590881347655,7.772775689697265,3.373430139160156
5909622622275,1.994814843,1,-3.6930560607910152,7.758410479736328,3.6296097167968746
5909627620712,1.99981328,1,-3.5721488769531247,7.758410479736328,3.7600937072753906
5909632620764,2.004813332,1,-3.554192364501953,7.659051110839843,3.860650177001953
5909637621910,2.009814478,1,-3.6248213134765623,7.672219219970703,4.149151477050781
5909642622275,2.014814843,1,-3.6918589599609373,7.587225061035156,4.364629626464843
5909647621650,2.019814218,1,-3.7517140014648436,7.5345526245117185,4.432864373779297
5909652622223,2.024814791,1,-3.778050219726562,7.48906279296875,4.642357019042969
5909657621077,2.029813645,1,-3.803189337158203,7.429207751464843,4.7572786987304685
5909662620973,2.034813541,1,-3.708618371582031,7.418433843994141,4.979939453125
5909667621702,2.03981427,1,-3.5877111877441403,7.428010650634765,5.147533569335937
5909672622223,2.044814791,1,-3.5877111877441403,7.447164263916015,5.342661004638671
5909677622014,2.049814582,1,-3.4763808105468748,7.3861121215820305,5.428852264404297
5909682621233,2.054813801,1,-3.563769171142578,7.392097625732421,5.517437725830078
5909687624671,2.059817239,1,-3.6056677001953124,7.340622290039062,5.589263775634765
5909692622483,2.064815051,1,-3.7505169006347656,7.418433843994141,5.700594152832031
5909697621129,2.069813697,1,-3.840299462890625,7.485471490478515,5.8083332275390624
5909702621233,2.074813801,1,-3.81156904296875,7.562085943603515,5.882553479003906
5909707621754,2.079814322,1,-3.669114044189453,7.618349682617187,6.0142345703124995
5909712621181,2.084813749,1,-3.5302503479003904,7.685387329101562,6.177040283203125
5909717620764,2.089813332,1,-3.506308331298828,7.7596075805664055,6.167463476562499
5909722621129,2.094813697,1,-3.6559459350585937,7.62912359008789,6.029796881103516
5909727620608,2.099813176,1,-3.72178648071289,7.40526573486328,5.91846650390625
5909732622066,2.104814634,1,-3.7612908081054686,7.3094976684570305,5.6766521362304685
5909737621233,2.109813801,1,-3.7612908081054686,7.211335400390625,5.549759448242187
5909742621494,2.114814062,1,-3.687070556640625,7.116764434814453,5.442020373535156
5909747618837,2.119811405,1,-3.6188358093261717,7.018602166748046,5.286397265624999
5909752621129,2.124813697,1,-3.384204046630859,6.835445739746094,5.068524914550781
5909757621494,2.129814062,1,-3.379415643310547,6.792350109863281,4.854243865966796
5909762622431,2.134814999,1,-3.336320013427734,6.737283471679687,4.519055633544921
5909767622066,2.139814634,1,-3.289633081054687,6.592434271240234,4.210203619384766
5909772621129,2.144813697,1,-3.284844677734375,6.525396624755859,3.8893805969238278
5909777621181,2.149813749,1,-3.276464971923828,6.5409589355468745,3.585316986083984
5909782620869,2.154813437,1,-3.1387983764648437,6.515819818115234,3.3099837951660156
5909787621025,2.159813593,1,-3.0633810241699218,6.442796667480469,3.1172505615234374
5909792620712,2.16481328,1,-3.0418332092285154,6.3973068359375,2.881421697998047
5909797620869,2.169813437,1,-2.958036151123047,6.281188055419921,2.692279766845703
5909802622171,2.174814739,1,-2.96881005859375,6.368576416015625,2.3439234252929686
5909807621441,2.179814009,1,-2.9041666137695312,6.387730029296875,2.0745757385253905
5909812621233,2.184813801,1,-2.887407202148437,6.406883642578125,1.926135235595703
5909817620816,2.189813384,1,-2.919728924560547,6.49307490234375,1.897404815673828
5909822621441,2.194814009,1,-2.868253588867187,6.660669018554687,1.7741034301757812
5909827623160,2.199815728,1,-2.91134921875,6.861781958007812,1.7561469177246092
5909832622014,2.204814582,1,-2.8622680847167965,6.959944226074218,1.848323681640625
5909837621077,2.209813645,1,-2.923320227050781,7.1778165771484375,1.9764134704589842
5909842621650,2.214814218,1,-2.938882537841797,7.331045483398437,2.001552587890625
5909847620973,2.219813541,1,-3.075352032470703,7.644685900878906,2.1631611999511717
5909852621025,2.224813593,1,-3.1771056030273437,7.807491613769531,2.5067291381835934
5909857621702,2.22981427,1,-3.2345664428710936,7.989450939941406,2.6994623718261717
5909862621337,2.234813905,1,-3.3255461059570313,8.17141026611328,2.9855694702148434
5909867621233,2.239813801,1,-3.4715924072265625,8.232462408447265,3.2249896362304686
5909872621285,2.244813853,1,-3.5051112304687497,8.237250811767577,3.5134909362792968
5909877621077,2.249813645,1,-3.6284126159667967,8.238447912597655,3.870226983642578
5909882620868,2.254813436,1,-3.6643256408691403,8.225279803466796,4.205415216064453
5909887621389,2.259813957,1,-3.6834792541503902,8.14028564453125,4.478354205322265
5909892622118,2.264814686,1,-3.756502404785156,8.03853207397461,4.75009609375
5909897621389,2.269813957,1,-3.797203833007812,7.911639385986327,4.886565588378906
5909902620973,2.274813541,1,-3.7984009338378906,7.7967177062988275,5.1319712585449215
5909907620921,2.279813489,1,-3.727771984863281,7.66743081665039,5.232527728271484
5909912621181,2.284813749,1,-3.5793314819335937,7.520187414550781,5.446808776855469
5909917621337,2.289813905,1,-3.518279339599609,7.344213592529297,5.560533355712891
5909922621650,2.294814218,1,-3.5230677429199218,7.15028325805664,5.706579656982422
5909927620868,2.299813436,1,-3.6451720275878903,7.072471704101562,5.683834741210937
5909932622223,2.304814791,1,-3.725377783203125,6.9336080078124995,5.82868394165039
5909937622171,2.309814739,1,-3.7924154296875,6.909665991210937,5.8610056640625
5909942621181,2.314813749,1,-3.88818349609375,6.9910688476562495,5.945999822998046
5909947621181,2.319813749,1,-3.871424084472656,7.0090253601074215,6.1279591491699215
5909952621337,2.324813905,1,-3.8798037902832028,7.174225274658203,6.124367846679687
5909957621754,2.329814322,1,-3.864241479492187,7.268796240234375,6.373364819335937
5909962620921,2.334813489,1,-3.7696705139160156,7.364564306640625,6.324283685302734
5909967621025,2.339813593,1,-3.793612530517578,7.453149768066406,6.319495281982421
5909972620504,2.344813072,1,-3.8486791687011714,7.417236743164062,6.086060620117187
5909977621337,2.349813905,1,-3.9037458068847655,7.425616448974609,5.963956335449218
5909982621650,2.354814218,1,-3.9911341674804683,7.390900524902343,5.742492681884765
5909987620608,2.359813176,1,-3.9803602600097654,7.333439685058593,5.516240625
5909992619983,2.364812551,1,-3.7433342956542965,7.413645440673828,5.414487054443359
5909997621389,2.369813957,1,-3.622427111816406,7.490259893798828,5.209782812499999
5910002621546,2.374814114,1,-3.614047406005859,7.4782888854980465,4.981136553955078
5910007621129,2.379813697,1,-3.5889082885742187,7.343016491699219,4.641159918212891
5910012620243,2.384812811,1,-3.5721488769531247,7.30351216430664,4.207809417724609
5910017619046,2.389811614,1,-3.5039141296386718,7.261613635253906,3.9228994201660154
5910022619254,2.394811822,1,-3.484760516357422,7.287949853515625,3.6200329101562496
5910027621702,2.39981427,1,-3.384204046630859,7.212532501220703,3.391386651611328
5910032621389,2.404813957,1,-3.296815686035156,7.15028325805664,3.0813375366210938
5910037621129,2.409813697,1,-3.1567548889160153,7.013813763427734,2.923320227050781
5910042620660,2.414813228,1,-3.0992940490722654,6.955155822753905,2.867056488037109
5910047619410,2.419811978,1,-3.0047230834960934,6.921636999511718,2.6491841369628903
5910052621129,2.424813697,1,-2.9831752685546875,6.834248638916015,2.384624853515625
5910057620921,2.429813489,1,-2.9364883361816405,6.76721099243164,2.1775264099121094
5910062621181,2.434813749,1,-2.9496564453125,6.622361791992187,2.0183119995117185
5910067620556,2.439813124,1,-2.855085479736328,6.49307490234375,1.8411410766601561
5910072620608,2.444813176,1,-2.829946362304687,6.4643444824218745,1.8543091857910154
5910077619931,2.449812499,1,-2.731784094238281,6.40329234008789,1.9620482604980467
5910082622014,2.454814582,1,-2.6587609436035153,6.393715533447265,1.9476830505371092
5910087620764,2.459813332,1,-2.6096798095703124,6.4463879699707025,1.8243816650390623
5910092621650,2.464814218,1,-2.6611551452636717,6.380547424316406,1.7932570434570312
5910097621546,2.469814114,1,-2.7437551025390623,6.417657550048828,1.8088193542480469
5910102620712,2.47481328,1,-2.77727392578125,6.525396624755859,1.8531120849609375
5910107620973,2.479813541,1,-2.817975354003906,6.6343328002929685,2.042254016113281
5910112621025,2.484813593,1,-2.7964275390625,6.858190655517578,2.2445640563964844
5910117620868,2.489813436,1,-2.8622680847167965,7.135918048095703,2.5809493896484375
5910122620816,2.494813384,1,-2.8107927490234372,7.256825231933593,2.768894219970703
5910127620764,2.499813332,1,-2.890998504638672,7.304709265136719,2.9652187561035155
5910132620816,2.504813384,1,-3.0035259826660154,7.388506323242187,3.0992940490722654
5910137620608,2.509813176,1,-3.1974563171386716,7.491456994628906,3.294421484375
5910142621077,2.514813645,1,-3.3590649291992185,7.505822204589843,3.4105402648925778
5910147621702,2.51981427,1,-3.440467785644531,7.788338000488281,3.6188358093261717
5910152621129,2.524813697,1,-3.6272155151367187,7.846995941162109,3.985148663330078
5910157620660,2.529813228,1,-3.603273498535156,7.9475524108886715,4.452017987060547
5910162621129,2.534813697,1,-3.5110967346191404,8.008604553222655,4.76924970703125
5910167620243,2.539812811,1,-3.6056677001953124,8.037334973144532,5.021837982177734
5910172625712,2.54481828,1,-3.527856146240234,8.034940771484374,5.2816088623046875
5910177624045,2.549816613,1,-3.6535517333984373,8.048108880615233,5.384559533691406
5910182620660,2.554813228,1,-3.7529111022949215,7.990648040771484,5.481524700927734
5910187620920,2.559813488,1,-3.882197991943359,7.9272016967773435,5.616797094726562
5910192620504,2.564813072,1,-4.02824429321289,7.82065972290039,5.747281085205078
5910197620868,2.569813436,1,-4.1934442077636715,7.772775689697265,5.88015927734375
5910202617379,2.574809947,1,-4.316745593261719,7.76319888305664,6.040570788574218
5910207621285,2.579813853,1,-4.335899206542969,7.813477117919922,6.236895324707031
5910212621233,2.584813801,1,-4.338293408203125,7.888894470214844,6.405686541748047
5910217620608,2.589813176,1,-4.25808765258789,7.970297326660156,6.567295153808593
5910222621493,2.594814061,1,-4.282029669189453,7.961917620849609,6.7085530517578125
5910227621337,2.599813905,1,-4.139574670410156,7.924807495117187,6.871358764648437
5910232621285,2.604813853,1,-3.9037458068847655,7.8541785461425775,6.93959351196289
5910237620868,2.609813436,1,-3.8582559753417964,7.80150610961914,6.849810949707031
5910242619254,2.614811822,1,-3.831919757080078,7.684190228271484,6.610390783691406
5910247621181,2.619813749,1,-3.840299462890625,7.45075556640625,6.337451794433593
5910252620764,2.624813332,1,-3.706224169921875,7.254431030273437,6.07768091430664
5910257620920,2.629813488,1,-3.611653204345703,7.090428216552734,5.835866546630859
5910262622014,2.634814582,1,-3.4165257690429685,6.922834100341796,5.5078609191894525
5910267621129,2.639813697,1,-3.299209887695312,6.839037042236328,5.289988568115234
5910272621233,2.644813801,1,-3.1854853088378903,6.809109521484374,5.092466931152344
5910277621077,2.649813645,1,-3.0885201416015624,6.628347296142578,4.73094248046875
5910282621129,2.654813697,1,-3.0142998901367184,6.611587884521484,4.359841223144531
5910287621441,2.659814009,1,-3.005920184326172,6.687005236816406,4.000710974121094
5910292620608,2.664813176,1,-2.996343377685547,6.526593725585937,3.793612530517578
5910297621598,2.669814166,1,-2.986766571044922,6.497863305664062,3.469198205566406
5910302620348,2.674812916,1,-2.881421697998047,6.4356140625,3.2154128295898436
5910307620868,2.679813436,1,-2.8718448913574215,6.380547424316406,3.0430303100585934
5910312622118,2.684814686,1,-2.863465185546875,6.400898138427734,2.8000188415527343
5910317621441,2.689814009,1,-2.9472622436523435,6.4834980957031245,2.536656658935547
5910322621337,2.694813905,1,-2.9700071594238278,6.590040069580078,2.5151088439941405
5910327621181,2.699813749,1,-3.0142998901367184,6.777984899902344,2.3582886352539063
5910332620608,2.704813176,1,-3.047818713378906,7.000645654296875,2.5139117431640625
5910337622014,2.709814582,1,-3.0801404357910154,7.3657614074707025,2.6623522460937497
5910342621754,2.714814322,1,-3.114856359863281,7.802703210449218,2.77727392578125
5910347621441,2.719814009,1,-3.1854853088378903,7.994239343261718,2.849099975585937
5910352620816,2.724813384,1,-3.208230224609375,8.210914593505859,3.068169427490234
5910357621233,2.729813801,1,-3.3782185424804685,8.325836273193358,3.2142157287597652
5910362622691,2.734815259,1,-3.4584242980957027,8.380902911376953,3.257311358642578
5910367619462,2.73981203,1,-3.5110967346191404,8.358157995605469,3.343502618408203
5910372621285,2.744813853,1,-3.5338416503906247,8.276755139160155,3.3782185424804685
5910377621545,2.749814113,1,-3.5122938354492184,8.201337786865233,3.355473626708984
5910382621025,2.754813593,1,-3.517082238769531,7.9846625366210935,3.4739866088867184
5910387621181,2.759813749,1,-3.478775012207031,7.790732202148437,3.506308331298828
5910392621597,2.764814165,1,-3.3590649291992185,7.540538128662109,3.585316986083984
5910397621545,2.769814113,1,-3.3674446350097655,7.325059979248047,3.6439749267578123
5910402621181,2.774813749,1,-3.333925811767578,7.025784771728516,3.6762966491699216
5910407621493,2.779814061,1,-3.3195606018066406,6.811503723144531,3.6188358093261717
5910412621806,2.784814374,1,-3.1352070739746094,6.506243011474609,3.537432952880859
5910417621389,2.789813957,1,-3.0909143432617188,6.317101080322265,3.5290532470703124
5910422621285,2.794813853,1,-3.009511486816406,6.166266375732421,3.469198205566406
5910427621650,2.799814218,1,-2.913743420410156,5.9974751586914055,3.404554760742187
5910432621962,2.80481453,1,-2.8311434631347656,5.935225915527344,3.2561142578125
5910437621545,2.809814113,1,-2.8335376647949215,5.874173773193359,3.2620997619628906
5910442621754,2.814814322,1,-2.7665000183105466,5.904101293945312,3.1735143005371094
5910447621545,2.819814113,1,-2.6599580444335937,5.936423016357422,3.123236065673828
5910452621441,2.824814009,1,-2.6036943054199218,5.914875201416015,3.0705636291503904
5910457620556,2.829813124,1,-2.560598675537109,6.076483813476562,2.9640216552734375
5910462621389,2.834813957,1,-2.5617957763671875,6.206967803955078,2.910152117919922
5910467621597,2.839814165,1,-2.50912333984375,6.343437298583984,2.9939491760253905
5910472621702,2.84481427,1,-2.546233465576172,6.606799481201172,2.941276739501953
5910477622222,2.84981479,1,-2.608482708740234,6.738480572509765,2.896984008789062
5910482621597,2.854814165,1,-2.731784094238281,6.9168485961914055,2.932897033691406
5910487620764,2.859813332,1,-3.009511486816406,7.13112964477539,3.0550013183593747
5910492622379,2.864814947,1,-3.162740393066406,7.216123803710937,3.0992940490722654
5910497621754,2.869814322,1,-3.375824340820312,7.447164263916015,3.3207577026367185
5910502621285,2.874813853,1,-3.4715924072265625,7.7763669921875,3.6535517333984373
5910507621650,2.879814218,1,-3.489548919677734,8.15345375366211,3.9731776550292968
5910512622275,2.884814843,1,-3.6667198425292966,8.604760766601562,4.284423870849609
5910517621441,2.889814009,1,-3.6739024475097652,8.688557824707031,4.698620758056641
5910522621389,2.894813957,1,-3.7720647155761715,8.840589630126953,5.078101721191406
5910527621181,2.899813749,1,-3.9815573608398434,9.024943157958983,5.3570262145996095
5910532621337,2.904813905,1,-4.102464544677734,9.166201055908203,5.728127471923828
5910537621285,2.909813853,1,-4.272452862548828,9.288305340576171,6.141127258300781
5910542621337,2.914813905,1,-4.3610383239746096,9.258377819824219,6.470329986572265
5910547621181,2.919813749,1,-4.441244079589843,9.226056097412108,6.617573388671874
5910552621441,2.924814009,1,-4.431667272949219,9.131485131835937,6.810306622314453
5910557621910,2.929814478,1,-4.429273071289062,8.985438830566405,7.07366880493164
5910562621441,2.934814009,1,-4.544194750976562,8.78552299194336,7.098807922363281
5910567621285,2.939813853,1,-4.516661431884765,8.474276776123046,7.186196282958984
5910572620972,2.94481354,1,-4.642357019042969,8.177395770263672,7.259219433593749
5910577621858,2.949814426,1,-4.661510632324219,7.8721350585937495,7.15028325805664
5910582621024,2.954813592,1,-4.723759875488281,7.495048297119141,7.117961535644531
5910587621389,2.959813957,1,-4.358644122314453,7.539341027832031,6.642712506103515
5910592622118,2.964814686,1,-4.049792108154296,6.864176159667968,6.681019732666015
5910597621754,2.969814322,1,-3.841496563720703,6.459556079101562,6.297947467041015
5910602621702,2.97481427,1,-3.603273498535156,6.353014105224609,5.671863732910156
5910607621233,2.979813801,1,-3.5422213562011717,6.016628771972656,5.321113189697265
5910612620764,2.984813332,1,-3.362656231689453,5.792770916748046,4.824316345214844
5910617620764,2.989813332,1,-3.31357509765625,5.5844753723144525,4.41131655883789
5910622621754,2.994814322,1,-3.0166940917968748,5.418078356933593,3.9468414367675777
5910627621233,2.999813801,1,-2.826355059814453,5.36899722290039,3.5589807678222654
5910632621129,3.004813697,1,-2.7736826232910157,5.370194323730469,3.1076737548828124
5910637621285,3.009813853,1,-2.7461493041992187,5.379771130371093,2.7174188842773437
5910642621285,3.014813853,1,-2.77727392578125,5.483918902587891,2.4061726684570313
5910647621181,3.019813749,1,-2.8012159423828122,5.743689782714843,2.1787235107421874
5910652627535,3.024820103,1,-2.7329811950683593,6.104017132568359,1.8243816650390623
5910657621024,3.029813592,1,-2.6204537170410154,6.459556079101562,1.7585411193847655
5910662622795,3.034815363,1,-2.5725696838378904,6.822277630615234,1.696291876220703
5910667621337,3.039813905,1,-2.6312276245117188,7.216123803710937,1.600523809814453
5910672621493,3.044814061,1,-2.6862942626953124,7.455543969726562,1.5155296508789062
5910677621493,3.049814061,1,-2.8000188415527343,7.678204724121093,1.3874398620605468
5910682620816,3.054813384,1,-2.855085479736328,7.819462622070312,1.408987677001953
5910687621441,3.059814009,1,-2.978386865234375,7.990648040771484,1.3551181396484375
5910692620920,3.064813488,1,-3.095702746582031,8.072050897216796,1.399410870361328
5910697621702,3.06981427,1,-3.1304186706542967,8.169016064453125,1.5155296508789062
5910702621493,3.074814061,1,-3.0502129150390624,8.26837543334961,1.725022296142578
5910707622118,3.079814686,1,-3.0406361083984375,8.295908752441406,2.033874310302734
5910712621077,3.084813645,1,-3.046621612548828,8.245630517578125,2.1966800231933594
5910717621285,3.089813853,1,-3.0909143432617188,8.189366778564453,2.507926239013672
5910722621337,3.094813905,1,-3.1603461914062496,8.06965669555664,2.8658593872070313
5910727620764,3.099813332,1,-3.1639374938964844,7.918821990966796,3.0633810241699218
5910732621285,3.104813853,1,-3.2034418212890623,7.720103253173828,3.3698388366699215
5910737618993,3.109811561,1,-3.209427325439453,7.487865692138671,3.6451720275878903
5910742621702,3.11481427,1,-3.1483751831054687,7.350199096679687,3.886986395263672
5910747621337,3.119813905,1,-3.1471780822753903,7.157465863037109,4.1192239562988275
5910752621233,3.124813801,1,-3.104082452392578,7.0090253601074215,4.317942694091797
5910757621649,3.129814217,1,-3.1268273681640624,6.830657336425781,4.578910675048828
5910762621962,3.13481453,1,-3.2225954345703123,6.736086370849609,4.641159918212891
5910767621858,3.139814426,1,-3.23696064453125,6.582857464599609,4.8686090759277345
5910772621806,3.144814374,1,-3.180696905517578,6.517016918945312,4.976348150634766
5910777621910,3.149814478,1,-3.0980969482421874,6.570886456298828,5.182249493408203
5910782620816,3.154813384,1,-3.19865341796875,6.514622717285156,5.181052392578125
5910787621493,3.159814061,1,-3.189076611328125,6.551732843017578,5.17746109008789
5910792621701,3.164814269,1,-3.450044592285156,6.712144354248046,5.305550878906249
5910797621441,3.169814009,1,-3.4344822814941405,6.736086370849609,5.397727642822265
5910802621441,3.174814009,1,-3.4572271972656248,6.666654522705078,5.4887073059082025
5910807620920,3.179813488,1,-3.4955344238281247,6.791153009033203,5.510255120849609
5910812621129,3.184813697,1,-3.507505432128906,7.025784771728516,5.574898565673828
5910817621129,3.189813697,1,-3.5517981628417967,7.259219433593749,5.607220288085937
5910822621545,3.194814113,1,-3.7146038757324216,7.663839514160156,5.817910034179687
5910827620660,3.199813228,1,-3.8690298828125,7.805097412109374,5.816712933349609
5910832621545,3.204814113,1,-3.994725469970703,8.028955267333984,5.898115789794922
5910837621701,3.209814269,1,-3.9719805541992184,8.258798626708984,5.938817218017578
5910842621545,3.214814113,1,-4.077325427246094,8.438363751220702,6.0896519226074215
5910847620868,3.219813436,1,-4.21978042602539,8.572439044189453,6.0142345703124995
5910852622743,3.224815311,1,-4.2688615600585935,8.627505682373046,5.985504150390625
5910857621597,3.229814165,1,-4.4005426513671875,8.61792887573242,5.960365032958984
5910862621545,3.234814113,1,-4.422090466308593,8.655039001464843,5.910086798095703
5910867621701,3.239814269,1,-4.450820886230469,8.611943371582031,5.84185205078125
5910872621337,3.244813905,1,-4.298789080810547,8.463502868652343,5.820304235839844
5910877620712,3.24981328,1,-4.158728283691406,8.335413079833984,5.604826086425781
5910882621389,3.254813957,1,-4.132392065429687,8.104372619628906,5.374982727050781
5910887621649,3.259814217,1,-4.025850091552734,7.863755352783203,5.067327813720703
5910892621233,3.264813801,1,-3.968389251708984,7.596801867675781,4.763264202880859
5910897622118,3.269814686,1,-3.763685009765625,7.332242584228515,4.517858532714843
5910902621649,3.274814217,1,-3.6152445068359373,7.167042669677734,4.153939880371094
5910907621493,3.279814061,1,-3.423708374023437,7.089231115722656,3.8953661010742184
5910912621285,3.284813853,1,-3.333925811767578,6.864176159667968,3.5960908935546874
5910917620920,3.289813488,1,-3.2537200561523436,6.5601125488281244,3.2716765686035156
5910922621806,3.294814374,1,-3.123236065673828,6.421248852539062,3.0310593017578125
5910927621129,3.299813697,1,-3.0035259826660154,6.171054779052734,2.81558115234375
5910932621545,3.304814113,1,-2.863465185546875,6.013037469482422,2.583343591308594
5910937621181,3.309813749,1,-2.7473464050292966,5.930437512207031,2.27927998046875
5910942621806,3.314814374,1,-2.5725696838378904,5.889736083984375,2.0542250244140625
5910947621649,3.319814217,1,-2.598905902099609,5.925649108886718,1.8770541015625
5910952621701,3.324814269,1,-2.527079852294922,5.862202764892578,1.7393875061035156
5910957621962,3.32981453,1,-2.5103204406738278,5.955576629638672,1.5933412048339843
5910962620816,3.334813384,1,-2.4516625,6.022614276123046,1.5286977600097655
5910967621597,3.339814165,1,-2.3116017028808593,6.186617089843749,1.5789759948730469
5910972622379,3.344814947,1,-2.360682836914062,6.251260534667968,1.466448516845703
5910977621597,3.349814165,1,-2.3714567443847656,6.421248852539062,1.4401122985839843
5910982621076,3.354813644,1,-2.4875755249023435,6.64630380859375,1.3934253662109375
5910987620660,3.359813228,1,-2.6300305236816404,6.715735656738281,1.5849614990234373
5910992622274,3.364814842,1,-2.7653029174804686,6.947973217773437,1.6843208679199217
5910997621024,3.369813592,1,-2.663549346923828,7.055712292480468,1.8231845642089843
5911002621493,3.374814061,1,-2.711433380126953,7.196970190429687,2.009932293701172
5911007617170,3.379809738,1,-2.7449522033691403,7.345410693359375,2.242169854736328
5911012621910,3.384814478,1,-2.778471026611328,7.485471490478515,2.4768016174316405
5911017621181,3.389813749,1,-2.9472622436523435,7.52737001953125,2.7341782958984373
5911022622014,3.394814582,1,-3.289633081054687,7.584830859375,3.071760729980469
5911027621285,3.399813853,1,-3.527856146240234,7.614758380126952,3.400963458251953
5911032621493,3.404814061,1,-3.6260184143066403,7.789535101318359,3.6427778259277344
5911037621649,3.409814217,1,-3.7624879089355465,7.911639385986327,4.021061688232422
5911042621597,3.414814165,1,-3.7229835815429686,7.9846625366210935,4.358644122314453
5911047621181,3.419813749,1,-4.011484881591796,8.29351455078125,4.704606262207031
5911052621337,3.424813905,1,-3.821145849609375,8.355763793945313,5.0769046203613275
5911057619722,3.42981229,1,-3.7146038757324216,8.348581188964843,5.42645806274414
5911062621441,3.434814009,1,-3.7289690856933593,8.251616021728514,5.668272430419922
5911067620920,3.439813488,1,-3.8271313537597655,8.142679846191406,5.870582470703124
5911072622118,3.444814686,1,-3.872621185302734,8.080430603027343,5.9579708312988275
5911077620712,3.44981328,1,-3.939658831787109,8.014590057373047,6.094440325927734
5911082620556,3.454813124,1,-3.9420530334472654,7.921216192626953,6.167463476562499
5911087620868,3.459813436,1,-4.060566015625,7.882908966064453,6.309918475341797
5911092621441,3.464814009,1,-4.317942694091797,7.800309008789062,6.449979272460937
5911097621701,3.469814269,1,-4.484339709472656,7.773972790527344,6.60799658203125
5911102620972,3.47481354,1,-4.6818613464355465,7.766790185546874,6.854599353027344
5911107620712,3.47981328,1,-4.510675927734375,7.807491613769531,7.058106494140625
5911112621233,3.484813801,1,-4.546588952636719,7.886500268554687,7.179013677978515
5911117621649,3.489814217,1,-4.53940634765625,7.957129217529296,7.266402038574219
5911122622066,3.494814634,1,-4.450820886230469,7.981071234130859,7.271190441894531
5911127621493,3.499814061,1,-4.37300933227539,7.899668377685546,7.175422375488281
5911132620764,3.504813332,1,-4.304774584960938,7.734468463134765,7.082048510742187
5911137626545,3.509819113,1,-4.322731097412109,7.560888842773437,6.891709478759765
5911142623889,3.514816457,1,-4.191050006103516,7.382520819091797,6.453570574951171
5911147621233,3.519813801,1,-4.030638494873046,7.122749938964843,6.1279591491699215
5911152621597,3.524814165,1,-3.831919757080078,6.974309436035155,5.6407391113281244
5911157621024,3.529813592,1,-3.7481226989746093,6.985083343505859,5.255272644042968
5911162621389,3.534813957,1,-3.5242648437499997,6.867767462158203,4.819527941894531
5911167621076,3.539813644,1,-3.3674446350097655,6.694187841796874,4.490325213623047
5911172621441,3.544814009,1,-3.2261867370605466,6.566098052978515,3.9528269409179684
5911177621285,3.549813853,1,-3.1352070739746094,6.368576416015625,3.6260184143066403
5911182621597,3.554814165,1,-3.057395520019531,6.234501123046875,3.201047619628906
5911187622222,3.55981479,1,-2.9664158569335934,6.114791040039062,2.807201446533203
5911192621753,3.564814321,1,-2.9364883361816405,6.065709906005859,2.4444798950195312
5911197621285,3.569813853,1,-2.906560815429687,6.048950494384766,2.1260510742187497
5911202621180,3.574813748,1,-2.768894219970703,6.09683452758789,1.8411410766601561
5911207620399,3.579812967,1,-2.5953145996093747,6.189011291503906,1.648407843017578
5911212621962,3.58481453,1,-2.5546131713867184,6.2009822998046875,1.4125789794921875
5911217621701,3.589814269,1,-2.5438392639160154,6.194996795654297,1.1695675109863282
5911222696962,3.59488953,1,-2.492363928222656,6.212953308105468,0.9971849914550781
5911227636805,3.599829373,1,-2.4875755249023435,6.285976458740234,0.8595183959960937
5911232631649,3.604824217,1,-2.5151088439941405,6.4643444824218745,0.8188169677734375
5911237634774,3.609827342,1,-2.5629928771972654,6.665457421875,0.8224082702636718
5911242635816,3.614828384,1,-2.5629928771972654,6.910863092041015,0.8966285217285156
5911247631597,3.619824165,1,-2.5629928771972654,7.182604980468749,1.1061211669921875
5911252635243,3.624827811,1,-2.586934893798828,7.416039642333984,1.408987677001953
5911257635347,3.629827915,1,-2.6491841369628903,7.632714892578124,1.5658078857421873
5911262633055,3.634825623,1,-2.8383260681152342,7.750030773925781,1.830367169189453
5911267632535,3.639825103,1,-2.9987375793457027,7.880514764404296,2.1164742675781247
5911272634878,3.644827446,1,-3.1364041748046874,7.7967177062988275,2.3822306518554686
5911277635972,3.64982854,1,-3.257311358642578,7.8709379577636716,2.6575638427734374
5911282635555,3.654828123,1,-3.450044592285156,7.862558251953125,3.075352032470703
5911287631805,3.659824373,1,-3.5805285827636717,8.052897283935547,3.4201170715332028
5911292635139,3.664827707,1,-3.6559459350585937,8.154650854492187,3.8079777404785156
5911297634670,3.669827238,1,-3.6439749267578123,8.091204510498047,4.197035510253906
5911302634670,3.674827238,1,-3.6343981201171873,8.067262493896484,4.4819455078125
5911307631597,3.679824165,1,-3.6954502624511716,8.033743670654296,4.766855505371093
5911312635712,3.68482828,1,-3.69664736328125,7.976282830810546,4.978742352294922
5911317634983,3.689827551,1,-3.901351605224609,7.838616235351562,5.293579870605469
5911322674618,3.694867186,1,-3.928884924316406,7.706935144042968,5.4887073059082025
5911327632274,3.699824842,1,-4.011484881591796,7.602787371826172,5.585672473144531
5911332634983,3.704827551,1,-4.067748620605468,7.5716627502441405,5.894524487304687
5911337634253,3.709826821,1,-4.06655151977539,7.551312036132812,6.062118603515625
5911342635295,3.714827863,1,-4.042609503173828,7.588422161865234,6.247669232177734
5911347631493,3.719824061,1,-3.9935283691406247,7.641094598388672,6.48589229736328
5911352635764,3.724828332,1,-4.112041351318359,7.651868505859374,6.661866119384765
5911357632222,3.72982479,1,-4.153939880371094,7.6614453125,6.806715319824218
5911362636285,3.734828853,1,-4.298789080810547,7.596801867675781,6.872555865478515
5911367631649,3.739824217,1,-4.222174627685547,7.570465649414062,6.9515645202636716
5911372635191,3.744827759,1,-4.235342736816406,7.588422161865234,6.8976949829101555
5911377634878,3.749827446,1,-4.14316597290039,7.540538128662109,7.005434057617187
5911382635087,3.754827655,1,-4.021061688232422,7.523778717041015,6.775590698242187
5911387629305,3.759821873,1,-4.113238452148437,7.431601953125,6.604405279541015
5911392637274,3.764829842,1,-4.035426898193359,7.278373046874999,6.414066247558593
5911397634618,3.769827186,1,-3.8798037902832028,7.109581829833984,6.149506964111327
5911402635087,3.774827655,1,-3.812766143798828,6.949170318603516,5.79037671508789
5911407632743,3.779825311,1,-3.7158009765625,6.884526873779296,5.379771130371093
5911412635399,3.784827967,1,-3.706224169921875,6.719326959228515,4.8877626892089845
5911417683837,3.789876405,1,-3.621230010986328,6.537367633056641,4.554968658447265
5911422731285,3.794923853,1,-3.5673604736328124,6.545747338867187,4.139574670410156
5911427640243,3.799832811,1,-3.3698388366699215,6.514622717285156,3.793612530517578
5911432633524,3.804826092,1,-3.0909143432617188,6.639121203613281,3.5039141296386718
5911437633524,3.809826092,1,-2.929305731201172,6.724115362548828,3.2716765686035156
5911442635295,3.814827863,1,-2.877830395507812,6.698976245117187,3.0729578308105467
5911447631910,3.819824478,1,-2.8514941772460936,6.6139820861816405,2.7724855224609373
5911452633680,3.824826248,1,-2.6886884643554687,6.682216833496093,2.445676995849609
5911457636128,3.829828696,1,-2.6946739685058594,6.694187841796874,2.1416133850097654
5911462634462,3.83482703,1,-2.8036101440429686,6.714538555908203,1.7621324218749999
5911467632378,3.839824946,1,-2.8694506896972656,6.618770489501952,1.6747440612792968
5911472636128,3.844828696,1,-2.896984008789062,6.639121203613281,1.5490484741210937
5911477635607,3.849828175,1,-2.991554974365234,6.669048724365234,1.4257470886230468
5911482631649,3.854824217,1,-2.958036151123047,6.742071875,1.465251416015625
5911487632326,3.859824894,1,-2.900575311279297,6.873752966308594,1.3910311645507811
5911492635243,3.864827811,1,-2.8107927490234372,7.036558679199218,1.4975731384277342
5911497636076,3.869828644,1,-2.7856536315917966,7.254431030273437,1.6651672546386718
5911502635920,3.874828488,1,-2.8371289672851563,7.289146954345703,1.696291876220703
5911507631805,3.879824373,1,-2.9041666137695312,7.426813549804687,1.8459294799804686
5911512635555,3.884828123,1,-2.8514941772460936,7.510610607910156,2.043451116943359
5911517632326,3.889824894,1,-2.9640216552734375,7.556100439453124,2.2290017456054687
5911522636232,3.8948288,1,-3.0119056884765625,7.474697583007812,2.4875755249023435
5911527633524,3.899826092,1,-3.1220389648437497,7.467514978027343,2.5917232971191404
5911532634670,3.904827238,1,-3.189076611328125,7.453149768066406,2.7617116149902343
5911537635191,3.909827759,1,-3.3387142150878906,7.3466077941894525,2.9652187561035155
5911542634774,3.914827342,1,-3.4093431640625,7.343016491699219,3.161543292236328
5911547660451,3.919853019,1,-3.5601778686523438,7.333439685058593,3.446453289794922
5911552634618,3.924827186,1,-3.5517981628417967,7.454346868896484,3.77326181640625
5911557634410,3.929826978,1,-3.5110967346191404,7.471106280517578,4.031835595703125
5911562636024,3.934828592,1,-3.4057518615722655,7.521384515380859,4.351461517333984
5911567632639,3.939825207,1,-3.611653204345703,7.502230902099609,4.6627077331542965
5911572636337,3.944828905,1,-3.5613749694824217,7.362170104980469,4.933252520751953
5911577635139,3.949827707,1,-3.708618371582031,7.319074475097656,5.130774157714844
5911582634097,3.954826665,1,-3.833116857910156,7.271190441894531,5.2444987365722655
5911587631493,3.959824061,1,-3.957615344238281,7.332242584228515,5.4887073059082025
5911592634982,3.96482755,1,-4.088099334716796,7.389703424072265,5.633556506347656
5911597634670,3.969827238,1,-4.11802685546875,7.583633758544922,5.856217260742187
5911602636180,3.974828748,1,-4.12401235961914,7.846995941162109,6.138733056640625
5911607632326,3.979824894,1,-4.072537023925781,8.045714678955077,6.368576416015625
5911612634097,3.984826665,1,-4.064157318115234,8.164227661132813,6.591237170410156
5911617655451,3.989848019,1,-4.125209460449218,8.360552197265624,6.665457421875
5911622647899,3.994840467,1,-4.2137949218749995,8.402450726318358,6.815095025634765
5911627634514,3.999827082,1,-4.31554849243164,8.461108666992187,6.865373260498046
5911632635399,4.004827967,1,-4.247313745117188,8.463502868652343,6.926425402832031
5911637634982,4.00982755,1,-4.177881896972656,8.316259466552735,6.9156514953613275
5911642636180,4.014828748,1,-4.180276098632812,8.291120349121094,6.874950067138672
5911647657587,4.019850155,1,-4.132392065429687,8.125920434570313,6.696582043457031
5911652639930,4.024832498,1,-4.096479040527344,7.957129217529296,6.518214019775391
5911657633993,4.029826561,1,-3.9647979492187497,7.682993127441406,6.357802508544921
5911662632951,4.034825519,1,-4.000710974121094,7.463923675537109,6.193799694824218
5911667634149,4.039826717,1,-3.8043864379882812,7.16943687133789,5.922057806396484
5911672636337,4.044828905,1,-3.6655227416992187,6.892906579589844,5.7137622619628905
5911677635607,4.049828175,1,-3.422511273193359,6.742071875,5.316324786376953
5911682634930,4.054827498,1,-3.2537200561523436,6.394912634277343,4.9416322265625
5911687635191,4.059827759,1,-3.229778039550781,6.309918475341797,4.564545465087891
5911692636337,4.064828905,1,-3.1663316955566403,6.15429536743164,4.095281939697266
5911697634618,4.069827186,1,-3.1376012756347653,5.963956335449218,3.706224169921875
5911702635347,4.074827915,1,-3.0741549316406247,5.871779571533203,3.3686417358398435
5911707632066,4.079824634,1,-3.0047230834960934,5.689820245361328,3.114856359863281
5911712634305,4.084826873,1,-2.952050646972656,5.585672473144531,2.7329811950683593
5911717636493,4.089829061,1,-2.912546319580078,5.622782598876952,2.501940734863281
5911722637066,4.094829634,1,-2.895786907958984,5.720944866943359,2.194285821533203
5911727675399,4.099867967,1,-2.8431144714355465,5.899312890625,2.062604730224609
5911732638107,4.104830675,1,-2.798821740722656,6.203376501464843,1.924938134765625
5911737636180,4.109828748,1,-2.81558115234375,6.4272343566894525,1.7980454467773437
5911742634982,4.11482755,1,-2.7760768249511716,6.567295153808593,1.6699556579589843
5911747631649,4.119824217,1,-2.816778253173828,6.740874774169922,1.4449007019042968
5911752636441,4.124829009,1,-2.9556419494628905,6.880935571289062,1.2820949890136717
5911757635555,4.129828123,1,-3.0214824951171875,7.043741284179687,1.2617442749023438
5911762635139,4.134827707,1,-3.0801404357910154,7.234080316162109,1.1911153259277343
5911767631493,4.139824061,1,-3.153163586425781,7.461529473876952,1.2030863342285156
5911772634930,4.144827498,1,-3.23696064453125,7.656656909179687,1.2808978881835937
5911777635034,4.149827602,1,-3.286041778564453,7.867346655273437,1.6053122131347655
5911782635503,4.154828071,1,-3.2704794677734372,8.0828248046875,1.7980454467773437
5911787632587,4.159825155,1,-3.3446997192382812,8.157045056152343,2.127248175048828
5911792635555,4.164828123,1,-3.470395306396484,8.379705810546875,2.327164013671875
5911797635555,4.169828123,1,-3.573345977783203,8.432378247070313,2.626439221191406
5911802635972,4.17482854,1,-3.6834792541503902,8.445546356201172,2.858676782226562
5911807633628,4.179826196,1,-3.754108203125,8.334215979003906,3.104082452392578
5911812636649,4.184829217,1,-3.7924154296875,8.371326104736328,3.547009759521484
5911817635451,4.189828019,1,-3.842693664550781,8.287529046630858,3.9432501342773434
5911822634930,4.194827498,1,-3.8187516479492185,8.251616021728514,4.206612316894531
5911827667743,4.199860311,1,-3.906140008544922,8.125920434570313,4.587290380859375
5911832636232,4.2048288,1,-3.9372646301269527,8.046911779785155,4.898536596679687
5911837634566,4.209827134,1,-3.9240965209960934,7.955932116699218,5.157110375976562
5911842634930,4.214827498,1,-3.9169139160156248,7.802703210449218,5.4779333984375
5911847632482,4.21982505,1,-3.796006732177734,7.6099699768066404,5.646724615478515
5911852635295,4.224827863,1,-3.688267657470703,7.4794859863281244,5.793968017578124
5911857635607,4.229828175,1,-3.7229835815429686,7.414842541503906,5.955576629638672
5911862634670,4.234827238,1,-3.6679169433593746,7.339425189208984,6.105214233398437
5911867631753,4.239824321,1,-3.5996821960449217,7.171831072998047,6.291961962890625
5911872638159,4.244830727,1,-3.585316986083984,7.147889056396484,6.349422802734375
5911877635139,4.249827707,1,-3.5410242553710933,7.101202124023437,6.514622717285156
5911882636805,4.254829373,1,-3.5589807678222654,7.011419561767577,6.582857464599609
5911887663316,4.259855884,1,-3.5589807678222654,7.022193469238281,6.641515405273437
5911892635139,4.264827707,1,-3.4572271972656248,7.052120989990234,6.754042883300781
5911897634878,4.269827446,1,-3.42849677734375,7.038952880859375,6.751648681640624
5911902634722,4.27482729,1,-3.5506010620117183,7.03536157836914,6.584054565429687
5911907656909,4.279849477,1,-3.6942531616210936,6.945579016113281,6.475118389892578
5911912634930,4.284827498,1,-3.6822821533203123,6.961141326904296,6.332663391113281
5911917635243,4.289827811,1,-3.621230010986328,6.918045697021484,6.105214233398437
5911922635399,4.294827967,1,-3.5051112304687497,6.873752966308594,5.931634613037109
5911927671493,4.299864061,1,-3.4452561889648434,6.922834100341796,5.772420202636718
5911932714045,4.304906613,1,-3.3710359375,6.93959351196289,5.481524700927734
5911937635972,4.30982854,1,-3.4093431640625,6.823474731445312,5.145139367675781
5911942635972,4.31482854,1,-3.374627239990234,6.710947253417968,4.686649749755859
5911947631649,4.319824217,1,-3.299209887695312,6.663063220214843,4.25808765258789
5911952635711,4.324828279,1,-3.306392492675781,6.683413934326172,3.8762124877929685
5911957635139,4.329827707,1,-3.308786694335937,6.612784985351562,3.5398271545410154
5911962635555,4.334828123,1,-3.199850518798828,6.5601125488281244,3.1387983764648437
5911967631284,4.339823852,1,-3.201047619628906,6.544550238037109,2.883815899658203
5911972635191,4.344827759,1,-3.0454245117187497,6.40329234008789,2.5139117431640625
5911977632378,4.349824946,1,-3.0801404357910154,6.459556079101562,2.2373814514160153
5911982635659,4.354828227,1,-3.066972326660156,6.5026517089843745,2.0733786376953125
5911987632274,4.359824842,1,-3.0214824951171875,6.563703851318359,1.9488801513671874
5911992635659,4.364828227,1,-2.9891607727050777,6.6271501953125,1.8052280517578123
5911997635711,4.369828279,1,-2.9556419494628905,6.742071875,1.5837643981933593
5912002634930,4.374827498,1,-2.981978167724609,6.781576202392578,1.4329296936035156
5912007633107,4.379825675,1,-2.999934680175781,6.886921075439453,1.274912384033203
5912012635295,4.384827863,1,-3.0071172851562498,7.05451519165039,1.2533645690917967
5912017634722,4.38982729,1,-2.9831752685546875,7.134720947265625,1.2665326782226562
5912022635347,4.394827915,1,-2.978386865234375,7.314286071777343,1.3156138122558594
5912027633003,4.399825571,1,-2.93050283203125,7.419630944824219,1.4257470886230468
5912032636857,4.404829425,1,-2.8993782104492185,7.620743884277343,1.5454571716308594
5912037635139,4.409827707,1,-2.9831752685546875,7.6099699768066404,1.6448165405273436
5912042635972,4.41482854,1,-3.1304186706542967,7.693767034912109,1.8698714965820311
5912047632378,4.419824946,1,-3.2357635437011716,7.7608046813964835,1.9919757812499999
5912052636597,4.424829165,1,-3.35188232421875,7.842207537841796,2.2385785522460937
5912057635295,4.429827863,1,-3.3506852233886715,7.843404638671874,2.6467899353027344
5912062635816,4.434828384,1,-3.402160559082031,7.9295958984374995,2.8371289672851563
5912067633107,4.439825675,1,-3.392583752441406,7.951143713378905,3.24294614868164
5912072636388,4.444828956,1,-3.5302503479003904,7.93558140258789,3.7146038757324216
5912077636284,4.449828852,1,-3.484760516357422,7.885303167724609,4.042609503173828
5912082635920,4.454828488,1,-3.5230677429199218,7.660248211669922,4.485536810302734
5912087631545,4.459824113,1,-3.547009759521484,7.615955480957031,4.6830584472656245
5912092633003,4.464825571,1,-3.5960908935546874,7.510610607910156,5.031414788818359
5912097635711,4.469828279,1,-3.6535517333984373,7.532158422851562,5.258863946533203
5912102635711,4.474828279,1,-3.7385458923339843,7.558494641113281,5.443217474365234
5912107631701,4.479824269,1,-3.8235400512695312,7.566874346923828,5.76523759765625
5912112636284,4.484828852,1,-3.805583538818359,7.569268548583984,6.011840368652344
5912117635399,4.489827967,1,-3.8295255554199215,7.5333555236816405,6.25006343383789
5912122634670,4.494827238,1,-3.871424084472656,7.521384515380859,6.475118389892578
5912127632586,4.499825154,1,-3.8367081604003905,7.518990313720702,6.527790826416015
5912132636232,4.5048288,1,-4.054580511474609,7.472303381347656,6.630741497802734
5912137636284,4.509828852,1,-4.163516687011718,7.495048297119141,6.785167504882812
5912142634878,4.514827446,1,-4.347870214843749,7.466317877197265,6.913257293701172
5912147666649,4.519859217,1,-4.422090466308593,7.530961322021484,6.943184814453125
5912152635920,4.524828488,1,-4.226963031005859,7.632714892578124,7.038952880859375
5912157634670,4.529827238,1,-4.080916729736328,7.696161236572265,7.181407879638671
5912162636336,4.534828904,1,-4.007893579101562,7.78235249633789,7.127538342285156
5912167633159,4.539825727,1,-4.025850091552734,7.720103253173828,6.943184814453125
5912172636388,4.544828956,1,-3.9528269409179684,7.657854010009765,6.739677673339843
5912177644045,4.549836613,1,-3.9408559326171875,7.606378674316406,6.402095239257812
5912182638472,4.55483104,1,-3.7924154296875,7.329848382568359,6.099228729248047
5912187632691,4.559825259,1,-3.7505169006347656,7.163451367187499,5.835866546630859
5912192636545,4.564829113,1,-3.6391865234374996,7.043741284179687,5.598840582275391
5912197634982,4.56982755,1,-3.564966271972656,6.979097839355468,5.2444987365722655
5912202636857,4.574829425,1,-3.469198205566406,6.986280444335937,4.903325
5912207632378,4.579824946,1,-3.3315316101074215,6.890512377929687,4.619612103271484
5912212635555,4.584828123,1,-3.305195391845703,6.842628344726562,4.274847064208984
5912217634566,4.589827134,1,-3.1675287963867187,6.785167504882812,3.900154504394531
5912222635972,4.59482854,1,-3.1352070739746094,6.907271789550781,3.6152445068359373
5912227631753,4.599824321,1,-3.1076737548828124,6.866570361328125,3.323151904296875
5912232640086,4.604832654,1,-3.1352070739746094,6.726509564208984,3.0262708984374997
5912237638888,4.609831456,1,-3.075352032470703,6.643909606933593,2.760514514160156
5912242638680,4.614831248,1,-3.1088708557128903,6.5014546081542965,2.653972540283203
5912247635399,4.619827967,1,-3.0322564025878904,6.412869146728515,2.3738509460449215
5912252636284,4.624828852,1,-2.9364883361816405,6.354211206054687,2.098517755126953
5912257635868,4.629828436,1,-3.001131781005859,6.349422802734375,1.9285294372558592
5912262635816,4.634828384,1,-2.886210101318359,6.392518432617187,1.7609353210449217
5912267631805,4.639824373,1,-2.9185318237304685,6.305130072021484,1.6148890197753905
5912272634826,4.644827394,1,-2.8706477905273435,6.414066247558593,1.399410870361328
5912277635347,4.649827915,1,-2.925714428710937,6.414066247558593,1.3838485595703125
5912282636076,4.654828644,1,-2.8694506896972656,6.4739212890625,1.3850456604003905
5912287632899,4.659825467,1,-2.85388837890625,6.643909606933593,1.227028350830078
5912292636440,4.664829008,1,-2.8658593872070313,6.785167504882812,1.380257257080078
5912297634826,4.669827394,1,-2.8730419921875,6.912060192871094,1.5753846923828123
5912302635920,4.674828488,1,-2.93050283203125,7.025784771728516,1.581370196533203
5912307632638,4.679825206,1,-2.959233251953125,7.228094812011718,1.7585411193847655
5912312636545,4.684829113,1,-3.005920184326172,7.4220251464843745,1.9333178405761717
5912317636024,4.689828592,1,-3.005920184326172,7.498639599609374,2.070984436035156
5912322636128,4.694828696,1,-3.071760729980469,7.539341027832031,2.3546973327636715
5912327632430,4.699824998,1,-3.1651345947265623,7.809885815429687,2.529474053955078
5912332678055,4.704870623,1,-3.2884359802246093,7.9283987976074215,2.893392706298828
5912337636961,4.709829529,1,-3.380612744140625,8.062474090576172,3.1735143005371094
5912342635555,4.714828123,1,-3.7385458923339843,8.058882788085937,3.5877111877441403
5912347632586,4.719825154,1,-3.7158009765625,8.042123376464843,3.9983167724609374
5912352637170,4.724829738,1,-3.8474820678710935,8.008604553222655,4.378994836425781
5912357635190,4.729827758,1,-3.9432501342773434,8.099584216308592,4.697423657226563
5912362635243,4.734827811,1,-3.8845921936035155,8.068459594726562,5.092466931152344
5912367659201,4.739851769,1,-3.8474820678710935,8.173804467773436,5.33068999633789
5912372635243,4.744827811,1,-3.939658831787109,8.161833459472655,5.566518859863281
5912377634670,4.749827238,1,-3.9624037475585934,8.06367119140625,5.722141967773437
5912382632482,4.75482505,1,-4.011484881591796,7.989450939941406,5.951985327148437
5912387632430,4.759824998,1,-3.9731776550292968,7.915230688476562,6.139930157470703
5912392635763,4.764828331,1,-4.021061688232422,7.851784344482422,6.417657550048828
5912397635555,4.769828123,1,-4.00310517578125,7.712920648193359,6.552929943847656
5912402634982,4.77482755,1,-4.064157318115234,7.6231380859375,6.6702458251953125
5912407633524,4.779826092,1,-4.121618157958984,7.466317877197265,6.734889270019531
5912412632378,4.784824946,1,-4.25808765258789,7.406462835693359,6.812700823974609
5912417636493,4.789829061,1,-4.207809417724609,7.326257080078125,6.787561706542968
5912422635399,4.794827967,1,-4.005499377441406,7.357381701660156,6.8402341430664055
5912427631909,4.799824477,1,-3.8462849670410155,7.195773089599609,6.9527616210937495
5912432636597,4.804829165,1,-3.7612908081054686,7.13112964477539,6.79953271484375
5912437637534,4.809830102,1,-3.754108203125,7.019799267578125,6.58884296875
5912442637013,4.814829581,1,-3.699041564941406,6.873752966308594,6.21175620727539
5912447632430,4.819824998,1,-3.6930560607910152,6.860584857177734,5.9579708312988275
5912452636076,4.824828644,1,-3.6343981201171873,6.744466076660156,5.704185455322265
5912457635243,4.829827811,1,-3.4356793823242184,6.667851623535156,5.42645806274414
5912462635868,4.834828436,1,-3.3387142150878906,6.611587884521484,5.093664031982422
5912467632326,4.839824894,1,-3.1543606872558594,6.554127044677734,4.691438153076172
5912472633003,4.844825571,1,-3.0789433349609374,6.514622717285156,4.301183282470703
5912477636545,4.849829113,1,-3.0310593017578125,6.457161877441406,3.854664672851562
5912482636649,4.854829217,1,-3.028665100097656,6.379350323486328,3.5230677429199218
5912487631232,4.8598238,1,-3.0789433349609374,6.362590911865234,3.0262708984374997
5912492636493,4.864829061,1,-3.116053460693359,6.296750366210937,2.7246014892578123
5912497635086,4.869827654,1,-3.076549133300781,6.372167718505859,2.588131994628906
5912502635399,4.874827967,1,-2.9496564453125,6.5026517089843745,2.3511060302734372
5912507632065,4.879824633,1,-2.893392706298828,6.625953094482422,2.194285821533203
5912512636076,4.884828644,1,-2.7569232116699216,6.716932757568359,2.088940948486328
5912517635138,4.889827706,1,-2.845508673095703,6.7085530517578125,1.8171990600585937
5912522635607,4.894828175,1,-2.8981811096191405,6.779182000732422,1.7741034301757812
5912527632638,4.899825206,1,-2.9173347229003905,6.828263134765624,1.5346832641601562
5912532635867,4.904828435,1,-3.0071172851562498,6.861781958007812,1.4867992309570313
5912537636492,4.90982906,1,-2.971204260253906,6.99705435180664,1.426944189453125
5912542636128,4.914828696,1,-2.971204260253906,7.040149981689453,1.4999673400878906
5912547633420,4.919825988,1,-2.958036151123047,7.206546997070312,1.68551796875
5912552634826,4.924827394,1,-2.980781066894531,7.382520819091797,1.9704279663085937
5912557634878,4.929827446,1,-2.9664158569335934,7.654262707519531,2.100911956787109
5912562635867,4.934828435,1,-2.925714428710937,7.772775689697265,2.357091534423828
5912567631805,4.939824373,1,-3.1376012756347653,7.996633544921875,2.6288334228515624
5912572636128,4.944828696,1,-3.2058360229492187,7.904456781005859,2.912546319580078
5912577634513,4.949827081,1,-3.1771056030273437,7.837419134521484,3.1579519897460937
5912582635920,4.954828488,1,-3.2824504760742186,7.78235249633789,3.404554760742187
5912587658576,4.959851144,1,-3.3770214416503905,7.632714892578124,3.754108203125
5912592635711,4.964828279,1,-3.5781343811035153,7.511807708740234,3.892971899414062
5912597635347,4.969827915,1,-3.745728497314453,7.425616448974609,4.140771771240234
5912602636336,4.974828904,1,-3.816357446289062,7.44357296142578,4.404133953857421
5912607633003,4.979825571,1,-3.845087866210937,7.485471490478515,4.6255976074218745
5912612635190,4.984827758,1,-3.778050219726562,7.401674432373047,5.003881469726562
5912617635138,4.989827706,1,-3.7924154296875,7.349001995849609,5.251681341552734
5912622634774,4.994827342,1,-3.8079777404785156,7.396886029052734,5.434837768554687
5912627632117,4.999824685,1,-3.877409588623047,7.345410693359375,5.5844753723144525
5912632635503,5.004828071,1,-3.851073370361328,7.40526573486328,5.722141967773437
5912637632899,5.009825467,1,-3.8750153869628905,7.445967163085937,5.853823059082031
5912642637638,5.014830206,1,-3.9336733276367184,7.305906365966797,5.894524487304687
5912647632690,5.019825258,1,-3.919308117675781,7.278373046874999,5.862202764892578
5912652636180,5.024828748,1,-3.8857892944335934,7.2723875427246085,5.922057806396484
5912657635347,5.029827915,1,-3.8654385803222655,7.286752752685547,5.9208607055664055
5912662642274,5.034834842,1,-3.9624037475585934,7.30351216430664,5.98191284790039
5912667634774,5.039827342,1,-4.02824429321289,7.320271575927734,5.945999822998046
5912672630920,5.044823488,1,-4.182670300292968,7.401674432373047,5.90529839477539
5912677636336,5.049828904,1,-4.224568829345703,7.539341027832031,5.96275923461914
5912682635503,5.054828071,1,-4.167107989501953,7.688978631591796,5.993883856201172
5912687632117,5.059824685,1,-3.997119671630859,7.991845141601562,6.074089611816406
5912692635555,5.064828123,1,-3.7421371948242186,8.105569720458984,6.119579443359375
5912697634982,5.06982755,1,-3.8103719421386715,8.172607366943359,5.94360562133789
5912702636336,5.074828904,1,-3.8989574035644528,8.131905938720703,5.741295581054687
5912707631909,5.079824477,1,-3.9456443359374997,8.105569720458984,5.550956549072265
5912712635451,5.084828019,1,-3.758896606445312,7.991845141601562,5.306747979736328
5912717634774,5.089827342,1,-3.649960430908203,7.9846625366210935,5.149927770996094
5912722631805,5.094824373,1,-3.4715924072265625,7.734468463134765,5.092466931152344
5912727632013,5.099824581,1,-3.353079425048828,7.495048297119141,4.880580084228515
5912732635347,5.104827915,1,-3.3482910217285156,7.2723875427246085,4.6076410949707025
5912737681128,5.109873696,1,-3.2644939636230466,6.985083343505859,4.398148449707031
5912742637117,5.114829685,1,-3.1974563171386716,6.762422589111328,4.046200805664062
5912747631805,5.119824373,1,-3.1759085021972653,6.697779144287109,3.9049429077148434
5912752635867,5.124828435,1,-3.057395520019531,6.467935784912109,3.611653204345703
5912757636492,5.12982906,1,-3.065775225830078,6.260837341308593,3.417722869873047
5912762635763,5.134828331,1,-2.977189764404297,6.021417175292968,3.1639374938964844
5912767631440,5.139824008,1,-2.924517327880859,5.797559320068359,2.999934680175781
5912772636753,5.144829321,1,-2.8562825805664063,5.606023187255859,2.7844565307617186
5912777634878,5.149827446,1,-2.8107927490234372,5.461173986816406,2.360682836914062
5912782636180,5.154828748,1,-2.8239608581542965,5.331887097167969,2.1260510742187497
5912787631544,5.159824112,1,-2.7844565307617186,5.240907434082031,1.868674395751953
5912792635711,5.164828279,1,-2.664746447753906,5.406107348632812,1.7357962036132812
5912797635972,5.16982854,1,-2.712630480957031,5.556942053222656,1.675941162109375
5912802634513,5.174827081,1,-2.6491841369628903,5.798756420898437,1.6244658264160154
5912807633472,5.17982604,1,-2.598905902099609,6.07768091430664,1.638831036376953
5912812636128,5.184828696,1,-2.6372131286621094,6.25006343383789,1.6711527587890624
5912817635503,5.189828071,1,-2.6886884643554687,6.681019732666015,1.6699556579589843
5912822636128,5.194828696,1,-2.7329811950683593,7.098807922363281,1.8136077575683593
5912827632482,5.19982505,1,-2.7653029174804686,7.387309222412109,1.8662801940917968
5912832637065,5.204829633,1,-3.143586779785156,7.666233715820312,2.023100402832031
5912837670451,5.209863019,1,-3.1411925781249996,7.770381488037109,2.118868469238281
5912842637378,5.214829946,1,-3.314772198486328,7.977479931640625,2.460042205810547
5912847632326,5.219824894,1,-3.5589807678222654,8.134300140380859,2.8000188415527343
5912852635190,5.224827758,1,-3.7110125732421873,8.097190014648437,3.068169427490234
5912857635294,5.229827862,1,-3.925293621826172,8.231265307617187,3.27526787109375
5912862634982,5.23482755,1,-4.070142822265625,8.339004382324218,3.6272155151367187
5912867632482,5.23982505,1,-4.220977526855468,8.528146313476562,4.1383775695800775
5912872635034,5.244827602,1,-4.2125978210449215,8.737638958740234,4.5968671875
5912877635399,5.249827967,1,-4.094084838867187,8.926780889892578,4.878185882568359
5912882636597,5.254829165,1,-4.18147319946289,8.945934503173827,5.355829113769531
5912887632638,5.259825206,1,-4.2137949218749995,8.902838873291016,5.7125651611328125
5912892635399,5.264827967,1,-4.260481854248047,8.836998327636719,5.900509991455078
5912897637065,5.269829633,1,-4.338293408203125,8.71489404296875,6.185419989013671
5912902635763,5.274828331,1,-4.3442789123535155,8.51617530517578,6.320692382812499
5912907632013,5.279824581,1,-4.349067315673828,8.33780728149414,6.436811163330078
5912912636440,5.284829008,1,-4.346673114013671,8.147468249511718,6.637924102783202
5912917635294,5.289827862,1,-4.426878869628906,7.933187200927734,6.800729815673828
5912922636232,5.2948288,1,-4.364629626464843,7.750030773925781,6.90128628540039
5912927632430,5.299824998,1,-4.091690637207031,7.574056951904296,7.034164477539062
5912932636753,5.304829321,1,-3.8139632446289062,7.416039642333984,7.123947039794921
5912937635763,5.309828331,1,-3.7576995056152342,7.176619476318359,7.137115148925781
5912942636753,5.314829321,1,-3.6367923217773437,6.974309436035155,6.983886242675781
5912947633263,5.319825831,1,-3.622427111816406,6.743268975830078,6.648698010253906
5912952635399,5.324827967,1,-3.518279339599609,6.453570574951171,6.537367633056641
5912957635815,5.329828383,1,-3.3961750549316405,6.13514175415039,6.224924316406249
5912962634565,5.334827133,1,-3.2800562744140622,5.917269403076172,5.949591125488281
5912967628836,5.339821404,1,-3.095702746582031,5.76523759765625,5.482721801757812
5912972636076,5.344828644,1,-2.9652187561035155,5.600037683105469,5.157110375976562
5912977635919,5.349828487,1,-2.896984008789062,5.5461681457519525,4.69263525390625
5912982634774,5.354827342,1,-2.8467057739257813,5.480327600097656,4.282029669189453
5912987632378,5.359824946,1,-2.7162217834472653,5.397727642822265,3.8295255554199215
5912992636128,5.364828696,1,-2.849099975585937,5.450400079345703,3.314772198486328
5912997634096,5.369826664,1,-2.797624639892578,5.504269616699219,2.977189764404297
5913002635763,5.374828331,1,-2.7964275390625,5.667075329589843,2.6767174560546874
5913007633055,5.379825623,1,-2.8119898498535156,5.811924530029296,2.4301146850585935
5913012636128,5.384828696,1,-2.7641058166503907,6.023811376953125,2.023100402832031
5913017636336,5.389828904,1,-2.816778253173828,6.191405493164062,1.9237410339355467
5913022635919,5.394828487,1,-2.8598738830566406,6.4643444824218745,1.7226280944824217
5913027632846,5.399825414,1,-2.9891607727050777,6.681019732666015,1.5981296081542968
5913032635138,5.404827706,1,-3.142389678955078,7.025784771728516,1.6579846496582031
5913037634617,5.409827185,1,-3.2309751403808593,7.283161450195312,1.4520833068847656
5913042636961,5.414829529,1,-3.324349005126953,7.5165961120605465,1.6364368347167968
5913047632430,5.419824998,1,-3.3686417358398435,7.747636572265624,1.6508020446777343
5913052635190,5.424827758,1,-3.333925811767578,8.044517578125,1.8243816650390623
5913057634930,5.429827498,1,-3.4727895080566404,8.309076861572265,1.85790048828125
5913062634461,5.434827029,1,-3.5685575744628903,8.456320263671875,2.2254104431152344
5913067632378,5.439824946,1,-3.7768531188964842,8.534131817626953,2.2002713256835937
5913072635399,5.444827967,1,-3.9145197143554684,8.615534674072265,2.3738509460449215
5913077635763,5.449828331,1,-3.907337109375,8.555679632568358,2.6324247253417967
5913082635711,5.454828279,1,-3.7576995056152342,8.52335791015625,3.0705636291503904
5913087631701,5.459824269,1,-3.689464758300781,8.643067993164061,3.427299676513672
5913092636857,5.464829425,1,-3.784035723876953,8.693346228027343,3.867832781982422
5913097635399,5.469827967,1,-3.9504327392578125,8.756792572021483,4.331110803222656
5913102635763,5.474828331,1,-3.9133226135253905,8.718485345458983,4.671087438964843
5913107632742,5.47982531,1,-3.6092590026855467,8.650250598144531,5.080495922851562
5913112635242,5.48482781,1,-3.2225954345703123,8.577227447509765,5.77122310180664
5913117633732,5.4898263,1,-3.678690850830078,8.29950005493164,6.011840368652344
5913122637690,5.494830258,1,-3.7816415222167965,8.323442071533202,5.932831713867187
5913127631701,5.499824269,1,-4.1563340820312495,7.570465649414062,6.054935998535156
5913132636076,5.504828644,1,-4.234145635986328,7.48906279296875,6.0333881835937495
5913137635242,5.50982781,1,-4.144363073730468,7.252036828613281,6.37815322265625
5913142637326,5.514829894,1,-3.920505218505859,7.049726788330077,6.884526873779296
5913147638784,5.519831352,1,-3.630806817626953,6.919242797851562,7.01620796508789
5913152640086,5.524832654,1,-3.446453289794922,6.731297967529296,7.0832456115722655
5913157635138,5.529827706,1,-3.6056677001953124,6.5768719604492185,6.830657336425781
5913162636388,5.534828956,1,-3.7158009765625,6.253654736328125,6.581660363769531
5913167632065,5.539824633,1,-3.843890765380859,5.985504150390625,6.369773516845703
5913172635086,5.544827654,1,-3.8989574035644528,5.817910034179687,6.224924316406249
5913177635919,5.549828487,1,-3.7696705139160156,5.680243438720702,5.966350537109375
5913182636492,5.55482906,1,-3.4680011047363277,5.724536169433593,5.833472344970703
5913187632951,5.559825519,1,-3.208230224609375,5.737704278564453,5.485116003417969
5913192636492,5.56482906,1,-3.065775225830078,5.716156463623046,4.978742352294922
5913197634878,5.569827446,1,-3.068169427490234,5.693411547851563,4.406528155517578
5913202635034,5.574827602,1,-3.1184476623535153,5.65031591796875,3.958812445068359
5913207631440,5.579824008,1,-3.209427325439453,5.7137622619628905,3.5290532470703124
5913212635711,5.584828279,1,-3.116053460693359,5.833472344970703,3.1471780822753903
5913217631596,5.589824164,1,-3.005920184326172,6.0525417968749995,2.9281086303710935
5913222634930,5.594827498,1,-2.971204260253906,6.206967803955078,2.518700146484375
5913227631805,5.599824373,1,-3.049015814208984,6.386532928466797,2.2493524597167966
5913232635190,5.604827758,1,-3.084928839111328,6.5206082214355465,1.9428946472167967
5913237634826,5.609827394,1,-3.084928839111328,6.643909606933593,1.6651672546386718
5913242640503,5.614833071,1,-3.1088708557128903,6.898892083740234,1.5634136840820312
5913247633315,5.619825883,1,-3.1842882080078123,7.116764434814453,1.4161702819824218
5913252637742,5.62483031,1,-3.219004132080078,7.332242584228515,1.3910311645507811
5913257635034,5.629827602,1,-3.1783027038574216,7.502230902099609,1.4113818786621093
5913262635763,5.634828331,1,-3.1759085021972653,7.708132244873046,1.5167267517089842
5913267631648,5.639824216,1,-3.3315316101074215,7.8338278320312495,1.5263035583496092
5913272636648,5.644829216,1,-3.289633081054687,8.192958081054687,1.744175909423828
5913277635346,5.649827914,1,-3.2836475769042965,8.291120349121094,2.059013427734375
5913282636284,5.654828852,1,-3.4249054748535155,8.43357534790039,2.3343466186523436
5913287632586,5.659825154,1,-3.564966271972656,8.479065179443358,2.6228479187011717
5913292635346,5.664827914,1,-3.494337322998047,8.400056524658202,3.028665100097656
5913297636284,5.669828852,1,-3.484760516357422,8.321047869873047,3.294421484375
5913302635086,5.674827654,1,-3.5589807678222654,8.270769635009765,3.6810850524902343
5913307632326,5.679824894,1,-3.6679169433593746,8.125920434570313,3.909731311035156
5913312634773,5.684827341,1,-3.81156904296875,7.999027746582031,4.265270257568359
5913317635867,5.689828435,1,-3.9995138732910154,7.876923461914062,4.553771557617187
5913322634461,5.694827029,1,-4.054580511474609,7.8541785461425775,5.108029241943359
5913327632378,5.699824946,1,-3.9707834533691404,7.81467421875,5.459976885986328
5913332634617,5.704827185,1,-3.9145197143554684,7.875726361083984,5.813121630859374
5913337634617,5.709827185,1,-3.907337109375,7.702146740722656,6.087257720947266
5913342676596,5.714869164,1,-3.9528269409179684,7.808688714599609,6.32667788696289
5913347632951,5.719825519,1,-4.083310931396484,7.5716627502441405,6.5409589355468745
5913352635503,5.724828071,1,-4.229357232666016,7.513004809570312,6.6893994384765625
5913357635451,5.729828019,1,-4.3263223999023435,7.645883001708984,6.768408093261718
5913362635451,5.734828019,1,-4.197035510253906,7.331045483398437,6.955155822753905
5913367632638,5.739825206,1,-4.159925384521484,7.317877374267578,7.003039855957031
5913372636076,5.744828644,1,-4.174290594482422,7.269993341064453,6.962338427734375
5913377635555,5.749828123,1,-4.088099334716796,7.340622290039062,6.853402252197265
5913382635659,5.754828227,1,-4.040215301513672,7.1395093505859375,6.890512377929687
5913387631857,5.759824425,1,-4.011484881591796,7.0473325866699215,6.604405279541015
5913392635919,5.764828487,1,-3.9049429077148434,6.810306622314453,6.414066247558593
5913397634357,5.769826925,1,-3.7900212280273435,6.891709478759765,6.15429536743164
5913402635867,5.774828435,1,-3.630806817626953,6.68461103515625,5.888538983154296
5913407633628,5.779826196,1,-3.5051112304687497,6.619967590332031,5.517437725830078
5913412635867,5.784828435,1,-3.3710359375,6.6331356994628905,5.061342309570312
5913417634409,5.789826977,1,-3.286041778564453,6.459556079101562,4.742913488769531
5913422635867,5.794828435,1,-3.3159692993164063,6.455964776611328,4.4376527770996095
5913427633003,5.799825571,1,-3.326743206787109,6.643909606933593,4.185064501953125
5913432636805,5.804829373,1,-3.327940307617187,6.685808135986328,3.835511059570312
5913437633419,5.809825987,1,-3.2441432495117186,6.603208178710937,3.6152445068359373
5913442672169,5.814864737,1,-3.2118215270996093,6.864176159667968,3.3877953491210935
5913447632534,5.819825102,1,-3.2142157287597652,6.616376287841796,3.0550013183593747
5913452635450,5.824828018,1,-3.2213983337402343,6.755239984130859,2.895786907958984
5913457634617,5.829827185,1,-3.181894006347656,6.982689141845703,2.786850732421875
5913462634617,5.834827185,1,-3.2441432495117186,6.980294940185546,2.5761609863281247
5913467630555,5.839823123,1,-3.1938650146484373,7.157465863037109,2.5917232971191404
5913472634669,5.844827237,1,-3.161543292236328,7.061697796630859,2.443282794189453
5913477635555,5.849828123,1,-3.0741549316406247,7.217320904541015,2.3127988037109373
5913482634773,5.854827341,1,-3.0047230834960934,7.206546997070312,2.365471240234375
5913487632742,5.85982531,1,-3.0214824951171875,7.262810736083984,2.2493524597167966
5913492635763,5.864828331,1,-3.1483751831054687,7.056909393310547,2.057816326904297
5913497635294,5.869827862,1,-3.0741549316406247,7.168239770507812,2.0745757385253905
5913502634930,5.874827498,1,-3.0693665283203124,6.853402252197265,1.926135235595703
5913507632378,5.879824946,1,-3.049015814208984,6.828263134765624,1.9871873779296874
5913512635867,5.884828435,1,-3.0789433349609374,6.8031240173339835,2.023100402832031
5913517635138,5.889827706,1,-3.1938650146484373,6.891709478759765,2.1619640991210938
5913522634825,5.894827393,1,-3.1651345947265623,6.968323931884766,2.3415292236328122
5913527631753,5.899824321,1,-3.1124621582031247,7.041347082519531,2.479195819091797
5913532636023,5.904828591,1,-3.0885201416015624,7.080851409912109,2.731784094238281
5913537636023,5.909828591,1,-3.0609868225097654,7.0844427124023435,2.829946362304687
5913542635555,5.914828123,1,-3.1196447631835937,7.032967376708984,2.906560815429687
5913547633107,5.919825675,1,-3.2022447204589843,7.09282241821289,2.9496564453125
5913552636961,5.924829529,1,-3.3123779968261715,6.9336080078124995,2.883815899658203
5913557636388,5.929828956,1,-3.2513258544921873,6.80551821899414,2.8993782104492185
5913562635867,5.934828435,1,-3.2740707702636715,7.011419561767577,2.912546319580078
5913567631909,5.939824477,1,-3.374627239990234,6.839037042236328,3.1794998046874996
5913572635971,5.944828539,1,-3.2549171569824216,7.017405065917968,3.4871547180175777
5913577635242,5.94982781,1,-3.2417490478515623,7.200561492919921,3.886986395263672
5913582635503,5.954828071,1,-3.1735143005371094,7.357381701660156,4.341884710693359
5913587631440,5.959824008,1,-3.0633810241699218,7.596801867675781,4.722562774658203
5913592634825,5.964827393,1,-2.999934680175781,7.691372833251953,5.068524914550781
5913597634409,5.969826977,1,-2.9831752685546875,7.645883001708984,5.303156677246093
5913602635919,5.974828487,1,-3.1016882507324217,7.513004809570312,5.443217474365234
5913607632586,5.979825154,1,-3.324349005126953,7.4028715332031245,5.4899044067382805
5913612635138,5.984827706,1,-3.6008792968749996,7.350199096679687,5.4899044067382805
5913617635971,5.989828539,1,-3.835511059570312,7.431601953125,5.665878228759765
5913622636544,5.994829112,1,-3.997119671630859,7.518990313720702,5.887341882324218
5913627639513,5.999832081,1,-3.859453076171875,7.586027960205078,6.111199737548827
5913632639617,6.004832185,1,-3.852270471191406,7.638700396728515,6.323086584472656
5913637635659,6.009828227,1,-3.906140008544922,7.712920648193359,6.489483599853515
5913642637169,6.014829737,1,-4.112041351318359,7.714117749023437,6.6271501953125
5913647634096,6.019826664,1,-4.242525341796875,7.777564093017578,6.694187841796874
5913652635867,6.024828435,1,-4.441244079589843,7.856572747802734,6.831854437255859
5913657635502,6.02982807,1,-4.514267230224609,7.940369805908203,6.8773442687988275
5913662634461,6.034827029,1,-4.613626599121093,8.013392956542969,6.957550024414062
5913667632325,6.039824893,1,-4.587290380859375,8.0062103515625,7.048529687499999
5913672635346,6.044827914,1,-4.559757061767578,7.970297326660156,6.900089184570312
5913677636492,6.04982906,1,-4.520252734375,7.821856823730468,6.725312463378906
5913682633263,6.054825831,1,-4.417302062988281,7.733271362304687,6.463147381591797
5913687632013,6.059824581,1,-4.299986181640625,7.539341027832031,6.185419989013671
5913692637534,6.064830102,1,-4.2868180725097655,7.375338214111328,5.762843395996094
5913697636805,6.069829373,1,-4.223371728515625,7.228094812011718,5.304353778076171
5913702636023,6.074828591,1,-4.039018200683594,7.165845568847656,4.835090252685546
5913707631492,6.07982406,1,-3.834313958740234,7.031770275878906,4.473565802001953
5913712629877,6.084822445,1,-3.707421270751953,6.912060192871094,4.16231958618164
5913717635763,6.089828331,1,-3.3877953491210935,6.829460235595703,3.7289690856933593
5913722636752,6.09482932,1,-3.306392492675781,6.5577183471679685,3.383006945800781
5913727632430,6.099824998,1,-3.21780703125,6.373364819335937,3.039439007568359
5913732635450,6.104828018,1,-2.999934680175781,6.224924316406249,2.6779145568847653
5913737635659,6.109828227,1,-3.028665100097656,6.15429536743164,2.3391350219726563
5913742635242,6.11482781,1,-2.825157958984375,6.047753393554687,2.0781670410156248
5913747633940,6.119826508,1,-3.0609868225097654,6.040570788574218,1.8279729675292968
5913752636700,6.124829268,1,-2.844311572265625,6.0716954101562495,1.8064251525878905
5913757635138,6.129827706,1,-2.7557261108398436,6.113593939208984,1.705868682861328
5913762634930,6.134827498,1,-2.482787121582031,6.120776544189453,1.659181750488281
5913767632377,6.139824945,1,-2.7186159851074216,6.300341668701171,1.523909356689453
5913772635450,6.144828018,1,-2.4863784240722655,6.448782171630859,1.455674609375
5913777635867,6.149828435,1,-2.4588451049804685,6.379350323486328,1.476025323486328
5913782635450,6.154828018,1,-2.5258827514648434,6.544550238037109,1.4161702819824218
5913787632065,6.159824633,1,-2.598905902099609,6.6343328002929685,1.543062969970703
5913792635555,6.164828123,1,-2.589329095458984,6.695384942626953,1.6543933471679686
5913797635555,6.169828123,1,-2.4684219116210935,6.90128628540039,1.8004396484374998
5913802636180,6.174828748,1,-2.7341782958984373,6.99705435180664,2.0159177978515626
5913807632586,6.179825154,1,-2.503137835693359,7.179013677978515,2.3786393493652342
5913812636857,6.184829425,1,-2.6479870361328124,7.331045483398437,2.6910826660156246
5913817635711,6.189828279,1,-2.9077579162597655,7.304709265136719,2.9460651428222655
5913822635086,6.194827654,1,-2.8598738830566406,7.329848382568359,3.2692823669433593
5913827633211,6.199825779,1,-2.797624639892578,7.42441934814453,3.6535517333984373
5913832636804,6.204829372,1,-3.087323040771484,7.564480145263672,3.9528269409179684
5913837636284,6.209828852,1,-3.287238879394531,7.484274389648437,4.394557147216797
5913842635294,6.214827862,1,-3.388992449951172,7.451952667236328,4.600458489990234
5913847633784,6.219826352,1,-3.708618371582031,7.472303381347656,4.9260699157714845
5913852637429,6.224829997,1,-3.870226983642578,7.569268548583984,5.327098693847656
5913857636752,6.22982932,1,-4.030638494873046,7.748833673095703,5.606023187255859
5913862636492,6.23482906,1,-4.040215301513672,7.953537915039062,5.942408520507812
5913867631804,6.239824372,1,-4.121618157958984,8.054094384765625,6.337451794433593
5913872634669,6.244827237,1,-3.872621185302734,8.161833459472655,6.592434271240234
5913877635398,6.249827966,1,-3.9827544616699218,8.182184173583984,6.815095025634765
5913882635867,6.254828435,1,-3.758896606445312,8.200140686035155,6.932410906982422
5913887633211,6.259825779,1,-4.046200805664062,8.09479581298828,7.012616662597656
5913892635554,6.264828122,1,-4.150348577880859,7.906850982666016,7.100005023193359
5913897636648,6.269829216,1,-4.351461517333984,7.867346655273437,7.152677459716797
5913902636752,6.27482932,1,-4.298789080810547,7.808688714599609,7.15028325805664
5913907631857,6.279824425,1,-4.582501977539062,7.735665563964844,7.193378887939453
5913912635450,6.284828018,1,-4.302380383300781,7.706935144042968,7.153874560546875
5913917634825,6.289827393,1,-4.206612316894531,7.68059892578125,7.1035963256835934
5913922637586,6.294830154,1,-4.071339923095703,7.569268548583984,6.931213806152344
5913927631961,6.299824529,1,-3.948038537597656,7.395688928222656,6.623558892822265
5913932635502,6.30482807,1,-3.812766143798828,7.152677459716797,6.459556079101562
5913937634252,6.30982682,1,-3.83072265625,7.0269818725585935,6.0896519226074215
5913942635086,6.314827654,1,-3.843890765380859,6.860584857177734,5.6766521362304685
5913947635138,6.319827706,1,-3.815160345458984,6.679822631835937,5.304353778076171
5913952637065,6.324829633,1,-3.6954502624511716,6.76122548828125,4.847061260986328
5913957635815,6.329828383,1,-3.497928625488281,6.637924102783202,4.413710760498047
5913962632221,6.334824789,1,-3.394977954101562,6.436811163330078,4.033032696533203
5913967632013,6.339824581,1,-3.400963458251953,6.453570574951171,3.6463691284179687
5913972634825,6.344827393,1,-3.3291374084472656,6.260837341308593,3.356670727539062
5913977635294,6.349827862,1,-3.2824504760742186,6.199785198974609,3.025073797607422
5913982635554,6.354828122,1,-3.2118215270996093,6.194996795654297,2.7329811950683593
5913987631596,6.359824164,1,-3.2022447204589843,6.198588098144531,2.499546533203125
5913992635815,6.364828383,1,-3.1567548889160153,6.276399652099609,2.261323468017578
5913997634825,6.369827393,1,-3.143586779785156,6.372167718505859,2.081758343505859
5914002635346,6.374827914,1,-3.1842882080078123,6.327874987792969,1.9907786804199217
5914007670763,6.379863331,1,-3.125630267333984,6.643909606933593,1.7944541442871094
5914012650190,6.384842758,1,-3.1352070739746094,6.6510922119140625,1.7238251953125
5914017637950,6.389830518,1,-3.058592620849609,6.768408093261718,1.5921441040039062
5914022632169,6.394824737,1,-3.125630267333984,6.894103680419922,1.5514426757812498
5914027633315,6.399825883,1,-3.172317199707031,6.9910688476562495,1.4520833068847656
5914032635815,6.404828383,1,-3.1687258972167966,7.062894897460937,1.3682862487792968
5914037634252,6.40982682,1,-3.2225954345703123,7.208941198730468,1.3335703247070312
5914042633523,6.414826091,1,-3.27526787109375,7.269993341064453,1.3239935180664062
5914047634461,6.419827029,1,-3.3207577026367185,7.30351216430664,1.3922282653808593
5914052636804,6.424829372,1,-3.2812533752441406,7.4782888854980465,1.4305354919433593
5914057633627,6.429826195,1,-3.220201232910156,7.595604766845702,1.6735469604492186
5914062636752,6.43482932,1,-3.2225954345703123,7.752424975585937,2.038662713623047
5914067631804,6.439824372,1,-3.199850518798828,7.9092451843261715,2.2589292663574216
5914072634513,6.444827081,1,-3.123236065673828,7.931990100097655,2.5163059448242184
5914077634409,6.449826977,1,-3.1471780822753903,7.959523419189453,2.8610709838867185
5914082635606,6.454828174,1,-3.2537200561523436,7.867346655273437,3.143586779785156
5914087631752,6.45982432,1,-3.333925811767578,7.777564093017578,3.4907460205078125
5914092636231,6.464828799,1,-3.4057518615722655,7.825448126220703,3.737348791503906
5914097635138,6.469827706,1,-3.6523546325683593,7.863755352783203,4.132392065429687
5914102635294,6.474827862,1,-3.5039141296386718,7.745242370605468,4.489128112792969
5914107632169,6.479824737,1,-3.4332851806640625,7.785943798828124,4.797980126953124
5914112637221,6.484829789,1,-3.494337322998047,7.660248211669922,5.175066888427734
5914117636179,6.489828747,1,-3.422511273193359,7.418433843994141,5.506663818359375
5914122635034,6.494827602,1,-3.333925811767578,7.167042669677734,5.61200869140625
5914127631961,6.499824529,1,-3.3506852233886715,6.99705435180664,5.742492681884765
5914132636909,6.504829477,1,-3.5110967346191404,6.868964562988281,5.795165118408203
5914137634461,6.509827029,1,-3.775656018066406,6.744466076660156,5.895721588134765
5914142635138,6.514827706,1,-3.906140008544922,6.750451580810546,6.010643267822266
5914147668731,6.519861299,1,-3.902548706054687,6.76122548828125,6.2584431396484375
5914152636804,6.524829372,1,-3.910928411865234,6.9156514953613275,6.476315490722656
5914157636752,6.52982932,1,-3.8666356811523435,7.076063006591797,6.697779144287109
5914162635086,6.534827654,1,-3.8798037902832028,7.195773089599609,6.835445739746094
5914167632638,6.539825206,1,-4.004302276611328,7.321468676757812,6.941987713623046
5914172633679,6.544826247,1,-4.080916729736328,7.332242584228515,6.903680487060546
5914177644044,6.549836612,1,-4.320336895751953,7.400477331542969,6.798335614013672
5914182638367,6.554830935,1,-4.473565802001953,7.4962453979492185,6.681019732666015
5914187632273,6.559824841,1,-4.503493322753906,7.535749725341796,6.580463262939452
5914192635294,6.564827862,1,-4.364629626464843,7.72489165649414,6.548141540527343
5914197635086,6.569827654,1,-4.217386224365234,7.843404638671874,6.38413872680664
5914202636752,6.57482932,1,-3.9636008483886718,7.83981333618164,6.0716954101562495
5914207629096,6.579821664,1,-3.892971899414062,7.862558251953125,5.864596966552734
5914212636023,6.584828591,1,-3.9372646301269527,7.811082916259765,5.38815083618164
5914217634877,6.589827445,1,-3.863044378662109,7.631517791748046,5.040991595458984
5914222634461,6.594827029,1,-3.70263286743164,7.493851196289062,4.617217901611328
5914227631492,6.59982406,1,-3.5194764404296874,7.36097300415039,4.3239281982421875
5914232635554,6.604828122,1,-3.4105402648925778,7.362170104980469,3.900154504394531
5914237636752,6.60982932,1,-3.361459130859375,7.3286512817382805,3.6571430358886716
5914242636648,6.614829216,1,-3.258508459472656,7.094019519042968,3.3674446350097655
5914247631856,6.619824424,1,-3.239354846191406,6.946776116943359,3.0909143432617188
5914252636023,6.624828591,1,-3.1196447631835937,6.806715319824218,2.916137622070312
5914257634825,6.629827393,1,-3.0047230834960934,6.666654522705078,2.7820623291015623
5914262635138,6.634827706,1,-2.8467057739257813,6.640318304443359,2.6144682128906247
5914267631804,6.639824372,1,-2.797624639892578,6.598419775390624,2.527079852294922
5914272635763,6.644828331,1,-2.8191724548339843,6.5756748596191406,2.3582886352539063
5914277635294,6.649827862,1,-2.96881005859375,6.482300994873047,2.224213342285156
5914282636440,6.654829008,1,-3.0214824951171875,6.420051751708984,2.109291662597656
5914287632638,6.659825206,1,-2.9568390502929685,6.347028601074219,2.0362685119628905
5914292635971,6.664828539,1,-2.797624639892578,6.284779357910156,1.954865655517578
5914297635711,6.669828279,1,-2.6036943054199218,6.242880828857421,1.9907786804199217
5914302635242,6.67482781,1,-2.541445062255859,6.254851837158203,1.9045874206542968
5914307631908,6.679824476,1,-2.558204473876953,6.248866333007812,1.7956512451171873
5914312635711,6.684828279,1,-2.5821464904785154,6.301538769531249,1.7968483459472655
5914317634408,6.689826976,1,-2.597708801269531,6.411672045898437,1.9045874206542968
5914322634408,6.694826976,1,-2.5809493896484375,6.661866119384765,2.1883003173828124
5914327631961,6.699824529,1,-2.499546533203125,6.8210805297851556,2.3343466186523436
5914332634825,6.704827393,1,-2.474407415771484,7.020996368408203,2.6396073303222654
5914337635867,6.709828435,1,-2.518700146484375,7.153874560546875,2.7545290100097652
5914342635346,6.714827914,1,-2.6791116577148437,7.259219433593749,2.958036151123047
5914347631179,6.719823747,1,-2.7844565307617186,7.186196282958984,3.019088293457031
5914352640242,6.72483281,1,-2.9843723693847655,7.168239770507812,3.1292215698242187
5914357638367,6.729830935,1,-3.0801404357910154,7.264007836914062,3.394977954101562
5914362638211,6.734830779,1,-3.1555577880859373,7.238868719482421,3.7337574890136715
5914367634200,6.739826768,1,-3.3291374084472656,7.5345526245117185,3.930082025146484
5914372636388,6.744828956,1,-3.4859576171874997,7.5153990112304685,4.327519500732421
5914377635554,6.749828122,1,-3.593696691894531,7.45075556640625,4.73094248046875
5914382635867,6.754828435,1,-3.7158009765625,7.697358337402343,4.934449621582031
5914387631856,6.759824424,1,-3.6750995483398436,7.747636572265624,5.285200164794921
5914392635190,6.764827758,1,-3.708618371582031,7.867346655273437,5.555744952392578
5914397635242,6.76982781,1,-3.7505169006347656,7.923610394287109,5.7077767578125
5914402636596,6.774829164,1,-3.954024041748047,7.874529260253905,5.9376201171875
5914407631752,6.77982432,1,-4.091690637207031,7.841010437011718,6.07768091430664
5914412636023,6.784828591,1,-4.341884710693359,7.775169891357422,6.1459156616210935
5914417635190,6.789827758,1,-4.432864373779297,7.738059765625,6.189011291503906
5914422635190,6.794827758,1,-4.490325213623047,7.742848168945312,6.275202551269531
5914427632638,6.799825206,1,-4.533420843505859,7.7033438415527336,6.324283685302734
5914432635763,6.804828331,1,-4.629188909912109,7.738059765625,6.335057592773437
5914437635919,6.809828487,1,-4.729745379638672,7.8158713195800775,6.366182214355469
5914442635658,6.814828226,1,-4.782417816162109,7.80150610961914,6.302735870361328
5914447631908,6.819824476,1,-4.748898992919922,7.880514764404296,6.244077929687499
5914452636127,6.824828695,1,-4.740519287109374,7.943961108398437,6.256048937988281
5914457628263,6.829820831,1,-4.678270043945313,8.012195855712891,6.155492468261718
5914462633106,6.834825674,1,-4.492719415283203,8.11514652709961,5.92445200805664
5914467632794,6.839825362,1,-4.4568063903808595,8.062474090576172,5.68862314453125
5914472635710,6.844828278,1,-4.335899206542969,7.959523419189453,5.380968231201171
5914477635085,6.849827653,1,-4.29639487915039,7.987056738281249,5.087678527832031
5914482634825,6.854827393,1,-4.128800762939453,7.9092451843261715,4.848258361816406
5914487632221,6.859824789,1,-3.9049429077148434,7.8362220336914055,4.578910675048828
5914492635190,6.864827758,1,-3.7241806823730466,7.728482958984374,4.417302062988281
5914497635919,6.869828487,1,-3.5003228271484375,7.6231380859375,4.080916729736328
5914502636700,6.874829268,1,-3.4548329956054684,7.6231380859375,3.7146038757324216
5914507631804,6.879824372,1,-3.366247534179687,7.447164263916015,3.4488474914550777
5914512635815,6.884828383,1,-3.3590649291992185,7.248445526123047,3.1639374938964844
5914517635398,6.889827966,1,-3.266888165283203,6.950367419433594,2.953247747802734
5914522636700,6.894829268,1,-3.1076737548828124,6.815095025634765,2.6946739685058594
5914527631700,6.899824268,1,-2.896984008789062,6.629544396972656,2.540247961425781
5914532635085,6.904827653,1,-2.7760768249511716,6.5505357421875,2.43250888671875
5914537635138,6.909827706,1,-2.596511700439453,6.41646044921875,2.221819140625
5914542635450,6.914828018,1,-2.536656658935547,6.238092425537109,2.098517755126953
5914547632065,6.919824633,1,-2.479195819091797,6.0716954101562495,1.8447323791503905
5914552719773,6.924912341,1,-2.4396914916992185,5.934028814697265,1.734599102783203
5914557644981,6.929837549,1,-2.337937921142578,5.898115789794922,1.7585411193847655
5914562644721,6.934837289,1,-2.117671368408203,5.821501336669922,1.7836802368164062
5914567638783,6.939831351,1,-1.9752163696289062,5.898115789794922,1.8543091857910154
5914572642950,6.944835518,1,-1.9572598571777342,5.929240411376953,1.9045874206542968
5914577642377,6.949834945,1,-1.9955670837402342,6.004657763671875,2.041056915283203
5914582644252,6.95483682,1,-2.0973206542968748,6.094440325927734,2.051830822753906
5914587639565,6.959832133,1,-2.318784307861328,6.226121417236328,2.270900274658203
5914592643523,6.964836091,1,-2.4480711975097655,6.367379315185547,2.469619012451172
5914597643679,6.969836247,1,-2.567781280517578,6.536170532226562,2.6994623718261717
5914602643158,6.974835726,1,-2.7736826232910157,6.757634185791015,3.0418332092285154
5914607638315,6.979830883,1,-2.9544448486328125,6.964732629394531,3.124433166503906
5914612642585,6.984835153,1,-3.0166940917968748,7.128735443115234,3.3494881225585935
5914617643575,6.989836143,1,-3.113659259033203,7.337030987548828,3.5901053894042967
5914622642638,6.994835206,1,-3.3207577026367185,7.620743884277343,3.909731311035156
5914627639356,6.999831924,1,-3.308786694335937,7.7596075805664055,4.346673114013671
5914632641804,7.004834372,1,-3.402160559082031,7.942764007568359,4.583699078369141
5914637642846,7.009835414,1,-3.5589807678222654,7.979874133300781,4.7931917236328125
5914642643523,7.014836091,1,-3.843890765380859,7.9272016967773435,4.989516259765625
5914647638783,7.019831351,1,-4.260481854248047,7.9834654357910155,5.012261175537109
5914652725138,7.024917706,1,-4.384980340576171,7.887697369384765,5.159504577636718
5914657646804,7.029839372,1,-4.484339709472656,7.884106066894531,5.251681341552734
5914662639460,7.034832028,1,-4.497507818603515,7.989450939941406,5.444414575195312
5914667633002,7.03982557,1,-4.560954162597656,8.092401611328125,5.704185455322265
5914672635398,7.044827966,1,-4.554968658447265,8.313865264892577,5.846640454101562
5914677635398,7.049827966,1,-4.685452648925781,8.416815936279296,5.887341882324218
5914682635763,7.054828331,1,-4.768052606201172,8.426392742919921,6.042964990234375
5914687632585,7.059825153,1,-4.935646722412109,8.42160433959961,5.963956335449218
5914692633210,7.064825778,1,-5.040991595458984,8.330624676513672,5.913678100585937
5914697636492,7.06982906,1,-5.003881469726562,8.333018878173828,5.798756420898437
5914702636335,7.074828903,1,-4.881777185058594,8.283937744140625,5.522226129150391
5914707632273,7.079824841,1,-4.622006304931641,8.180987072753906,5.343858105468749
5914712635346,7.084827914,1,-4.493916516113281,8.030152368164062,5.03740029296875
5914717635710,7.089828278,1,-4.367023828124999,7.880514764404296,4.689043951416015
5914722636492,7.09482906,1,-4.216189123535156,7.704540942382812,4.327519500732421
5914727632012,7.09982458,1,-4.048595007324218,7.4974424987792965,4.0222587890625
5914732636544,7.104829112,1,-3.871424084472656,7.2723875427246085,3.6367923217773437
5914737634981,7.109827549,1,-3.6918589599609373,7.113173132324218,3.2620997619628906
5914742635971,7.114828539,1,-3.4907460205078125,7.011419561767577,2.864662286376953
5914747632273,7.119824841,1,-3.268085266113281,6.931213806152344,2.7054478759765623
5914752635033,7.124827601,1,-2.959233251953125,6.979097839355468,2.6719290527343746
5914757636752,7.12982932,1,-2.77727392578125,7.011419561767577,2.5246856506347655
5914762636544,7.134829112,1,-2.5713725830078125,7.080851409912109,2.536656658935547
5914767631960,7.139824528,1,-2.4564509033203126,7.186196282958984,2.6288334228515624
5914772635710,7.144828278,1,-2.4779987182617185,7.326257080078125,2.7329811950683593
5914777634408,7.149826976,1,-2.5055320373535155,7.438784558105469,2.971204260253906
5914782635606,7.154828174,1,-2.488772625732422,7.589619262695312,3.323151904296875
5914787631700,7.159824268,1,-2.519897247314453,7.697358337402343,3.4620156005859375
5914792635606,7.164828174,1,-2.4959552307128905,7.812280017089844,3.8043864379882812
5914797635554,7.169828122,1,-2.4193407775878906,7.826645227050781,4.1766847961425775
5914802635606,7.174828174,1,-2.3487118286132813,7.80150610961914,4.479551306152343
5914807631544,7.179824112,1,-2.261323468017578,7.691372833251953,4.744110589599609
5914812634356,7.184826924,1,-2.041056915283203,7.550114935302734,5.006275671386718
5914817635137,7.189827705,1,-1.9285294372558592,7.353790399169921,5.270834954833984
5914822634877,7.194827445,1,-1.7657237243652342,7.1586629638671875,5.494692810058593
5914827634773,7.199827341,1,-1.5741875915527344,6.902483386230468,5.720944866943359
5914832636179,7.204828747,1,-1.4041992736816404,6.585251666259765,5.811924530029296
5914837636023,7.209828591,1,-1.2569558715820313,6.241683728027343,5.929240411376953
5914842635502,7.21482807,1,-1.1145008728027344,5.947196923828125,5.968744738769531
5914847652169,7.219844737,1,-1.0654197387695312,5.615599993896484,6.1638721740722655
5914852640137,7.224832705,1,-1.1013327636718748,5.210979913330078,6.193799694824218
5914857638315,7.229830883,1,-1.121683477783203,5.002684368896484,6.405686541748047
5914862638575,7.234831143,1,-1.1611878051757811,4.874594580078124,6.605602380371093
5914867636908,7.239829476,1,-1.2246341491699217,4.8314989501953125,6.730100866699218
