timestamp_ns,t_s,sensor_id,ax,ay,az
5957547557882,0.057684323,1,-3.049015814208984,5.97592734375,3.7110125732421873
5957550366996,0.060493437,1,-2.9759926635742184,5.610811590576172,3.7433342956542965
5957553220277,0.063346718,1,-3.2824504760742186,5.614402893066406,3.7517140014648436
5957556045225,0.066171666,1,-3.2704794677734372,5.659892724609374,3.7984009338378906
5957558934079,0.06906052,1,-3.2692823669433593,5.506663818359375,3.934870428466797
5957561791423,0.071917864,1,-2.929305731201172,5.3570262145996095,3.907337109375
5957564650642,0.074777083,1,-2.721010186767578,5.224148022460938,4.2137949218749995
5957567504496,0.077630937,1,-2.418143676757812,5.318718988037109,4.552574456787109
5957570361632,0.080488073,1,-2.0470424194335934,5.533000036621093,4.752490295410156
5957573220538,0.083346979,1,-1.8626888916015625,5.746083984375,5.027823486328125
5957576051632,0.086178073,1,-1.715445489501953,5.953182427978516,5.249287139892578
5957578932413,0.089058854,1,-1.6400281372070311,6.059724401855468,5.378574029541015
5957581788871,0.091915312,1,-1.7381904052734374,6.233304022216797,5.383362432861328
5957584648975,0.094775416,1,-1.8914193115234375,6.301538769531249,5.220556719970703
5957587503507,0.097629948,1,-2.032677209472656,6.381744525146484,5.099649536132812
5957590359809,0.10048625,1,-2.194285821533203,6.430825659179687,4.905719201660156
5957593220538,0.103346979,1,-2.606088507080078,6.555324145507812,4.825513446044922
5957596077152,0.106203593,1,-2.655169641113281,6.737283471679687,4.613626599121093
5957598931788,0.109058229,1,-2.8143840515136715,7.076063006591797,4.497507818603515
5957601789027,0.111915468,1,-2.9173347229003905,7.487865692138671,4.514267230224609
5957604648663,0.114775104,1,-2.6192566162109374,7.75721337890625,4.4568063903808595
5957607501840,0.117628281,1,-2.3786393493652342,7.74404526977539,4.429273071289062
5957610360798,0.120487239,1,-2.418143676757812,7.577648254394531,4.509478826904297
5957613220798,0.123347239,1,-2.7246014892578123,7.672219219970703,4.3239281982421875
5957616077048,0.126203489,1,-2.778471026611328,8.016984259033203,3.9145197143554684
5957618931944,0.129058385,1,-2.6755203552246094,8.11514652709961,3.7816415222167965
5957621789496,0.131915937,1,-2.8239608581542965,7.961917620849609,3.70263286743164
5957624648402,0.134774843,1,-2.886210101318359,7.696161236572265,3.716998077392578
5957627503663,0.137630104,1,-3.0550013183593747,7.532158422851562,3.716998077392578
5957630361632,0.140488073,1,-3.0454245117187497,7.697358337402343,3.573345977783203
5957633221267,0.143347708,1,-3.1376012756347653,7.886500268554687,3.408146063232422
5957636077986,0.146204427,1,-4.963180041503906,7.554903338623046,3.7110125732421873
5957638931996,0.149058437,1,-3.1112650573730467,5.697002850341796,3.525461944580078
5957641789288,0.151915729,1,-4.649539624023437,5.461173986816406,3.994725469970703
5957644648767,0.154775208,1,-4.592078784179687,6.336254693603515,3.8199487487792965
5957647502934,0.157629375,1,-4.346673114013671,7.137115148925781,3.8295255554199215
5957650361163,0.160487604,1,-4.030638494873046,7.116764434814453,4.102464544677734
5957653219444,0.163345885,1,-3.9360675292968748,6.852205151367187,4.629188909912109
5957656076632,0.166203073,1,-3.9276878234863277,6.9336080078124995,4.80755693359375
5957658931788,0.169058229,1,-3.8750153869628905,7.319074475097656,4.69263525390625
5957661789444,0.171915885,1,-4.161122485351562,7.530961322021484,4.619612103271484
5957664649340,0.174775781,1,-4.444835382080078,7.48906279296875,4.693832354736328
5957667503246,0.177629687,1,-4.604049792480469,7.547720733642578,4.7022120605468745
5957670360382,0.180486823,1,-4.772841009521484,7.908048083496094,4.673481640625
5957673219861,0.183346302,1,-4.774038110351563,8.143876947021484,4.638765716552734
5957676076996,0.186203437,1,-4.774038110351563,8.213308795166014,4.766855505371093
5957678932152,0.189058593,1,-4.642357019042969,8.256404425048828,4.896142395019531
5957681788871,0.191915312,1,-3.7229835815429686,8.256404425048828,5.012261175537109
5957684648090,0.194774531,1,-3.403357659912109,8.428786944580077,4.951209033203125
5957687503298,0.197629739,1,-3.6176387084960937,8.565256439208984,5.257666845703125
5957690360798,0.200487239,1,-3.1184476623535153,8.497021691894531,5.108029241943359
5957693217777,0.203344218,1,-2.7617116149902343,8.620323077392577,4.910507604980468
5957696077465,0.206203906,1,-2.825157958984375,8.896853369140624,4.875791680908203
5957698931163,0.209057604,1,-2.2852654846191407,8.872911352539061,4.624400506591797
5957701789132,0.211915573,1,-1.8471265808105468,8.752004168701172,4.689043951416015
5957704649496,0.214775937,1,-1.659181750488281,8.55448253173828,4.653130926513672
5957707502673,0.217629114,1,-1.3204022155761719,8.43357534790039,4.7560815979003905
5957710361007,0.220487448,1,-0.949300958251953,8.371326104736328,4.6651019348144525
5957713220434,0.223346875,1,-0.5877765075683593,8.360552197265624,4.522646936035156
5957716077204,0.226203645,1,-0.32082302246093747,8.214505895996094,4.442441180419921
5957718932361,0.229058802,1,-0.4213794921875,7.885303167724609,4.586093280029297
5957721789392,0.231915833,1,-0.239420166015625,7.518990313720702,4.383783239746093
5957724648559,0.234775,1,-0.07062894897460938,7.398083129882812,4.191050006103516
5957727503298,0.237629739,1,-0.21906945190429686,7.314286071777343,3.891774798583984
5957730360329,0.24048677,1,-0.11851298217773437,7.216123803710937,3.651157531738281
5957733220069,0.24334651,1,-0.005985504150390624,7.058106494140625,3.3016040893554686
5957736077204,0.246203645,1,-0.3124433166503906,6.839037042236328,3.0514100158691404
5957738932413,0.249058854,1,-0.4381389038085937,6.889315277099609,2.9269115295410155
5957741789079,0.25191552,1,-0.814028564453125,6.491877801513671,2.636016027832031
5957744648663,0.254775104,1,-0.8894459167480468,6.338648895263671,2.3726538452148436
5957747503142,0.257629583,1,-1.0271125122070313,6.254851837158203,2.403778466796875
5957750360225,0.260486666,1,-1.2330138549804688,6.186617089843749,2.0973206542968748
5957753220121,0.263346562,1,-1.6675614562988281,6.030993981933594,2.059013427734375
5957756076996,0.266203437,1,-1.7585411193847655,5.94360562133789,1.9309236389160156
5957758931788,0.269058229,1,-2.0374656127929685,5.971138940429687,1.936909143066406
5957761789079,0.27191552,1,-2.243366955566406,6.021417175292968,1.8339584716796873
5957764649131,0.274775572,1,-2.540247961425781,6.1267620483398435,1.916558428955078
5957767503298,0.277629739,1,-2.597708801269531,6.218938812255859,1.9692308654785156
5957770361059,0.2804875,1,-2.8706477905273435,6.297947467041015,2.133233679199219
5957773220121,0.283346562,1,-2.8802245971679685,6.482300994873047,2.3331495178222657
5957776076684,0.286203125,1,-3.056198419189453,6.956352923583984,2.3451205261230466
5957778932204,0.289058645,1,-3.1387983764648437,7.438784558105469,2.443282794189453
5957781790173,0.291916614,1,-3.3674446350097655,7.857769848632812,2.768894219970703
5957784648819,0.29477526,1,-3.573345977783203,8.348581188964843,3.1950621154785153
5957787503194,0.297629635,1,-3.5027170288085934,9.00100114135742,3.2812533752441406
5957790361006,0.300487447,1,-3.4727895080566404,9.758765966796874,3.527856146240234
5957793220434,0.303346875,1,-3.5003228271484375,10.123881719970703,3.986345764160156
5957796076840,0.306203281,1,-3.388992449951172,10.33696566772461,4.574122271728515
5957798931840,0.309058281,1,-3.388992449951172,10.589553942871094,4.9823336547851556
5957801789079,0.31191552,1,-3.2309751403808593,10.681730706787109,5.322310290527343
5957804649340,0.314775781,1,-3.1280244689941403,10.834959613037109,5.655104321289063
5957807503350,0.317629791,1,-2.910152117919922,10.924742175292968,5.6215854980468745
5957810360434,0.320486875,1,-2.8694506896972656,10.915165368652342,5.928043310546875
5957813220590,0.323347031,1,-2.816778253173828,10.635043774414061,6.172251879882812
5957816076527,0.326202968,1,-2.8886043029785156,10.358513482666016,6.308721374511719
5957818930746,0.329057187,1,-2.9640216552734375,9.976638317871092,6.361393811035156
5957821789079,0.33191552,1,-3.0550013183593747,9.415198028564452,6.214150408935547
5957824661475,0.334787916,1,-3.3195606018066406,8.738836059570312,6.1830257873535155
5957827505694,0.337632135,1,-3.337517114257812,8.23006820678711,5.974730242919922
5957830360902,0.340487343,1,-3.2704794677734372,7.7979148071289055,5.758054992675781
5957833219704,0.343346145,1,-3.2022447204589843,7.426813549804687,5.561730456542969
5957836077673,0.346204114,1,-3.1842882080078123,7.05451519165039,5.627571002197265
5957838931892,0.349058333,1,-2.7174188842773437,6.695384942626953,5.3570262145996095
5957841788767,0.351915208,1,-2.7269956909179687,6.283582257080078,5.365405920410156
5957844649184,0.354775625,1,-2.636016027832031,5.9771244445800775,5.299565374755859
5957847503715,0.357630156,1,-2.589329095458984,5.825092639160156,5.117606048583984
5957850360069,0.36048651,1,-2.5845406921386718,5.748478186035156,5.003881469726562
5957853220121,0.363346562,1,-2.6036943054199218,5.616797094726562,4.855440966796874
5957856048402,0.366174843,1,-2.574963885498047,5.568913061523437,4.608838195800781
5957858932465,0.369058906,1,-2.7281927917480466,5.579686968994141,4.448426684570312
5957861788871,0.371915312,1,-2.7617116149902343,5.577292767333984,4.340687609863281
5957864649184,0.374775625,1,-3.0047230834960934,5.682637640380859,4.177881896972656
5957867502569,0.37762901,1,-2.7545290100097652,5.835866546630859,4.010287780761718
5957870360121,0.380486562,1,-2.913743420410156,6.013037469482422,4.080916729736328
5957873220225,0.383346666,1,-3.0921114440917967,6.0716954101562495,3.9276878234863277
5957876077256,0.386203697,1,-3.5314474487304683,6.327874987792969,3.897760302734375
5957878931527,0.389057968,1,-3.871424084472656,6.610390783691406,3.716998077392578
5957881788767,0.391915208,1,-4.110844250488281,6.884526873779296,3.5422213562011717
5957884648819,0.39477526,1,-4.29639487915039,7.094019519042968,3.4907460205078125
5957887503611,0.397630052,1,-4.316745593261719,7.260416534423828,3.4955344238281247
5957890360121,0.400486562,1,-4.309562988281249,7.433996154785156,3.4572271972656248
5957893219027,0.403345468,1,-4.4184991638183595,7.644685900878906,3.417722869873047
5957896077256,0.406203697,1,-4.4005426513671875,7.66743081665039,3.4261025756835934
5957898931892,0.409058333,1,-3.6571430358886716,7.846995941162109,3.2166099304199216
5957901789340,0.411915781,1,-3.508702532958984,8.104372619628906,3.3387142150878906
5957904648142,0.414774583,1,-3.412934466552734,8.327033374023436,3.4548329956054684
5957907502517,0.417628958,1,-3.015496990966797,8.507795599365235,3.436876483154297
5957910360954,0.420487395,1,-2.760514514160156,8.790311395263672,3.5302503479003904
5957913219704,0.423346145,1,-2.770091320800781,8.911218579101561,3.603273498535156
5957916077204,0.426203645,1,-2.5426421630859375,8.92438668823242,3.6272155151367187
5957918931319,0.42905776,1,-2.488772625732422,9.068038787841797,3.7696705139160156
5957921789340,0.431915781,1,-2.6420015319824217,9.157821350097656,3.7241806823730466
5957924647777,0.434774218,1,-2.8203695556640622,9.080009796142578,3.6379894226074216
5957927503871,0.437630312,1,-2.788047833251953,9.233238702392578,3.6930560607910152
5957930360173,0.440486614,1,-3.025073797607422,9.370905297851563,3.687070556640625
5957933219756,0.443346197,1,-3.31357509765625,9.375693701171874,3.687070556640625
5957936075902,0.446202343,1,-3.35188232421875,9.379285003662108,3.878606689453125
5957938931111,0.449057552,1,-3.3446997192382812,9.279925634765624,4.001908074951172
5957941788663,0.451915104,1,-3.3961750549316405,9.318232861328125,4.06655151977539
5957944648090,0.454774531,1,-3.4907460205078125,9.176974963378905,4.125209460449218
5957947501892,0.457628333,1,-3.575740179443359,8.966285217285156,4.199429711914062
5957950360486,0.460486927,1,-3.746925598144531,8.517372406005858,4.272452862548828
5957953219548,0.463345989,1,-3.854664672851562,8.195352282714843,4.112041351318359
5957956076215,0.466202656,1,-3.842693664550781,7.926004595947266,4.0988732421875
5957958932308,0.469058749,1,-3.8007951354980465,7.606378674316406,4.065354418945312
5957961789288,0.471915729,1,-3.726574884033203,7.4040686340332025,4.094084838867187
5957964648611,0.474775052,1,-3.355473626708984,7.329848382568359,4.033032696533203
5957967502725,0.477629166,1,-3.1735143005371094,7.314286071777343,4.045003704833984
5957970360121,0.480486562,1,-2.876633294677734,7.219715106201171,3.976768957519531
5957973220433,0.483346874,1,-2.493561029052734,7.096413720703125,3.9659950500488277
5957976076475,0.486202916,1,-2.2565350646972653,6.965929730224609,3.9432501342773434
5957978932308,0.489058749,1,-2.269703173828125,6.930016705322266,3.921702319335937
5957981789183,0.491915624,1,-2.1164742675781247,6.945579016113281,3.910928411865234
5957984647881,0.494774322,1,-1.916558428955078,7.011419561767577,3.782838623046875
5957987502413,0.497628854,1,-1.6903063720703124,7.018602166748046,3.925293621826172
5957990360538,0.500486979,1,-1.8830396057128904,7.018602166748046,3.8798037902832028
5957993217881,0.503344322,1,-1.43652099609375,7.042544183349609,3.9636008483886718
5957996076475,0.506202916,1,-1.39821376953125,7.216123803710937,4.116829754638672
5957998930746,0.509057187,1,-1.7681179260253905,7.358578802490234,4.3634325256347655
5958001788819,0.51191526,1,-0.8834604125976562,7.109581829833984,4.234145635986328
5958004646267,0.514772708,1,-1.1168950744628905,7.022193469238281,4.204218115234375
5958007503194,0.517629635,1,-1.2078747375488281,7.182604980468749,4.225765930175781
5958010360850,0.520487291,1,-1.351526837158203,7.317877374267578,4.337096307373047
5958013217048,0.523343489,1,-1.3575123413085937,7.281964349365234,4.3239281982421875
5958016075850,0.526202291,1,-1.7956512451171873,7.4040686340332025,4.425681768798828
5958018932204,0.529058645,1,-1.936909143066406,7.504625103759765,4.280832568359375
5958021790017,0.531916458,1,-2.2948422912597657,7.576451153564452,4.2125978210449215
5958024646215,0.534772656,1,-2.464830609130859,7.576451153564452,4.010287780761718
5958027502048,0.537628489,1,-2.7665000183105466,7.597998968505859,3.9240965209960934
5958030360173,0.540486614,1,-2.971204260253906,7.656656909179687,3.7325603881835936
5958033219340,0.543345781,1,-3.2597055603027343,7.74404526977539,3.660734338378906
5958036076892,0.546203333,1,-3.5146880371093747,7.790732202148437,3.6236242126464844
5958038930381,0.549056822,1,-3.3674446350097655,7.856572747802734,3.6667198425292966
5958041788715,0.551915156,1,-3.2537200561523436,7.824251025390624,3.727771984863281
5958044648246,0.554774687,1,-3.2537200561523436,7.942764007568359,3.805583538818359
5958047502413,0.557628854,1,-3.1854853088378903,7.905653881835937,3.764882110595703
5958050360954,0.560487395,1,-3.265691064453125,8.058882788085937,3.8582559753417964
5958053219183,0.563345624,1,-3.2609026611328122,8.033743670654296,3.958812445068359
5958056076840,0.566203281,1,-3.3710359375,8.110358123779296,3.805583538818359
5958058930954,0.569057395,1,-3.594893792724609,8.250418920898436,3.7720647155761715
5958061788142,0.571914583,1,-3.853467572021484,8.123526232910155,3.8175545471191406
5958064647621,0.574774062,1,-4.010287780761718,7.997830645751953,3.9707834533691404
5958067502777,0.577629218,1,-4.133589166259766,7.979874133300781,3.9911341674804683
5958070359392,0.580485833,1,-4.527435339355469,8.106766821289062,3.9899370666503904
5958073219444,0.583345885,1,-4.404133953857421,8.297105853271484,3.9432501342773434
5958076077517,0.586203958,1,-4.4196962646484375,8.311471063232421,3.9791631591796874
5958078930850,0.589057291,1,-4.592078784179687,8.070853796386718,4.101267443847656
5958081788506,0.591914947,1,-4.582501977539062,8.052897283935547,4.331110803222656
5958084648142,0.594774583,1,-4.535815045166015,8.124723333740233,4.313154290771484
5958087503246,0.597629687,1,-4.484339709472656,8.24203921508789,4.259284753417968
5958090360017,0.600486458,1,-4.80755693359375,8.225279803466796,4.1934442077636715
5958093220069,0.60334651,1,-4.770446807861328,8.179789971923828,3.9731776550292968
5958096076579,0.60620302,1,-4.732139581298828,8.232462408447265,3.7146038757324216
5958098936006,0.609062447,1,-4.531026641845703,8.26119282836914,3.4153286682128905
5958101790121,0.611916562,1,-4.507084625244141,8.28633194580078,3.3446997192382812
5958104643246,0.614769687,1,-4.35385571899414,8.137891442871092,3.438073583984375
5958107502100,0.617628541,1,-4.25808765258789,8.185775476074218,3.5529952636718747
5958110361631,0.620488072,1,-4.139574670410156,8.032546569824218,3.391386651611328
5958113219496,0.623345937,1,-3.821145849609375,8.179789971923828,3.2549171569824216
5958116076579,0.62620302,1,-3.660734338378906,8.36294639892578,3.2609026611328122
5958118931423,0.629057864,1,-3.515885137939453,8.431181146240235,3.1076737548828124
5958121788402,0.631914843,1,-3.3111808959960936,8.237250811767577,3.0214824951171875
5958124648298,0.634774739,1,-3.1555577880859373,8.157045056152343,2.9472622436523435
5958127502881,0.637629322,1,-3.545812658691406,8.29351455078125,2.896984008789062
5958130360225,0.640486666,1,-3.162740393066406,8.622717279052734,2.3582886352539063
5958133220329,0.64334677,1,-2.1224597717285154,8.65623610229492,1.5478513732910155
5958136075225,0.646201666,1,-2.127248175048828,8.394071020507813,1.5095441467285156
5958138931527,0.649057968,1,-2.1930887207031247,7.848193041992187,1.629254229736328
5958141788350,0.651914791,1,-1.8171990600585937,7.486668591308593,1.5801730957031248
5958144648194,0.654774635,1,-1.7561469177246092,7.429207751464843,1.5298948608398437
5958147502048,0.657628489,1,-1.8902222106933593,7.451952667236328,1.6244658264160154
5958150359965,0.660486406,1,-1.5765817932128905,7.50821640625,1.954865655517578
5958153218350,0.663344791,1,-1.4449007019042968,7.562085943603515,2.1775264099121094
5958156076996,0.666203437,1,-1.3754688537597655,7.474697583007812,2.511517541503906
5958158931058,0.669057499,1,-1.5251064575195312,7.104793426513671,2.768894219970703
5958161787881,0.671914322,1,-1.753752716064453,6.83783994140625,2.8754361938476563
5958164648715,0.674775156,1,-1.6891092712402342,6.682216833496093,3.027467999267578
5958167503975,0.677630416,1,-2.1487959899902345,6.452373474121093,3.038241906738281
5958170358194,0.680484635,1,-2.567781280517578,6.548141540527343,2.9855694702148434
5958173217413,0.683343854,1,-2.9831752685546875,6.241683728027343,2.864662286376953
5958176077152,0.686203593,1,-3.412934466552734,6.003460662841796,2.874239093017578
5958178931423,0.689057864,1,-3.9037458068847655,5.966350537109375,2.721010186767578
5958181788142,0.691914583,1,-4.135983367919922,5.926846209716796,2.618059515380859
5958184647517,0.694773958,1,-4.340687609863281,5.783194110107422,2.636016027832031
5958187503090,0.697629531,1,-4.35385571899414,5.641936212158202,2.7234043884277344
5958190359860,0.700486301,1,-4.297591979980469,5.742492681884765,3.0538042175292968
5958193218663,0.703345104,1,-4.04141240234375,5.852625958251953,3.0801404357910154
5958196076058,0.706202499,1,-3.9420530334472654,6.02022007446289,3.418919970703125
5958198931163,0.709057604,1,-3.7912183288574215,6.02022007446289,3.706224169921875
5958201788767,0.711915208,1,-3.891774798583984,6.132747552490234,4.023455889892578
5958204646371,0.714772812,1,-3.7768531188964842,6.238092425537109,4.158728283691406
5958207503610,0.717630051,1,-3.8486791687011714,6.369773516845703,4.2688615600585935
5958210360590,0.720487031,1,-4.001908074951172,6.530185028076171,4.321533996582031
5958213219704,0.723346145,1,-4.205415216064453,6.743268975830078,4.122815258789062
5958216077100,0.726203541,1,-4.41131655883789,6.937199310302734,3.9647979492187497
5958218931267,0.729057708,1,-4.624400506591797,7.076063006591797,3.9360675292968748
5958221788454,0.731914895,1,-4.748898992919922,7.194575988769531,3.902548706054687
5958224648090,0.734774531,1,-4.695029455566406,7.455543969726562,3.853467572021484
5958227502621,0.737629062,1,-4.695029455566406,7.624335186767578,3.891774798583984
5958230359913,0.740486354,1,-4.432864373779297,7.620743884277343,3.9647979492187497
5958233219652,0.743346093,1,-4.265270257568359,7.773972790527344,4.121618157958984
5958236076371,0.746202812,1,-3.9432501342773434,8.046911779785155,4.053383410644531
5958238930902,0.749057343,1,-3.756502404785156,8.353369592285155,4.055777612304687
5958241789392,0.751915833,1,-3.5039141296386718,8.632294085693358,4.055777612304687
5958244647881,0.754774322,1,-3.2597055603027343,8.767566479492187,4.037821099853516
5958247503038,0.757629479,1,-2.9891607727050777,8.748412866210938,3.9755718566894527
5958250360069,0.76048651,1,-2.6240450195312497,8.856151940917968,3.831919757080078
5958253220173,0.763346614,1,-2.5522189697265625,8.781931689453124,3.6439749267578123
5958256075694,0.766202135,1,-2.712630480957031,8.674192614746094,3.5098996337890624
5958258930590,0.769057031,1,-2.7521348083496093,8.118737829589843,3.7158009765625
5958261788506,0.771914947,1,-2.6240450195312497,8.118737829589843,3.248931652832031
5958264648663,0.774775104,1,-2.480392919921875,8.285134844970703,3.134009973144531
5958267502673,0.777629114,1,-2.6204537170410154,7.952340814208984,3.284844677734375
5958270359965,0.780486406,1,-2.5246856506347655,7.894879974365234,3.527856146240234
5958273219756,0.783346197,1,-1.9907786804199217,8.330624676513672,3.336320013427734
5958276076631,0.786203072,1,-1.66636435546875,8.440757952880858,3.3973721557617185
5958278931892,0.789058333,1,-1.389834063720703,8.386888415527343,3.6906618591308593
5958281789079,0.79191552,1,-1.3180080139160155,8.339004382324218,3.7409400939941406
5958284648558,0.794774999,1,-1.389834063720703,8.377311608886718,3.478775012207031
5958287502256,0.797628697,1,-1.4006079711914061,8.334215979003906,3.199850518798828
5958290360121,0.800486562,1,-1.707065783691406,8.10197841796875,2.940079638671875
5958293219027,0.803345468,1,-2.3211785095214843,8.103175518798828,2.551021868896484
5958296075694,0.806202135,1,-2.895786907958984,7.643488800048828,2.5845406921386718
5958298930433,0.809056874,1,-4.4819455078125,7.453149768066406,2.4851813232421875
5958301788663,0.811915104,1,-4.16231958618164,7.429207751464843,1.7190367919921874
5958304648767,0.814775208,1,-5.274426257324219,7.029376074218749,2.1440075866699217
5958307502048,0.817628489,1,-5.449202978515625,6.658274816894531,2.5234885498046875
5958310360017,0.820486458,1,-4.651933825683593,6.851008050537109,2.749740606689453
5958313220225,0.823346666,1,-3.4392706848144527,7.086836914062499,3.2501287536621093
5958316075746,0.826202187,1,-2.232593048095703,7.145494854736327,3.902548706054687
5958318931110,0.829057551,1,-1.071405242919922,7.363367205810547,4.565742565917969
5958321788506,0.831914947,1,-0.5327098693847656,7.747636572265624,5.033808990478516
5958324647933,0.834774374,1,0.5267243652343749,7.869740856933594,5.029020587158203
5958327502933,0.837629374,1,0.1927332336425781,7.728482958984374,5.323507391357421
5958330360017,0.840486458,1,-0.28371289672851563,7.433996154785156,5.3378726013183595
5958333218923,0.843345364,1,-0.9552864624023437,7.109581829833984,5.161898779296875
5958336076683,0.846203124,1,-1.4808137268066406,6.99705435180664,4.766855505371093
5958338931371,0.849057812,1,-1.867477294921875,6.941987713623046,4.416104962158203
5958341788402,0.851914843,1,-2.2661118713378903,6.659471917724609,4.273649963378906
5958344648350,0.854774791,1,-2.365471240234375,6.604405279541015,4.189852905273438
5958347502777,0.857629218,1,-2.3678654418945313,6.730100866699218,4.080916729736328
5958350357465,0.860483906,1,-2.3678654418945313,6.925228302001953,4.061763116455078
5958353216683,0.863343124,1,-2.3499089294433593,6.964732629394531,4.048595007324218
5958356076683,0.866203124,1,-2.1619640991210938,7.117961535644531,4.045003704833984
5958358930433,0.869056874,1,-1.983596075439453,7.22689771118164,4.043806604003906
5958361788715,0.871915156,1,-1.7980454467773437,7.244854223632812,4.1192239562988275
5958364648715,0.874775156,1,-1.8171990600585937,7.302315063476562,3.9659950500488277
5958367502100,0.877628541,1,-1.715445489501953,7.149086157226562,3.6080619018554687
5958370360590,0.880487031,1,-1.7764976318359373,7.147889056396484,3.3219548034667965
5958373226579,0.88335302,1,-1.9776105712890624,6.945579016113281,3.0705636291503904
5958376079496,0.886205937,1,-2.269703173828125,6.740874774169922,2.8311434631347656
5958378930850,0.889057291,1,-2.251746661376953,6.666654522705078,2.4193407775878906
5958381788194,0.891914635,1,-2.463633508300781,6.586448767089843,2.142810485839844
5958384648662,0.894775103,1,-2.8419173706054686,6.536170532226562,1.9692308654785156
5958387502569,0.89762901,1,-2.958036151123047,6.38413872680664,1.879448303222656
5958390360329,0.90048677,1,-2.7557261108398436,6.368576416015625,1.8447323791503905
5958393218402,0.903344843,1,-2.896984008789062,6.509834313964843,1.9704279663085937
5958396076840,0.906203281,1,-2.8431144714355465,6.635529901123046,2.061407629394531
5958398931215,0.909057656,1,-2.8275521606445313,6.852205151367187,2.110488763427734
5958401789235,0.911915676,1,-2.8143840515136715,7.03536157836914,2.213439434814453
5958404648819,0.91477526,1,-2.912546319580078,7.141903552246093,2.3630770385742186
5958407503037,0.917629478,1,-3.0071172851562498,7.194575988769531,2.473210314941406
5958410360329,0.92048677,1,-3.0262708984374997,7.350199096679687,2.6132711120605467
5958413220017,0.923346458,1,-3.1794998046874996,7.487865692138671,2.626439221191406
5958416076475,0.926202916,1,-3.21780703125,7.472303381347656,2.8886043029785156
5958418931215,0.929057656,1,-3.4524387939453125,7.625532287597656,3.0705636291503904
5958421788246,0.931914687,1,-3.544615557861328,7.762001782226562,3.084928839111328
5958424647985,0.934774426,1,-3.6260184143066403,7.784746697998046,3.238157745361328
5958427503194,0.937629635,1,-3.7002386657714843,7.758410479736328,3.392583752441406
5958430360121,0.940486562,1,-3.9743747558593747,7.845798840332031,3.5242648437499997
5958433219131,0.943345572,1,-4.329913702392578,8.164227661132813,3.6846763549804686
5958436076944,0.946203385,1,-4.627991809082031,8.245630517578125,4.030638494873046
5958438930954,0.949057395,1,-4.723759875488281,8.228871105957031,4.422090466308593
5958441788975,0.951915416,1,-4.7572786987304685,8.455123162841796,4.76924970703125
5958444647673,0.954774114,1,-4.967968444824218,8.75918677368164,5.067327813720703
5958447502048,0.957628489,1,-4.927267016601562,8.987833032226561,5.060145208740234
5958450359444,0.960485885,1,-5.0206408813476555,9.06564458618164,5.364208819580078
5958453219392,0.963345833,1,-5.146336468505859,9.068038787841797,5.61200869140625
5958456076162,0.966202603,1,-5.172672686767577,9.132682232666015,5.730521673583984
5958458930954,0.969057395,1,-5.175066888427734,9.21887349243164,5.876567974853515
5958461788715,0.971915156,1,-5.072116217041016,9.278728533935546,5.992686755371094
5958464649600,0.974776041,1,-4.7764323120117185,9.264363323974608,6.076483813476562
5958467503142,0.977629583,1,-4.497507818603515,9.294290844726563,6.007051965332031
5958470360121,0.980486562,1,-4.590881683349609,9.279925634765624,5.9950809570312495
5958473219600,0.983346041,1,-4.284423870849609,9.33978067626953,5.979518646240234
5958476075798,0.986202239,1,-4.183867401123047,9.297882147216797,5.570110162353515
5958478931319,0.98905776,1,-3.6858734558105466,9.144653240966797,5.5258174316406246
5958481788923,0.991915364,1,-4.129997863769531,9.290699542236327,5.538985540771484
5958484648715,0.994775156,1,-3.7301661865234372,9.252392315673827,5.0769046203613275
5958487502517,0.997628958,1,-3.8103719421386715,8.997409838867187,4.617217901611328
5958490357152,1.000483593,1,-4.155136981201172,8.635885388183594,4.317942694091797
5958493217204,1.003343645,1,-4.177881896972656,8.291120349121094,3.7708676147460936
5958496076996,1.006203437,1,-4.2149920227050774,8.03853207397461,3.326743206787109
5958498931631,1.009058072,1,-4.169502191162109,7.694964135742187,2.9376854370117185
5958501789808,1.011916249,1,-4.241328240966797,7.231686114501953,2.703053674316406
5958504648975,1.014775416,1,-4.1563340820312495,6.9539587219238275,2.35589443359375
5958507502204,1.017628645,1,-4.197035510253906,6.921636999511718,2.081758343505859
5958510360537,1.020486978,1,-4.3263223999023435,6.858190655517578,1.8375497741699218
5958513219444,1.023345885,1,-3.7038299682617186,6.959944226074218,1.4736311218261717
5958516076006,1.026202447,1,-3.841496563720703,6.636727001953124,1.7848773376464844
5958518930954,1.029057395,1,-3.6547488342285153,6.362590911865234,1.8255787658691405
5958521789235,1.031915676,1,-3.4536358947753905,6.591237170410156,1.7214309936523438
5958524648350,1.034774791,1,-3.4919431213378904,6.751648681640624,1.8267758666992187
5958527501996,1.037628437,1,-3.384204046630859,6.782773303222656,1.9776105712890624
5958530361110,1.040487551,1,-3.265691064453125,6.710947253417968,2.2541408630371094
5958533220537,1.043346978,1,-3.2501287536621093,6.701370446777343,2.498349432373047
5958536076944,1.046203385,1,-3.2501287536621093,6.739677673339843,2.653972540283203
5958538930798,1.049057239,1,-3.3973721557617185,6.707355950927734,2.8383260681152342
5958541787569,1.05191401,1,-3.5242648437499997,6.860584857177734,3.0142998901367184
5958544647517,1.054773958,1,-3.5817256835937497,6.76721099243164,3.0358477050781247
5958547501735,1.057628176,1,-3.7672763122558592,6.649895111083984,3.189076611328125
5958550359444,1.060485885,1,-3.8941690002441405,6.600813977050781,3.3602620300292965
5958553214235,1.063340676,1,-3.8582559753417964,6.679822631835937,3.4739866088867184
5958556076058,1.066202499,1,-3.997119671630859,6.752845782470703,3.518279339599609
5958558931579,1.06905802,1,-4.055777612304687,6.762422589111328,3.6092590026855467
5958561788246,1.071914687,1,-4.218583325195312,6.687005236816406,3.785232824707031
5958564647881,1.074774322,1,-4.43047017211914,6.806715319824218,3.9240965209960934
5958567503142,1.077629583,1,-4.444835382080078,6.950367419433594,4.170699291992188
5958570360225,1.080486666,1,-4.510675927734375,7.114370233154297,4.4196962646484375
5958573220173,1.083346614,1,-4.489128112792969,7.301117962646484,4.497507818603515
5958576076527,1.086202968,1,-4.350264416503906,7.453149768066406,4.7584757995605464
5958578931058,1.089057499,1,-4.35385571899414,7.593210565185546,4.912901806640625
5958581789027,1.091915468,1,-4.187458703613281,7.830236529541015,5.026626385498046
5958584649183,1.094775624,1,-4.084508032226562,8.064868292236328,5.0757075195312495
5958587502152,1.097628593,1,-4.036623999023437,8.246827618408203,5.15830747680664
5958590360225,1.100486666,1,-3.881000891113281,8.462305767822265,5.278017559814453
5958593219808,1.103346249,1,-3.897760302734375,8.619125976562499,5.256469744873047
5958596077464,1.106203905,1,-3.744531396484375,8.651447698974609,5.185840795898438
5958598928819,1.10905526,1,-3.8079777404785156,8.580818749999999,5.1343654602050774
5958601788975,1.111915416,1,-3.782838623046875,8.734047656249999,5.007472772216796
5958604648714,1.114775155,1,-3.793612530517578,8.695740429687499,5.035006091308594
5958607503506,1.117629947,1,-3.870226983642578,8.628702783203124,4.624400506591797
5958610359808,1.120486249,1,-3.7900212280273435,8.607154968261717,4.624400506591797
5958613219444,1.123345885,1,-3.731363287353515,8.623914379882812,4.271255761718749
5958616076892,1.126203333,1,-3.6451720275878903,8.640673791503906,3.9935283691406247
5958618930798,1.129057239,1,-3.5039141296386718,8.620323077392577,3.8139632446289062
5958621788506,1.131914947,1,-3.427299676513672,8.512584002685546,3.5494039611816404
5958624648558,1.134774999,1,-3.362656231689453,8.404844927978516,3.347093920898437
5958627502464,1.137628905,1,-3.3207577026367185,8.295908752441406,3.124433166503906
5958630360433,1.140486874,1,-3.219004132080078,8.232462408447265,2.978386865234375
5958633220381,1.143346822,1,-3.104082452392578,8.050503082275391,2.816778253173828
5958636077777,1.146204218,1,-2.967612957763672,7.89727417602539,2.8335376647949215
5958638931371,1.149057812,1,-2.817975354003906,7.78235249633789,2.8622680847167965
5958641788142,1.151914583,1,-2.6982652709960937,7.693767034912109,2.797624639892578
5958644648402,1.154774843,1,-2.565387078857422,7.621940985107422,2.901772412109375
5958647508350,1.157634791,1,-2.3714567443847656,7.544129431152343,2.910152117919922
5958650360902,1.160487343,1,-2.2481553588867187,7.529764221191406,3.037044805908203
5958653220589,1.16334703,1,-2.1224597717285154,7.387309222412109,3.047818713378906
5958656077204,1.166203645,1,-2.127248175048828,7.321468676757812,3.049015814208984
5958658931944,1.169058385,1,-2.127248175048828,7.331045483398437,2.9544448486328125
5958661788923,1.171915364,1,-2.1416133850097654,7.212532501220703,2.8467057739257813
5958664648767,1.174775208,1,-2.262520568847656,7.3657614074707025,2.7748797241210936
5958667503558,1.177629999,1,-2.455253802490234,7.345410693359375,2.829946362304687
5958670359287,1.180485728,1,-2.6324247253417967,7.320271575927734,2.6767174560546874
5958673219756,1.183346197,1,-2.6958710693359373,7.357381701660156,2.6910826660156246
5958676076787,1.186203228,1,-2.6587609436035153,7.504625103759765,2.6515783386230467
5958678931162,1.189057603,1,-2.481590020751953,7.574056951904296,2.7365724975585937
5958681787621,1.191914062,1,-2.4947581298828125,7.587225061035156,3.0693665283203124
5958684648089,1.19477453,1,-2.4779987182617185,7.6099699768066404,3.1387983764648437
5958687501944,1.197628385,1,-2.446874096679687,7.850587243652344,2.971204260253906
5958690359339,1.20048578,1,-2.5857377929687497,7.995436444091796,2.8574796813964842
5958693219339,1.20334578,1,-2.7928362365722657,7.823053924560546,2.8993782104492185
5958696076892,1.206203333,1,-2.864662286376953,7.733271362304687,2.9077579162597655
5958698932204,1.209058645,1,-2.849099975585937,7.851784344482422,2.731784094238281
5958701788975,1.211915416,1,-2.906560815429687,7.832630731201172,2.7257985900878903
5958704648246,1.214774687,1,-2.8275521606445313,7.712920648193359,2.7844565307617186
5958707502829,1.21762927,1,-2.81558115234375,7.772775689697265,2.8143840515136715
5958710359860,1.220486301,1,-2.7521348083496093,7.8900915710449215,2.7281927917480466
5958713219600,1.223346041,1,-2.7916391357421872,7.917624890136718,2.712630480957031
5958716075381,1.226201822,1,-2.817975354003906,7.81467421875,2.8215666564941406
5958718931527,1.229057968,1,-2.664746447753906,7.692569934082031,2.8024130432128906
5958721788402,1.231914843,1,-2.778471026611328,7.790732202148437,2.845508673095703
5958724648454,1.234774895,1,-2.932897033691406,7.637503295898437,2.7078420776367187
5958727502777,1.237629218,1,-2.999934680175781,7.649474304199218,2.722207287597656
5958730361006,1.240487447,1,-3.0023288818359375,7.826645227050781,2.722207287597656
5958733219912,1.243346353,1,-3.1268273681640624,7.764395983886718,2.8239608581542965
5958736076423,1.246202864,1,-3.380612744140625,7.632714892578124,2.9604303527832028
5958738931006,1.249057447,1,-3.3770214416503905,7.709329345703124,3.019088293457031
5958741787933,1.251914374,1,-3.4057518615722655,7.879317663574218,3.0454245117187497
5958744649079,1.25477552,1,-3.3099837951660156,7.975085729980468,3.125630267333984
5958747502829,1.25762927,1,-3.9181110168457027,7.584830859375,3.582922784423828
5958750360381,1.260486822,1,-6.247669232177734,5.853823059082031,4.648342523193359
5958753220225,1.263346666,1,-4.255693450927734,7.4794859863281244,3.489548919677734
5958756076579,1.26620302,1,-3.9432501342773434,8.311471063232421,3.7050270690917966
5958758932881,1.269059322,1,-6.664260321044922,6.937199310302734,5.321113189697265
5958761789287,1.271915728,1,-3.447650390625,7.510610607910156,4.548983154296875
5958764648246,1.274774687,1,-6.05852730102539,7.465120776367187,5.353434912109375
5958767502204,1.277628645,1,-2.961627453613281,7.70573804321289,4.753687396240234
5958770360329,1.28048677,1,-2.8107927490234372,8.584410052490234,4.551377355957031
5958773219652,1.283346093,1,-2.5139117431640625,8.82383021850586,4.405331054687499
5958776076423,1.286202864,1,-2.464830609130859,9.035717065429687,4.036623999023437
5958778931371,1.289057812,1,-2.8598738830566406,7.190984686279297,4.709394665527343
5958781789392,1.291915833,1,-5.617994195556641,7.4782888854980465,4.407725256347656
5958784649131,1.294775572,1,-6.663063220214843,7.401674432373047,4.152742779541016
5958787502360,1.297628801,1,-5.628768103027343,7.554903338623046,4.2509050476074215
5958790359704,1.300486145,1,-4.280832568359375,7.727285858154296,4.225765930175781
5958793219704,1.303346145,1,-3.469198205566406,7.727285858154296,4.685452648925781
5958796076475,1.306202916,1,-2.578555187988281,7.882908966064453,4.933252520751953
5958798931110,1.309057551,1,-2.129642376708984,8.14028564453125,4.969165545654296
5958801788037,1.311914478,1,-1.9680337646484374,8.282740643310547,4.827907647705078
5958804647985,1.314774426,1,-2.1691467041015624,8.207323291015625,4.371812231445312
5958807501996,1.317628437,1,-2.549824768066406,8.098387115478515,3.851073370361328
5958810359756,1.320486197,1,-2.881421697998047,7.914033587646484,3.2980127868652342
5958813219964,1.323346405,1,-3.1938650146484373,7.800309008789062,2.6850971618652344
5958816077464,1.326203905,1,-3.2620997619628906,7.734468463134765,2.2768857788085937
5958818930850,1.329057291,1,-3.5242648437499997,7.577648254394531,1.9488801513671874
5958821788141,1.331914582,1,-3.574543078613281,7.541735229492187,1.659181750488281
5958824648037,1.334774478,1,-3.507505432128906,7.578845355224609,1.504755743408203
5958827502360,1.337628801,1,-3.2501287536621093,7.602787371826172,1.3934253662109375
5958830361579,1.34048802,1,-3.1591490905761717,7.6279264892578125,1.4472949035644531
5958833220329,1.34334677,1,-2.913743420410156,7.693767034912109,1.3407529296874998
5958836076683,1.346203124,1,-2.8981811096191405,7.694964135742187,1.3431471313476562
5958838930433,1.349056874,1,-2.877830395507812,7.754819177246094,1.4173673828125
5958841789027,1.351915468,1,-2.7246014892578123,7.79552060546875,1.4616601135253906
5958844648350,1.354774791,1,-2.7629087158203123,7.770381488037109,1.476025323486328
5958847499860,1.357626301,1,-2.7281927917480466,7.923610394287109,1.5442600708007812
5958850361839,1.36048828,1,-2.4289175842285156,7.7763669921875,1.6017209106445311
5958853220069,1.36334651,1,-2.5234885498046875,7.750030773925781,1.7549498168945312
5958856077412,1.366203853,1,-2.5139117431640625,7.937975604248046,2.0075380920410155
5958858931006,1.369057447,1,-2.2541408630371094,8.10197841796875,2.1799206115722654
5958861790121,1.371916562,1,-2.5378537597656248,8.157045056152343,2.4672248107910155
5958864650589,1.37477703,1,-2.567781280517578,8.200140686035155,2.798821740722656
5958867502569,1.37762901,1,-2.9975404785156248,8.281543542480469,3.047818713378906
5958870359808,1.380486249,1,-3.1028853515624997,8.339004382324218,3.361459130859375
5958873219756,1.383346197,1,-3.0837317382812497,8.313865264892577,3.593696691894531
5958876076110,1.386202551,1,-3.801992236328125,8.110358123779296,3.9432501342773434
5958878930225,1.389056666,1,-4.125209460449218,7.93558140258789,4.280832568359375
5958881788350,1.391914791,1,-4.405331054687499,8.07683930053711,4.316745593261719
5958884648766,1.394775207,1,-4.384980340576171,8.179789971923828,4.244919543457031
5958887502725,1.397629166,1,-4.859032269287109,8.080430603027343,4.647145422363281
5958890360121,1.400486562,1,-5.123591552734375,8.062474090576172,4.728548278808593
5958893220433,1.403346874,1,-5.195417602539062,8.122329132080077,4.765658404541015
5958896076839,1.40620328,1,-5.315127685546875,8.060079888916015,4.951209033203125
5958898931110,1.409057551,1,-5.361814617919921,7.8541785461425775,5.003881469726562
5958901788662,1.411915103,1,-5.227739324951171,7.660248211669922,5.045779998779296
5958904647881,1.414774322,1,-5.380968231201171,7.5537062377929685,4.979939453125
5958907502256,1.417628697,1,-5.251681341552734,7.541735229492187,4.8314989501953125
5958910360069,1.42048651,1,-5.12000025024414,7.541735229492187,4.797980126953124
5958913219652,1.423346093,1,-4.847061260986328,7.545326531982422,4.893748193359374
5958916077204,1.426203645,1,-4.602852691650391,7.542932330322265,4.740519287109374
5958918931214,1.429057655,1,-4.159925384521484,7.529764221191406,4.643554119873047
5958921793610,1.431920051,1,-3.88818349609375,7.493851196289062,4.612429498291015
5958924652100,1.434778541,1,-3.851073370361328,7.4220251464843745,4.534617944335937
5958927502412,1.437628853,1,-3.81156904296875,7.503428002929687,4.276044165039062
5958930359652,1.440486093,1,-3.6846763549804686,7.521384515380859,4.091690637207031
5958933219079,1.44334552,1,-3.755305303955078,7.4040686340332025,4.001908074951172
5958936076162,1.446202603,1,-3.7600937072753906,7.456741070556641,3.7576995056152342
5958938931423,1.449057864,1,-3.7193922790527343,7.433996154785156,3.6343981201171873
5958941787933,1.451914374,1,-3.526659045410156,7.620743884277343,3.5194764404296874
5958944648714,1.454775155,1,-3.4931402221679684,7.614758380126952,3.4296938781738278
5958947503454,1.457629895,1,-3.2513258544921873,7.599196069335937,3.2130186279296873
5958950360277,1.460486718,1,-3.1866824096679687,7.592013464355468,3.1184476623535153
5958953220173,1.463346614,1,-3.0693665283203124,7.544129431152343,3.058592620849609
5958956077100,1.466203541,1,-2.8371289672851563,7.671022119140624,2.770091320800781
5958958930850,1.469057291,1,-3.303998291015625,7.827842327880859,2.703053674316406
5958961788037,1.471914478,1,-3.3710359375,7.936778503417968,2.4959552307128905
5958964648402,1.474774843,1,-2.6048914062499997,8.10796392211914,2.3343466186523436
5958967502933,1.477629374,1,-2.6144682128906247,7.9846625366210935,2.2924480895996093
5958970359964,1.480486405,1,-2.750937707519531,7.9846625366210935,2.050633721923828
5958973216579,1.48334302,1,-2.9664158569335934,7.9834654357910155,2.099714855957031
5958976076527,1.486202968,1,-3.303998291015625,8.005013250732421,1.946485949707031
5958978931371,1.489057812,1,-3.460818499755859,7.8338278320312495,1.9812018737792967
5958981788923,1.491915364,1,-3.4668040039062498,7.684190228271484,2.051830822753906
5958984648141,1.494774582,1,-3.4153286682128905,7.6231380859375,2.3056161987304686
5958987502048,1.497628489,1,-3.1794998046874996,7.66743081665039,2.5007436340332028
5958990359652,1.500486093,1,-3.027467999267578,7.624335186767578,2.7557261108398436
5958993219704,1.503346145,1,-2.9855694702148434,7.687781530761718,2.9843723693847655
5958996076839,1.50620328,1,-2.9604303527832028,7.633911993408202,3.228580938720703
5958998930850,1.509057291,1,-3.008314385986328,7.528567120361328,3.460818499755859
5959001788246,1.511914687,1,-3.075352032470703,7.451952667236328,3.716998077392578
5959004647777,1.514774218,1,-3.2022447204589843,7.4232222473144525,3.816357446289062
5959007502881,1.517629322,1,-3.2441432495117186,7.3286512817382805,4.00909067993164
5959010361110,1.520487551,1,-3.268085266113281,7.333439685058593,4.186261602783203
5959013219391,1.523345832,1,-3.2812533752441406,7.455543969726562,4.266467358398438
5959016077048,1.526203489,1,-3.2525229553222657,7.541735229492187,4.408922357177734
5959018931214,1.529057655,1,-3.1926679138183593,7.602787371826172,4.480748406982421
5959021787673,1.531914114,1,-3.2058360229492187,7.8158713195800775,4.365826727294921
5959024647725,1.534774166,1,-3.0550013183593747,7.908048083496094,4.370615130615234
5959027502933,1.537629374,1,-2.901772412109375,8.010998754882811,4.2688615600585935
5959030360069,1.54048651,1,-2.972401361083984,8.055291485595703,4.191050006103516
5959033219235,1.543345676,1,-3.2405519470214843,7.902062579345703,3.873818286132812
5959036076318,1.546202759,1,-3.3387142150878906,7.893682873535155,3.84987626953125
5959038931631,1.549058072,1,-3.5027170288085934,8.161833459472655,3.69664736328125
5959041789183,1.551915624,1,-3.582922784423828,8.221688500976562,3.545812658691406
5959044647985,1.554774426,1,-3.6056677001953124,8.113949426269532,3.5015199279785154
5959047502360,1.557628801,1,-3.478775012207031,8.128314636230469,3.436876483154297
5959050360121,1.560486562,1,-3.883395092773437,7.410054138183593,3.9312791259765625
5959053219808,1.563346249,1,-3.0621839233398433,8.21690009765625,3.393780853271484
5959056076891,1.566203332,1,-2.825157958984375,8.418013037109375,3.494337322998047
5959058932152,1.569058593,1,-2.43250888671875,8.244433416748047,3.564966271972656
5959061788766,1.571915207,1,-2.3977929626464842,8.310273962402343,3.2980127868652342
5959064648402,1.574774843,1,-2.6982652709960937,8.2743609375,2.923320227050781
5959067502777,1.577629218,1,-3.017891192626953,8.046911779785155,2.6982652709960937
5959070359652,1.580486093,1,-3.1304186706542967,7.898471276855468,2.558204473876953
5959073219287,1.583345728,1,-3.0933085449218747,7.857769848632812,2.3211785095214843
5959076076787,1.586203228,1,-2.9281086303710935,7.8541785461425775,2.1224597717285154
5959078931266,1.589057707,1,-2.7521348083496093,7.825448126220703,2.1440075866699217
5959081788037,1.591914478,1,-2.536656658935547,7.857769848632812,2.138022082519531
5959084648975,1.594775416,1,-2.540247961425781,7.851784344482422,2.1811177124023438
5959087502100,1.597628541,1,-2.3870190551757813,7.900865478515625,2.1906945190429687
5959090359808,1.600486249,1,-2.4013842651367185,7.87812056274414,2.2649147705078123
5959093220329,1.60334677,1,-2.463633508300781,7.87812056274414,2.2278046447753903
5959096047673,1.606174114,1,-2.5342624572753905,7.754819177246094,2.1547814941406247
5959098931110,1.609057551,1,-2.5258827514648434,7.7799582946777335,2.308010400390625
5959101788402,1.611914843,1,-2.7066449768066403,7.7799582946777335,2.2601263671875
5959104649079,1.61477552,1,-2.8431144714355465,7.751227874755859,2.29843359375
5959107503037,1.617629478,1,-3.0142998901367184,7.823053924560546,2.4684219116210935
5959110360537,1.620486978,1,-3.113659259033203,7.8170684204101555,2.6958710693359373
5959113220016,1.623346457,1,-3.0238766967773434,7.4040686340332025,3.1543606872558594
5959116076735,1.626203176,1,-3.985148663330078,8.022969763183593,3.355473626708984
5959118931162,1.629057603,1,-2.934094134521484,8.117540728759765,3.603273498535156
5959121788818,1.631915259,1,-2.905363714599609,7.866149554443359,3.8139632446289062
5959124648506,1.634774947,1,-3.077746234130859,7.997830645751953,4.191050006103516
5959127502204,1.637628645,1,-3.005920184326172,8.186972576904296,4.240131140136718
5959130359548,1.640485989,1,-3.1196447631835937,8.202534887695313,4.246116644287109
5959133220016,1.643346457,1,-3.2740707702636715,8.245630517578125,4.311957189941406
5959136076266,1.646202707,1,-3.337517114257812,8.232462408447265,4.338293408203125
5959138931423,1.649057864,1,-3.391386651611328,8.215702996826172,4.285620971679688
5959141789339,1.65191578,1,-3.399766357421875,8.212111694335936,4.2137949218749995
5959144648923,1.654775364,1,-3.5206735412597654,8.195352282714843,4.171896392822266
5959147502673,1.657629114,1,-3.3674446350097655,8.170213165283203,4.024652990722656
5959150359391,1.660485832,1,-3.4261025756835934,8.207323291015625,3.766079211425781
5959153219235,1.663345676,1,-3.4620156005859375,8.221688500976562,3.6750995483398436
5959156076631,1.666203072,1,-3.432088079833984,8.221688500976562,3.5577836669921874
5959158930954,1.669057395,1,-3.5015199279785154,8.068459594726562,3.6571430358886716
5959161788298,1.671914739,1,-3.4332851806640625,7.952340814208984,3.3506852233886715
5959164648871,1.674775312,1,-4.299986181640625,7.727285858154296,3.6343981201171873
5959167502308,1.677628749,1,-3.0238766967773434,8.128314636230469,2.9448680419921875
5959170359652,1.680486093,1,-3.375824340820312,7.869740856933594,3.0442274108886718
5959173220016,1.683346457,1,-3.527856146240234,7.8541785461425775,2.971204260253906
5959176077256,1.686203697,1,-3.3782185424804685,8.058882788085937,2.6803087585449217
5959178930954,1.689057395,1,-3.5218706420898434,8.123526232910155,2.5426421630859375
5959181788298,1.691914739,1,-3.6643256408691403,8.090007409667969,2.6886884643554687
5959184648089,1.69477453,1,-4.042609503173828,7.636306195068359,3.1268273681640624
5959187502152,1.697628593,1,-3.1866824096679687,8.135497241210937,2.9185318237304685
5959190359548,1.700485989,1,-3.361459130859375,8.544905725097657,3.0921114440917967
5959193219652,1.703346093,1,-3.0885201416015624,8.574833245849609,3.3542765258789062
5959196104548,1.706230989,1,-2.89219560546875,8.63109698486328,3.295618585205078
5959198934183,1.709060624,1,-3.1675287963867187,8.842983831787109,3.1124621582031247
5959201789235,1.711915676,1,-3.573345977783203,8.93875189819336,2.9939491760253905
5959204648558,1.714774999,1,-3.821145849609375,8.866925848388671,2.8622680847167965
5959207503350,1.717629791,1,-3.7576995056152342,9.032125762939453,2.7617116149902343
5959210359652,1.720486093,1,-3.910928411865234,9.178172064208983,2.663549346923828
5959213219496,1.723345937,1,-3.7600937072753906,9.179369165039063,2.9077579162597655
5959216075537,1.726201978,1,-3.5613749694824217,9.179369165039063,3.1028853515624997
5959218931162,1.729057603,1,-3.4452561889648434,9.10395181274414,3.1376012756347653
5959221788141,1.731914582,1,-3.3674446350097655,9.035717065429687,3.2908301818847656
5959224648350,1.734774791,1,-3.412934466552734,8.8872765625,3.342305517578125
5959227502412,1.737628853,1,-3.526659045410156,8.748412866210938,3.460818499755859
5959230359235,1.740485676,1,-3.6092590026855467,8.542511523437499,3.5302503479003904
5959233219339,1.74334578,1,-3.5386300537109374,8.349778289794921,3.4919431213378904
5959236076527,1.746202968,1,-3.404554760742187,8.197746484375,3.5972879943847653
5959238930746,1.749057187,1,-3.266888165283203,8.039729174804688,3.6834792541503902
5959241788089,1.75191453,1,-2.943670941162109,7.912836486816405,3.7325603881835936
5959244647621,1.754774062,1,-2.6204537170410154,7.78235249633789,3.7505169006347656
5959247502464,1.757628905,1,-2.3116017028808593,7.671022119140624,3.7301661865234372
5959250359756,1.760486197,1,-2.3618799377441406,7.46272657470703,3.7421371948242186
5959253219287,1.763345728,1,-1.7992425476074219,7.254431030273437,3.556586566162109
5959256077777,1.766204218,1,-1.7310078002929687,7.16943687133789,3.4811692138671875
5959258931423,1.769057864,1,-1.4987702392578124,7.113173132324218,3.220201232910156
5959261787881,1.771914322,1,-1.4030021728515625,7.015010864257812,2.923320227050781
5959264648350,1.774774791,1,-1.291671795654297,6.861781958007812,2.8323405639648436
5959267503037,1.777629478,1,-1.274912384033203,6.669048724365234,2.548627667236328
5959270359808,1.780486249,1,-1.121683477783203,6.566098052978515,2.2541408630371094
5959273219860,1.783346301,1,-1.1420341918945311,6.420051751708984,2.1164742675781247
5959276076787,1.786203228,1,-1.265335577392578,6.4080807434082026,1.9943699829101562
5959278931110,1.789057551,1,-1.3766659545898436,6.254851837158203,1.687912170410156
5959281787985,1.791914426,1,-1.4125789794921875,6.197390997314453,1.7010802795410156
5959284647568,1.794774009,1,-1.4867992309570313,6.259640240478515,1.7010802795410156
5959287502777,1.797629218,1,-1.849520782470703,6.302735870361328,1.7908628417968748
5959290360277,1.800486718,1,-1.4305354919433593,5.837063647460937,1.898601916503906
5959293219339,1.80334578,1,-1.6603788513183593,5.7329158752441405,2.232593048095703
5959296076475,1.806202916,1,-1.93451494140625,6.15429536743164,2.2026655273437497
5959298930433,1.809056874,1,-2.0446482177734375,6.579266162109374,2.1308394775390624
5959301788037,1.811914478,1,-2.3247698120117186,6.80551821899414,2.2948422912597657
5959304649548,1.814775989,1,-2.6420015319824217,6.903680487060546,2.462436407470703
5959307502464,1.817628905,1,-2.6970681701660153,7.125144140624999,2.748543505859375
5959310359495,1.820485936,1,-2.797624639892578,7.256825231933593,2.981978167724609
5959313218975,1.823345416,1,-2.8993782104492185,7.418433843994141,3.333925811767578
5959316076266,1.826202707,1,-2.920926025390625,7.639897497558593,3.475183709716797
5959318931527,1.829057968,1,-3.1304186706542967,7.996633544921875,3.5996821960449217
5959321788714,1.831915155,1,-3.2812533752441406,8.341398583984375,3.7158009765625
5959324648089,1.83477453,1,-3.5901053894042967,8.64426509399414,3.891774798583984
5959327502829,1.83762927,1,-3.766079211425781,8.828618621826172,4.068945721435546
5959330360277,1.840486718,1,-3.726574884033203,8.907627276611327,4.207809417724609
5959333219808,1.843346249,1,-3.8798037902832028,8.907627276611327,4.388571643066406
5959336077152,1.846203593,1,-3.948038537597656,9.022548956298827,4.495113616943359
5959338931475,1.849057916,1,-4.056974713134766,8.869320050048827,4.575319372558593
5959341789027,1.851915468,1,-4.182670300292968,8.801085302734375,4.459200592041015
5959344644287,1.854770728,1,-4.255693450927734,8.688557824707031,4.459200592041015
5959347502256,1.857628697,1,-4.290409374999999,8.593986859130858,4.365826727294921
5959350359391,1.860485832,1,-4.2868180725097655,8.422801440429687,4.369418029785156
5959353219235,1.863345676,1,-4.225765930175781,8.2360537109375,4.1958384094238275
5959356076370,1.866202811,1,-3.9600095458984375,8.17859287109375,4.186261602783203
5959358930954,1.869057395,1,-3.8103719421386715,8.087613208007811,4.216189123535156
5959361787620,1.871914061,1,-3.4859576171874997,7.9272016967773435,4.225765930175781
5959364648089,1.87477453,1,-3.4739866088867184,7.899668377685546,4.163516687011718
5959367503298,1.877629739,1,-3.384204046630859,7.747636572265624,4.072537023925781
5959370360485,1.880486926,1,-3.2453403503417966,7.576451153564452,3.897760302734375
5959373219756,1.883346197,1,-3.3207577026367185,7.442375860595702,3.833116857910156
5959376077048,1.886203489,1,-3.2417490478515623,7.3466077941894525,3.669114044189453
5959378930693,1.889057134,1,-3.219004132080078,7.368155609130859,3.4620156005859375
5959381787673,1.891914114,1,-3.2728736694335936,7.4232222473144525,3.414131567382812
5959384648193,1.894774634,1,-2.9089550170898435,7.413645440673828,3.2130186279296873
5959387502412,1.897628853,1,-3.6822821533203123,7.247248425292969,3.438073583984375
5959390360485,1.900486926,1,-3.796006732177734,7.16943687133789,3.21780703125
5959393219495,1.903345936,1,-2.876633294677734,7.208941198730468,3.1842882080078123
5959396076110,1.906202551,1,-2.5737667846679684,7.418433843994141,3.3638533325195312
5959398930693,1.909057134,1,-2.4588451049804685,7.394491827392578,3.3961750549316405
5959401789548,1.911915989,1,-2.4684219116210935,7.547720733642578,3.418919970703125
5959404648298,1.914774739,1,-2.3918074584960936,7.729680059814453,3.4105402648925778
5959407501995,1.917628436,1,-2.379836450195312,7.879317663574218,3.4105402648925778
5959410359600,1.920486041,1,-2.418143676757812,7.898471276855468,3.488351818847656
5959413220173,1.923346614,1,-2.422932080078125,7.902062579345703,3.5805285827636717
5959416076891,1.926203332,1,-2.3618799377441406,7.9667060241699215,3.7433342956542965
5959418931214,1.929057655,1,-2.3331495178222657,8.087613208007811,3.787627026367187
5959421788402,1.931914843,1,-2.498349432373047,8.057685687255859,4.012681982421875
5959424648610,1.934775051,1,-2.3487118286132813,7.957129217529296,4.210203619384766
5959427501683,1.937628124,1,-2.3535002319335936,7.9655089233398435,4.276044165039062
5959430359495,1.940485936,1,-2.3116017028808593,8.173804467773436,4.299986181640625
5959433219339,1.94334578,1,-2.205059729003906,8.21690009765625,4.328716601562499
5959436077100,1.946203541,1,-2.272097375488281,8.112752325439452,4.35385571899414
5959438930589,1.94905703,1,-2.375048046875,7.922413293457031,4.406528155517578
5959441788714,1.951915155,1,-2.6479870361328124,7.82065972290039,4.504690423583984
5959444647725,1.954774166,1,-2.454056701660156,7.64229169921875,4.291606475830078
5959447501683,1.957628124,1,-2.6240450195312497,7.562085943603515,4.255693450927734
5959450359235,1.960485676,1,-2.7581203125,7.5142019104003905,4.248510845947266
5959453219704,1.963346145,1,-2.693476867675781,7.541735229492187,4.21978042602539
5959456077464,1.966203905,1,-2.8467057739257813,7.524975817871093,4.229357232666016
5959458930589,1.96905703,1,-2.8886043029785156,7.599196069335937,4.155136981201172
5959461788975,1.971915416,1,-2.877830395507812,7.445967163085937,4.346673114013671
5959464650173,1.974776614,1,-2.902969512939453,7.4591352722167965,4.410119458007812
5959467502152,1.977628593,1,-2.8850130004882812,7.576451153564452,4.410119458007812
5959470366162,1.980492603,1,-2.7844565307617186,7.70573804321289,4.525041137695312
5959473223558,1.983349999,1,-2.760514514160156,7.772775689697265,4.556165759277343
5959476073870,1.986200311,1,-2.844311572265625,7.7979148071289055,4.542997650146484
5959478930850,1.989057291,1,-2.8574796813964842,7.918821990966796,4.551377355957031
5959481789079,1.99191552,1,-2.887407202148437,7.961917620849609,4.495113616943359
5959484645850,1.994772291,1,-2.8371289672851563,7.942764007568359,4.504690423583984
5959487502568,1.997629009,1,-2.7066449768066403,7.924807495117187,4.429273071289062
5959490358922,2.000485363,1,-2.6695348510742187,7.849390142822265,4.388571643066406
5959493219808,2.003346249,1,-2.6216508178710938,7.8541785461425775,4.375403533935547
5959496076683,2.006203124,1,-2.6527754394531247,7.8733321594238275,4.346673114013671
5959498931475,2.009057916,1,-2.6515783386230467,7.826645227050781,4.339490509033203
5959501788766,2.011915207,1,-2.7257985900878903,7.76319888305664,4.3825861389160155
5959504648193,2.014774634,1,-2.711433380126953,7.811082916259765,4.475960003662109
5959507501787,2.017628228,1,-2.730586993408203,7.734468463134765,4.534617944335937
5959510359808,2.020486249,1,-2.73896669921875,7.762001782226562,4.631583111572265
5959513219912,2.023346353,1,-2.711433380126953,7.742848168945312,4.825513446044922
5959516079079,2.02620552,1,-2.711433380126953,7.750030773925781,4.904522100830078
5959518932100,2.029058541,1,-2.6108769104003904,7.81467421875,5.02423218383789
5959521788245,2.031914686,1,-2.5163059448242184,7.903259680175781,5.137956762695312
5959524647829,2.03477427,1,-2.492363928222656,7.750030773925781,5.185840795898438
5959527502100,2.037628541,1,-2.511517541503906,7.781155395507812,5.110423443603516
5959530359443,2.040485884,1,-2.655169641113281,7.789535101318359,5.416881256103515
5959533219235,2.043345676,1,-2.7581203125,7.8338278320312495,5.473144995117187
5959536076527,2.046202968,1,-2.8718448913574215,7.78235249633789,5.679046337890624
5959538931162,2.049057603,1,-2.8730419921875,7.716511950683593,5.737704278564453
5959541787568,2.051914009,1,-3.3710359375,7.582436657714843,5.931634613037109
5959544651891,2.054778332,1,-3.071760729980469,7.492654095458984,5.616797094726562
5959547502933,2.057629374,1,-3.2154128295898436,7.827842327880859,5.31153638305664
5959550359964,2.060486405,1,-3.417722869873047,7.82065972290039,5.321113189697265
5959553219443,2.063345884,1,-3.353079425048828,7.651868505859374,5.482721801757812
5959556076370,2.066202811,1,-3.3973721557617185,7.762001782226562,5.461173986816406
5959558931058,2.069057499,1,-3.3590649291992185,8.034940771484374,5.087678527832031
5959561788454,2.071914895,1,-3.4428619873046875,8.239645013427733,4.872200378417968
5959564647829,2.07477427,1,-4.013879083251953,8.026561065673828,4.754884497070313
5959567502672,2.077629113,1,-3.9145197143554684,7.8170684204101555,4.390965844726562
5959570359808,2.080486249,1,-3.861847277832031,7.829039428710937,3.9085342102050777
5959573219287,2.083345728,1,-3.8235400512695312,7.8924857727050775,3.594893792724609
5959576076006,2.086202447,1,-3.7301661865234372,7.856572747802734,3.432088079833984
5959578930433,2.089056874,1,-4.036623999023437,7.711723547363281,3.324349005126953
5959581788350,2.091914791,1,-3.403357659912109,7.765593084716796,3.220201232910156
5959584647620,2.094774061,1,-3.3961750549316405,7.918821990966796,3.046621612548828
5959587502256,2.097628697,1,-3.066972326660156,8.298302954101562,2.9544448486328125
5959590357777,2.100484218,1,-2.789244934082031,8.402450726318358,2.9544448486328125
5959593217256,2.103343697,1,-2.6707319519042967,8.373720306396484,2.959233251953125
5959596076579,2.10620302,1,-2.519897247314453,8.328230474853514,2.9089550170898435
5959598930797,2.109057238,1,-2.501940734863281,8.31865366821289,2.7281927917480466
5959601788506,2.111914947,1,-2.4001871643066406,8.291120349121094,2.464830609130859
5959604647985,2.114774426,1,-2.7150246826171873,8.26119282836914,2.6144682128906247
5959607502152,2.117628593,1,-2.6587609436035153,8.218097198486328,2.3810335510253906
5959610359183,2.120485624,1,-2.586934893798828,8.254010223388672,2.3139959045410157
5959613219600,2.123346041,1,-2.462436407470703,8.265981231689453,2.252943762207031
5959616076162,2.126202603,1,-2.5258827514648434,8.196549383544921,2.3415292236328122
5959618930120,2.129056561,1,-2.8036101440429686,8.135497241210937,2.5007436340332028
5959621788037,2.131914478,1,-2.863465185546875,8.051700183105469,2.555810272216797
5959624648714,2.134775155,1,-2.722207287597656,7.958326318359375,2.578555187988281
5959627502412,2.137628853,1,-2.703053674316406,7.82065972290039,2.93050283203125
5959630360016,2.140486457,1,-2.50912333984375,7.996633544921875,3.0550013183593747
5959633220016,2.143346457,1,-2.3487118286132813,8.01818135986328,2.981978167724609
5959636076422,2.146202863,1,-2.393004559326172,7.864952453613281,3.1376012756347653
5959638932204,2.149058645,1,-2.393004559326172,7.708132244873046,3.209427325439453
5959641787985,2.151914426,1,-2.327164013671875,7.678204724121093,3.0442274108886718
5959644646318,2.154772759,1,-2.539050860595703,7.665036614990234,2.9939491760253905
5959647504547,2.157630988,1,-2.7641058166503907,7.511807708740234,2.8993782104492185
5959650360225,2.160486666,1,-2.7748797241210936,7.428010650634765,2.8227637573242186
5959653219079,2.16334552,1,-2.886210101318359,7.456741070556641,2.8227637573242186
5959656076162,2.166202603,1,-2.8993782104492185,7.547720733642578,2.7736826232910157
5959658930537,2.169056978,1,-2.999934680175781,7.551312036132812,2.8131869506835936
5959661788350,2.171914791,1,-3.0119056884765625,7.528567120361328,2.932897033691406
5959664648818,2.174775259,1,-2.893392706298828,7.430404852294921,2.958036151123047
5959667502412,2.177628853,1,-2.8143840515136715,7.504625103759765,3.017891192626953
5959670359391,2.180485832,1,-2.730586993408203,7.6279264892578125,2.9939491760253905
5959673218714,2.183345155,1,-2.6611551452636717,7.735665563964844,3.027467999267578
5959676076214,2.186202655,1,-2.6479870361328124,7.885303167724609,2.953247747802734
5959678930745,2.189057186,1,-2.70065947265625,7.896077075195312,2.8706477905273435
5959681788350,2.191914791,1,-2.8526912780761715,7.848193041992187,2.8562825805664063
5959684648089,2.19477453,1,-2.8754361938476563,7.7787611938476555,2.730586993408203
5959687502308,2.197628749,1,-2.8790274963378906,7.80150610961914,2.7042507751464844
5959690359860,2.200486301,1,-2.8479028747558592,7.953537915039062,2.721010186767578
5959693219183,2.203345624,1,-2.7952304382324216,8.022969763183593,2.5917232971191404
5959696075902,2.206202343,1,-2.6312276245117188,8.087613208007811,2.6491841369628903
5959698930902,2.209057343,1,-2.7066449768066403,8.066065393066406,2.6767174560546874
5959701787881,2.211914322,1,-2.5534160705566404,7.995436444091796,2.559401574707031
5959704646839,2.21477328,1,-2.5378537597656248,8.070853796386718,2.577358087158203
5959707502985,2.217629426,1,-2.598905902099609,7.917624890136718,2.4851813232421875
5959710359287,2.220485728,1,-2.7198130859375,7.827842327880859,2.596511700439453
5959713220016,2.223346457,1,-2.7665000183105466,7.68658442993164,2.443282794189453
5959716076370,2.226202811,1,-2.8502970764160156,7.5908163635253905,2.3523031311035156
5959718930849,2.22905729,1,-2.914940521240234,7.5537062377929685,2.375048046875
5959721787516,2.231913957,1,-2.9640216552734375,7.444770062255859,2.261323468017578
5959724648245,2.234774686,1,-3.0071172851562498,7.317877374267578,2.2756886779785157
5959727502360,2.237628801,1,-3.0633810241699218,7.199364392089843,2.398990063476562
5959730359808,2.240486249,1,-3.104082452392578,7.101202124023437,2.3630770385742186
5959733219339,2.24334578,1,-3.1495722839355467,7.036558679199218,2.376245147705078
5959736076214,2.246202655,1,-3.1783027038574216,6.910863092041015,2.4911668273925778
5959738930537,2.249056978,1,-3.180696905517578,6.811503723144531,2.5043349365234375
5959741788193,2.251914634,1,-3.2333693420410152,6.698976245117187,2.530671154785156
5959744649235,2.254775676,1,-3.2549171569824216,6.6510922119140625,2.5067291381835934
5959747502724,2.257629165,1,-3.181894006347656,6.533776330566406,2.529474053955078
5959750359756,2.260486197,1,-3.1387983764648437,6.511031414794921,2.483984222412109
5959753219235,2.263345676,1,-3.0909143432617188,6.5972226745605465,2.443282794189453
5959756076110,2.266202551,1,-2.922123126220703,6.766013891601562,2.440888592529297
5959758930277,2.269056718,1,-2.941276739501953,6.848613848876953,2.4001871643066406
5959761787777,2.271914218,1,-2.788047833251953,6.836642840576172,2.4756045166015626
5959764648245,2.274774686,1,-2.644395733642578,6.785167504882812,2.512714642333984
5959767502724,2.277629165,1,-2.528276953125,6.88213267211914,2.469619012451172
5959770359339,2.28048578,1,-2.4289175842285156,6.88213267211914,2.474407415771484
5959773219183,2.283345624,1,-2.2673089721679687,7.001842755126953,2.530671154785156
5959776075485,2.286201926,1,-2.194285821533203,7.029376074218749,2.530671154785156
5959778930641,2.289057082,1,-2.2266075439453124,7.198167291259765,2.6144682128906247
5959781788558,2.291914999,1,-2.3044190979003907,7.433996154785156,2.636016027832031
5959784648402,2.294774843,1,-2.407369769287109,7.60398447265625,2.6683377502441403
5959787502099,2.29762854,1,-2.5139117431640625,7.635109094238281,2.722207287597656
5959790359860,2.300486301,1,-2.730586993408203,7.620743884277343,2.8993782104492185
5959793219704,2.303346145,1,-2.8730419921875,7.6087728759765625,2.9747955627441405
5959796076266,2.306202707,1,-3.009511486816406,7.752424975585937,2.9795839660644527
5959798930537,2.309056978,1,-3.1543606872558594,7.813477117919922,3.0980969482421874
5959801788349,2.31191479,1,-3.3195606018066406,7.841010437011718,3.210624426269531
5959804647881,2.314774322,1,-3.469198205566406,7.953537915039062,3.423708374023437
5959807501735,2.317628176,1,-3.5314474487304683,7.936778503417968,3.479972113037109
5959810360016,2.320486457,1,-3.5984850952148437,7.904456781005859,3.6355952209472653
5959813219808,2.323346249,1,-3.7134067749023436,7.7979148071289055,3.9049429077148434
5959816076318,2.326202759,1,-3.8007951354980465,7.811082916259765,3.9743747558593747
5959818930433,2.329056874,1,-3.5996821960449217,7.7787611938476555,4.042609503173828
5959821792724,2.331919165,1,-3.5517981628417967,7.678204724121093,4.259284753417968
5959824651058,2.334777499,1,-3.7050270690917966,7.4782888854980465,4.469974499511719
5959827502360,2.337628801,1,-3.6750995483398436,7.4962453979492185,4.6627077331542965
5959830360329,2.34048677,1,-3.4775779113769527,7.4962453979492185,4.8506525634765625
5959833220016,2.343346457,1,-3.423708374023437,7.536946826171874,4.867411975097656
5959836076058,2.346202499,1,-3.3123779968261715,7.615955480957031,5.173869787597656
5959838928870,2.349055311,1,-3.2345664428710936,7.714117749023437,5.4899044067382805
5959841790224,2.351916665,1,-3.1794998046874996,7.900865478515625,5.738901379394531
5959844647933,2.354774374,1,-2.900575311279297,8.042123376464843,5.968744738769531
5959847501735,2.357628176,1,-3.068169427490234,8.136694342041014,6.28837066040039
5959850359808,2.360486249,1,-2.558204473876953,8.039729174804688,6.469132885742187
5959853219599,2.36334604,1,-2.291250988769531,8.190563879394531,6.616376287841796
5959856076370,2.366202811,1,-2.2457611572265623,8.37611450805664,6.872555865478515
5959858931214,2.369057655,1,-2.1033061584472654,8.250418920898436,7.205349896240234
5959861787881,2.371914322,1,-2.0925322509765625,8.38329711303711,7.547720733642578
5959864648402,2.374774843,1,-2.0183119995117185,8.453926062011718,7.753622076416015
5959867501839,2.37762828,1,-2.005143890380859,8.640673791503906,7.979874133300781
5959870359131,2.380485572,1,-2.0937293518066404,8.687360723876953,8.084021905517577
5959873219079,2.38334552,1,-2.139219183349609,8.67658681640625,8.097190014648437
5959876076318,2.386202759,1,-2.385821954345703,8.595183959960938,8.08881030883789
5959878932256,2.389058697,1,-2.5258827514648434,8.43956085205078,7.957129217529296
5959881788245,2.391914686,1,-2.596511700439453,8.330624676513672,7.747636572265624
5959884647985,2.394774426,1,-2.902969512939453,8.20971749267578,7.350199096679687
5959887502464,2.397628905,1,-3.0741549316406247,8.160636358642577,7.037755780029296
5959890359912,2.400486353,1,-3.209427325439453,8.117540728759765,6.606799481201172
5959893218974,2.403345415,1,-3.1735143005371094,7.811082916259765,6.369773516845703
5959896076006,2.406202447,1,-3.201047619628906,7.690175732421874,6.330269189453125
5959898931058,2.409057499,1,-3.104082452392578,7.5153990112304685,6.023811376953125
5959901788037,2.411914478,1,-3.153163586425781,7.495048297119141,5.76523759765625
5959904647881,2.414774322,1,-3.1794998046874996,7.411251239013671,5.354632012939453
5959907501943,2.417628384,1,-3.189076611328125,7.344213592529297,5.204994409179688
5959910360068,2.420486509,1,-3.0933085449218747,7.289146954345703,4.963180041503906
5959913219235,2.423345676,1,-3.1112650573730467,7.311891870117187,4.911704705810546
5959916075745,2.426202186,1,-2.883815899658203,7.3478048950195305,4.841075756835937
5959918930381,2.429056822,1,-2.7820623291015623,7.406462835693359,4.817133740234374
5959921789026,2.431915467,1,-2.488772625732422,7.484274389648437,4.957194537353515
5959924647620,2.434774061,1,-2.270900274658203,7.665036614990234,5.1523219726562495
5959927502724,2.437629165,1,-2.020706201171875,7.842207537841796,5.266046551513671
5959930359912,2.440486353,1,-1.8710685974121093,8.0062103515625,5.510255120849609
5959933219495,2.443345936,1,-1.7525556152343749,8.10197841796875,5.79037671508789
5959936076058,2.446202499,1,-1.714248388671875,8.232462408447265,6.004657763671875
5959938931787,2.449058228,1,-1.70467158203125,8.311471063232421,6.185419989013671
5959941788870,2.451915311,1,-1.7956512451171873,8.307879760742187,6.166266375732421
5959944645485,2.454771926,1,-1.7860744384765623,8.37012900390625,6.331466290283203
5959947502620,2.457629061,1,-2.0925322509765625,8.289923248291014,6.458358978271484
5959950359391,2.460485832,1,-2.402581365966797,8.317456567382813,6.318298181152343
5959953219443,2.463345884,1,-2.521094348144531,8.317456567382813,6.264428643798828
5959956076422,2.466202863,1,-2.5905261962890624,8.355763793945313,6.2021794006347655
5959958930693,2.469057134,1,-2.541445062255859,8.33182177734375,6.2021794006347655
5959961788401,2.471914842,1,-2.3439234252929686,8.210914593505859,6.1818286865234375
5959964648245,2.474774686,1,-2.070984436035156,8.139088543701172,6.02022007446289
5959967502256,2.477628697,1,-1.7944541442871094,8.151059552001952,5.852625958251953
5959970359547,2.480485988,1,-1.600523809814453,7.9655089233398435,5.6407391113281244
5959973219860,2.483346301,1,-1.4161702819824218,7.728482958984374,5.295974072265625
5959976076318,2.486202759,1,-1.3239935180664062,7.4782888854980465,5.030217687988281
5959978931110,2.489057551,1,-1.4377180969238281,7.234080316162109,4.647145422363281
5959981788089,2.49191453,1,-1.7513585144042967,6.800729815673828,4.260481854248047
5959984648922,2.494775363,1,-1.686715069580078,6.457161877441406,3.906140008544922
5959987502256,2.497628697,1,-1.5346832641601562,6.235698223876953,3.535038751220703
5959990359547,2.500485988,1,-1.608903515625,6.151901165771484,3.3399113159179685
5959993219391,2.503345832,1,-1.5251064575195312,6.25006343383789,3.1663316955566403
5959996074287,2.506200728,1,-1.4915876342773438,6.272808349609375,2.9568390502929685
5959998931266,2.509057707,1,-1.6699556579589843,6.228515618896484,2.8335376647949215
5960001788297,2.511914738,1,-1.889025109863281,6.092046124267577,2.6898855651855467
5960004647360,2.514773801,1,-1.9189526306152342,5.747281085205078,2.503137835693359
5960007503141,2.517629582,1,-1.7657237243652342,5.816712933349609,2.579752288818359
5960010359912,2.520486353,1,-2.1894974182128903,5.760449194335937,2.366668341064453
5960013219235,2.523345676,1,-2.1260510742187497,6.2201359130859375,2.3343466186523436
5960016077308,2.526203749,1,-2.005143890380859,6.398503936767578,2.655169641113281
5960018930693,2.529057134,1,-1.9752163696289062,6.279990954589843,2.6491841369628903
5960021788297,2.531914738,1,-1.879448303222656,6.350619903564453,2.8024130432128906
5960024648662,2.534775103,1,-1.7298106994628906,6.665457421875,2.887407202148437
5960027502829,2.53762927,1,-1.8148048583984373,6.871358764648437,3.015496990966797
5960030359860,2.540486301,1,-1.9584569580078124,7.018602166748046,3.1304186706542967
5960033219183,2.543345624,1,-2.0781670410156248,7.184999182128906,3.1794998046874996
5960036076058,2.546202499,1,-2.118868469238281,7.417236743164062,3.296815686035156
5960038930485,2.549056926,1,-2.1068974609374997,7.538143927001952,3.27526787109375
5960041788193,2.551914634,1,-2.1487959899902345,7.643488800048828,3.383006945800781
5960044648245,2.554774686,1,-2.175132208251953,7.7608046813964835,3.404554760742187
5960047502360,2.557628801,1,-2.1703438049316404,7.769184387207031,3.4871547180175777
5960050359391,2.560485832,1,-2.2014684265136717,7.758410479736328,3.5218706420898434
5960053219026,2.563345467,1,-2.300827795410156,7.660248211669922,3.5015199279785154
5960056076943,2.566203384,1,-2.3151930053710936,7.558494641113281,3.4153286682128905
5960058931422,2.569057863,1,-2.3307553161621093,7.377732415771484,3.3674446350097655
5960061787516,2.571913957,1,-2.3594857360839843,7.195773089599609,3.2812533752441406
5960064648349,2.57477479,1,-2.3774422485351563,6.993463049316406,3.113659259033203
5960067501579,2.57762802,1,-2.3068132995605466,6.745663177490234,2.9364883361816405
5960070359495,2.580485936,1,-2.3068132995605466,6.586448767089843,2.7844565307617186
5960073219391,2.583345832,1,-2.2266075439453124,6.518214019775391,2.6862942626953124
5960076076214,2.586202655,1,-2.175132208251953,6.36498511352539,2.5139117431640625
5960078931214,2.589057655,1,-2.091335150146484,6.190208392333984,2.5665841796874997
5960081787412,2.591913853,1,-2.053027923583984,6.013037469482422,2.4133552734375
5960084648089,2.59477453,1,-1.8746598999023436,5.993883856201172,2.2924480895996093
5960087499235,2.597625676,1,-1.9632453613281249,5.998672259521484,2.1799206115722654
5960090359339,2.60048578,1,-1.897404815673828,5.953182427978516,2.062604730224609
5960093220120,2.603346561,1,-1.8267758666992187,5.829881042480468,1.956062756347656
5960096082933,2.606209374,1,-1.886630908203125,5.7508723876953125,1.7298106994628906
5960098933818,2.609060259,1,-1.8507178833007811,5.719747766113281,1.5550339782714844
5960101788349,2.61191479,1,-2.001552587890625,5.737704278564453,1.2629413757324217
5960104647829,2.61477427,1,-2.0159177978515626,5.7891796142578125,1.1420341918945311
5960107502360,2.617628801,1,-1.905784521484375,5.863399865722656,0.967257470703125
5960110359599,2.62048604,1,-1.9201497314453124,5.910086798095703,0.9828197814941406
5960113219547,2.623345988,1,-1.7477672119140624,6.003460662841796,0.9145850341796874
5960116075224,2.626201665,1,-1.6579846496582031,6.215347509765625,1.0582371337890624
5960118931943,2.629058384,1,-1.4879963317871092,6.418854650878906,1.1168950744628905
5960121788766,2.631915207,1,-1.1240776794433593,6.137535955810547,1.5837643981933593
5960124648558,2.634774999,1,-1.5059528442382812,6.063315704345703,2.139219183349609
5960127501943,2.637628384,1,-1.5215151550292967,6.647500909423828,2.1547814941406247
5960130359808,2.640486249,1,-1.3682862487792968,7.299920861816406,2.068590234375
5960133219391,2.643345832,1,-1.4161702819824218,7.254431030273437,2.2780828796386716
5960136076162,2.646202603,1,-1.6352397338867186,7.560888842773437,2.596511700439453
5960138931058,2.649057499,1,-1.7956512451171873,7.697358337402343,3.0214824951171875
5960141787985,2.651914426,1,-1.8064251525878905,7.842207537841796,2.962824554443359
5960144648453,2.654774894,1,-1.9680337646484374,8.020575561523437,3.2692823669433593
5960147501891,2.657628332,1,-1.9500772521972656,8.39526812133789,3.470395306396484
5960150360537,2.660486978,1,-2.020706201171875,8.627505682373046,3.756502404785156
5960153220016,2.663346457,1,-2.013523596191406,8.752004168701172,4.192247106933594
5960156076370,2.666202811,1,-1.6172832214355468,8.921992486572265,4.369418029785156
5960158930693,2.669057134,1,-1.879448303222656,9.064447485351561,4.740519287109374
5960161787464,2.671913905,1,-1.7022773803710936,9.156624249267578,5.116408947753906
5960164648506,2.674774947,1,-1.6998831787109374,9.04050546875,5.366603021240234
5960167502256,2.677628697,1,-1.898601916503906,8.911218579101561,5.760449194335937
5960170359808,2.680486249,1,-1.9979612854003905,8.728062152099609,5.967547637939453
5960173219287,2.683345728,1,-2.014720697021484,8.66940421142578,6.137535955810547
5960176075433,2.686201874,1,-2.048239520263672,8.494627490234375,6.400898138427734
5960178930381,2.689056822,1,-2.039859814453125,8.321047869873047,6.609193682861328
5960181787516,2.691913957,1,-2.104503259277344,8.14028564453125,6.769605194091796
5960184647672,2.694774113,1,-2.1835119140624997,8.019378460693359,6.892906579589844
5960187501474,2.697627915,1,-2.3139959045410157,7.844601739501953,6.992265948486327
5960190359651,2.700486092,1,-2.426523382568359,7.655459808349609,6.941987713623046
5960193219808,2.703346249,1,-2.426523382568359,7.444770062255859,6.74805737915039
5960196075953,2.706202394,1,-2.1595698974609374,7.430404852294921,6.68461103515625
5960198930849,2.70905729,1,-2.224213342285156,7.277175946044921,6.7037646484375
5960201788714,2.711915155,1,-2.3977929626464842,6.968323931884766,6.593631372070312
5960204648297,2.714774738,1,-2.4959552307128905,6.87614716796875,6.593631372070312
5960207502151,2.717628592,1,-2.5821464904785154,6.818686328125,6.2584431396484375
5960210359756,2.720486197,1,-2.627636322021484,6.811503723144531,5.966350537109375
5960213220172,2.723346613,1,-2.6396073303222654,6.740874774169922,5.834669445800781
5960216076006,2.726202447,1,-2.636016027832031,6.623558892822265,5.730521673583984
5960218929026,2.729055467,1,-3.086125939941406,6.623558892822265,5.616797094726562
5960221789339,2.73191578,1,-4.216189123535156,6.424840155029297,5.377376928710937
5960224649235,2.734775676,1,-3.928884924316406,6.132747552490234,4.57771357421875
5960227501787,2.737628228,1,-4.012681982421875,6.104017132568359,3.881000891113281
5960230359808,2.740486249,1,-3.782838623046875,6.203376501464843,3.70263286743164
5960233219547,2.743345988,1,-3.515885137939453,6.320692382812499,3.9600095458984375
5960236076266,2.746202707,1,-2.6946739685058594,6.714538555908203,4.216189123535156
5960238930849,2.74905729,1,-1.7872715393066405,7.3861121215820305,4.6255976074218745
5960241787933,2.751914374,1,-1.0905588562011719,7.819462622070312,4.995501763916016
5960244648297,2.754774738,1,-0.6009446166992187,8.22288560180664,5.455188482666015
5960247502360,2.757628801,1,-0.5494692810058593,8.546102825927735,5.6754550354003905
5960250359756,2.760486197,1,-0.488417138671875,8.731653454589843,5.6778492370605465
5960253216995,2.763343436,1,-0.7948749511718749,8.888473663330078,5.740098480224609
5960256077308,2.766203749,1,-1.1552023010253905,8.984241729736327,5.6395420104980465
5960258930641,2.769057082,1,-1.8327613708496093,8.984241729736327,5.536591339111328
5960261787881,2.771914322,1,-2.462436407470703,9.12310542602539,5.6024318847656245
5960264648089,2.77477453,1,-3.1304186706542967,9.198522778320312,5.634753607177734
5960267501474,2.777627915,1,-3.506308331298828,9.374496600341796,5.634753607177734
5960270359860,2.780486301,1,-3.7804444213867185,9.510966094970703,5.766434698486328
5960273219860,2.783346301,1,-3.9803602600097654,9.611522564697266,5.917269403076172
5960276076787,2.786203228,1,-4.00310517578125,9.623493572998047,6.069301208496094
5960278931110,2.789057551,1,-4.016273284912109,9.609128363037108,6.160280871582031
5960281788193,2.791914634,1,-4.056974713134766,9.54448491821289,6.119579443359375
5960284648297,2.794774738,1,-4.101267443847656,9.453505255126952,6.174646081542968
5960287502047,2.797628488,1,-3.986345764160156,9.358934289550781,6.0513446960449215
5960290359287,2.800485728,1,-3.883395092773437,9.187748870849608,6.102820031738281
5960293218558,2.803344999,1,-3.8091748413085935,8.963891015625,6.151901165771484
5960296076214,2.806202655,1,-3.5110967346191404,8.98304462890625,6.007051965332031
5960298930849,2.80905729,1,-3.383006945800781,8.981847528076171,5.983109948730468
5960301787724,2.811914165,1,-3.2728736694335936,8.781931689453124,6.087257720947266
5960304647724,2.814774165,1,-3.1447838806152344,8.57962164916992,5.91846650390625
5960307502672,2.817629113,1,-3.114856359863281,8.361749298095702,5.766434698486328
5960310359599,2.82048604,1,-3.096899847412109,8.212111694335936,5.550956549072265
5960313218922,2.823345363,1,-3.1938650146484373,7.991845141601562,5.331887097167969
5960316076006,2.826202447,1,-3.1938650146484373,7.694964135742187,5.145139367675781
5960318929808,2.829056249,1,-3.3446997192382812,7.812280017089844,4.934449621582031
5960321787516,2.831913957,1,-3.3578678283691406,7.505822204589843,4.7189714721679685
5960324649287,2.834775728,1,-3.2632968627929686,7.363367205810547,4.598064288330078
5960327502360,2.837628801,1,-3.2166099304199216,7.176619476318359,4.444835382080078
5960330359651,2.840486092,1,-3.0502129150390624,6.998251452636718,4.31554849243164
5960333218818,2.843345259,1,-2.922123126220703,6.825868933105468,4.110844250488281
5960336045016,2.846171457,1,-2.6216508178710938,6.752845782470703,3.9815573608398434
5960338930849,2.84905729,1,-2.360682836914062,6.698976245117187,3.758896606445312
5960341788922,2.851915363,1,-2.079364141845703,6.616376287841796,3.611653204345703
5960344647776,2.854774217,1,-1.9512743530273435,6.555324145507812,3.4931402221679684
5960347501630,2.857628071,1,-1.7405846069335937,6.555324145507812,3.4919431213378904
5960350359964,2.860486405,1,-1.5263035583496092,6.527790826416015,3.337517114257812
5960353219026,2.863345467,1,-1.5131354492187499,6.448782171630859,3.3291374084472656
5960356075641,2.866202082,1,-1.5215151550292967,6.348225701904297,3.2166099304199216
5960358930589,2.86905703,1,-1.4832079284667967,6.295553265380859,3.1591490905761717
5960361787776,2.871914217,1,-1.5370774658203123,6.26921704711914,2.9664158569335934
5960364647412,2.874773853,1,-1.6555904479980468,6.257246038818359,3.0035259826660154
5960367502360,2.877628801,1,-1.7585411193847655,6.313509777832031,2.9460651428222655
5960370366787,2.880493228,1,-1.7693150268554687,6.218938812255859,2.7724855224609373
5960373222308,2.883348749,1,-1.6986860778808592,6.147112762451171,2.8275521606445313
5960376076266,2.886202707,1,-1.8519149841308593,6.203376501464843,2.750937707519531
5960378931058,2.889057499,1,-1.9871873779296874,6.13514175415039,2.6036943054199218
5960381788037,2.891914478,1,-2.0973206542968748,6.28837066040039,2.536656658935547
5960384648089,2.89477453,1,-2.0925322509765625,6.287173559570312,2.5163059448242184
5960387502308,2.897628749,1,-2.1619640991210938,6.238092425537109,2.536656658935547
5960390360849,2.90048729,1,-2.221819140625,6.265625744628906,2.3834277526855465
5960393219078,2.903345519,1,-2.2110452331542967,6.141127258300781,2.3151930053710936
5960396076474,2.906202915,1,-2.2493524597167966,6.076483813476562,2.1966800231933594
5960398930328,2.909056769,1,-2.310404602050781,6.028599780273437,2.0829554443359375
5960401788558,2.911914999,1,-2.3020248962402343,5.985504150390625,1.8255787658691405
5960404647255,2.914773696,1,-2.4516625,5.893327386474609,1.687912170410156
5960407503037,2.917629478,1,-2.4193407775878906,5.820304235839844,1.5107412475585937
5960410359547,2.920485988,1,-2.4253262817382812,5.823895538330078,1.351526837158203
5960413218766,2.923345207,1,-2.469619012451172,5.737704278564453,1.2928688964843749
5960416076162,2.926202603,1,-2.501940734863281,5.829881042480468,1.1109095703125
5960418931318,2.929057759,1,-2.5163059448242184,5.850231756591796,1.0510545288085937
5960421788297,2.931914738,1,-2.559401574707031,5.865794067382812,0.9720458740234375
5960424647516,2.934773957,1,-2.5139117431640625,5.907692596435546,1.0558429321289062
5960427502047,2.937628488,1,-2.517503045654297,6.13514175415039,1.0307038146972656
5960430359391,2.940485832,1,-2.3415292236328122,6.193799694824218,1.0570400329589844
5960433220068,2.943346509,1,-2.474407415771484,6.512228515625,1.1767501159667968
5960436076474,2.946202915,1,-2.460042205810547,6.120776544189453,1.6627730529785156
5960438930433,2.949056874,1,-2.460042205810547,6.283582257080078,1.7214309936523438
5960441787933,2.951914374,1,-2.616862414550781,6.394912634277343,1.8064251525878905
5960444647620,2.954774061,1,-2.902969512939453,7.0078282592773435,1.9895815795898437
5960447501266,2.957627707,1,-3.1184476623535153,7.222109307861328,1.8567033874511718
5960450359755,2.960486196,1,-3.3303345092773435,7.184999182128906,2.469619012451172
5960453217255,2.963343696,1,-3.1603461914062496,7.20774409790039,2.8012159423828122
5960456074287,2.966200728,1,-2.887407202148437,7.4794859863281244,3.019088293457031
5960458930641,2.969057082,1,-2.759317413330078,7.75721337890625,3.475183709716797
5960461787568,2.971914009,1,-2.7820623291015623,7.882908966064453,3.8091748413085935
5960464649808,2.974776249,1,-2.8945898071289062,7.948749511718749,4.226963031005859
5960467501422,2.977627863,1,-3.0789433349609374,8.015787158203125,4.496310717773437
5960470359287,2.980485728,1,-3.4069489624023435,8.16542476196289,4.5968671875
5960473218922,2.983345363,1,-3.5410242553710933,8.32463917236328,4.7572786987304685
5960476075849,2.98620229,1,-3.8486791687011714,8.28633194580078,4.952406134033203
5960478930328,2.989056769,1,-3.912125512695312,8.384494213867187,5.2828059631347655
5960481788349,2.99191479,1,-3.907337109375,8.435969549560546,5.531802935791015
5960484647985,2.994774426,1,-3.797203833007812,8.488641986083984,5.68862314453125
5960487501995,2.997628436,1,-3.6176387084960937,8.51018980102539,5.945999822998046
5960490359235,3.000485676,1,-3.3494881225585935,8.45991156616211,6.130353350830077
5960493218662,3.003345103,1,-3.114856359863281,8.440757952880858,6.1650692749023435
5960496075849,3.00620229,1,-3.1639374938964844,8.346186987304687,6.191405493164062
5960498930953,3.009057394,1,-3.010708587646484,8.166621862792969,6.057330200195312
5960501788297,3.011914738,1,-2.924517327880859,8.122329132080077,5.936423016357422
5960504642099,3.01476854,1,-3.028665100097656,7.969100225830077,5.586869573974609
5960507501943,3.017628384,1,-2.9795839660644527,7.750030773925781,5.42645806274414
5960510359287,3.020485728,1,-2.6946739685058594,7.498639599609374,5.510255120849609
5960513218974,3.023345415,1,-2.6994623718261717,7.334636785888671,5.3570262145996095
5960516075953,3.026202394,1,-2.481590020751953,7.205349896240234,5.248090039062499
5960518931474,3.029057915,1,-2.3367408203125,7.151480358886718,5.078101721191406
5960521788349,3.03191479,1,-2.1978771240234374,7.164648468017577,4.990713360595703
5960524647828,3.034774269,1,-2.0554221252441405,7.189787585449218,4.905719201660156
5960527502047,3.037628488,1,-2.029085906982422,7.168239770507812,4.96078583984375
5960530358453,3.040484894,1,-2.185906115722656,7.268796240234375,4.946420629882812
5960533219391,3.043345832,1,-2.3247698120117186,7.471106280517578,5.040991595458984
5960536076578,3.046203019,1,-2.460042205810547,7.673416320800781,5.233724829101562
5960538928297,3.049054738,1,-2.6958710693359373,7.887697369384765,5.560533355712891
5960541788349,3.05191479,1,-2.6659435485839844,8.218097198486328,5.723339068603515
5960544648037,3.054774478,1,-3.0705636291503904,8.544905725097657,6.215347509765625
5960547502203,3.057628644,1,-3.104082452392578,8.846575134277343,6.618770489501952
5960550359495,3.060485936,1,-3.381809844970703,9.114725720214842,7.07366880493164
5960553218610,3.063345051,1,-3.5817256835937497,9.36013139038086,7.509413507080078
5960556075120,3.066201561,1,-3.659537237548828,9.52533130493164,7.945158209228516
5960558929755,3.069056196,1,-3.768473413085937,9.759963067626952,8.301894256591796
5960561787255,3.071913696,1,-4.074931225585937,9.913191973876952,8.670601312255858
5960564647985,3.074774426,1,-4.495113616943359,9.944316595458984,8.95670841064453
5960567502724,3.077629165,1,-4.655525128173828,9.944316595458984,9.038111267089842
5960570359339,3.08048578,1,-4.8326960510253905,9.987412225341796,9.005789544677734
5960573216526,3.083342967,1,-4.8889597900390624,10.022128149414062,9.159018450927734
5960576076526,3.086202967,1,-4.722562774658203,9.865307940673828,9.03332286376953
5960578930224,3.089056665,1,-4.42448466796875,9.67856021118164,9.064447485351561
5960581787776,3.091914217,1,-4.056974713134766,9.430760339355468,8.869320050048827
5960584645432,3.094771873,1,-3.6284126159667967,9.196128576660156,8.71489404296875
5960587502307,3.097628748,1,-3.228580938720703,8.950722906494141,8.45991156616211
5960590358505,3.100484946,1,-2.845508673095703,8.58680425415039,8.084021905517577
5960593219391,3.103345832,1,-2.481590020751953,8.281543542480469,7.630320690917968
5960596076526,3.106202967,1,-2.109291662597656,7.876923461914062,7.217320904541015
5960598931005,3.109057446,1,-1.8076222534179687,7.578845355224609,6.745663177490234
5960601788089,3.11191453,1,-1.4963760375976562,7.247248425292969,6.320692382812499
5960604647464,3.114773905,1,-1.2342109558105467,7.031770275878906,5.870582470703124
5960607502151,3.117628592,1,-0.9277531433105468,6.766013891601562,5.522226129150391
5960610358818,3.120485259,1,-0.6308721374511719,6.609193682861328,5.255272644042968
5960613218714,3.123345155,1,-0.42018239135742186,6.477512591552734,4.972756848144531
5960616076630,3.126203071,1,-0.4177881896972656,6.4284314575195305,4.698620758056641
5960618931370,3.129057811,1,-0.3794809631347656,6.457161877441406,4.404133953857421
5960621787620,3.131914061,1,-0.3794809631347656,6.4475850708007805,4.165910888671875
5960624647516,3.134773957,1,-0.45489831542968745,6.5780690612792965,4.024652990722656
5960627501735,3.137628176,1,-0.5135562561035156,6.424840155029297,3.8367081604003905
5960630359391,3.140485832,1,-0.6835445739746093,6.497863305664062,3.9372646301269527
5960633217985,3.143344426,1,-0.949300958251953,6.5218053222656245,3.784035723876953
5960636076214,3.146202655,1,-1.1468225952148436,6.53138212890625,3.7050270690917966
5960638930224,3.149056665,1,-1.3910311645507811,6.649895111083984,3.69664736328125
5960641788297,3.151914738,1,-1.618480322265625,6.76122548828125,3.6918589599609373
5960644646787,3.154773228,1,-1.7597382202148437,6.8785413696289055,3.73495458984375
5960647508037,3.157634478,1,-1.8626888916015625,6.995857250976562,3.805583538818359
5960650360693,3.160487134,1,-1.89620771484375,7.204152795410156,3.9276878234863277
5960653220068,3.163346509,1,-2.000355487060547,7.382520819091797,4.052186309814453
5960656075953,3.166202394,1,-2.0159177978515626,7.52737001953125,4.039018200683594
5960658931787,3.169058228,1,-2.1320365783691404,7.677007623291015,4.058171813964844
5960661787568,3.171914009,1,-2.152387292480469,7.76319888305664,4.039018200683594
5960664648557,3.174774998,1,-2.3834277526855465,7.784746697998046,3.9468414367675777
5960667502255,3.177628696,1,-2.3307553161621093,7.813477117919922,3.954024041748047
5960670360172,3.180486613,1,-2.4097639709472656,7.71890615234375,3.861847277832031
5960673218610,3.183345051,1,-2.503137835693359,7.633911993408202,3.687070556640625
5960676076682,3.186203123,1,-2.418143676757812,7.498639599609374,3.611653204345703
5960678931110,3.189057551,1,-2.4193407775878906,7.362170104980469,3.4452561889648434
5960681788193,3.191914634,1,-2.412158172607422,7.152677459716797,3.3207577026367185
5960684646735,3.194773176,1,-2.412158172607422,6.998251452636718,3.2405519470214843
5960687501943,3.197628384,1,-2.3427263244628906,6.975506536865234,3.134009973144531
5960690358974,3.200485415,1,-2.262520568847656,6.822277630615234,3.027467999267578
5960693219130,3.203345571,1,-2.2182278381347653,6.697779144287109,2.916137622070312
5960696076214,3.206202655,1,-2.474407415771484,6.582857464599609,3.0693665283203124
5960698931214,3.209057655,1,-2.412158172607422,6.372167718505859,2.938882537841797
5960701788089,3.21191453,1,-2.328361114501953,6.262034442138671,2.8754361938476563
5960704646891,3.214773332,1,-2.375048046875,6.210559106445312,2.883815899658203
5960707501735,3.217628176,1,-2.2445640563964844,6.194996795654297,2.876633294677734
5960710358766,3.220485207,1,-2.2960393920898436,6.1447185607910155,2.893392706298828
5960713218557,3.223344998,1,-2.270900274658203,6.264428643798828,2.887407202148437
5960716075641,3.226202082,1,-2.2170307373046874,6.301538769531249,2.958036151123047
5960718930172,3.229056613,1,-2.2756886779785157,6.374561920166015,2.914940521240234
5960721787880,3.231914321,1,-2.3499089294433593,6.475118389892578,2.912546319580078
5960724647672,3.234774113,1,-2.5258827514648434,6.439205364990234,2.867056488037109
5960727502203,3.237628644,1,-2.517503045654297,6.318298181152343,2.817975354003906
5960730359599,3.24048604,1,-2.6815058593749996,6.4080807434082026,2.868253588867187
5960733219651,3.243346092,1,-2.43250888671875,6.636727001953124,2.655169641113281
5960736077047,3.246203488,1,-2.4349030883789062,6.816292126464844,2.6240450195312497
5960738930953,3.249057394,1,-2.4516625,6.884526873779296,2.6503812377929687
5960741788141,3.251914582,1,-2.4289175842285156,6.813897924804687,2.645592834472656
5960744647985,3.254774426,1,-2.4289175842285156,6.9168485961914055,2.626439221191406
5960747501630,3.257628071,1,-2.450465399169922,7.031770275878906,2.511517541503906
5960750358401,3.260484842,1,-2.518700146484375,6.8785413696289055,2.445676995849609
5960753218974,3.263345415,1,-2.6587609436035153,6.8785413696289055,2.4013842651367185
5960756075901,3.266202342,1,-2.710236279296875,6.913257293701172,2.4013842651367185
5960758930120,3.269056561,1,-2.8119898498535156,6.867767462158203,2.1835119140624997
5960761787724,3.271914165,1,-2.877830395507812,6.811503723144531,2.184709014892578
5960764645120,3.274771561,1,-2.920926025390625,6.797138513183594,2.1691467041015624
5960767501318,3.277627759,1,-2.896984008789062,6.774393597412109,2.0973206542968748
5960770358922,3.280485363,1,-2.817975354003906,6.7277066650390625,2.033874310302734
5960773218714,3.283345155,1,-2.797624639892578,6.695384942626953,1.9895815795898437
5960776075953,3.286202394,1,-2.8191724548339843,6.8402341430664055,2.038662713623047
5960778931005,3.289057446,1,-2.7916391357421872,6.9360022094726554,2.019509100341797
5960781788089,3.29191453,1,-2.864662286376953,6.995857250976562,2.094926452636719
5960784647464,3.294773905,1,-3.005920184326172,6.979097839355468,2.1344307800292968
5960787501162,3.297627603,1,-2.981978167724609,6.959944226074218,2.2397756530761717
5960790359182,3.300485623,1,-3.0262708984374997,6.898892083740234,2.299630694580078
5960793219495,3.303345936,1,-3.0837317382812497,6.9515645202636716,2.3511060302734372
5960796076526,3.306202967,1,-3.0538042175292968,6.99705435180664,2.4672248107910155
5960798929859,3.3090563,1,-2.8610709838867185,6.912060192871094,2.6036943054199218
5960801787724,3.311914165,1,-2.8694506896972656,6.95874712524414,2.8754361938476563
5960804647307,3.314773748,1,-2.6779145568847653,7.012616662597656,3.1076737548828124
5960807502672,3.317629113,1,-2.5246856506347655,7.105990527343749,3.4452561889648434
5960810359703,3.320486144,1,-2.3642741394042965,7.061697796630859,3.6200329101562496
5960813219495,3.323345936,1,-2.1691467041015624,7.214926702880859,3.8666356811523435
5960816075901,3.326202342,1,-2.067393133544922,7.202955694580078,3.968389251708984
5960818930641,3.329057082,1,-1.8938135131835936,7.280767248535156,4.121618157958984
5960821787828,3.331914269,1,-1.8219874633789062,7.235277416992187,4.414907861328125
5960824647151,3.334773592,1,-1.8626888916015625,7.170633972167968,4.542997650146484
5960827501630,3.337628071,1,-1.9297265380859374,7.204152795410156,4.735730883789063
5960830357099,3.34048354,1,-1.9572598571777342,7.243657122802734,4.819527941894531
5960833218037,3.343344478,1,-2.029085906982422,7.184999182128906,5.014655377197266
5960836076682,3.346203123,1,-2.1212626708984375,7.129932543945312,5.109226342773437
5960838930589,3.34905703,1,-2.2852654846191407,7.267599139404297,5.232527728271484
5960841788714,3.351915155,1,-2.080561242675781,7.305906365966797,5.201403106689453
5960844648662,3.354775103,1,-2.270900274658203,7.401674432373047,5.343858105468749
5960847502203,3.357628644,1,-2.4564509033203126,7.36097300415039,5.345055206298828
5960850359339,3.36048578,1,-2.636016027832031,7.335833886718749,5.348646508789062
5960853218870,3.363345311,1,-2.8335376647949215,7.400477331542969,5.269637854003906
5960856076005,3.366202446,1,-3.0334535034179684,7.431601953125,5.204994409179688
5960858930589,3.36905703,1,-3.1663316955566403,7.487865692138671,5.137956762695312
5960861787776,3.371914217,1,-3.153163586425781,7.615955480957031,5.108029241943359
5960864647724,3.374774165,1,-3.201047619628906,7.733271362304687,5.127182855224609
5960867501682,3.377628123,1,-3.201047619628906,7.7967177062988275,5.2061915100097655
5960870359026,3.380485467,1,-3.1016882507324217,7.813477117919922,5.064933612060546
5960873218922,3.383345363,1,-2.9891607727050777,7.813477117919922,5.111620544433594
5960876076370,3.386202811,1,-3.105279553222656,8.002619049072266,5.068524914550781
5960878931266,3.389057707,1,-3.0526071166992184,8.036137872314452,5.221753820800781
5960881787880,3.391914321,1,-3.1184476623535153,8.03853207397461,5.322310290527343
5960884647203,3.394773644,1,-2.6862942626953124,8.02416686401367,5.267243652343749
5960887501422,3.397627863,1,-2.7150246826171873,8.050503082275391,5.333084197998047
5960890359339,3.40048578,1,-2.645592834472656,8.057685687255859,5.480327600097656
5960893219651,3.403346092,1,-2.6850971618652344,8.118737829589843,5.615599993896484
5960896076057,3.406202498,1,-2.6431986328124997,8.166621862792969,5.655104321289063
5960898931214,3.409057655,1,-3.1447838806152344,8.179789971923828,5.7843912109375
5960901787932,3.411914373,1,-2.596511700439453,7.866149554443359,5.556942053222656
5960904648245,3.414774686,1,-2.825157958984375,7.56567724609375,5.577292767333984
5960907501995,3.417628436,1,-2.607285607910156,7.76319888305664,5.668272430419922
5960910359026,3.420485467,1,-2.7257985900878903,8.057685687255859,5.951985327148437
5960913218870,3.423345311,1,-2.577358087158203,8.198943585205077,6.2009822998046875
5960916075953,3.426202394,1,-2.426523382568359,8.300697155761718,6.530185028076171
5960918930484,3.429056925,1,-2.3499089294433593,8.441955053710936,6.89530078125
5960921791474,3.431917915,1,-2.2756886779785157,8.483853582763672,7.05451519165039
5960924650328,3.434776769,1,-2.212242333984375,8.499415893554687,7.351396197509765
5960927502047,3.437628488,1,-2.365471240234375,8.440757952880858,7.484274389648437
5960930359443,3.440485884,1,-2.499546533203125,8.596381060791016,7.6087728759765625
5960933219703,3.443346144,1,-2.592920397949219,8.60595786743164,7.692569934082031
5960936076474,3.446202915,1,-2.7712884216308593,8.60595786743164,7.6279264892578125
5960938930953,3.449057394,1,-2.808398547363281,8.56166513671875,7.64827720336914
5960941787932,3.451914373,1,-2.895786907958984,8.473079675292968,7.64827720336914
5960944648141,3.454774582,1,-2.8754361938476563,8.366537701416014,7.502230902099609
5960947501787,3.457628228,1,-2.7653029174804686,8.129511737060547,7.228094812011718
5960950359130,3.460485571,1,-2.607285607910156,7.9295958984374995,7.032967376708984
5960953218349,3.46334479,1,-2.5378537597656248,7.712920648193359,6.754042883300781
5960956075016,3.466201457,1,-2.588131994628906,7.499836700439452,6.477512591552734
5960958931578,3.469058019,1,-2.5737667846679684,7.408857037353515,6.248866333007812
5960961788037,3.471914478,1,-2.6527754394531247,7.206546997070312,5.923254907226562
5960964722464,3.474848905,1,-2.655169641113281,7.018602166748046,5.590460876464843
5960967516630,3.477643071,1,-2.683900061035156,6.853402252197265,5.299565374755859
5960970372568,3.480499009,1,-2.6791116577148437,6.713341455078124,5.054159704589844
5960973233245,3.483359686,1,-2.6886884643554687,6.629544396972656,4.817133740234374
5960976089912,3.486216353,1,-2.693476867675781,6.654683514404296,4.545391851806641
5960978944495,3.489070936,1,-2.7928362365722657,6.6151791870117185,4.350264416503906
5960981800745,3.491927186,1,-3.0166940917968748,6.657077716064452,4.254496350097656
5960984661995,3.494788436,1,-2.6695348510742187,6.7803791015625,3.9636008483886718
5960987515224,3.497641665,1,-2.7473464050292966,6.981492041015625,3.679887951660156
5960990372255,3.500498696,1,-2.5450363647460934,6.995857250976562,3.7672763122558592
5960993233037,3.503359478,1,-2.3918074584960936,7.015010864257812,3.835511059570312
5960996089234,3.506215675,1,-2.310404602050781,6.90128628540039,3.840299462890625
5960998942672,3.509069113,1,-2.0374656127929685,7.337030987548828,3.736151690673828
5961001800953,3.511927394,1,-1.8626888916015625,7.490259893798828,3.7720647155761715
5961004662568,3.514789009,1,-1.8614917907714843,7.613561279296874,3.679887951660156
5961007514859,3.5176413,1,-1.8100164550781248,7.62912359008789,3.9336733276367184
5961010372568,3.520499009,1,-1.753752716064453,7.7224974548339835,3.9336733276367184
5961013233089,3.52335953,1,-1.7214309936523438,7.74404526977539,4.163516687011718
5961016089651,3.526216092,1,-1.7753005310058592,7.7799582946777335,4.207809417724609
5961018943661,3.529070102,1,-1.8543091857910154,7.82065972290039,4.340687609863281
5961021800901,3.531927342,1,-1.801636749267578,7.7979148071289055,4.493916516113281
5961024662151,3.534788592,1,-1.8447323791503905,7.826645227050781,4.489128112792969
5961027515953,3.537642394,1,-2.0566192260742184,7.714117749023437,4.564545465087891
5961030372255,3.540498696,1,-2.165555401611328,7.679401824951172,4.396951348876953
5961033233453,3.543359894,1,-2.450465399169922,7.601590270996093,4.441244079589843
5961036089911,3.546216352,1,-2.551021868896484,7.4699091796875,4.248510845947266
5961038942568,3.549069009,1,-2.7138275817871094,7.395688928222656,4.180276098632812
5961041800745,3.551927186,1,-2.8036101440429686,7.248445526123047,3.9803602600097654
5961044660797,3.554787238,1,-2.8754361938476563,7.123947039794921,3.958812445068359
5961047513922,3.557640363,1,-2.9089550170898435,7.07366880493164,3.8857892944335934
5961050371682,3.560498123,1,-2.8502970764160156,7.0102224609374995,3.649960430908203
5961053231839,3.56335828,1,-2.8502970764160156,6.981492041015625,3.515885137939453
5961056089651,3.566216092,1,-2.8694506896972656,6.9719152343749995,3.4296938781738278
5961058944547,3.569070988,1,-2.8502970764160156,6.919242797851562,3.277662072753906
5961061801109,3.57192755,1,-3.1747114013671873,6.919242797851562,3.010708587646484
5961064700120,3.574826561,1,-2.5234885498046875,6.751648681640624,3.134009973144531
5961067516109,3.57764255,1,-2.863465185546875,6.605602380371093,3.1495722839355467
5961070373401,3.580499842,1,-2.6719290527343746,6.647500909423828,2.996343377685547
5961073232203,3.583358644,1,-2.6240450195312497,6.781576202392578,2.8981811096191405
5961076089547,3.586215988,1,-2.498349432373047,6.72890376586914,2.8419173706054686
5961078939495,3.589065936,1,-2.481590020751953,6.5768719604492185,2.8479028747558592
5961081799703,3.591926144,1,-2.503137835693359,6.546944439697265,2.7736826232910157
5961084661630,3.594788071,1,-2.421734979248047,6.524199523925781,2.6300305236816404
5961087516474,3.597642915,1,-2.4899697265625,6.507440112304687,2.558204473876953
5961090373766,3.600500207,1,-2.464830609130859,6.4092778442382805,2.540247961425781
5961093232880,3.603359321,1,-2.4480711975097655,6.423643054199219,2.412158172607422
5961096090224,3.606216665,1,-2.407369769287109,6.434416961669921,2.2553379638671873
5961098943557,3.609069998,1,-2.4061726684570313,6.455964776611328,2.212242333984375
5961101801057,3.611927498,1,-2.408566870117187,6.507440112304687,2.1547814941406247
5961104660901,3.614787342,1,-2.2936451904296873,6.5505357421875,2.269703173828125
5961107515120,3.617641561,1,-2.403778466796875,6.5589154479980465,2.3211785095214843
5961110371318,3.620497759,1,-2.436100189208984,6.60799658203125,2.433705987548828
5961113231370,3.623357811,1,-2.2110452331542967,6.491877801513671,2.519897247314453
5961116089286,3.626215727,1,-2.3642741394042965,6.417657550048828,2.5151088439941405
5961118944234,3.629070675,1,-2.3139959045410157,6.290764862060547,2.574963885498047
5961121801526,3.631927967,1,-2.318784307861328,6.481103894042969,2.6671406494140624
5961124660693,3.634787134,1,-2.212242333984375,6.481103894042969,2.767697119140625
5961127515016,3.637641457,1,-2.2553379638671873,6.552929943847656,2.798821740722656
5961130372620,3.640499061,1,-2.1535843933105467,6.60799658203125,3.0502129150390624
5961133233297,3.643359738,1,-2.01112939453125,6.720524060058593,3.0502129150390624
5961136090120,3.646216561,1,-1.8938135131835936,6.835445739746094,3.1184476623535153
5961138944026,3.649070467,1,-1.8734627990722654,6.860584857177734,3.3219548034667965
5961141801474,3.651927915,1,-1.8997990173339843,6.910863092041015,3.3638533325195312
5961144661422,3.654787863,1,-1.8926164123535154,6.946776116943359,3.4859576171874997
5961147514755,3.657641196,1,-1.9919757812499999,6.910863092041015,3.602076397705078
5961150373297,3.660499738,1,-2.001552587890625,6.9336080078124995,3.640383624267578
5961153232880,3.663359321,1,-2.096123553466797,6.90128628540039,3.8199487487792965
5961156089755,3.666216196,1,-2.109291662597656,6.932410906982422,3.821145849609375
5961158944026,3.669070467,1,-2.0374656127929685,6.907271789550781,3.925293621826172
5961161800536,3.671926977,1,-2.051830822753906,6.870161663818359,4.150348577880859
5961164699130,3.674825571,1,-2.139219183349609,6.987477545166016,4.333505004882812
5961167515016,3.677641457,1,-2.2182278381347653,6.998251452636718,4.497507818603515
5961170372828,3.680499269,1,-2.223016241455078,7.006631158447266,4.6627077331542965
5961173233036,3.683359477,1,-2.2673089721679687,6.969521032714844,4.899733697509765
5961176088609,3.68621505,1,-2.2673089721679687,7.017405065917968,5.042188696289062
5961178939495,3.689065936,1,-2.4133552734375,7.078457208251953,5.165490081787109
5961181803297,3.691929738,1,-2.5342624572753905,7.098807922363281,5.333084197998047
5961184663193,3.694789634,1,-2.5953145996093747,7.252036828613281,5.552153649902343
5961187515068,3.697641509,1,-2.6671406494140624,7.387309222412109,5.7700260009765625
5961190371682,3.700498123,1,-2.881421697998047,7.781155395507812,5.6958057495117185
5961193232672,3.703359113,1,-2.4516625,7.93558140258789,5.849034655761718
5961196094807,3.706221248,1,-2.7425580017089843,8.173804467773436,6.251260534667968
5961198944234,3.709070675,1,-2.952050646972656,8.377311608886718,6.4643444824218745
5961201800641,3.711927082,1,-3.1124621582031247,8.615534674072265,6.677428430175781
5961204661734,3.714788175,1,-3.303998291015625,8.79150849609375,6.874950067138672
5961207515432,3.717641873,1,-3.4332851806640625,9.02733735961914,7.032967376708984
5961210371578,3.720498019,1,-3.5110967346191404,9.139864837646483,7.1407064514160155
5961213231995,3.723358436,1,-3.459621398925781,9.265560424804686,7.222109307861328
5961216089391,3.726215832,1,-3.6391865234374996,9.285911138916015,7.326257080078125
5961218943453,3.729069894,1,-3.796006732177734,9.325415466308593,7.314286071777343
5961221800693,3.731927134,1,-3.8558617736816405,9.287108239746093,7.2915411560058585
5961224662255,3.734788696,1,-3.8235400512695312,9.139864837646483,7.208941198730468
5961227514703,3.737641144,1,-3.525461944580078,8.981847528076171,7.042544183349609
5961230371838,3.740498279,1,-3.6487633300781246,8.786720092773438,6.998251452636718
5961233231891,3.743358332,1,-3.614047406005859,8.659827404785156,6.685808135986328
5961236089286,3.746215727,1,-3.669114044189453,8.390479718017577,6.295553265380859
5961238942099,3.74906854,1,-3.515885137939453,8.042123376464843,6.104017132568359
5961241796995,3.751923436,1,-3.8486791687011714,8.057685687255859,5.476736297607421
5961244656786,3.754783227,1,-3.6523546325683593,7.501033801269531,5.179855291748047
5961247514963,3.757641404,1,-3.5805285827636717,7.041347082519531,4.847061260986328
5961250371474,3.760497915,1,-3.422511273193359,6.770802294921874,4.75009609375
5961253234026,3.763360467,1,-3.047818713378906,6.58884296875,4.707000463867187
5961256091682,3.766218123,1,-2.6479870361328124,6.528987927246093,4.553771557617187
5961258943974,3.769070415,1,-2.0745757385253905,6.460753179931641,4.311957189941406
5961261800849,3.77192729,1,-1.6472107421875,6.338648895263671,4.129997863769531
5961264660745,3.774787186,1,-1.533486163330078,6.064512805175781,3.9408559326171875
5961267515120,3.777641561,1,-1.5263035583496092,5.868188269042968,3.8486791687011714
5961270372359,3.7804988,1,-1.600523809814453,5.686228942871093,3.6152445068359373
5961273231838,3.783358279,1,-1.686715069580078,5.588066674804687,3.4165257690429685
5961276088401,3.786214842,1,-1.7022773803710936,5.518634826660156,3.2501287536621093
5961278941786,3.789068227,1,-1.725022296142578,5.457582684326171,3.143586779785156
5961281800797,3.791927238,1,-1.7202338928222656,5.517437725830078,3.125630267333984
5961284661370,3.794787811,1,-1.6615759521484375,5.626373901367187,3.1543606872558594
5961287515328,3.797641769,1,-1.5658078857421873,5.863399865722656,3.209427325439453
5961290372255,3.800498696,1,-1.446097802734375,6.059724401855468,3.303998291015625
5961293233349,3.80335979,1,-1.4784195251464842,6.118382342529297,3.499125726318359
5961296088922,3.806215363,1,-1.3826514587402343,6.1638721740722655,3.8271313537597655
5961298943245,3.809069686,1,-1.3826514587402343,6.274005450439453,4.00310517578125
5961301800172,3.811926613,1,-1.4449007019042968,6.672640026855468,4.120421057128906
5961304661213,3.814787654,1,-1.5957354064941405,6.642712506103515,4.217386224365234
5961307514963,3.817641404,1,-1.659181750488281,7.1023992248535155,4.432864373779297
5961310371682,3.820498123,1,-1.8219874633789062,7.345410693359375,4.697423657226563
5961313232984,3.823359425,1,-1.9907786804199217,7.465120776367187,4.599261389160156
5961316089443,3.826215884,1,-2.081758343505859,7.702146740722656,4.905719201660156
5961318945380,3.829071821,1,-2.2301988464355467,8.091204510498047,5.087678527832031
5961321801370,3.831927811,1,-2.3594857360839843,8.34498988647461,5.178658190917968
5961324661422,3.834787863,1,-2.503137835693359,8.425195642089843,5.323507391357421
5961327510276,3.837636717,1,-2.729389892578125,8.505401397705077,5.506663818359375
5961330372047,3.840498488,1,-2.999934680175781,8.597578161621094,5.652710119628906
5961333233349,3.84335979,1,-3.1112650573730467,8.705317236328124,5.735310076904296
5961336090068,3.846216509,1,-3.248931652832031,8.857349041748046,5.6574985229492185
5961338944338,3.849070779,1,-3.3877953491210935,8.869320050048827,5.6574985229492185
5961341799963,3.851926404,1,-3.2908301818847656,8.850166436767578,5.523423229980469
5961344661318,3.854787759,1,-3.2357635437011716,8.681375219726561,5.4779333984375
5961347514651,3.857641092,1,-3.246537451171875,8.374917407226562,5.427655163574219
5961350371630,3.860498071,1,-3.1579519897460937,8.185775476074218,5.294776971435547
5961353233922,3.863360363,1,-3.0921114440917967,7.991845141601562,5.051765502929687
5961356090276,3.866216717,1,-3.1783027038574216,7.75721337890625,4.786009118652344
5961358943193,3.869069634,1,-3.001131781005859,7.502230902099609,4.678270043945313
5961361801109,3.87192755,1,-3.001131781005859,7.310694769287109,4.480748406982421
5961364661109,3.87478755,1,-2.882618798828125,7.240065820312499,4.335899206542969
5961367516630,3.877643071,1,-2.729389892578125,7.080851409912109,4.145560174560547
5961370372203,3.880498644,1,-2.5570073730468748,6.774393597412109,4.0066964782714845
5961373233766,3.883360207,1,-2.445676995849609,6.598419775390624,4.114435552978516
5961376088453,3.886214894,1,-2.395398760986328,6.436811163330078,3.7984009338378906
5961378943036,3.889069477,1,-2.337937921142578,6.339845996093749,3.7984009338378906
5961381800484,3.891926925,1,-2.4444798950195312,6.240486627197265,3.6930560607910152
5961384661526,3.894787967,1,-2.3343466186523436,6.151901165771484,3.5913024902343746
5961387514182,3.897640623,1,-2.2732944763183593,6.0908490234374995,3.527856146240234
5961390372255,3.900498696,1,-2.395398760986328,6.13514175415039,3.403357659912109
5961393232359,3.9033588,1,-2.4349030883789062,6.341043096923828,3.3578678283691406
5961396089807,3.906216248,1,-2.5067291381835934,6.360196710205078,3.3698388366699215
5961398943557,3.909069998,1,-2.6324247253417967,6.423643054199219,3.394977954101562
5961401801318,3.911927759,1,-2.6958710693359373,6.5768719604492185,3.4871547180175777
5961404661786,3.914788227,1,-2.7150246826171873,6.815095025634765,3.622427111816406
5961407515328,3.917641769,1,-2.849099975585937,7.01620796508789,3.708618371582031
5961410371734,3.920498175,1,-2.893392706298828,7.199364392089843,3.8762124877929685
5961413232568,3.923359009,1,-2.9987375793457027,7.453149768066406,3.987542864990234
5961416089182,3.926215623,1,-3.049015814208984,7.6231380859375,4.067748620605468
5961418942359,3.9290688,1,-2.9664158569335934,7.813477117919922,4.283226770019531
5961421799859,3.9319263,1,-3.1196447631835937,7.900865478515625,4.43047017211914
5961424660901,3.934787342,1,-3.1184476623535153,8.001421948242188,4.46279189453125
5961427514911,3.937641352,1,-3.201047619628906,8.033743670654296,4.544194750976562
5961430373036,3.940499477,1,-3.2597055603027343,8.033743670654296,4.647145422363281
5961433230536,3.943356977,1,-3.2932243835449215,8.090007409667969,4.657919329833984
5961436089495,3.946215936,1,-3.3542765258789062,8.06965669555664,4.697423657226563
5961438942099,3.94906854,1,-3.3446997192382812,7.997830645751953,4.697423657226563
5961441800953,3.951927394,1,-3.3542765258789062,7.949946612548827,4.801571429443359
5961444660484,3.954786925,1,-3.2058360229492187,7.805097412109374,4.727351177978515
5961447515588,3.957642029,1,-2.9843723693847655,7.3549875,4.98592495727539
5961450373088,3.960499529,1,-3.028665100097656,6.982689141845703,5.085284326171875
5961453234390,3.963360831,1,-2.6515783386230467,7.116764434814453,4.910507604980468
5961456089390,3.966215831,1,-2.7162217834472653,7.195773089599609,4.885368487548828
5961458942776,3.969069217,1,-2.7952304382324216,6.87614716796875,5.0385973937988275
5961461799963,3.971926404,1,-2.73896669921875,6.551732843017578,5.146336468505859
5961464661838,3.974788279,1,-2.7329811950683593,6.5505357421875,5.012261175537109
5961467515276,3.977641717,1,-2.867056488037109,6.536170532226562,4.746504791259765
5961470374130,3.980500571,1,-2.961627453613281,6.400898138427734,4.672284539794922
5961473236943,3.983363384,1,-2.986766571044922,6.357802508544921,4.477157104492187
5961476093922,3.986220363,1,-3.0119056884765625,6.32667788696289,4.377797735595703
5961478940484,3.989066925,1,-2.919728924560547,6.318298181152343,4.35385571899414
5961481801422,3.991927863,1,-2.919728924560547,6.418854650878906,4.273649963378906
5961484662203,3.994788644,1,-2.6767174560546874,6.432022760009765,4.273649963378906
5961487515224,3.997641665,1,-2.5546131713867184,6.406883642578125,4.329913702392578
5961490372411,4.000498852,1,-2.3523031311035156,6.526593725585937,4.311957189941406
5961493232359,4.0033588,1,-2.2182278381347653,6.679822631835937,4.352658618164062
5961496091630,4.006218071,1,-2.269703173828125,6.769605194091796,4.364629626464843
5961498942880,4.009069321,1,-2.231395947265625,6.835445739746094,4.429273071289062
5961501800432,4.011926873,1,-2.100911956787109,6.864176159667968,4.429273071289062
5961504660745,4.014787186,1,-2.1416133850097654,6.912060192871094,4.292803576660156
5961507514443,4.017640884,1,-1.9692308654785156,7.038952880859375,4.395754248046875
5961510372255,4.020498696,1,-1.89620771484375,7.104793426513671,4.617217901611328
5961513233140,4.023359581,1,-1.9608511596679685,7.2903440551757805,4.717774371337891
5961516090588,4.026217029,1,-1.216254443359375,7.419630944824219,4.759672900390624
5961518942099,4.02906854,1,-2.120065570068359,7.575254052734374,5.287594366455078
5961521801057,4.031927498,1,-2.1930887207031247,7.541735229492187,5.634753607177734
5961524661161,4.034787602,1,-2.4289175842285156,7.657854010009765,5.680243438720702
5961527514807,4.037641248,1,-3.005920184326172,7.727285858154296,5.704185455322265
5961530372411,4.040498852,1,-3.7385458923339843,7.104793426513671,5.331887097167969
5961533230172,4.043356613,1,-5.452794281005859,6.457161877441406,5.029020587158203
5961536091526,4.046217967,1,-5.749675286865234,6.148309863281249,3.9240965209960934
5961538942359,4.0490688,1,-5.799953521728515,6.187814190673827,3.385401147460937
5961541801161,4.051927602,1,-5.491101507568359,6.469132885742187,3.4763808105468748
5961544664547,4.054790988,1,-4.4184991638183595,6.660669018554687,4.273649963378906
5961547514963,4.057641404,1,-3.842693664550781,6.9348051086425775,4.882974285888672
5961550370901,4.060497342,1,-3.125630267333984,6.983886242675781,5.063736511230468
5961553232515,4.063358956,1,-2.6204537170410154,7.2903440551757805,5.182249493408203
5961556090172,4.066216613,1,-2.446874096679687,7.594407666015624,5.163095880126953
5961558942255,4.069068696,1,-2.808398547363281,7.528567120361328,5.0769046203613275
5961561798609,4.07192505,1,-3.2644939636230466,7.229291912841797,5.0769046203613275
5961564657672,4.074784113,1,-3.679887951660156,7.105990527343749,4.961982940673828
5961567550953,4.077677394,1,-4.054580511474609,6.959944226074218,4.753687396240234
5961570571005,4.080697446,1,-4.368220928955078,6.927622503662109,4.7117888671875
5961573284963,4.083411404,1,-4.222174627685547,7.034164477539062,4.690241052246093
5961576107359,4.0862338,1,-4.112041351318359,7.144297753906249,4.835090252685546
5961578956318,4.089082759,1,-3.774458917236328,7.225700610351562,5.033808990478516
5961581799286,4.091925727,1,-3.438073583984375,7.372944012451171,5.128379956054687
5961584653974,4.094780415,1,-3.132812872314453,7.461529473876952,5.153519073486327
5961587511943,4.097638384,1,-3.116053460693359,7.296329559326171,5.221753820800781
5961590374911,4.100501352,1,-3.1543606872558594,7.18859048461914,5.237316131591797
5961593229911,4.103356352,1,-3.189076611328125,7.080851409912109,5.216965417480468
5961596087255,4.106213696,1,-3.399766357421875,6.95874712524414,5.08169302368164
5961598943818,4.109070259,1,-3.5110967346191404,6.886921075439453,5.102043737792968
5961601800484,4.111926925,1,-3.5039141296386718,6.756437084960937,4.924872814941406
5961604658140,4.114784581,1,-3.1974563171386716,6.72291826171875,5.0948611328124995
5961607516213,4.117642654,1,-3.4261025756835934,6.56968935546875,5.147533569335937
5961610373818,4.120500259,1,-3.5422213562011717,6.546944439697265,5.201403106689453
5961613233765,4.123360206,1,-4.3263223999023435,6.5768719604492185,5.324704492187499
5961616089755,4.126216196,1,-4.772841009521484,6.117185241699218,5.160701678466797
5961618943193,4.129069634,1,-4.556165759277343,6.191405493164062,5.090072729492187
5961621800484,4.131926925,1,-3.9647979492187497,6.1255649475097655,5.5461681457519525
5961624658713,4.134785154,1,-3.2501287536621093,6.208164904785156,5.852625958251953
5961627515640,4.137642081,1,-2.5617957763671875,6.275202551269531,6.074089611816406
5961630373245,4.140499686,1,-2.1619640991210938,6.487089398193359,6.016628771972656
5961633233870,4.143360311,1,-2.096123553466797,6.64630380859375,5.792770916748046
5961636090224,4.146216665,1,-2.450465399169922,6.762422589111328,5.603628985595702
5961638944495,4.149070936,1,-2.385821954345703,6.861781958007812,5.0757075195312495
5961641801213,4.151927654,1,-2.712630480957031,7.029376074218749,4.656722229003906
5961644661057,4.154787498,1,-3.1220389648437497,7.011419561767577,4.331110803222656
