timestamp_ns,t_s,sensor_id,ax,ay,az,gx,gy,gz
6290576138900,0.174893854,3,-0.2920926025390625,7.480683087158202,-6.9719152343749995,-44.12977099236641,-75.05343511450381,21.801526717557252
6290582604942,0.181359896,3,-0.30406361083984373,6.804321118164062,-7.143100653076171,-46.12213740458015,-71.6412213740458,35.12977099236641
6290589207234,0.187962188,3,0.00239420166015625,6.774393597412109,-7.017405065917968,-38.16793893129771,-62.12213740458015,42.05343511450382
6290595842911,0.194597865,3,-0.05386953735351562,6.161477972412109,-7.042544183349609,-26.83206106870229,-62.229007633587784,42.969465648854964
6290602473275,0.201228229,3,-0.46806642456054687,5.647921716308593,-6.889315277099609,-26.83206106870229,-66.3206106870229,34.045801526717554
6290609160723,0.207915677,3,-0.7745242370605468,5.432443566894531,-7.163451367187499,-21.51145038167939,-66.3206106870229,18.34351145038168
6290615834682,0.214589636,3,-0.6165069274902344,5.373785626220703,-7.580042456054687,-31.702290076335878,-63.0763358778626,18.34351145038168
6290622492702,0.221247656,3,-0.2645592834472656,5.49708701171875,-7.849390142822265,-48.66412213740458,-48.732824427480914,5.068702290076335
6290629155827,0.227910781,3,-0.008379705810546874,5.683834741210937,-7.733271362304687,-51.274809160305345,-31.916030534351144,-5.183206106870229
6290635836973,0.234591927,3,0.0718260498046875,5.914875201416015,-7.7979148071289055,-34.404580152671755,-30.129770992366414,-12.587786259541986
6290642497963,0.241252917,3,-0.20829554443359374,6.263231542968749,-7.7979148071289055,-7.396946564885496,-20.83969465648855,-19.16030534351145
6290649163900,0.247918854,3,-0.1771709228515625,6.5948284729003905,-7.576451153564452,15.625954198473282,-5.244274809160306,-25.48854961832061
6290655827442,0.254582396,3,0.02154781494140625,6.724115362548828,-7.540538128662109,20.81679389312977,-1.4122137404580153,-22.610687022900763
6290662473432,0.261228386,3,-0.028730419921875,6.733692169189453,-7.36097300415039,13.511450381679388,7.152671755725191,-15.748091603053435
6290669142025,0.267896979,3,-0.05027823486328125,6.56968935546875,-6.87614716796875,11.587786259541986,20.38167938931298,-12.80916030534351
6290675821921,0.274576875,3,-0.277727392578125,6.564900952148437,-6.500257507324219,28.755725190839694,30.198473282442748,-16.419847328244273
6290682486088,0.281241042,3,-0.39264907226562495,6.751648681640624,-6.218938812255859,50.74809160305343,26.244274809160306,-23.61832061068702
6290689147390,0.287902344,3,-0.7805097412109374,7.055712292480468,-6.4463879699707025,52.32824427480916,8.557251908396946,-20.14503816793893
6290695826609,0.294581563,3,-0.622492431640625,7.240065820312499,-6.849810949707031,19.49618320610687,-7.145038167938932,-10.396946564885496
6290702492442,0.301247396,3,-0.2693476867675781,7.0281789733886715,-7.079654309082031,-26.52671755725191,2.6793893129770994,2.7938931297709924
6290709156713,0.307911667,3,0.06823474731445311,6.864176159667968,-7.18859048461914,-46.06106870229008,6.679389312977099,8.648854961832061
6290715821817,0.314576771,3,0.3327940307617187,6.883329772949218,-7.096413720703125,-22.755725190839694,13.297709923664122,7.648854961832061
6290722501765,0.321256719,3,0.36152445068359373,6.696582043457031,-7.3478048950195305,11.648854961832061,12.076335877862595,17.862595419847327
6290729158588,0.327913542,3,0.8212111694335937,6.696582043457031,-7.314286071777343,19.65648854961832,5.519083969465649,37.67175572519084
6290735836557,0.334591511,3,0.25737667846679685,6.147112762451171,-7.314286071777343,4.267175572519084,3.8396946564885495,48.969465648854964
6290742498067,0.341253021,3,-1.5131354492187499,5.7843912109375,-6.884526873779296,4.267175572519084,-10.458015267175572,33.74045801526717
6290749145567,0.347900521,3,-1.6915034729003906,5.7891796142578125,-7.504625103759765,-19.30534351145038,-10.458015267175572,7.801526717557252
6290755834629,0.354589583,3,-0.6979097839355468,6.187814190673827,-8.10197841796875,-45.16793893129771,5.396946564885496,7.801526717557252
6290762515202,0.361270156,3,-0.0909796630859375,6.472724188232421,-8.051700183105469,-53.98473282442748,33.961832061068705,-4.404580152671755
6290769174994,0.367929948,3,-0.06823474731445311,6.8593877563476555,-7.979874133300781,-22.015267175572518,42.282442748091604,-12.381679389312977
6290775802129,0.374557083,3,0.08379705810546874,7.275978845214843,-7.893682873535155,35.51908396946565,56.56488549618321,-19.14503816793893
6290782496452,0.381251406,3,0.49679684448242184,7.344213592529297,-7.742848168945312,74.90839694656489,68.7557251908397,-15.297709923664122
6290789168119,0.387923073,3,1.1372457885742187,7.076063006591797,-7.4040686340332025,81.1145038167939,85.70992366412214,-4.145038167938932
6290795835359,0.394590313,3,0.4333505004882812,6.677428430175781,-6.5601125488281244,69.2824427480916,94.64885496183206,4.816793893129771
6290802498275,0.401253229,3,0.6631938598632812,6.222530114746093,-6.1626750732421876,66.1526717557252,92.57251908396947,9.320610687022901
6290809149994,0.407904948,3,1.5693991882324219,5.674257934570313,-5.716156463623046,75.43511450381679,103.59541984732824,10.755725190839694
6290815838588,0.414593542,3,1.458068811035156,5.051765502929687,-5.098452435302734,80.55725190839695,100.19847328244275,18.221374045801525
6290822497129,0.421252083,3,1.5490484741210937,4.622006304931641,-4.853046765136718,85.0381679389313,79.35114503816794,15.931297709923664
6290829163796,0.42791875,3,1.485602130126953,4.434061474609375,-4.448426684570312,79.33587786259542,71.87022900763358,9.396946564885496
6290835827182,0.434582136,3,1.9608511596679685,4.254496350097656,-4.407725256347656,55.61068702290076,56.274809160305345,3.3587786259541983
6290842500254,0.441255208,3,2.3307553161621093,4.261678955078125,-4.388571643066406,22.091603053435115,32.94656488549618,-1.7709923664122138
6290849172754,0.447927708,3,2.021903302001953,4.390965844726562,-4.314351391601562,-8.32824427480916,11.969465648854962,-5.465648854961832
6290855830984,0.454585938,3,2.152387292480469,4.431667272949219,-4.349067315673828,-21.770992366412212,-4.488549618320611,-6.732824427480916
6290862471452,0.461226406,3,2.152387292480469,4.507084625244141,-4.612429498291015,-21.35114503816794,-19.595419847328245,-6.557251908396947
6290869166296,0.46792125,3,2.1248539733886718,4.507084625244141,-4.732139581298828,-19.954198473282442,-38.6793893129771,-9.977099236641221
6290875828327,0.474583281,3,1.6041151123046875,4.707000463867187,-4.732139581298828,-26.61832061068702,-56.38167938931298,-20.908396946564885
6290882501869,0.481256823,3,1.1923124267578125,5.121197351074218,-4.994304663085937,-26.61832061068702,-68.48091603053435,-33.00763358778626
6290889163379,0.487918333,3,0.6979097839355468,5.80354482421875,-5.342661004638671,-42.213740458015266,-68.48091603053435,-46.25954198473283
6290895835723,0.494590677,3,1.024718310546875,6.587645867919922,-6.016628771972656,-59.49618320610687,-83.2442748091603,-46.25954198473283
6290902486400,0.501241354,3,0.6703764648437499,7.325059979248047,-6.399701037597656,-77.1145038167939,-93.58015267175573,-49.42748091603053
6290909153692,0.507908646,3,-0.30526071166992186,8.037334973144532,-6.691793640136718,-83.29770992366412,-99.96946564885496,-44.68702290076336
6290915823171,0.514578125,3,-0.076614453125,8.295908752441406,-7.2532339294433585,-72.00763358778626,-98.67175572519083,-29.96946564885496
6290922502702,0.521257656,3,-0.017956512451171875,8.556876733398436,-7.594407666015624,-59.02290076335878,-91.58015267175573,-21.984732824427482
6290929150723,0.527905677,3,-0.4321533996582031,8.699331732177734,-7.988253839111327,-59.62595419847328,-99.99236641221374,-6.312977099236641
6290935795046,0.53455,3,-0.719457598876953,8.622717279052734,-8.28034644165039,-64.83969465648855,-96.57251908396947,12.16793893129771
6290942455879,0.541210833,3,-0.34237083740234375,8.394071020507813,-8.55448253173828,-65.79389312977099,-78.98473282442748,21.99236641221374
6290949151713,0.547906667,3,-0.20829554443359374,8.021772662353515,-8.538920220947265,-60.82442748091603,-61.51145038167939,31.221374045801525
6290955827442,0.554582396,3,-0.38307226562499996,7.66743081665039,-8.455123162841796,-46.67175572519084,-52.00763358778626,39.6412213740458
6290962630046,0.561385,3,-0.5363011718749999,7.285555651855469,-8.378508709716796,-27.870229007633586,-42.01526717557252,41.38167938931298
6290969162338,0.567917292,3,-0.7613561279296874,7.334636785888671,-8.054094384765625,-15.244274809160306,-28.374045801526716,33.908396946564885
6290975859473,0.574614427,3,-0.4285620971679687,7.168239770507812,-7.8733321594238275,-11.335877862595419,-11.618320610687023,29.633587786259543
6290982497598,0.581252552,3,-0.27174188842773433,7.042544183349609,-7.68059892578125,-14.854961832061068,-13.13740458015267,28.786259541984734
6290989165098,0.587920052,3,-0.14006079711914063,6.834248638916015,-7.358578802490234,-7.984732824427481,2.8091603053435112,26.557251908396946
6290995821609,0.594576563,3,-0.013168109130859374,6.665457421875,-7.052120989990234,3.030534351145038,3.8931297709923665,25.48854961832061
6291002454681,0.601209635,3,-0.013168109130859374,6.682216833496093,-6.83783994140625,12.076335877862595,0.2824427480916031,27.69465648854962
6291009165775,0.607920729,3,-0.35194764404296874,6.682216833496093,-6.6151791870117185,14.282442748091603,1.0381679389312977,32.0
6291015842390,0.614597344,3,-0.48123453369140623,6.469132885742187,-6.6151791870117185,2.6106870229007635,-5.351145038167939,41.51145038167939
6291022467234,0.621222188,3,-0.3555389465332031,6.190208392333984,-6.56968935546875,2.6106870229007635,-5.648854961832061,44.786259541984734
6291029162338,0.627917292,3,-0.23702596435546874,5.864596966552734,-6.4092778442382805,-14.801526717557252,-9.557251908396946,44.87022900763359
6291035829525,0.634584479,3,0.0143652099609375,5.740098480224609,-6.319495281982421,-28.72519083969466,-14.458015267175572,42.916030534351144
6291042500723,0.641255677,3,-0.005985504150390624,5.791573815917968,-6.331466290283203,-33.42748091603053,-21.870229007633586,40.3206106870229
6291049151400,0.647906354,3,-0.3028665100097656,5.759252093505859,-6.336254693603515,-31.17557251908397,-30.297709923664122,41.67175572519084
6291055831713,0.654586667,3,-0.5267243652343749,5.965153436279296,-6.639121203613281,-33.18320610687023,-40.36641221374046,41.267175572519086
6291062486556,0.66124151,3,-0.5853823059082031,6.155492468261718,-6.961141326904296,-47.900763358778626,-43.56488549618321,41.908396946564885
6291069166192,0.667921146,3,-0.18076222534179687,6.178237384033203,-7.335833886718749,-68.04580152671755,-41.33587786259542,43.38167938931298
6291075824734,0.674579688,3,0.24061726684570311,6.010643267822266,-7.499836700439452,-73.45801526717557,-28.50381679389313,42.6793893129771
6291082494942,0.681249896,3,0.26695348510742184,6.0142345703124995,-7.2903440551757805,-50.43511450381679,-11.351145038167939,36.32824427480916
6291089157129,0.687912083,3,0.027533319091796873,6.028599780273437,-7.190984686279297,-8.396946564885496,-4.00763358778626,34.229007633587784
6291095833692,0.694588646,3,-0.4955997436523437,6.123170745849609,-7.230489013671875,20.03053435114504,-2.4122137404580153,31.022900763358777
6291102496921,0.701251875,3,-0.43574470214843747,5.907692596435546,-7.171831072998047,19.198473282442748,15.16793893129771,31.412213740458014
6291109160306,0.70791526,3,-0.12569558715820311,5.858611462402344,-7.036558679199218,5.244274809160306,27.65648854961832,22.137404580152673
6291115840411,0.714595365,3,-0.01915361328125,5.820304235839844,-6.773196496582031,2.801526717557252,40.038167938931295,16.412213740458014
6291122498327,0.721253281,3,0.36391865234375,5.853823059082031,-6.524199523925781,22.862595419847327,50.37404580152672,10.603053435114504
6291129156556,0.72791151,3,0.8164227661132812,5.941211419677734,-6.354211206054687,47.10687022900763,56.45038167938932,7.8396946564885495
6291135832702,0.734587656,3,0.4537012145996093,5.86699116821289,-5.947196923828125,52.57251908396947,56.74045801526717,15.587786259541986
6291142498692,0.741253646,3,0.4537012145996093,5.904101293945312,-5.68862314453125,42.3587786259542,49.87022900763359,21.625954198473284
6291149166400,0.747921354,3,-0.5015852478027344,5.904101293945312,-6.190208392333984,21.900763358778626,34.030534351145036,21.87786259541985
6291155827286,0.75458224,3,-0.08020575561523437,6.07768091430664,-6.190208392333984,-14.992366412213741,32.961832061068705,25.053435114503817
6291162496713,0.761251667,3,1.1707646118164061,6.048950494384766,-6.630741497802734,-14.992366412213741,32.045801526717554,42.32824427480916
6291169178692,0.767933646,3,1.3646949462890625,5.596446380615234,-6.475118389892578,-45.45038167938932,45.725190839694655,41.45038167938932
6291175835827,0.774590781,3,1.8650830932617186,5.079298822021484,-6.434416961669921,-30.938931297709924,48.908396946564885,49.267175572519086
6291182499786,0.78125474,3,2.0745757385253905,4.660313531494141,-6.214150408935547,15.076335877862595,60.80916030534351,48.29770992366412
6291189169577,0.787924531,3,1.6915034729003906,4.404133953857421,-5.930437512207031,52.37404580152672,65.1145038167939,44.67175572519084
6291195760150,0.794515104,3,1.675941162109375,4.242525341796875,-5.710170959472656,64.07633587786259,68.6030534351145,31.96946564885496
6291202502806,0.80125776,3,2.0446482177734375,4.3059716857910155,-5.506663818359375,54.48091603053435,79.61832061068702,14.183206106870228
6291209186817,0.807941771,3,2.6431986328124997,4.00909067993164,-5.367800122070312,39.412213740458014,85.2824427480916,2.099236641221374
6291215838067,0.814593021,3,2.473210314941406,4.134786267089844,-5.167884283447266,36.19083969465649,70.6412213740458,-10.702290076335878
6291222491921,0.821246875,3,2.5378537597656248,4.1934442077636715,-4.957194537353515,53.595419847328245,74.41984732824427,-19.419847328244273
6291229155671,0.827910625,3,2.427720483398437,4.365826727294921,-4.866214874267578,65.09160305343511,69.03053435114504,-28.18320610687023
6291235832338,0.834587292,3,2.233790148925781,4.580107775878906,-4.929661218261718,55.52671755725191,55.49618320610687,-35.458015267175576
6291242488275,0.841243229,3,2.3642741394042965,4.697423657226563,-4.867411975097656,32.70229007633588,54.458015267175576,-41.458015267175576
6291249141036,0.84789599,3,2.3642741394042965,4.796783026123046,-4.796783026123046,13.13740458015267,49.961832061068705,-47.656488549618324
6291255820671,0.854575625,3,2.6707319519042967,5.2085857116699215,-4.924872814941406,15.282442748091603,46.47328244274809,-63.534351145038165
6291262502546,0.8612575,3,1.8710685974121093,5.813121630859374,-4.842272857666015,29.755725190839694,36.221374045801525,-74.3206106870229
6291269165515,0.867920469,3,1.4101847778320311,6.299144567871093,-5.070919116210937,44.31297709923664,23.96946564885496,-71.30534351145039
6291275826973,0.874581927,3,1.9764134704589842,6.834248638916015,-5.456385583496093,40.847328244274806,19.17557251908397,-75.18320610687023
6291282493848,0.881248802,3,1.9764134704589842,7.056909393310547,-5.322310290527343,16.908396946564885,22.99236641221374,-70.6030534351145
6291289124265,0.887879219,3,2.096123553466797,7.056909393310547,-5.323507391357421,3.7709923664122136,15.854961832061068,-63.47328244274809
6291295820515,0.894575469,3,1.8626888916015625,7.314286071777343,-5.1702784851074215,2.763358778625954,12.068702290076336,-55.79389312977099
6291302501296,0.90125625,3,2.0374656127929685,7.463923675537109,-5.148730670166016,16.442748091603054,12.80916030534351,-45.6412213740458
6291309157390,0.907912344,3,1.6771382629394531,7.611167077636718,-5.078101721191406,36.458015267175576,3.0381679389312977,-46.770992366412216
6291315829681,0.914584635,3,1.9309236389160156,7.7224974548339835,-5.141548065185547,49.33587786259542,-3.8473282442748094,-38.954198473282446
6291322490671,0.921245625,3,2.060210528564453,7.4699091796875,-5.3570262145996095,35.64885496183206,-17.0,-17.69465648854962
6291329148744,0.927903698,3,2.1511901916503904,7.089231115722656,-5.266046551513671,13.244274809160306,-22.03053435114504,-1.7328244274809161
6291335823848,0.934578802,3,2.589329095458984,6.537367633056641,-5.193023400878906,6.732824427480916,-23.557251908396946,9.030534351145038
6291342501400,0.941256354,3,2.39420166015625,6.342240197753906,-5.199008905029297,16.0381679389313,-39.229007633587784,13.67175572519084
6291349237650,0.947992604,3,1.9692308654785156,5.912480999755859,-5.21576831665039,26.106870229007633,-48.16030534351145,26.633587786259543
6291355887546,0.9546425,3,1.7884686401367187,5.522226129150391,-5.190629199218749,24.290076335877863,-62.412213740458014,32.7557251908397
6291362492390,0.961247344,3,1.291671795654297,5.142745166015625,-5.1523219726562495,7.366412213740458,-72.50381679389314,38.97709923664122
6291369154681,0.967909635,3,1.3383587280273437,4.844667059326172,-5.285200164794921,-10.221374045801527,-80.35114503816794,40.20610687022901
6291375831504,0.974586458,3,1.6124948181152343,4.675875842285156,-5.7149593627929685,-26.641221374045802,-99.08396946564885,33.595419847328245
6291382489421,0.981244375,3,1.139639990234375,4.6267947082519525,-5.9950809570312495,-44.58015267175573,-112.8854961832061,30.900763358778626
6291389146504,0.987901458,3,0.5985504150390625,4.6076410949707025,-6.28837066040039,-59.63358778625954,-129.2824427480916,32.48091603053435
6291395841296,0.99459625,3,0.2705447875976562,4.695029455566406,-6.9527616210937495,-72.3587786259542,-145.61068702290078,30.732824427480917
6291402494838,1.001249792,3,-0.2693476867675781,4.905719201660156,-7.455543969726562,-90.48091603053435,-156.26717557251908,23.366412213740457
6291409149213,1.007904167,3,-0.8702923034667969,5.269637854003906,-8.03134946899414,-103.62595419847328,-150.74809160305344,17.50381679389313
6291415759265,1.014514219,3,-0.9121908325195311,5.681440539550781,-8.683769421386717,-109.63358778625954,-151.22137404580153,8.717557251908397
6291422493848,1.021248802,3,-0.7589619262695312,5.746083984375,-9.336189373779296,-111.61068702290076,-149.0916030534351,0.9694656488549618
6291429163535,1.027918489,3,-0.8906430175781249,6.0525417968749995,-9.31464155883789,-107.26717557251908,-135.32824427480915,0.5877862595419847
6291435820567,1.034575521,3,-1.0211270080566406,6.406883642578125,-9.77432827758789,-106.37404580152672,-120.36641221374046,2.717557251908397
6291442484942,1.041239896,3,-1.6112977172851561,6.572083557128906,-9.878476049804688,-92.69465648854961,-120.45038167938931,2.16793893129771
6291449152129,1.047907083,3,-1.8423381774902343,6.744466076660156,-10.255562811279296,-72.9618320610687,-108.72519083969466,2.16793893129771
6291455819890,1.054574844,3,-2.0446482177734375,6.918045697021484,-10.313023651123046,-51.80152671755725,-81.21374045801527,-2.4198473282442747
6291462485410,1.061240364,3,-1.9812018737792967,7.024587670898437,-10.286687432861328,-34.37404580152672,-54.412213740458014,-7.893129770992366
6291469152910,1.067907864,3,-1.7848773376464844,7.199364392089843,-10.266336718749999,-19.557251908396946,-31.435114503816795,-14.396946564885496
6291475814421,1.074569375,3,-1.6747440612792968,7.472303381347656,-10.162188946533202,-4.152671755725191,-5.786259541984733,-16.916030534351144
6291482491921,1.081246875,3,-1.4101847778320311,7.617152581787109,-9.77432827758789,13.259541984732824,14.366412213740459,-18.083969465648856
6291489152285,1.087907239,3,-1.3168109130859373,7.842207537841796,-9.634267480468749,30.793893129770993,32.70229007633588,-16.068702290076335
6291495815410,1.094570364,3,-0.5734112976074218,7.773972790527344,-9.393650213623046,44.038167938931295,47.282442748091604,-10.83969465648855
6291502494994,1.101249948,3,-0.20949264526367187,7.528567120361328,-9.227253198242186,47.587786259541986,61.02290076335878,-7.312977099236641
6291509155463,1.107910417,3,-0.5865794067382812,7.277175946044921,-8.56765064086914,52.48854961832061,76.36641221374046,0.40458015267175573
6291515746921,1.114501875,3,0.11731588134765625,6.968323931884766,-7.970297326660156,75.77862595419847,100.46564885496183,-3.946564885496183
6291522506244,1.121261198,3,0.3363853332519531,6.746860278320312,-7.436390356445312,92.9618320610687,101.64885496183206,-8.435114503816793
6291529155046,1.12791,3,0.2609679809570312,6.733692169189453,-6.919242797851562,98.3587786259542,96.09160305343511,-13.969465648854962
6291535836765,1.134591719,3,-0.037110125732421874,6.7803791015625,-6.398503936767578,90.44274809160305,95.29007633587786,-19.236641221374047
6291542500462,1.141255416,3,-0.001197100830078125,6.846219647216796,-6.050147595214844,70.66412213740458,86.12213740458016,-17.068702290076335
6291549160150,1.147915104,3,0.05386953735351562,6.792350109863281,-5.883750579833984,48.48854961832061,71.65648854961832,-11.381679389312977
6291555833171,1.154588125,3,0.04908113403320312,6.730100866699218,-5.999869360351562,29.557251908396946,57.33587786259542,-5.580152671755725
6291562499160,1.161254114,3,0.8152256652832031,6.719326959228515,-5.931634613037109,14.435114503816793,43.16793893129771,-11.13740458015267
6291569165567,1.167920521,3,0.6967126831054687,7.025784771728516,-5.914875201416015,4.854961832061068,29.870229007633586,-8.229007633587786
6291575821244,1.174576198,3,1.052251629638672,7.22689771118164,-6.2213330139160155,5.755725190839694,21.27480916030534,-2.8931297709923665
6291582485462,1.181240416,3,1.3934253662109375,7.433996154785156,-6.357802508544921,-2.0610687022900764,19.908396946564885,8.427480916030534
6291589160879,1.187915833,3,1.2856862915039062,7.486668591308593,-6.198588098144531,-6.358778625954199,14.045801526717558,8.427480916030534
6291595821712,1.194576666,3,1.246181964111328,7.371746911621093,-6.275202551269531,-3.2519083969465647,9.450381679389313,21.52671755725191
6291602480046,1.201235,3,1.2820949890136717,7.152677459716797,-6.2392895263671875,1.5267175572519085,5.595419847328245,32.19847328244275
6291609148015,1.207902969,3,1.083376251220703,6.9336080078124995,-6.36498511352539,-4.916030534351145,-5.404580152671755,42.12977099236641
6291615827910,1.214582864,3,0.8894459167480468,6.661866119384765,-6.506243011474609,-22.84732824427481,-11.229007633587786,50.778625954198475
6291622497910,1.221252864,3,0.8104372619628906,6.30752427368164,-6.556521246337891,-39.80152671755725,-10.396946564885496,53.19083969465649
6291629144160,1.227899114,3,1.1935095275878906,6.172251879882812,-6.1638721740722655,-38.038167938931295,4.404580152671755,48.48854961832061
6291635830983,1.234585937,3,1.1611878051757811,6.062118603515625,-6.187814190673827,-27.282442748091604,-2.183206106870229,46.06106870229008
6291642504004,1.241258958,3,0.9888052856445312,5.968744738769531,-6.19260259399414,-17.770992366412212,-11.374045801526718,44.82442748091603
6291649151556,1.24790651,3,0.9744400756835937,5.971138940429687,-6.0716954101562495,-14.267175572519085,-5.786259541984733,39.23664122137404
6291655830619,1.254585573,3,1.0079588989257813,5.9962780578613275,-6.02022007446289,-18.083969465648856,-8.267175572519085,35.57251908396947
6291662450046,1.261205,3,0.928950244140625,5.949591125488281,-6.02022007446289,-22.72519083969466,-13.557251908396946,35.7557251908397
6291669164681,1.267919635,3,0.9421183532714843,6.0513446960449215,-6.011840368652344,-26.15267175572519,-16.732824427480917,36.17557251908397
6291675824837,1.274579791,3,0.8655039001464844,6.054935998535156,-6.074089611816406,-29.801526717557252,-18.64885496183206,38.6793893129771
6291682494681,1.281249635,3,0.8678981018066406,6.013037469482422,-6.081272216796875,-30.82442748091603,-21.99236641221374,42.29770992366412
6291689163119,1.287918073,3,0.9445125549316405,5.931634613037109,-6.264428643798828,-30.87786259541985,-26.83206106870229,46.458015267175576
6291695829837,1.294584791,3,0.967257470703125,5.805939025878906,-6.3709706176757805,-33.38931297709924,-28.35114503816794,52.74809160305343
6291702490358,1.301245312,3,1.120486376953125,5.79037671508789,-6.4475850708007805,-37.12977099236641,-30.17557251908397,62.534351145038165
6291709152025,1.307906979,3,1.2713210815429687,5.483918902587891,-6.4475850708007805,-39.49618320610687,-33.900763358778626,72.61068702290076
6291715840671,1.314595625,3,1.0187328063964842,5.118803149414062,-6.442796667480469,-39.152671755725194,-35.86259541984733,82.22137404580153
6291722509369,1.321264323,3,1.1252747802734375,4.7189714721679685,-6.426037255859375,-41.10687022900763,-35.541984732824424,87.47328244274809
6291729208431,1.327963385,3,1.0187328063964842,4.205415216064453,-6.455964776611328,-44.89312977099237,-35.541984732824424,86.16793893129771
6291735860775,1.334615729,3,1.1659762084960936,3.716998077392578,-6.457161877441406,-47.229007633587784,-33.66412213740458,86.16793893129771
6291742508535,1.341263489,3,1.3467384338378905,3.27526787109375,-6.515819818115234,-44.62595419847328,-27.916030534351144,79.6793893129771
6291749156921,1.347911875,3,1.4472949035644531,2.8371289672851563,-6.45476767578125,-39.267175572519086,-23.916030534351144,75.26717557251908
6291755812442,1.354567396,3,1.5885528015136718,2.4576480041503905,-6.610390783691406,-28.931297709923665,-16.625954198473284,66.69465648854961
6291762484525,1.361239479,3,1.4927847351074217,2.1835119140624997,-6.337451794433593,-14.893129770992367,-2.7557251908396947,53.030534351145036
6291769136504,1.367891458,3,1.2605471740722656,1.9488801513671874,-6.205770703124999,-4.251908396946565,3.7786259541984735,39.97709923664122
6291775823900,1.374578854,3,1.3658920471191405,1.8435352783203125,-6.041767889404296,6.793893129770993,13.870229007633588,22.015267175572518
6291782493535,1.381248489,3,1.4688427185058592,1.8818425048828125,-5.899312890625,18.389312977099237,28.480916030534353,1.5572519083969465
6291789150567,1.387905521,3,1.5789759948730469,1.9524714538574217,-5.8083332275390624,26.00763358778626,31.603053435114504,-13.13740458015267
6291795824942,1.394579896,3,1.7645266235351562,1.916558428955078,-5.746083984375,35.51908396946565,39.48854961832061,-31.862595419847327
6291802502858,1.401257812,3,1.6400281372070311,2.138022082519531,-5.756857891845703,41.51908396946565,40.56488549618321,-49.221374045801525
6291809213171,1.407968125,3,1.5825672973632812,2.2577321655273437,-5.7891796142578125,43.267175572519086,43.0763358778626,-61.93129770992366
6291815866244,1.414621198,3,1.4867992309570313,2.379836450195312,-5.548562347412109,47.083969465648856,50.79389312977099,-74.65648854961832
6291822505827,1.421260781,3,1.419761584472656,2.5330653564453125,-5.492298608398437,52.79389312977099,52.603053435114504,-84.80152671755725
6291829156608,1.427911562,3,1.4508862060546874,2.7904420349121093,-5.580884069824219,54.99236641221374,49.25954198473283,-95.36641221374046
6291835827077,1.434582031,3,1.504755743408203,3.0358477050781247,-5.641936212158202,50.48854961832061,44.10687022900763,-102.98473282442748
6291842496608,1.441251562,3,1.504755743408203,2.923320227050781,-5.566518859863281,39.70229007633588,38.61068702290076,-109.34351145038168
6291849156869,1.447911823,3,1.1839327209472656,3.536235852050781,-5.566518859863281,23.69465648854962,25.282442748091604,-118.25190839694656
6291855836139,1.454591093,3,1.4867992309570313,3.9719805541992184,-5.948394024658203,23.69465648854962,16.862595419847327,-139.00763358778627
6291862499733,1.461254687,3,0.8188169677734375,5.017049578857422,-5.972336041259766,14.099236641221374,16.862595419847327,-133.19847328244273
6291869157702,1.467912656,3,0.23223756103515625,5.832275244140624,-6.246472131347656,7.824427480916031,-0.6793893129770993,-133.19847328244273
6291875831556,1.47458651,3,0.2741360900878906,6.459556079101562,-6.849810949707031,-0.7862595419847328,-17.862595419847327,-129.89312977099237
6291882494421,1.481249375,3,0.181959326171875,7.195773089599609,-7.031770275878906,-18.53435114503817,-17.450381679389313,-125.42748091603053
6291889154889,1.487909843,3,-0.05386953735351562,7.809885815429687,-7.30351216430664,-45.02290076335878,-36.35114503816794,-116.67175572519083
6291895825619,1.494580573,3,-0.31962592163085934,8.400056524658202,-7.626729388427734,-63.38931297709924,-48.11450381679389,-110.47328244274809
6291902501869,1.501256823,3,-0.3591302490234375,9.244012609863281,-8.145074047851562,-75.20610687022901,-55.0,-110.96946564885496
6291909138067,1.507893021,3,-0.009576806640625,9.599551556396484,-8.542511523437499,-93.17557251908397,-65.34351145038168,-105.58778625954199
6291915845514,1.514600468,3,0.058657940673828124,10.104728106689452,-8.556876733398436,-86.26717557251908,-46.74045801526717,-101.62595419847328
6291922483431,1.521238385,3,0.16759411621093748,10.511742388916016,-8.884882360839843,-62.717557251908396,-53.76335877862596,-92.1526717557252
6291929145254,1.527900208,3,-0.31483751831054685,10.687716210937499,-9.418789331054686,-48.10687022900763,-61.61068702290076,-74.68702290076335
6291935818848,1.534573802,3,-0.5865794067382812,10.420762725830077,-9.719261639404296,-48.94656488549618,-51.85496183206107,-50.908396946564885
6291942492077,1.541247031,3,-0.9349357482910156,9.832986218261718,-9.616310968017578,-49.0,-19.763358778625953,-30.17557251908397
6291949151244,1.547906198,3,-0.842758984375,9.437942944335937,-9.433154541015625,-33.66412213740458,1.7404580152671756,-21.946564885496183
6291955818327,1.554573281,3,-0.4572925170898437,8.954314208984375,-9.18056626586914,-6.748091603053435,27.68702290076336,-15.32824427480916
6291962490775,1.561245729,3,-0.3447650390625,8.40125362548828,-8.635885388183594,18.68702290076336,55.16030534351145,-11.587786259541986
6291969154994,1.567909948,3,-0.594959112548828,7.825448126220703,-7.8170684204101555,43.93129770992366,83.6412213740458,-10.297709923664122
6291975823587,1.574578541,3,-0.49799394531249996,7.362170104980469,-7.097610821533203,72.09923664122137,97.6030534351145,-16.862595419847327
6291982489941,1.581244895,3,-0.3447650390625,7.362170104980469,-6.635529901123046,94.26717557251908,105.7557251908397,-22.786259541984734
6291989153119,1.587908073,3,-0.028730419921875,6.941987713623046,-6.635529901123046,104.48091603053435,114.22137404580153,-32.48091603053435
6291995756244,1.594511198,3,-0.3363853332519531,6.910863092041015,-5.740098480224609,104.48091603053435,107.80916030534351,-41.213740458015266
6292002519264,1.601274218,3,-0.29927520751953124,6.900089184570312,-5.2456958374023435,97.14503816793894,108.81679389312977,-54.31297709923664
6292009659056,1.60841401,3,0.37229835815429685,7.190984686279297,-5.2828059631347655,79.70229007633588,94.56488549618321,-54.44274809160305
6292015882962,1.614637916,3,0.8906430175781249,7.353790399169921,-4.959588739013672,55.908396946564885,92.61068702290076,-54.44274809160305
6292022503379,1.621258333,3,1.092953057861328,7.3849150207519525,-4.818330841064453,36.0763358778626,78.12213740458016,-45.83206106870229
6292029150775,1.627905729,3,1.2078747375488281,7.296329559326171,-4.601655590820312,30.6793893129771,57.61832061068702,-31.83969465648855
6292035775306,1.63453026,3,1.438915197753906,7.344213592529297,-4.632780212402343,38.900763358778626,49.79389312977099,-28.9618320610687
6292042502025,1.641256979,3,0.9660603698730468,7.333439685058593,-4.478354205322265,39.900763358778626,33.50381679389313,-17.206106870229007
6292049155983,1.647910937,3,0.8259995727539062,7.277175946044921,-4.429273071289062,32.74809160305343,17.870229007633586,-6.320610687022901
6292055826869,1.654581823,3,0.7793126403808593,7.305906365966797,-4.406528155517578,17.061068702290076,7.0,-1.7557251908396947
6292062497546,1.6612525,3,0.8212111694335937,7.3849150207519525,-4.458003491210937,-2.3587786259541983,-10.473282442748092,4.038167938931298
6292069183900,1.667938854,3,1.1540052001953125,7.307103466796875,-4.970362646484375,-23.30534351145038,-35.16030534351145,19.061068702290076
6292075824056,1.67457901,3,1.199495031738281,7.224503509521484,-5.456385583496093,-43.25190839694657,-53.74045801526717,32.18320610687023
6292082495150,1.681250104,3,0.833182177734375,6.83783994140625,-5.941211419677734,-60.06870229007634,-74.2824427480916,51.70229007633588
6292089158379,1.687913333,3,0.3399766357421875,6.537367633056641,-6.58884296875,-66.94656488549619,-94.77099236641222,63.267175572519086
6292095822181,1.694577135,3,0.105344873046875,6.449979272460937,-7.248445526123047,-66.74045801526718,-96.86259541984732,63.954198473282446
6292102505202,1.701260156,3,-0.2549824768066406,6.4080807434082026,-7.730877160644531,-69.27480916030534,-95.62595419847328,61.81679389312977
6292109155983,1.707910937,3,-0.6081272216796875,6.5385647338867185,-8.366537701416014,-71.23664122137404,-94.03053435114504,56.152671755725194
6292115916452,1.714671406,3,-0.5351040710449219,6.763619689941406,-8.74003316040039,-65.64885496183206,-81.57251908396947,45.41984732824427
6292122538275,1.721293229,3,-0.5351040710449219,6.889315277099609,-9.184157568359375,-58.603053435114504,-71.8473282442748,37.847328244274806
6292129163327,1.727918281,3,-0.45489831542968745,7.195773089599609,-9.184157568359375,-50.267175572519086,-58.229007633587784,35.25190839694657
6292135825983,1.734580937,3,-0.35673604736328124,7.475894683837891,-9.550470422363281,-50.267175572519086,-35.25954198473283,38.93893129770992
6292142492181,1.741247135,3,-0.3435679382324219,7.595604766845702,-9.508571893310547,-37.152671755725194,-35.25954198473283,42.732824427480914
6292149150671,1.747905625,3,-0.6979097839355468,7.505822204589843,-9.258377819824219,-17.38167938931298,-18.870229007633586,42.732824427480914
6292155818379,1.754573333,3,-1.16837041015625,7.621940985107422,-8.908824377441405,5.2748091603053435,-6.00763358778626,41.97709923664122
6292162508483,1.761263437,3,-1.2485761657714842,7.9283987976074215,-8.560468035888672,18.931297709923665,5.343511450381679,37.10687022900763
6292169150723,1.767905677,3,-0.9205705383300781,8.10197841796875,-8.52934341430664,11.98473282442748,9.549618320610687,39.541984732824424
6292175840775,1.774595729,3,-1.0079588989257813,8.058882788085937,-8.457517364501953,-14.435114503816793,1.4198473282442747,54.36641221374046
6292182462650,1.781217604,3,-1.1252747802734375,7.970297326660156,-8.437166650390624,-36.64885496183206,0.2824427480916031,69.6412213740458
6292189173118,1.787928072,3,-1.0402806213378906,7.9104422851562495,-8.613140472412109,-47.41984732824427,-6.526717557251908,81.29770992366412
6292195824004,1.794578958,3,-1.0103531005859374,7.587225061035156,-8.985438830566405,-52.43511450381679,-9.030534351145038,95.08396946564885
6292202495046,1.80125,3,-1.2126631408691406,7.208941198730468,-9.0021982421875,-56.534351145038165,-8.053435114503817,110.67175572519083
6292209146504,1.807901458,3,-0.9409212524414062,6.793547210693359,-9.25718071899414,-54.83206106870229,1.786259541984733,117.7557251908397
6292215831660,1.814586614,3,-0.296881005859375,6.19260259399414,-9.222464794921875,-46.94656488549618,22.50381679389313,123.06106870229007
6292222481296,1.82123625,3,0.3136404174804687,5.343858105468749,-8.86094034423828,-29.786259541984734,45.74809160305343,130.42748091603053
6292229171764,1.827926718,3,0.6667851623535156,4.359841223144531,-8.282740643310547,4.3893129770992365,75.38931297709924,133.49618320610688
6292235823275,1.834578229,3,1.3383587280273437,3.3494881225585935,-7.538143927001952,51.16793893129771,108.36641221374046,129.4351145038168
6292242496816,1.84125177,3,1.5406687683105469,2.483984222412109,-6.458358978271484,96.61068702290076,136.09923664122138,121.2824427480916
6292249158900,1.847913854,3,1.8291700683593748,1.6603788513183593,-5.498284112548828,135.10687022900763,163.05343511450383,109.8473282442748
6292255829160,1.854584114,3,1.8291700683593748,0.9935936889648437,-4.329913702392578,159.32824427480915,179.83969465648855,94.57251908396947
6292262492650,1.861247604,3,2.1248539733886718,0.9935936889648437,-3.5494039611816404,166.81679389312978,182.08396946564886,81.09923664122137
6292269164264,1.867919218,3,2.3163901062011716,0.2861070983886719,-3.5494039611816404,163.0916030534351,162.1908396946565,63.770992366412216
6292275830775,1.874585729,3,2.567781280517578,-0.013168109130859374,-2.9604303527832028,163.0916030534351,165.6946564885496,48.61832061068702
6292282496296,1.88125125,3,2.874239093017578,-0.27892449340820313,-2.3618799377441406,154.46564885496184,165.6946564885496,37.70229007633588
6292289186035,1.887940989,3,3.2166099304199216,-0.5458779785156249,-1.6807295654296874,137.24427480916032,161.9083969465649,37.70229007633588
6292295827285,1.894582239,3,3.1364041748046874,-0.689530078125,-1.5071499450683592,109.06106870229007,119.90076335877863,33.51145038167939
6292302488223,1.901243177,3,3.318363500976562,-0.9373299499511718,-1.5286977600097655,78.45801526717557,87.7175572519084,22.84732824427481
6292309146712,1.907901666,3,3.2225954345703123,-0.9433154541015625,-1.5406687683105469,50.61832061068702,63.93129770992366,6.770992366412214
6292315748848,1.914503802,3,3.39018955078125,-1.0330980163574217,-1.8914193115234375,27.3206106870229,37.038167938931295,-3.7022900763358777
6292322494577,1.921249531,3,3.2513258544921873,-0.9301473449707031,-2.0781670410156248,6.099236641221374,11.282442748091603,-19.221374045801525
6292329139056,1.92789401,3,3.020285394287109,-0.833182177734375,-2.3223756103515623,-12.32824427480916,-3.480916030534351,-33.908396946564885
6292335857962,1.934612916,3,3.782838623046875,-0.5087678527832031,-2.8371289672851563,-22.954198473282442,-21.022900763358777,-58.908396946564885
6292342489525,1.941244479,3,2.9544448486328125,0.5027823486328125,-3.0729578308105467,-36.79389312977099,-42.68702290076336,-87.97709923664122
6292349509212,1.948264166,3,2.2589292663574216,1.1791443176269532,-3.5039141296386718,-54.770992366412216,-61.6412213740458,-104.51908396946565
6292356156504,1.954911458,3,2.2469582580566403,2.290053887939453,-4.140771771240234,-49.3206106870229,-74.29770992366412,-138.26717557251908
6292362586712,1.961341666,3,3.0909143432617188,3.3494881225585935,-5.146336468505859,-43.63358778625954,-82.44274809160305,-157.89312977099237
6292369166139,1.967921093,3,2.5857377929687497,4.608838195800781,-5.4887073059082025,-57.70229007633588,-97.25190839694656,-169.26717557251908
6292375838379,1.974593333,3,1.8507178833007811,5.547365246582031,-5.902904193115234,-75.38167938931298,-106.23664122137404,-169.76335877862596
6292382489837,1.981244791,3,1.6735469604492186,6.4475850708007805,-6.248866333007812,-76.49618320610686,-105.30534351145039,-177.93129770992365
6292389191087,1.987946041,3,1.6603788513183593,7.5465236328125,-6.749254479980468,-67.58778625954199,-112.25954198473282,-184.4351145038168
6292395804056,1.99455901,3,1.6603788513183593,8.517372406005858,-7.3286512817382805,-64.50381679389314,-128.29770992366412,-181.00763358778627
6292402502389,2.001257343,3,1.294065997314453,8.517372406005858,-7.8338278320312495,-72.26717557251908,-142.4885496183206,-171.58778625954199
6292409173118,2.007928072,3,0.6177040283203125,9.364919793701171,-7.8338278320312495,-85.2824427480916,-140.33587786259542,-162.44274809160305
6292415838170,2.014593124,3,0.3890577697753906,10.23401499633789,-8.482656481933594,-85.2824427480916,-139.61832061068702,-149.46564885496184
6292422499420,2.021254374,3,0.09337386474609374,10.882843646240234,-9.117119921875,-101.45801526717557,-139.61832061068702,-148.6793893129771
6292429157858,2.027912812,3,-0.17597382202148437,11.437101330566406,-9.642647186279296,-107.76335877862596,-135.35114503816794,-131.0916030534351
6292435825775,2.034580729,3,-0.3028665100097656,11.807005487060547,-10.070012182617187,-97.81679389312977,-120.3587786259542,-110.45038167938931
6292442497337,2.041252291,3,-0.4177881896972656,11.903970654296874,-10.322600457763672,-76.61832061068702,-103.4885496183206,-87.2824427480916
6292449155098,2.047910052,3,-0.5147533569335937,11.857283721923828,-10.47702646484375,-50.56488549618321,-81.16793893129771,-63.900763358778626
6292455878223,2.054633177,3,-0.5698199951171875,11.577162127685547,-10.407594616699217,-25.022900763358777,-54.69465648854962,-41.66412213740458
6292462517858,2.061272812,3,-0.5758054992675781,11.168950744628905,-10.090362896728514,-2.6946564885496183,-27.786259541984734,-19.19083969465649
6292469181920,2.067936874,3,-0.7350199096679687,10.339359869384765,-9.54448491821289,16.732824427480917,-1.8473282442748091,3.1755725190839694
6292475834368,2.074589322,3,-0.9600748657226562,9.345766180419922,-8.765172277832031,36.51145038167939,20.610687022900763,23.290076335877863
6292482528275,2.081283229,3,-0.7960720520019531,8.398859423828124,-8.074445098876952,59.51908396946565,36.0,32.465648854961835
6292489165566,2.08792052,3,-0.8678981018066406,7.576451153564452,-7.592013464355468,77.61068702290076,41.98473282442748,36.969465648854964
6292495923952,2.094678906,3,-0.8834604125976562,6.8976949829101555,-7.329848382568359,80.12977099236642,32.50381679389313,34.2442748091603
6292502505462,2.101260416,3,-0.35314474487304687,6.438008264160156,-6.957550024414062,67.7175572519084,37.81679389312977,26.251908396946565
6292509166920,2.107921874,3,-0.3280056274414062,6.102820031738281,-6.655880615234374,41.221374045801525,41.48854961832061,25.27480916030534
6292515875775,2.114630729,3,0.18435352783203124,5.779602807617187,-6.514622717285156,16.236641221374047,31.137404580152673,16.900763358778626
6292522459004,2.121213958,3,0.5099649536132812,5.692214447021484,-6.308721374511719,7.99236641221374,30.946564885496183,8.969465648854962
6292529149785,2.127904739,3,0.5853823059082031,5.6778492370605465,-6.174646081542968,12.221374045801527,24.793893129770993,2.3053435114503817
6292535838223,2.134593177,3,0.5853823059082031,5.898115789794922,-5.948394024658203,20.099236641221374,19.290076335877863,-5.0458015267175576
6292542526764,2.141281718,3,0.4321533996582031,5.898115789794922,-6.013037469482422,19.709923664122137,12.82442748091603,-13.13740458015267
6292549176556,2.14793151,3,0.5578489868164063,6.25006343383789,-6.013037469482422,20.81679389312977,5.343511450381679,-15.206106870229007
6292555829160,2.154584114,3,0.5003881469726562,6.505045910644531,-5.986701251220703,7.137404580152672,5.854961832061068,-13.709923664122137
6292562452545,2.161207499,3,0.6344634399414062,6.834248638916015,-6.065709906005859,-8.870229007633588,-1.9618320610687023,-14.335877862595419
6292569214629,2.167969583,3,0.7757213378906249,6.941987713623046,-6.189011291503906,-19.267175572519083,-10.091603053435115,-8.473282442748092
6292575808691,2.174563645,3,0.5243301635742187,7.123947039794921,-6.355408306884765,-21.61832061068702,-21.870229007633586,0.6946564885496184
6292582500150,2.181255104,3,0.5243301635742187,7.229291912841797,-6.586448767089843,-19.045801526717558,-32.038167938931295,9.877862595419847
6292589159264,2.187914218,3,0.5710170959472656,7.034164477539062,-6.924031201171875,-25.625954198473284,-39.66412213740458,25.709923664122137
6292595791139,2.194546093,3,0.36272155151367186,6.653486413574218,-7.234080316162109,-40.213740458015266,-50.83206106870229,41.70992366412214
6292602489420,2.201244374,3,0.029927520751953124,6.2201359130859375,-7.520187414550781,-48.70992366412214,-52.030534351145036,52.9236641221374
6292609152129,2.207907083,3,-0.05386953735351562,5.849034655761718,-7.818265521240234,-51.091603053435115,-54.67175572519084,57.595419847328245
6292615826816,2.21458177,3,-0.239420166015625,5.598840582275391,-8.143876947021484,-52.17557251908397,-57.37404580152672,57.54961832061068
6292622495879,2.221250833,3,-0.469263525390625,5.360617517089843,-8.464699969482421,-54.221374045801525,-52.14503816793893,53.45038167938932
6292629159420,2.227914374,3,-0.3387795349121094,5.36899722290039,-8.672995513916016,-55.64885496183206,-41.778625954198475,43.56488549618321
6292635831556,2.23458651,3,-0.3459621398925781,5.443217474365234,-8.84777223510742,-53.93893129770992,-29.587786259541986,32.29007633587786
6292642505514,2.241260468,3,-0.20350714111328125,5.616797094726562,-8.916006982421875,-48.14503816793893,-19.27480916030534,23.870229007633586
6292649159056,2.24791401,3,-0.35314474487304687,5.852625958251953,-8.888473663330078,-37.83206106870229,-8.229007633587786,15.595419847328245
6292655769316,2.25452427,3,-0.5147533569335937,6.083666418457031,-8.856151940917968,-25.61832061068702,3.16793893129771,5.916030534351145
6292662499733,2.261254687,3,-0.469263525390625,6.482300994873047,-8.699331732177734,-14.916030534351146,16.053435114503817,-5.351145038167939
6292669145306,2.26790026,3,-0.6009446166992187,7.040149981689453,-8.425195642089843,-8.267175572519085,28.52671755725191,-14.763358778625955
6292675843483,2.274598437,3,-0.4477157104492187,7.483077288818359,-8.173804467773436,-3.267175572519084,42.70229007633588,-19.061068702290076
6292682501504,2.281256458,3,-0.2166752502441406,7.483077288818359,-8.142679846191406,4.740458015267175,56.06870229007634,-17.908396946564885
6292689153222,2.287908176,3,0.034715924072265626,7.7763669921875,-7.682993127441406,4.809160305343512,63.396946564885496,-11.213740458015268
6292695838483,2.294593437,3,0.22864625854492185,7.908048083496094,-7.186196282958984,16.53435114503817,62.717557251908396,-0.40458015267175573
6292702470358,2.301225312,3,0.3076549133300781,7.903259680175781,-6.858190655517578,28.366412213740457,66.62595419847328,-0.11450381679389313
6292709173066,2.30792802,3,0.507570751953125,7.68059892578125,-6.40329234008789,34.23664122137404,67.19083969465649,11.610687022900763
6292715841139,2.314596093,3,0.6380547424316406,7.308300567626953,-6.017825872802734,32.98473282442748,67.36641221374046,24.557251908396946
6292722509525,2.321264479,3,0.8307879760742187,6.781576202392578,-5.720944866943359,28.572519083969464,64.70229007633588,35.93893129770992
6292729171347,2.327926301,3,0.8678981018066406,6.321889483642578,-5.312733483886719,25.69465648854962,57.770992366412216,42.908396946564885
6292735833691,2.334588645,3,0.9888052856445312,5.941211419677734,-5.185840795898438,23.908396946564885,49.229007633587784,44.00763358778626
6292742496660,2.341251614,3,1.150413897705078,5.647921716308593,-5.147533569335937,18.236641221374047,39.38167938931298,42.58015267175573
6292749160254,2.347915208,3,1.2868833923339842,5.493495709228515,-5.1523219726562495,8.206106870229007,27.53435114503817,40.16030534351145
6292755834316,2.35458927,3,1.3646949462890625,5.383362432861328,-5.127182855224609,-3.236641221374046,17.282442748091604,38.86259541984733
6292762496660,2.361251614,3,1.43652099609375,5.194220501708984,-5.342661004638671,-13.786259541984732,5.969465648854962,38.20610687022901
6292769156556,2.36791151,3,1.4927847351074217,5.148730670166016,-5.4779333984375,-20.595419847328245,-1.0687022900763359,38.343511450381676
6292775836191,2.374591145,3,1.5406687683105469,5.031414788818359,-5.764040496826172,-23.732824427480917,-7.854961832061068,39.12213740458015
6292782501139,2.381256093,3,1.610100616455078,4.908113403320312,-6.038176586914062,-24.328244274809162,-12.48091603053435,39.99236641221374
6292789161764,2.387916718,3,1.6460136413574218,4.707000463867187,-6.2213330139160155,-24.66412213740458,-12.961832061068701,42.51145038167939
6292795804525,2.394559479,3,1.6747440612792968,4.4376527770996095,-6.276399652099609,-22.49618320610687,-9.312977099236642,43.954198473282446
6292802510775,2.401265729,3,1.68551796875,4.247313745117188,-6.4080807434082026,-16.641221374045802,-4.541984732824427,42.88549618320611
6292809151295,2.407906249,3,1.707065783691406,4.043806604003906,-6.379350323486328,-9.618320610687023,0.015267175572519083,38.9236641221374
6292815829056,2.41458401,3,1.707065783691406,4.011484881591796,-6.387730029296875,-4.435114503816794,5.7251908396946565,33.3206106870229
6292822506243,2.421261197,3,1.7190367919921874,3.8582559753417964,-6.338648895263671,-1.2213740458015268,13.770992366412214,26.541984732824428
6292829164993,2.427919947,3,1.9021932189941406,3.7385458923339843,-6.338648895263671,-1.633587786259542,20.12213740458015,19.290076335877863
6292835839837,2.434594791,3,1.8411410766601561,3.6080619018554687,-6.262034442138671,2.2748091603053435,20.27480916030534,12.106870229007633
6292842498327,2.441253281,3,1.9512743530273435,3.4392706848144527,-5.908889697265625,8.992366412213741,30.045801526717558,13.404580152671755
6292849217024,2.447971978,3,1.9979612854003905,3.3961750549316405,-5.57370146484375,20.38167938931298,42.12213740458015,3.633587786259542
6292855877389,2.454632343,3,1.9812018737792967,3.392583752441406,-5.224148022460938,33.55725190839695,47.70992366412214,-5.0458015267175576
6292862512233,2.461267187,3,1.9728221679687499,3.391386651611328,-4.951209033203125,41.13740458015267,49.64885496183206,-11.610687022900763
6292869174837,2.467929791,3,2.000355487060547,3.39018955078125,-4.6998178588867185,40.93129770992366,47.85496183206107,-16.66412213740458
6292875833274,2.474588228,3,1.8626888916015625,3.402160559082031,-4.511873028564453,35.770992366412216,43.43511450381679,-18.076335877862597
6292882475306,2.48123026,3,2.057816326904297,3.229778039550781,-4.554968658447265,21.31297709923664,29.442748091603054,-14.992366412213741
6292889160722,2.487915676,3,2.1787235107421874,3.0358477050781247,-4.5322237426757805,5.633587786259542,23.717557251908396,-15.82442748091603
6292895827806,2.49458276,3,2.4959552307128905,2.7521348083496093,-4.608838195800781,-1.534351145038168,20.709923664122137,-18.412213740458014
6292902482649,2.501237603,3,2.440888592529297,2.7162217834472653,-4.796783026123046,0.7404580152671756,9.763358778625955,-26.748091603053435
6292909170670,2.507925624,3,2.3546973327636715,2.6132711120605467,-4.783614916992187,6.267175572519084,11.854961832061068,-31.709923664122137
6292915830514,2.514585468,3,2.7162217834472653,2.4492682983398435,-4.733336682128906,16.282442748091604,16.778625954198475,-38.42748091603053
6292922510566,2.52126552,3,2.8694506896972656,2.460042205810547,-4.80755693359375,22.16030534351145,6.702290076335878,-46.13740458015267
6292929163952,2.527918906,3,1.697488977050781,2.310404602050781,-4.398148449707031,16.328244274809162,3.2061068702290076,-49.6793893129771
6292935832181,2.534587135,3,1.6747440612792968,2.3032219970703123,-4.73094248046875,18.671755725190838,-9.366412213740459,-65.44274809160305
6292942499941,2.541254895,3,1.4137760803222656,2.655169641113281,-5.1523219726562495,23.931297709923665,-26.625954198473284,-84.74045801526718
6292949171556,2.54792651,3,1.388636962890625,3.2788591735839843,-5.140350964355468,19.541984732824428,-21.603053435114504,-106.00763358778626
6292955913014,2.554667968,3,0.7757213378906249,4.2305543334960936,-5.504269616699219,5.702290076335878,-26.603053435114504,-134.6793893129771
6292962499212,2.561254166,3,0.9983820922851562,4.2305543334960936,-5.467159490966797,-4.137404580152672,-26.946564885496183,-163.01526717557252
6292969162754,2.567917708,3,0.9109937316894531,5.481524700927734,-5.773617303466796,-4.816793893129771,-32.099236641221374,-174.6412213740458
6292975814472,2.574569426,3,0.4860229370117187,6.725312463378906,-5.8262897399902345,-2.8625954198473282,-32.61068702290076,-165.74809160305344
6292982471035,2.581225989,3,0.729034405517578,7.7967177062988275,-6.271611248779297,8.083969465648854,-36.51908396946565,-165.74809160305344
6292989155358,2.587910312,3,0.8750807067871094,8.56765064086914,-6.749254479980468,12.580152671755725,-47.94656488549618,-153.94656488549617
6292995839577,2.594594531,3,0.39863457641601563,8.832209924316405,-6.880935571289062,2.404580152671756,-57.99236641221374,-121.14503816793894
6293002494472,2.601249426,3,-0.010773907470703125,9.095572106933593,-7.1778165771484375,-10.916030534351146,-68.1526717557252,-99.52671755725191
6293009161139,2.607916093,3,-0.40222587890625,9.081206896972656,-7.781155395507812,-29.16793893129771,-87.8473282442748,-79.6030534351145
6293015822858,2.614577812,3,-0.8810662109374999,9.228450299072264,-8.166621862792969,-45.083969465648856,-98.40458015267176,-65.51908396946565
6293022541556,2.62129651,3,-1.37906015625,9.35294878540039,-8.650250598144531,-59.221374045801525,-105.91603053435115,-56.343511450381676
6293029163587,2.627918541,3,-2.01112939453125,9.62109937133789,-9.247603912353515,-72.83969465648855,-115.98473282442748,-52.0
6293035828691,2.634583645,3,-2.433705987548828,10.008960040283203,-9.776722479248047,-79.77862595419847,-115.97709923664122,-53.25954198473283
6293042491087,2.641246041,3,-2.9496564453125,10.532093103027343,-10.241197601318358,-80.92366412213741,-109.89312977099236,-57.05343511450382
6293049141556,2.64789651,3,-2.8981811096191405,11.092336291503905,-10.760739361572265,-79.74045801526718,-106.64885496183206,-61.52671755725191
6293055822337,2.654577291,3,-3.1220389648437497,11.552023010253906,-11.103110198974608,-80.87786259541984,-95.80152671755725,-52.68702290076336
6293062495097,2.661250051,3,-2.9855694702148434,11.787851873779296,-11.550825909423827,-78.31297709923665,-80.74045801526718,-37.97709923664122
6293069167910,2.667922864,3,-2.2445640563964844,11.738770739746093,-11.79144317626953,-61.48091603053435,-52.14503816793893,-18.938931297709924
6293075827181,2.674582135,3,-1.7405846069335937,11.420341918945311,-11.750741748046874,-34.267175572519086,-26.282442748091604,12.259541984732824
6293082509472,2.681264426,3,-2.002749688720703,10.664971295166016,-11.252747802734374,-3.213740458015267,5.633587786259542,47.595419847328245
6293089163691,2.687918645,3,-2.042254016113281,9.436745843505859,-10.58476553955078,24.51145038167939,38.969465648854964,72.8854961832061
6293095834733,2.694589687,3,-1.5825672973632812,9.433154541015625,-9.70369932861328,51.465648854961835,78.87786259541984,89.54198473282443
6293102474108,2.701229062,3,-1.0438719238281249,8.054094384765625,-9.672574707031249,78.80916030534351,108.3206106870229,100.73282442748092
6293109157701,2.707912655,3,-0.7398083129882812,6.718129858398437,-8.59997236328125,80.01526717557252,126.64885496183206,99.3206106870229
6293115839368,2.714594322,3,-0.3687070556640625,5.561730456542969,-7.593210565185546,103.46564885496183,126.38167938931298,91.70229007633588
6293122503899,2.721258853,3,-0.1580173095703125,4.686649749755859,-6.552929943847656,113.25190839694656,138.10687022900763,91.70229007633588
6293129165149,2.727920103,3,0.1771709228515625,3.985148663330078,-5.719747766113281,106.83206106870229,141.89312977099237,79.48091603053435
6293135841712,2.734596666,3,0.4381389038085937,3.5577836669921874,-4.995501763916016,87.68702290076335,133.0381679389313,63.908396946564885
6293142475149,2.741230103,3,0.7817068420410156,3.247734552001953,-4.548983154296875,63.94656488549618,117.72519083969466,46.847328244274806
6293149139316,2.74789427,3,0.9564835632324218,3.2417490478515623,-4.158728283691406,41.656488549618324,99.83206106870229,27.6793893129771
6293155835254,2.754590208,3,1.0031704956054688,3.421314172363281,-4.018667486572266,21.137404580152673,74.6030534351145,7.824427480916031
6293162497024,2.761251978,3,1.0199299072265624,3.9923312683105467,-4.146757275390625,-0.03816793893129771,44.16030534351145,-12.213740458015268
6293169163222,2.767918176,3,1.0235212097167967,4.721365673828124,-4.431667272949219,-25.908396946564885,15.473282442748092,-29.85496183206107
6293175828170,2.774583124,3,0.9959878906249999,5.6395420104980465,-4.995501763916016,-56.038167938931295,-11.82442748091603,-42.93129770992366
6293182500931,2.781255885,3,0.6679822631835937,6.476315490722656,-5.570110162353515,-82.58015267175573,-34.93129770992366,-46.274809160305345
6293189166660,2.787921614,3,0.20470424194335937,7.418433843994141,-6.190208392333984,-97.34351145038168,-56.595419847328245,-41.02290076335878
6293195821399,2.794576353,3,0.23223756103515625,8.195352282714843,-6.8402341430664055,-101.9618320610687,-61.11450381679389,-34.396946564885496
6293202497285,2.801252239,3,0.4465186096191406,8.708908538818358,-7.5142019104003905,-102.65648854961832,-57.31297709923664,-25.290076335877863
6293209140306,2.80789526,3,0.06703764648437499,9.039308367919922,-7.841010437011718,-100.22900763358778,-61.587786259541986,-6.404580152671755
6293215871035,2.814625989,3,0.040701428222656245,9.114725720214842,-8.194155181884765,-85.78625954198473,-52.778625954198475,13.290076335877863
6293222500722,2.821255676,3,-0.05985504150390625,9.010577947998046,-8.437166650390624,-66.70229007633588,-39.786259541984734,31.412213740458014
6293229154681,2.827909635,3,-0.05027823486328125,8.596381060791016,-8.531737615966797,-52.38167938931298,-31.33587786259542,51.70992366412214
6293235873483,2.834628437,3,-0.20350714111328125,8.726865051269531,-8.35696089477539,-38.412213740458014,-10.236641221374045,66.05343511450381
6293242509420,2.841264374,3,-0.12449848632812499,7.960720520019531,-8.291120349121094,-21.083969465648856,7.229007633587786,74.93129770992367
6293249164629,2.847919583,3,0.13287819213867186,7.241262921142578,-8.137891442871092,-21.083969465648856,23.015267175572518,74.6030534351145
6293255829576,2.85458453,3,0.4896142395019531,6.768408093261718,-7.732074261474609,-3.49618320610687,23.015267175572518,84.0
6293262487129,2.861242083,3,0.39863457641601563,6.0704983093261715,-7.145494854736327,6.816793893129771,35.732824427480914,84.0
6293269155774,2.867910728,3,0.469263525390625,5.391742138671875,-6.78636460571289,17.763358778625953,37.06106870229008,80.66412213740458
6293275837545,2.874592499,3,0.45010991210937495,5.008669873046875,-6.366182214355469,26.137404580152673,47.06106870229008,69.21374045801527
6293282523847,2.881278801,3,0.9325415466308593,4.594472985839843,-6.185419989013671,25.64885496183206,48.05343511450382,57.25954198473283
6293289163326,2.88791828,3,1.054645831298828,4.624400506591797,-5.863399865722656,20.213740458015266,51.25954198473283,38.847328244274806
6293295830566,2.89458552,3,0.8511386901855468,4.638765716552734,-5.533000036621093,14.748091603053435,53.541984732824424,27.885496183206108
6293302498378,2.901253332,3,1.419761584472656,4.753687396240234,-5.498284112548828,17.641221374045802,51.19083969465649,12.557251908396946
6293309167233,2.907922187,3,1.5275006591796874,5.007472772216796,-5.135562561035156,22.541984732824428,54.06870229007634,0.5419847328244275
6293315833014,2.914587968,3,1.6352397338867186,5.228936425781249,-5.06253941040039,24.14503816793893,48.63358778625954,-2.931297709923664
6293322496087,2.921251041,3,1.6136919189453125,5.438429071044921,-4.885368487548828,23.19083969465649,43.50381679389313,-2.8702290076335877
6293329168951,2.927923905,3,1.6915034729003906,5.430049365234375,-4.710591766357422,20.46564885496183,40.31297709923664,1.786259541984733
6293335906503,2.934661457,3,1.9800047729492187,5.336675500488281,-4.7117888671875,17.374045801526716,37.595419847328245,8.572519083969466
6293342524524,2.941279478,3,2.147598889160156,5.091269830322266,-4.633977313232422,14.557251908396946,35.274809160305345,16.564885496183205
6293349172233,2.947927187,3,2.1787235107421874,4.808754034423828,-4.448426684570312,14.687022900763358,32.80916030534351,23.091603053435115
6293355828483,2.954583437,3,2.139219183349609,4.504690423583984,-4.295197778320312,17.641221374045802,31.53435114503817,26.14503816793893
6293362486191,2.961241145,3,2.291250988769531,4.241328240966797,-4.247313745117188,21.786259541984734,32.25954198473283,24.091603053435115
6293369170670,2.967925624,3,2.291250988769531,4.072537023925781,-4.001908074951172,24.404580152671755,33.25954198473283,18.396946564885496
6293375829681,2.974584635,3,2.365471240234375,4.072537023925781,-3.793612530517578,26.137404580152673,33.458015267175576,10.83206106870229
6293382497753,2.981252707,3,2.3116017028808593,3.9899370666503904,-3.793612530517578,29.755725190839694,33.55725190839695,0.6870229007633588
6293389147285,2.987902239,3,2.5330653564453125,3.967192150878906,-3.6834792541503902,29.755725190839694,27.00763358778626,-6.015267175572519
6293395823274,2.994578228,3,2.407369769287109,4.004302276611328,-3.622427111816406,30.435114503816795,27.00763358778626,-13.603053435114504
6293402503951,3.001258905,3,2.5641899780273434,4.092887738037109,-3.3865982482910155,32.10687022900763,25.587786259541986,-13.603053435114504
6293409159785,3.007914739,3,2.583343591308594,4.116829754638672,-3.4907460205078125,30.610687022900763,19.755725190839694,-16.580152671755727
6293415822441,3.014577395,3,2.2852654846191407,4.2137949218749995,-3.4620156005859375,24.17557251908397,4.312977099236641,-18.17557251908397
6293422498639,3.021253593,3,2.407369769287109,4.23893403930664,-3.4763808105468748,21.251908396946565,-0.3053435114503817,-21.450381679389313
6293429140201,3.027895155,3,2.398990063476562,4.3454760131835934,-3.660734338378906,14.320610687022901,-13.86259541984733,-20.3206106870229
6293435821556,3.03457651,3,2.3056161987304686,4.3430818115234375,-3.9647979492187497,0.9083969465648855,-30.3206106870229,-16.954198473282442
6293442493170,3.041248124,3,2.1607669982910154,4.235342736816406,-4.155136981201172,-10.213740458015268,-35.05343511450382,-13.404580152671755
6293449145045,3.047899999,3,2.184709014892578,4.174290594482422,-4.671087438964843,-17.68702290076336,-51.32824427480916,-16.83969465648855
6293455824733,3.054579687,3,1.8375497741699218,4.280832568359375,-4.8686090759277345,-25.396946564885496,-59.62595419847328,-17.85496183206107
6293462490358,3.061245312,3,1.6208745239257811,4.319139794921875,-4.957194537353515,-26.18320610687023,-52.152671755725194,-20.213740458015266
6293469152441,3.067907395,3,1.5777788940429687,4.467580297851562,-5.298368273925781,-23.30534351145038,-64.25190839694656,-27.206106870229007
6293475827806,3.07458276,3,1.964442462158203,4.556165759277343,-5.741295581054687,-18.671755725190838,-67.10687022900764,-31.908396946564885
6293482481972,3.081236926,3,1.2282254516601563,4.8123453369140625,-5.720944866943359,-20.82442748091603,-66.50381679389314,-38.93893129770992
6293489153222,3.087908176,3,0.74699091796875,4.87100327758789,-5.907692596435546,-19.66412213740458,-67.19083969465649,-41.0
6293495820045,3.094574999,3,1.1540052001953125,5.166687182617188,-6.284779357910156,0.9389312977099237,-77.64885496183206,-60.93893129770992
6293502492076,3.10124703,3,1.1575965026855468,5.821501336669922,-6.704961749267578,21.053435114503817,-79.26717557251908,-73.29770992366412
6293509166347,3.107921301,3,1.1575965026855468,6.5972226745605465,-7.236474517822265,14.49618320610687,-103.57251908396947,-76.70992366412214
6293515820045,3.114574999,3,0.19153613281249998,6.5972226745605465,-7.4794859863281244,-7.351145038167939,-109.6412213740458,-70.10687022900764
6293522481764,3.121236718,3,-0.6655880615234374,7.001842755126953,-7.4794859863281244,-23.442748091603054,-101.6030534351145,-66.83206106870229
6293529146608,3.127901562,3,-0.354341845703125,7.297526660156249,-7.963114721679687,-23.442748091603054,-109.86259541984732,-64.90839694656489
6293535824837,3.134579791,3,-0.41419688720703124,7.685387329101562,-8.494627490234375,-32.35114503816794,-109.86259541984732,-49.05343511450382
6293542482910,3.141237864,3,-1.209071838378906,7.8338278320312495,-9.016563452148437,-37.954198473282446,-124.17557251908397,-49.05343511450382
6293549142910,3.147897864,3,-1.4616601135253906,8.228871105957031,-9.639055883789062,-38.66412213740458,-124.0381679389313,-46.49618320610687
6293555822910,3.154577864,3,-1.571793389892578,8.30668265991211,-10.225635290527343,-48.74809160305343,-120.80152671755725,-38.595419847328245
6293562443483,3.161198437,3,-1.7190367919921874,8.312668164062499,-10.635043774414061,-56.87786259541985,-103.80916030534351,-25.595419847328245
6293569157962,3.167912916,3,-1.9488801513671874,8.244433416748047,-10.782287176513671,-53.48091603053435,-85.87786259541984,-13.19083969465649
6293575824160,3.174579114,3,-1.8076222534179687,8.057685687255859,-11.05762036743164,-41.87022900763359,-71.34351145038168,-0.015267175572519083
6293582478587,3.181233541,3,-1.715445489501953,7.556100439453124,-10.952275494384764,-25.27480916030534,-41.88549618320611,10.786259541984732
6293589157701,3.187912655,3,-1.3563152404785155,7.0461354858398435,-10.662577093505858,-3.2900763358778624,-12.045801526717558,17.328244274809162
6293595829316,3.19458427,3,-1.361103643798828,6.369773516845703,-10.284293231201172,17.580152671755727,6.8320610687022905,24.480916030534353
6293602503222,3.201258176,3,-1.2892775939941405,5.719747766113281,-9.70369932861328,35.396946564885496,28.15267175572519,24.0381679389313
6293609167441,3.207922395,3,-1.0486603271484374,5.1702784851074215,-9.01536635131836,50.6793893129771,53.267175572519086,13.946564885496183
6293615838014,3.214592968,3,-0.8128314636230468,4.94761773071289,-8.258798626708984,60.969465648854964,68.0,-1.4885496183206106
6293622538743,3.221293697,3,-0.5003881469726562,4.90931050415039,-7.5525091369628905,67.38931297709924,78.04580152671755,-21.68702290076336
6293629181660,3.227936614,3,-0.2741360900878906,5.176263989257812,-6.801926916503906,68.87786259541984,84.18320610687023,-41.847328244274806
6293635843691,3.234598645,3,-0.07302315063476562,5.671863732910156,-6.302735870361328,64.20610687022901,78.93129770992367,-59.099236641221374
6293642498691,3.241253645,3,-0.1927332336425781,6.411672045898437,-5.776011505126953,53.43511450381679,67.8854961832061,-74.32824427480917
6293649159680,3.247914634,3,-0.1927332336425781,7.151480358886718,-5.540182641601562,40.36641221374046,58.6793893129771,-83.08396946564885
6293655826139,3.254581093,3,-0.2609679809570312,7.151480358886718,-5.6012347839355465,24.53435114503817,38.2442748091603,-82.48091603053435
6293662508222,3.261263176,3,-0.18315642700195311,7.824251025390624,-5.6012347839355465,16.061068702290076,24.17557251908397,-79.31297709923665
6293669181555,3.267936509,3,-0.2861070983886719,8.488641986083984,-5.623979699707031,16.061068702290076,6.32824427480916,-78.31297709923665
6293675834316,3.27458927,3,0.06105214233398437,9.470264666748045,-5.992686755371094,12.603053435114504,6.32824427480916,-79.41984732824427
6293682497180,3.281252134,3,-0.45968671875,9.97903251953125,-6.264428643798828,-2.450381679389313,-8.725190839694656,-59.87786259541985
6293689149524,3.287904478,3,-0.44891281127929683,10.662577093505858,-6.649895111083984,-24.33587786259542,-21.900763358778626,-46.94656488549618
6293695819524,3.294574478,3,-0.22026655273437498,10.959458099365234,-6.806715319824218,-39.87786259541985,-18.671755725190838,-25.267175572519083
6293702495670,3.301250624,3,-0.14006079711914063,10.98699141845703,-6.922834100341796,-44.732824427480914,-25.213740458015266,2.618320610687023
6293709167024,3.307921978,3,-0.13407529296874998,10.9175595703125,-6.9707181335449215,-38.38931297709924,-27.709923664122137,30.6793893129771
6293715912441,3.314667395,3,-0.30526071166992186,10.390835205078124,-6.72890376586914,-25.946564885496183,-29.221374045801525,60.32824427480916
6293722514107,3.321269061,3,-0.3794809631347656,9.497797985839844,-6.913257293701172,-19.3206106870229,-41.06870229007634,89.94656488549619
6293729155410,3.327910364,3,-0.6667851623535156,8.543708624267577,-6.823474731445312,-19.259541984732824,-45.16030534351145,112.16793893129771
6293735825462,3.334580416,3,-0.9660603698730468,7.501033801269531,-6.871358764648437,-23.244274809160306,-52.87786259541985,125.0
6293742483014,3.341237968,3,-1.2401964599609374,6.660669018554687,-6.845022546386718,-26.900763358778626,-58.57251908396947,128.6030534351145
6293749156451,3.347911405,3,-1.22583125,6.080075115966797,-6.995857250976562,-30.786259541984734,-60.85496183206107,122.83206106870229
6293755818170,3.354573124,3,-1.1085153686523437,5.68862314453125,-7.305906365966797,-40.038167938931295,-65.7557251908397,115.36641221374046
6293762499003,3.361253957,3,-1.2868833923339842,5.499481213378906,-7.530961322021484,-51.74809160305343,-69.82442748091603,106.25954198473282
6293769155410,3.367910364,3,-1.1851298217773436,5.469553692626953,-7.9272016967773435,-59.3587786259542,-68.70992366412214,93.6793893129771
6293775832232,3.374587186,3,-1.071405242919922,5.653907220458984,-8.196549383544921,-60.83969465648855,-64.48091603053435,80.83206106870229
6293782482076,3.38123703,3,-0.9217676391601562,5.744886883544922,-8.541314422607421,-54.458015267175576,-56.3587786259542,72.38167938931298
6293789150514,3.387905468,3,-0.9217676391601562,5.851428857421874,-8.66341870727539,-42.770992366412216,-43.725190839694655,66.33587786259542
6293795833899,3.394588853,3,-0.7134720947265625,5.851428857421874,-8.741230261230468,-28.862595419847327,-30.389312977099237,66.45038167938931
6293802487076,3.40124203,3,-0.5398924743652344,5.699397052001952,-8.741230261230468,-10.633587786259541,-14.946564885496183,67.8854961832061
6293809152441,3.407907395,3,-0.6356605407714844,5.450400079345703,-8.614337573242187,-10.633587786259541,-13.82442748091603,66.27480916030534
6293815829472,3.414584426,3,-0.5363011718749999,5.203797308349609,-8.349778289794921,8.854961832061068,3.763358778625954,64.74809160305344
6293822527493,3.421282447,3,-0.29927520751953124,4.842272857666015,-7.976282830810546,25.38167938931298,23.31297709923664,62.79389312977099
6293829178535,3.427933489,3,0.229843359375,4.429273071289062,-7.659051110839843,33.43511450381679,38.99236641221374,62.81679389312977
6293835828639,3.434583593,3,0.11611878051757812,3.9145197143554684,-6.99705435180664,40.030534351145036,53.20610687022901,63.76335877862596
6293842489316,3.44124427,3,0.4752490295410156,3.5901053894042967,-6.508637213134765,51.603053435114504,61.229007633587784,56.152671755725194
6293849156972,3.447911926,3,0.7134720947265625,3.5685575744628903,-6.008249066162109,59.06106870229008,68.04580152671755,44.58015267175573
6293855826920,3.454581874,3,0.7146691955566405,3.5242648437499997,-5.355829113769531,55.52671755725191,73.6030534351145,33.458015267175576
6293862499472,3.461254426,3,1.0773907470703123,3.649960430908203,-5.13915386352539,46.412213740458014,60.88549618320611,21.778625954198475
6293869154993,3.467909947,3,1.419761584472656,3.744531396484375,-4.96677134399414,35.88549618320611,55.908396946564885,14.17557251908397
6293875819107,3.474574061,3,1.5454571716308594,3.871424084472656,-4.666299035644531,24.435114503816795,50.37404580152672,13.091603053435115
6293882496555,3.481251509,3,1.458068811035156,3.915716815185547,-4.546588952636719,16.213740458015266,35.85496183206107,13.099236641221374
6293889154993,3.487909947,3,1.543062969970703,3.9647979492187497,-4.510675927734375,7.923664122137405,20.610687022900763,13.580152671755725
6293895768118,3.494523072,3,1.5215151550292967,4.045003704833984,-4.620809204101562,-2.8091603053435112,10.114503816793894,13.221374045801527
6293902492805,3.501247759,3,1.5298948608398437,4.096479040527344,-4.710591766357422,-16.198473282442748,0.5114503816793893,14.267175572519085
6293909157285,3.507912239,3,1.5251064575195312,4.068945721435546,-5.098452435302734,-28.18320610687023,-12.083969465648854,13.351145038167939
6293915821035,3.514575989,3,1.4867992309570313,4.062960217285156,-5.394136340332031,-35.85496183206107,-20.358778625954198,12.65648854961832
6293922509524,3.521264478,3,1.4006079711914061,4.017470385742187,-5.749675286865234,-39.56488549618321,-24.50381679389313,12.274809160305344
6293929149576,3.52790453,3,1.4006079711914061,3.9528269409179684,-6.0321910827636716,-37.93129770992366,-24.84732824427481,11.145038167938932
6293935833951,3.534588905,3,1.254561669921875,3.9528269409179684,-6.187814190673827,-30.30534351145038,-20.519083969465647,7.0534351145038165
6293942484159,3.541239113,3,1.2892775939941405,3.8750153869628905,-6.187814190673827,-29.6793893129771,-14.419847328244275,2.068702290076336
6293949151555,3.547906509,3,1.0678139404296874,3.8857892944335934,-6.251260534667968,-19.908396946564885,-14.83206106870229,-3.114503816793893
6293955817128,3.554572082,3,0.9097966308593749,3.841496563720703,-6.240486627197265,-10.038167938931299,-8.969465648854962,-3.648854961832061
6293962498118,3.561253072,3,0.852335791015625,3.9133226135253905,-6.252457635498047,-2.7557251908396947,-3.6412213740458017,-11.465648854961833
6293969153743,3.567908697,3,0.8259995727539062,4.036623999023437,-6.095637426757812,1.8854961832061068,0.6641221374045801,-20.16030534351145
6293975820357,3.574575311,3,0.8008604553222656,4.2868180725097655,-5.991489654541016,4.320610687022901,1.2748091603053435,-26.19083969465649
6293982488691,3.581243645,3,0.6847416748046875,4.497507818603515,-5.916072302246094,7.770992366412214,5.244274809160306,-29.610687022900763
6293989210201,3.587965155,3,0.8307879760742187,4.668693237304687,-6.042964990234375,7.419847328244275,-1.5419847328244274,-29.908396946564885
6293996811920,3.595566874,3,0.6835445739746093,4.826710546875,-5.973533142089844,0.6564885496183206,-5.374045801526718,-27.3206106870229
6294004108534,3.602863488,3,0.6524199523925781,4.800374328613281,-6.153098266601562,-9.83969465648855,-9.206106870229007,-22.290076335877863
6294011542805,3.610297759,3,0.6667851623535156,4.703409161376952,-6.132747552490234,-16.00763358778626,-11.572519083969466,-15.473282442748092
6294018921972,3.617676926,3,1.1001356628417969,4.800374328613281,-6.530185028076171,-14.908396946564885,-18.17557251908397,-12.358778625954198
6294026249837,3.625004791,3,0.3435679382324219,4.691438153076172,-6.303932971191406,-17.778625954198475,-35.717557251908396,-7.213740458015267
6294033605409,3.632360363,3,0.33758243408203126,4.557362860107421,-6.9515645202636716,-42.847328244274806,-31.328244274809162,-9.274809160305344
6294040922076,3.63967703,3,0.19393033447265623,4.708197564697265,-7.3932947265625,-52.76335877862596,-23.259541984732824,-14.145038167938932
6294048332962,3.647087916,3,0.22505495605468748,4.753687396240234,-7.614758380126952,-56.20610687022901,-24.717557251908396,-20.244274809160306
6294055679993,3.654434947,3,0.2932897033691406,5.014655377197266,-7.8709379577636716,-49.05343511450382,-17.083969465648856,-33.3206106870229
6294062970722,3.661725676,3,0.6189011291503906,5.457582684326171,-8.00022484741211,-35.32824427480916,-0.1450381679389313,-51.76335877862596
6294070326243,3.669081197,3,0.32082302246093747,5.951985327148437,-7.771578588867187,-18.206106870229007,13.587786259541986,-62.85496183206107
6294077609889,3.676364843,3,0.5363011718749999,6.534973431396484,-7.771578588867187,1.8625954198473282,22.419847328244273,-76.48091603053435
6294084933378,3.683688332,3,0.5638344909667968,7.119158636474609,-7.548917834472656,15.022900763358779,34.11450381679389,-85.52671755725191
6294092287024,3.691041978,3,0.48722003784179685,7.594407666015624,-7.321468676757812,16.763358778625953,38.12977099236641,-84.77862595419847
6294099538639,3.698293593,3,0.70868369140625,7.930792999267577,-7.180210778808593,17.236641221374047,40.85496183206107,-84.73282442748092
6294106946972,3.705701926,3,0.5734112976074218,8.095992913818359,-6.763619689941406,20.916030534351144,49.80916030534351,-76.50381679389314
6294114290045,3.713044999,3,0.7338228088378905,8.09479581298828,-6.5038488098144525,28.549618320610687,46.30534351145038,-67.91603053435115
6294121601034,3.720355988,3,0.469263525390625,8.019378460693359,-6.391321331787109,33.343511450381676,35.83206106870229,-56.33587786259542
6294128923951,3.727678905,3,0.28969840087890625,7.886500268554687,-6.042964990234375,39.717557251908396,41.6412213740458,-52.44274809160305
6294136280566,3.73503552,3,0.6560112548828124,7.681796026611328,-5.97592734375,41.38931297709924,39.412213740458014,-47.99236641221374
6294143487909,3.742242863,3,0.7326257080078125,7.345410693359375,-5.762843395996094,35.54961832061068,33.396946564885496,-37.6412213740458
6294150756399,3.749511353,3,0.5758054992675781,6.957550024414062,-5.633556506347656,30.458015267175572,28.893129770992367,-27.51145038167939
6294158104003,3.756858957,3,0.853532891845703,6.637924102783202,-5.421669659423828,36.93893129770992,31.099236641221374,-27.34351145038168
6294165397857,3.764152811,3,0.9085995300292968,6.404489440917969,-5.140350964355468,41.88549618320611,26.83969465648855,-22.236641221374047
6294172683691,3.771438645,3,0.948103857421875,6.065709906005859,-5.014655377197266,41.14503816793893,13.236641221374045,-16.221374045801525
6294180038430,3.778793384,3,0.6272808349609375,5.76523759765625,-4.898536596679687,32.19083969465649,-13.221374045801527,-20.885496183206108
6294187316191,3.786071145,3,0.3902548706054687,5.6563014221191406,-4.814739538574218,19.702290076335878,-25.603053435114504,-30.82442748091603
6294194741555,3.793496509,3,0.0,5.947196923828125,-5.252878442382812,-3.9618320610687023,-41.54961832061068,-41.25954198473283
6294202017545,3.800772499,3,0.20350714111328125,6.438008264160156,-5.7317187744140625,-24.450381679389313,-58.221374045801525,-41.099236641221374
6294209304784,3.808059738,3,0.11252747802734374,7.2723875427246085,-6.347028601074219,-44.97709923664122,-80.25190839694656,-34.083969465648856
6294216642909,3.815397863,3,-0.2454056701660156,7.572859851074218,-6.982689141845703,-58.97709923664122,-92.58778625954199,-25.03053435114504
6294223947545,3.822702499,3,-0.6811503723144531,7.736862664794922,-7.574056951904296,-69.31297709923665,-105.77862595419847,-12.16793893129771
6294231291399,3.830046353,3,-0.9349357482910156,7.821856823730468,-8.179789971923828,-72.95419847328245,-106.08396946564885,-1.8244274809160306
6294238594368,3.837349322,3,-1.005564697265625,7.846995941162109,-8.742427362060546,-72.58015267175573,-96.16793893129771,3.9160305343511452
6294245966347,3.844721301,3,-1.3778630554199218,7.8709379577636716,-9.179369165039063,-70.30534351145039,-89.19847328244275,7.480916030534351
6294253262493,3.852017447,3,-1.9225439331054686,7.917624890136718,-9.233238702392578,-59.70229007633588,-77.09160305343511,7.770992366412214
6294260593170,3.859348124,3,-2.123656872558594,8.139088543701172,-9.560047229003906,-41.29007633587786,-66.91603053435115,-0.5648854961832062
6294267888430,3.866643384,3,-1.9512743530273435,8.392873919677735,-9.692925421142577,-22.404580152671755,-47.213740458015266,-7.251908396946565
6294275212649,3.873967603,3,-1.1156979736328125,8.494627490234375,-9.896432562255859,-7.763358778625954,-27.61832061068702,-6.603053435114504
6294282464889,3.881219843,3,-1.4700398193359374,8.689754925537109,-9.336189373779296,2.7022900763358777,-10.335877862595419,-0.04580152671755725
6294289721451,3.888476405,3,-1.8291700683593748,8.705317236328124,-9.592368951416015,-2.6717557251908395,-21.099236641221374,11.564885496183207
6294297025357,3.895780311,3,-1.3144167114257812,8.474276776123046,-9.203311181640624,-4.465648854961832,10.793893129770993,13.114503816793894
6294304319628,3.903074582,3,-0.9253589416503906,8.111555224609374,-8.840589630126953,5.435114503816794,25.9618320610687,19.977099236641223
6294311614889,3.910369843,3,-1.1264718811035155,7.785943798828124,-8.315062365722655,29.87786259541985,28.458015267175572,28.022900763358777
6294318907284,3.917662238,3,-0.5434837768554687,7.518990313720702,-7.8709379577636716,51.87022900763359,42.48091603053435,26.977099236641223
6294326217076,3.92497203,3,-0.8511386901855468,7.323862878417969,-7.299920861816406,45.85496183206107,40.786259541984734,29.65648854961832
6294333490982,3.932245936,3,-0.7266402038574218,7.113173132324218,-7.018602166748046,26.885496183206108,34.17557251908397,27.236641221374047
6294340841139,3.939596093,3,-0.5494692810058593,7.134720947265625,-6.623558892822265,12.183206106870228,36.70229007633588,12.320610687022901
6294348108586,3.94686354,3,-0.5889736083984375,7.334636785888671,-6.497863305664062,1.6641221374045803,12.458015267175572,8.84732824427481
6294355399836,3.95415479,3,-0.5913678100585937,7.669825018310546,-6.4463879699707025,-4.969465648854962,2.9618320610687023,7.183206106870229
6294362636920,3.961391874,3,-0.6560112548828124,8.060079888916015,-6.519411120605469,-16.519083969465647,-6.442748091603053,10.076335877862595
6294369976086,3.96873104,3,-0.7685387329101562,8.450334759521484,-6.816292126464844,-29.015267175572518,-8.793893129770993,18.267175572519083
6294377274576,3.97602953,3,-0.6512228515624999,8.856151940917968,-7.005434057617187,-35.038167938931295,-10.938931297709924,27.923664122137403
6294384637545,3.983392499,3,-0.5255272644042969,8.786720092773438,-7.030573175048827,-27.297709923664122,-8.83206106870229,44.6793893129771
6294391925774,3.990680728,3,-0.469263525390625,8.501810095214843,-7.217320904541015,-15.236641221374045,-13.603053435114504,62.587786259541986
6294399289003,3.998043957,3,-0.15083470458984374,7.906850982666016,-7.26520493774414,-10.488549618320612,-10.15267175572519,84.2824427480916
6294406562649,4.005317603,3,-0.28969840087890625,6.903680487060546,-6.956352923583984,-13.83206106870229,-4.6183206106870225,108.74045801526718
6294413889732,4.012644686,3,-0.15562310791015624,6.00106646118164,-6.965929730224609,-12.526717557251908,-3.7480916030534353,124.3206106870229
6294421158638,4.019913592,3,-0.3363853332519531,5.026626385498046,-6.574477758789062,-9.351145038167939,-0.03816793893129771,135.24427480916032
6294428461607,4.027216561,3,-0.3890577697753906,4.187458703613281,-6.252457635498047,-2.1908396946564888,6.984732824427481,134.73282442748092
6294435818066,4.03457302,3,0.09337386474609374,3.737348791503906,-5.90529839477539,7.9465648854961835,19.49618320610687,124.98473282442748
6294443193013,4.041947967,3,0.41060558471679687,3.142389678955078,-5.882553479003906,-0.6870229007633588,11.32824427480916,125.8854961832061
6294450537024,4.049291978,3,0.2753331909179687,2.540247961425781,-5.6383449096679685,-19.83969465648855,2.450381679389313,128.00763358778627
6294457839003,4.056593957,3,0.5614402893066406,2.0877438476562498,-5.491101507568359,-28.114503816793892,11.755725190839694,117.07633587786259
6294465224316,4.06397927,3,0.949300958251953,1.7764976318359373,-5.483918902587891,-28.931297709923665,7.3893129770992365,103.3206106870229
6294472548482,4.071303436,3,1.0091559997558592,1.4903905334472656,-5.623979699707031,-25.366412213740457,3.6030534351145036,93.90076335877863
6294479848378,4.078603332,3,1.3814543579101561,1.2892775939941405,-5.5844753723144525,-18.480916030534353,10.198473282442748,77.34351145038168
6294487135774,4.085890728,3,1.4520833068847656,1.218648645019531,-5.606023187255859,-13.977099236641221,11.877862595419847,60.587786259541986
6294494513118,4.093268072,3,1.467645617675781,1.1863269226074218,-5.456385583496093,-5.801526717557252,20.72519083969466,41.64885496183206
6294501819680,4.100574634,3,1.6316484313964843,1.150413897705078,-5.34984360961914,4.740458015267175,27.061068702290076,8.099236641221374
6294509108951,4.107863905,3,1.5095441467285156,1.3096283081054687,-5.161898779296875,14.49618320610687,39.57251908396947,-13.923664122137405
6294516465357,4.115220311,3,1.5107412475585937,1.5873557006835937,-5.027823486328125,26.19083969465649,49.45038167938932,-35.770992366412216
6294523884784,4.122639738,3,1.7908628417968748,2.024297503662109,-4.566939666748047,27.198473282442748,47.274809160305345,-50.57251908396947
6294531293951,4.130048905,3,1.9285294372558592,3.0933085449218747,-4.511873028564453,25.931297709923665,33.29007633587786,-63.02290076335878
6294538562232,4.137317186,3,1.6256629272460936,3.697844464111328,-4.593275885009765,22.549618320610687,28.328244274809162,-70.80152671755725
6294545863691,4.144618645,3,2.0542250244140625,4.0988732421875,-4.631583111572265,16.221374045801525,30.213740458015266,-76.1526717557252
6294553148482,4.151903436,3,1.6771382629394531,4.520252734375,-4.778826513671874,6.374045801526718,15.267175572519085,-73.6412213740458
6294560481659,4.159236613,3,1.5478513732910155,4.938040924072265,-4.777629412841796,7.038167938931298,13.16030534351145,-75.83969465648855
6294567780201,4.166535155,3,1.495178936767578,5.340266802978515,-5.033808990478516,10.587786259541986,8.65648854961832,-78.49618320610686
6294575126920,4.173881874,3,1.456871710205078,5.7077767578125,-5.214571215820312,7.748091603053435,-1.2671755725190839,-77.70229007633588
6294582452805,4.181207759,3,1.429338391113281,6.0537388977050774,-5.404910247802734,0.7251908396946565,-2.854961832061069,-75.03053435114504
6294589696607,4.188451561,3,1.2593500732421874,6.321889483642578,-5.453991381835937,-10.15267175572519,-9.465648854961833,-68.14503816793894
6294597079784,4.195834738,3,1.0905588562011719,6.438008264160156,-5.629965203857422,-16.946564885496183,-15.740458015267176,-61.20610687022901
6294604441086,4.20319604,3,0.8295908752441405,6.6510922119140625,-5.741295581054687,-18.137404580152673,-20.35114503816794,-58.37404580152672
6294611653118,4.210408072,3,1.121683477783203,6.809109521484374,-6.040570788574218,-18.49618320610687,-21.770992366412212,-54.01526717557252
6294618911659,4.217666613,3,1.1372457885742187,6.874950067138672,-6.285976458740234,-22.396946564885496,-24.366412213740457,-48.64885496183206
6294626200461,4.224955415,3,0.9445125549316405,6.770802294921874,-6.34583150024414,-25.709923664122137,-26.259541984732824,-40.908396946564885
6294633528638,4.232283592,3,0.8930372192382812,6.789955908203124,-6.337451794433593,-22.38167938931298,-21.114503816793892,-37.458015267175576
6294640875409,4.239630363,3,0.9169792358398436,6.584054565429687,-6.4739212890625,-18.061068702290076,-22.946564885496183,-36.17557251908397
6294648213795,4.246968749,3,0.2705447875976562,6.673837127685546,-6.223727215576171,-14.893129770992367,-25.595419847328245,-38.404580152671755
6294655466555,4.254221509,3,0.21906945190429686,6.775590698242187,-6.584054565429687,-15.83206106870229,-30.48854961832061,-39.52671755725191
6294662769576,4.26152453,3,-0.013168109130859374,6.851008050537109,-6.702567547607422,-28.290076335877863,-35.412213740458014,-34.0
6294670064368,4.268819322,3,-0.1771709228515625,6.828263134765624,-6.888118176269531,-44.82442748091603,-38.9236641221374,-36.44274809160305
6294677392336,4.27614729,3,-0.3758896606445312,6.950367419433594,-7.1586629638671875,-53.465648854961835,-43.152671755725194,-32.717557251908396
6294684720722,4.283475676,3,-1.054645831298828,7.053318090820312,-7.068880401611327,-49.50381679389313,-39.00763358778626,-31.114503816793892
6294692076243,4.290831197,3,-0.8475473876953125,7.1778165771484375,-7.936778503417968,-50.74045801526717,-34.32824427480916,-29.931297709923665
6294699389628,4.298144582,3,-0.5494692810058593,7.28435855102539,-8.238447912597655,-60.778625954198475,-26.908396946564885,-23.19083969465649
6294706692180,4.305447134,3,-0.7793126403808593,7.198167291259765,-8.354566693115235,-62.587786259541986,-17.68702290076336,-19.16030534351145
6294714001190,4.312756144,3,-0.4908113403320312,7.261613635253906,-8.367734802246094,-43.6412213740458,0.4351145038167939,-18.64885496183206
6294721342180,4.320097134,3,-0.2549824768066406,7.219715106201171,-8.389282617187499,-20.954198473282442,14.0,-18.198473282442748
6294728677076,4.32743203,3,-0.25139117431640623,7.01620796508789,-8.367734802246094,-4.534351145038168,30.50381679389313,-18.366412213740457
6294735973638,4.334728592,3,0.1352723937988281,6.630741497802734,-7.7763669921875,15.82442748091603,58.465648854961835,-19.106870229007633
6294743250618,4.342005572,3,0.9325415466308593,5.984307049560546,-7.578845355224609,40.19083969465649,71.77099236641222,-21.389312977099237
6294750513951,4.349268905,3,0.967257470703125,5.380968231201171,-7.316680273437499,60.908396946564885,74.30534351145039,-26.82442748091603
6294757820305,4.356575259,3,-0.0383072265625,4.8135424377441405,-6.526593725585937,78.74809160305344,85.47328244274809,-33.48854961832061
6294765146815,4.363901769,3,0.49320554199218747,4.708197564697265,-6.245275030517578,105.6030534351145,95.3206106870229,-64.66412213740458
6294772465045,4.371219999,3,0.6248866333007812,4.967968444824218,-5.7125651611328125,122.19847328244275,99.27480916030534,-97.6412213740458
6294779768326,4.37852328,3,-0.11372457885742186,5.5270145324707025,-5.342661004638671,109.89312977099236,75.37404580152672,-113.41984732824427
6294787153430,4.385908384,3,-0.17477672119140625,6.36498511352539,-5.421669659423828,86.10687022900764,49.86259541984733,-131.58778625954199
6294794460513,4.393215467,3,-0.6069301208496093,7.392097625732421,-5.505466717529297,52.86259541984733,36.87022900763359,-137.64885496183206
6294801701607,4.400456561,3,-0.4034229797363281,8.52335791015625,-6.029796881103516,16.03053435114504,4.702290076335878,-137.06870229007635
6294808933742,4.407688696,3,-1.0965443603515623,9.534908111572266,-6.40329234008789,-20.603053435114504,-24.091603053435115,-120.56488549618321
6294816261815,4.415016769,3,-1.9788076721191405,10.455478649902343,-6.566098052978515,-43.25954198473283,-34.79389312977099,-105.66412213740458
6294823558117,4.422313071,3,-1.0007762939453124,11.165359442138671,-7.138312249755859,-47.82442748091603,-38.3587786259542,-91.50381679389314
6294830887024,4.429641978,3,-1.0390835205078124,11.546037506103515,-7.606378674316406,-54.50381679389313,-57.83969465648855,-9.564885496183207
6294838177753,4.436932707,3,-1.5574281799316405,11.426327423095703,-8.180987072753906,-59.97709923664122,-65.07633587786259,24.793893129770993
6294845438795,4.444193749,3,-1.274912384033203,10.900800158691405,-8.650250598144531,-52.11450381679389,-72.22137404580153,54.87022900763359
6294852818378,4.451573332,3,-1.5358803649902344,10.171765753173828,-9.172186560058593,-39.61832061068702,-64.85496183206106,80.85496183206106
6294860110565,4.458865519,3,-1.5658078857421873,9.282319836425781,-9.275137231445312,-30.290076335877863,-40.3587786259542,97.68702290076335
6294867408795,4.466163749,3,-1.9656395629882812,7.1586629638671875,-9.459490759277344,-24.748091603053435,-36.66412213740458,97.98473282442748
6294874700774,4.473455728,3,-1.7681179260253905,6.4272343566894525,-9.197325677490234,-12.885496183206106,-13.404580152671755,90.12977099236642
6294881985253,4.480740207,3,-1.3096283081054687,5.883750579833984,-8.919598284912109,0.7404580152671756,3.816793893129771,75.83969465648855
6294889327961,4.488082915,3,-1.2150573425292968,5.586869573974609,-8.652644799804687,10.916030534351146,14.679389312977099,57.038167938931295
6294896751920,4.495506874,3,-1.2928688964843749,5.537788439941406,-8.298302954101562,17.396946564885496,26.38167938931298,35.656488549618324
6294904044107,4.502799061,3,-1.284489190673828,5.8083332275390624,-7.945158209228516,23.259541984732824,35.770992366412216,10.51908396946565
6294911366451,4.510121405,3,-0.8858546142578124,6.396109735107421,-7.7799582946777335,27.68702290076336,45.732824427480914,-12.694656488549619
6294918729420,4.517484374,3,-0.5315127685546874,7.024587670898437,-7.3932947265625,28.114503816793892,52.68702290076336,-26.053435114503817
6294926034992,4.524789946,3,-0.5506663818359374,7.601590270996093,-7.030573175048827,30.435114503816795,54.847328244274806,-29.916030534351144
6294933410930,4.532165884,3,-0.28371289672851563,8.086416107177733,-6.643909606933593,36.10687022900763,54.954198473282446,-24.244274809160306
6294940744992,4.539499946,3,-0.051475335693359374,8.346186987304687,-6.270414147949219,33.900763358778626,55.2442748091603,-13.580152671755725
6294948122857,4.546877811,3,0.031124621582031248,8.470685473632813,-6.038176586914062,24.938931297709924,47.0,0.5267175572519084
6294955444576,4.55419953,3,0.2454056701660156,8.481459381103516,-6.0896519226074215,16.68702290076336,30.480916030534353,14.099236641221374
6294962693378,4.561448332,3,0.35673604736328124,8.350975390624999,-6.044162091064453,2.2900763358778624,16.625954198473284,33.76335877862596
6294969984732,4.568739686,3,0.5638344909667968,7.9475524108886715,-6.083666418457031,-16.137404580152673,6.0534351145038165,55.534351145038165
6294977276763,4.576031717,3,0.679953271484375,7.295132458496093,-6.3147068786621094,-31.549618320610687,-2.2290076335877864,76.37404580152672
6294984572232,4.583327186,3,0.6631938598632812,6.5218053222656245,-6.291961962890625,-36.603053435114504,-7.221374045801527,93.55725190839695
6294991857440,4.590612394,3,0.5805939025878906,5.746083984375,-6.549338641357421,-33.52671755725191,-11.312977099236642,110.74809160305344
6294999297180,4.598052134,3,0.5374982727050781,5.090072729492187,-6.527790826416015,-28.885496183206108,1.9923664122137406,111.63358778625954
6295006594107,4.605349061,3,0.6404489440917969,4.574122271728515,-6.497863305664062,-19.763358778625953,16.389312977099237,111.99236641221374
6295013966763,4.612721717,3,0.27892449340820313,3.9755718566894527,-5.741295581054687,-2.7480916030534353,37.33587786259542,98.8854961832061
6295021256503,4.620011457,3,1.0869675537109373,3.6463691284179687,-5.276820458984375,14.198473282442748,47.83206106870229,104.70992366412214
6295028589680,4.627344634,3,1.227028350830078,2.4576480041503905,-5.0769046203613275,22.625954198473284,32.770992366412216,110.09160305343511
6295035845409,4.634600363,3,1.2976572998046874,1.8519149841308593,-4.686649749755859,29.213740458015266,40.458015267175576,107.3206106870229
6295043172701,4.641927655,3,1.3623007446289062,1.4113818786621093,-4.410119458007812,29.450381679389313,46.54961832061068,96.64885496183206
6295050534472,4.649289426,3,1.581370196533203,0.9911994873046874,-4.218583325195312,22.053435114503817,39.76335877862596,86.79389312977099
6295057824888,4.656579842,3,1.7681179260253905,0.7026981872558593,-4.129997863769531,12.877862595419847,29.671755725190838,69.61068702290076
6295065131190,4.663886144,3,1.70467158203125,0.6021417175292968,-4.076128326416016,4.8320610687022905,26.923664122137403,48.05343511450382
6295072367180,4.671122134,3,1.5729904907226562,0.7433996154785156,-4.241328240966797,-4.206106870229007,11.50381679389313,25.48854961832061
6295079658065,4.678413019,3,1.8315642700195311,0.9804255798339843,-4.417302062988281,-7.786259541984733,11.938931297709924,-0.6259541984732825
6295086943690,4.685698644,3,2.0159177978515626,1.39821376953125,-4.448426684570312,-8.274809160305344,12.923664122137405,-27.15267175572519
6295094328065,4.693083019,3,1.9752163696289062,2.1068974609374997,-4.471171600341797,-6.824427480916031,11.099236641221374,-47.541984732824424
6295101611867,4.700366821,3,2.261323468017578,2.710236279296875,-4.600458489990234,-3.0916030534351147,12.267175572519085,-61.44274809160305
6295108941711,4.707696665,3,2.2541408630371094,3.23696064453125,-4.697423657226563,-1.3893129770992367,5.450381679389313,-68.32824427480917
6295116270461,4.715025415,3,2.184709014892578,3.7050270690917966,-4.879382983398437,-0.4961832061068702,-0.6946564885496184,-68.86259541984732
6295123570253,4.722325207,3,1.8902222106933593,4.08570513305664,-5.142745166015625,-2.2061068702290076,-9.488549618320612,-70.59541984732824
6295130859419,4.729614373,3,1.924938134765625,4.340687609863281,-5.142745166015625,-5.893129770992366,-7.824427480916031,-68.38167938931298
6295138093222,4.736848176,3,1.7585411193847655,4.629188909912109,-5.298368273925781,-7.1679389312977095,-9.053435114503817,-71.65648854961832
6295145430461,4.744185415,3,1.5382745666503905,4.942829327392578,-5.540182641601562,-8.290076335877863,-18.229007633587788,-72.47328244274809
6295152761867,4.751516821,3,1.1791443176269532,5.340266802978515,-5.6563014221191406,-6.366412213740458,-20.229007633587788,-78.7175572519084
6295160058065,4.758813019,3,0.9600748657226562,5.832275244140624,-5.664681127929687,-1.3435114503816794,-14.427480916030534,-89.37404580152672
6295167307076,4.76606203,3,1.1839327209472656,6.300341668701171,-6.004657763671875,2.312977099236641,-15.610687022900763,-87.63358778625954
6295174621451,4.773376405,3,0.9301473449707031,6.712144354248046,-6.040570788574218,-1.816793893129771,-20.366412213740457,-77.98473282442748
6295181980565,4.780735519,3,0.9828197814941406,6.92043989868164,-6.306327172851562,-3.9160305343511452,-22.206106870229007,-65.87786259541984
6295189278794,4.788033748,3,0.4010287780761719,6.92043989868164,-6.4667386840820305,3.0839694656488548,-15.854961832061068,-61.68702290076336
6295196633899,4.795388853,3,0.8750807067871094,6.9539587219238275,-6.426037255859375,6.412213740458015,-13.50381679389313,-47.79389312977099
6295203948586,4.80270354,3,0.6153098266601562,6.5972226745605465,-6.256048937988281,10.664122137404581,-10.0,-32.30534351145038
6295211278326,4.81003328,3,0.9696516723632812,6.121973645019531,-6.233304022216797,19.52671755725191,-8.488549618320612,-22.923664122137403
6295218583690,4.817338644,3,0.565031591796875,5.693411547851563,-6.260837341308593,19.328244274809162,-17.740458015267176,-14.816793893129772
6295225856242,4.824611196,3,0.3184288208007812,5.230133526611328,-6.081272216796875,16.229007633587788,-20.022900763358777,-13.091603053435115
6295233223378,4.831978332,3,0.28012159423828126,5.048174200439453,-6.210559106445312,9.82442748091603,-28.17557251908397,-21.977099236641223
6295240543794,4.839298748,3,0.010773907470703125,5.201403106689453,-6.411672045898437,-3.687022900763359,-42.31297709923664,-37.54961832061068
6295247811555,4.846566509,3,-0.17597382202148437,5.706579656982422,-6.743268975830078,-19.587786259541986,-52.99236641221374,-58.6793893129771
6295255148013,4.853902967,3,-0.5111620544433594,6.508637213134765,-7.032967376708984,-34.87022900763359,-63.50381679389313,-78.44274809160305
6295262532232,4.861287186,3,-0.8104372619628906,7.4411787597656245,-7.465120776367187,-44.412213740458014,-69.98473282442748,-95.26717557251908
6295269845096,4.86860005,3,-0.6631938598632812,8.225279803466796,-7.958326318359375,-48.213740458015266,-74.8854961832061,-104.20610687022901
6295277159628,4.875914582,3,-0.5039794494628906,8.935160595703124,-8.352172491455077,-42.465648854961835,-70.19847328244275,-109.19847328244275
6295284484211,4.883239165,3,-0.6153098266601562,9.483432775878907,-8.49821879272461,-28.412213740458014,-57.717557251908396,-104.77862595419847
6295291829263,4.890584217,3,-0.6739677673339843,9.952696301269532,-8.524555010986328,-11.50381679389313,-51.88549618320611,-93.3969465648855
6295299189576,4.89794453,3,-0.9337386474609375,10.188525164794921,-8.402450726318358,3.4427480916030535,-42.732824427480914,-74.87786259541984
6295306524628,4.905279582,3,-1.0486603271484374,10.144232434082031,-8.468291271972657,11.82442748091603,-35.25190839694657,-51.656488549618324
6295313887544,4.912642498,3,-1.1109095703125,9.718064538574218,-8.291120349121094,13.335877862595419,-29.03053435114504,3.0
6295321228274,4.919983228,3,-1.0295067138671874,8.933963494873046,-8.210914593505859,14.534351145038167,-14.67175572519084,28.290076335877863
6295328554263,4.927309217,3,-0.9540893615722655,7.899668377685546,-7.807491613769531,21.47328244274809,-9.938931297709924,46.85496183206107
6295335875149,4.934630103,3,-0.9624690673828125,6.791153009033203,-7.660248211669922,34.267175572519086,-4.99236641221374,51.725190839694655
6295343187909,4.941942863,3,-1.112106671142578,6.066907006835937,-6.879738470458984,31.19083969465649,-0.9541984732824428,53.54961832061068
6295350477284,4.949232238,3,-1.3096283081054687,4.405331054687499,-6.894103680419922,24.893129770992367,-5.091603053435114,54.29770992366412
6295357714471,4.956469425,3,-1.0570400329589844,4.110844250488281,-6.609193682861328,19.9618320610687,-6.702290076335878,38.9236641221374
6295365122596,4.96387755,3,-1.2569558715820313,3.9624037475585934,-6.523002423095702,13.694656488549619,-9.076335877862595,20.557251908396946
6295372483534,4.971238488,3,-0.51714755859375,4.112041351318359,-6.736086370849609,9.145038167938932,-11.709923664122137,-3.183206106870229
6295379791607,4.978546561,3,-0.6248866333007812,4.689043951416015,-6.406883642578125,6.748091603053435,-7.305343511450381,-29.72519083969466
6295387029992,4.985784946,3,-0.9133879333496093,5.49708701171875,-6.398503936767578,7.748091603053435,-15.007633587786259,-49.458015267175576
6295394439888,4.993194842,3,-0.9624690673828125,5.989095452880859,-6.751648681640624,8.80916030534351,-29.763358778625953,-53.74809160305343
6295401781919,5.000536873,3,-0.8690952026367187,6.742071875,-6.904877587890625,7.259541984732825,-32.916030534351144,-63.42748091603053
6295409107440,5.007862394,3,-1.429338391113281,7.432799053955078,-6.87614716796875,0.26717557251908397,-31.709923664122137,-63.51908396946565
6295417111711,5.015866665,3,-1.5682020874023437,7.989450939941406,-7.24605132446289,-9.442748091603054,-46.0763358778626,-55.20610687022901
6295424508221,5.023263175,3,-2.024297503662109,8.367734802246094,-7.448361364746093,-15.198473282442748,-47.87022900763359,-37.9236641221374
6295431865305,5.030620259,3,-2.4576480041503905,8.55448253173828,-7.771578588867187,-16.374045801526716,-55.19083969465649,-25.297709923664122
6295439196919,5.037951873,3,-2.674323254394531,8.819041815185546,-8.060079888916015,-8.358778625954198,-50.79389312977099,-21.0381679389313
6295446478169,5.045233123,3,-2.088940948486328,8.913612780761719,-8.378508709716796,4.740458015267175,-35.900763358778626,-14.412213740458014
6295453788898,5.052543852,3,-1.0809820495605469,8.827421520996094,-8.708908538818358,17.862595419847327,-26.49618320610687,-8.86259541984733
6295461111398,5.059866352,3,-1.3096283081054687,8.902838873291016,-8.645462194824217,28.35114503816794,-18.458015267175572,23.68702290076336
6295468458326,5.06721328,3,-1.5275006591796874,8.47786807861328,-8.8872765625,25.633587786259543,-12.854961832061068,39.0
6295475751555,5.074506509,3,-1.6508020446777343,7.915230688476562,-8.967482318115234,20.267175572519083,-5.458015267175573,49.31297709923664
6295483103378,5.081858332,3,-2.002749688720703,7.114370233154297,-8.840589630126953,37.41984732824427,7.0534351145038165,44.00763358778626
6295490456763,5.089211717,3,-2.1021090576171875,6.414066247558593,-8.598775262451172,63.42748091603053,28.412213740458014,25.366412213740457
6295497815930,5.096570884,3,-1.5981296081542968,6.40329234008789,-8.536526019287109,74.32824427480917,32.534351145038165,17.33587786259542
6295505160096,5.10391505,3,-1.6053122131347655,6.387730029296875,-8.213308795166014,63.16030534351145,28.519083969465647,23.442748091603054
6295512461711,5.111216665,3,-1.24498486328125,6.362590911865234,-8.143876947021484,43.29007633587786,30.34351145038168,24.870229007633586
6295519759784,5.118514738,3,-1.1695675109863282,6.276399652099609,-8.020575561523437,18.106870229007633,24.801526717557252,31.87786259541985
6295527103013,5.125857967,3,-1.6651672546386718,6.233304022216797,-7.826645227050781,-1.3053435114503817,12.908396946564885,40.717557251908396
6295534454628,5.133209582,3,-1.4341267944335936,6.380547424316406,-7.832630731201172,-4.3893129770992365,13.610687022900763,37.221374045801525
6295541725565,5.140480519,3,-1.0283096130371092,6.487089398193359,-8.009801654052733,-10.442748091603054,3.9770992366412212,40.74045801526717
6295549021555,5.147776509,3,-0.70868369140625,6.546944439697265,-8.254010223388672,-23.572519083969464,0.7557251908396947,48.99236641221374
6295556351190,5.155106144,3,-1.5490484741210937,6.275202551269531,-7.997830645751953,-37.94656488549618,0.8244274809160306,66.38931297709924
6295563625357,5.162380311,3,-1.35990654296875,5.9579708312988275,-7.896077075195312,-35.69465648854962,6.9541984732824424,72.63358778625954
6295570946503,5.169701457,3,-1.8375497741699218,6.03937368774414,-8.055291485595703,-22.053435114503817,17.51145038167939,69.59541984732824
6295578324784,5.177079738,3,-0.6356605407714844,6.281188055419921,-8.872911352539061,-26.786259541984734,11.763358778625955,66.65648854961832
6295585642284,5.184397238,3,0.3220201232910156,5.747281085205078,-8.054094384765625,-40.83969465648855,71.29007633587786,78.89312977099236
6295592965044,5.191719998,3,-0.04548983154296875,4.859032269287109,-6.883329772949218,-20.015267175572518,84.2824427480916,97.26717557251908
6295600306659,5.199061613,3,-0.003591302490234375,4.054580511474609,-6.309918475341797,45.465648854961835,78.03053435114504,106.5114503816794
6295607668482,5.206423436,3,-0.03232172241210937,3.5290532470703124,-6.030993981933594,94.25190839694656,79.42748091603053,102.83969465648855
6295614946971,5.213701925,3,0.0718260498046875,3.0502129150390624,-5.756857891845703,83.99236641221374,80.06106870229007,101.22900763358778
6295622247023,5.221001977,3,0.9660603698730468,2.4444798950195312,-5.637147808837891,31.519083969465647,81.41984732824427,99.08396946564885
6295629563534,5.228318488,3,1.4065934753417968,1.1659762084960936,-4.53940634765625,-11.305343511450381,83.36641221374046,82.66412213740458
6295636872544,5.235627498,3,1.2306196533203124,0.5925649108886718,-3.9803602600097654,60.541984732824424,26.229007633587788,67.31297709923665
6295644141815,5.242896769,3,0.7278373046875,0.44532150878906246,-5.019443780517578,71.70229007633588,5.076335877862595,35.76335877862596
6295651485878,5.250240832,3,0.6607996582031249,1.1097124694824219,-5.409698651123047,23.27480916030534,7.679389312977099,9.16030534351145
6295658765253,5.257520207,3,0.8738836059570312,1.5095441467285156,-5.623979699707031,-44.954198473282446,3.801526717557252,-8.274809160305344
6295666170044,5.264924998,3,0.834379278564453,2.136824981689453,-6.013037469482422,-77.45038167938931,-1.83206106870229,-27.259541984732824
6295673495982,5.272250936,3,1.0558429321289062,2.922123126220703,-6.385335827636719,-67.56488549618321,-2.969465648854962,-43.045801526717554
6295680833430,5.279588384,3,1.0175357055664063,3.687070556640625,-6.635529901123046,-37.66412213740458,0.8854961832061069,-46.57251908396947
6295688125617,5.286880571,3,0.9624690673828125,4.2521021484374995,-6.890512377929687,-12.183206106870228,3.480916030534351,-39.70992366412214
6295695411242,5.294166196,3,1.3467384338378905,4.2497079467773435,-7.110778930664062,-1.2290076335877862,13.793893129770993,-30.091603053435115
6295702738117,5.301493071,3,1.455674609375,4.060566015625,-6.8402341430664055,4.801526717557252,36.31297709923664,-18.435114503816795
6295710028065,5.308783019,3,1.5502455749511719,3.5422213562011717,-6.436811163330078,19.137404580152673,47.44274809160305,-7.244274809160306
6295717410148,5.316165102,3,1.485602130126953,2.8562825805664063,-5.9208607055664055,47.42748091603053,60.94656488549618,-3.49618320610687
6295724782544,5.323537498,3,1.637633935546875,2.3546973327636715,-5.579686968994141,74.31297709923665,68.0,-9.007633587786259
6295732104628,5.330859582,3,2.589329095458984,1.993172882080078,-5.371391424560547,86.25954198473282,70.73282442748092,-18.96946564885496
6295739453273,5.338208227,3,1.5310919616699217,2.060210528564453,-4.623203405761719,77.90839694656489,72.65648854961832,-39.87786259541985
6295746798065,5.345553019,3,1.189918225097656,1.707065783691406,-4.282029669189453,58.732824427480914,56.80152671755725,-36.89312977099237
6295754180669,5.352935623,3,1.5969325073242187,1.9859902770996092,-4.112041351318359,51.86259541984733,49.961832061068705,-65.2824427480916
6295761488065,5.360243019,3,1.638831036376953,2.518700146484375,-4.173093493652344,41.01526717557252,40.06106870229008,-86.64885496183206
6295768766138,5.367521092,3,1.4987702392578124,3.2321722412109373,-4.448426684570312,21.786259541984734,6.9465648854961835,-99.97709923664122
6295776089003,5.374843957,3,1.0390835205078124,4.0988732421875,-4.729745379638672,-2.0610687022900764,-13.450381679389313,-116.38167938931298
6295783505200,5.382260154,3,1.177947216796875,4.885368487548828,-5.343858105468749,-29.015267175572518,-49.717557251908396,-117.77862595419847
6295790822232,5.389577186,3,0.7817068420410156,5.718550665283203,-5.865794067382812,-66.19083969465649,-63.57251908396947,-112.85496183206106
6295798193065,5.396948019,3,0.32082302246093747,6.506243011474609,-7.034164477539062,-66.56488549618321,-76.48091603053435,-109.86259541984732
6295805596919,5.404351873,3,0.4608838195800781,8.125920434570313,-7.593210565185546,-73.90076335877863,-80.54198473282443,-100.90076335877863
6295812963898,5.411718852,3,0.09816226806640624,8.394071020507813,-8.374917407226562,-85.44274809160305,-95.57251908396947,-76.3969465648855
6295820286346,5.4190413,3,-0.32441432495117184,8.479065179443358,-8.795099798583983,-84.09923664122137,-89.17557251908397,-53.83206106870229
6295827569003,5.426323957,3,-0.5398924743652344,8.282740643310547,-9.536105212402344,-77.13740458015268,-98.41221374045801,-27.251908396946565
6295834912075,5.433667029,3,-1.1623849060058593,8.037334973144532,-10.06163247680664,-68.8854961832061,-98.19083969465649,-6.396946564885496
6295842362023,5.441116977,3,-0.9313444458007812,7.48906279296875,-10.46984385986328,-62.961832061068705,-84.74809160305344,8.778625954198473
6295849774107,5.448529061,3,-1.2689268798828124,6.836642840576172,-10.53329020385742,-57.14503816793893,-64.25190839694656,22.0
6295857088430,5.455843384,3,-1.1982979309082031,6.156689569091797,-10.667365496826172,-45.534351145038165,-53.267175572519086,28.053435114503817
6295864460565,5.463215519,3,-1.1911153259277343,5.511452221679687,-10.582371337890624,-24.244274809160306,-31.671755725190838,26.83969465648855
6295871734211,5.470489165,3,-1.1755530151367186,5.029020587158203,-10.174159954833984,-5.587786259541985,-12.549618320610687,20.862595419847327
6295878912336,5.47766729,3,-1.1001356628417969,4.592078784179687,-9.941922393798828,6.106870229007634,1.748091603053435,10.435114503816793
6295886223794,5.484978748,3,-1.0702081420898437,4.429273071289062,-9.554061724853515,9.335877862595419,15.251908396946565,-3.045801526717557
6295893601190,5.492356144,3,-0.9804255798339843,4.376600634765625,-9.069235888671875,12.16030534351145,29.206106870229007,-17.610687022900763
6295901043794,5.499798748,3,-0.6572083557128906,4.515464331054687,-8.406042028808594,17.709923664122137,42.82442748091603,-32.82442748091603
6295908384159,5.507139113,3,-0.37828386230468747,4.521449835205078,-7.687781530761718,23.702290076335878,50.961832061068705,-43.3587786259542
6295915677388,5.514432342,3,-0.36272155151367186,4.643554119873047,-7.030573175048827,31.84732824427481,59.38931297709924,-50.961832061068705
6295922918377,5.521673331,3,-0.19871873779296872,4.751293194580078,-6.424840155029297,40.12977099236641,57.595419847328245,-57.69465648854962
6295930271867,5.529026821,3,-0.28490999755859375,4.892551092529296,-6.136338854980468,41.35114503816794,41.56488549618321,-65.22137404580153
6295937631607,5.536386561,3,-0.4740519287109375,5.148730670166016,-5.963956335449218,30.68702290076336,17.549618320610687,-74.70229007633588
6295944979002,5.543733956,3,-0.30406361083984373,5.550956549072265,-5.895721588134765,-13.610687022900763,9.13740458015267,-78.4885496183206
6295952273117,5.551028071,3,-0.27892449340820313,5.980715747070312,-6.00106646118164,-27.83206106870229,-4.213740458015267,-77.96946564885496
6295959594732,5.558349686,3,-0.430956298828125,7.004236956787109,-6.260837341308593,-34.595419847328245,-19.374045801526716,-71.37404580152672
6295966914888,5.565669842,3,-0.6021417175292968,7.255628131103515,-6.5397618347167965,-40.19083969465649,-30.358778625954198,-58.45038167938932
6295974284784,5.573039738,3,-0.9564835632324218,7.289146954345703,-6.764816790771484,-47.66412213740458,-37.19847328244275,-40.51145038167939
6295981617388,5.580372342,3,-1.121683477783203,7.281964349365234,-7.16943687133789,-51.94656488549618,-45.267175572519086,-29.671755725190838
6295988976919,5.587731873,3,-1.0378864196777342,7.297526660156249,-7.541735229492187,-51.80152671755725,-41.908396946564885,-22.755725190839694
6295996314367,5.595069321,3,-1.0881646545410155,7.189787585449218,-7.644685900878906,-50.12213740458015,-37.55725190839695,-13.030534351145038
6296003587492,5.602342446,3,-1.0761936462402344,7.100005023193359,-7.70573804321289,-43.43511450381679,-33.05343511450382,-6.068702290076335
6296010910825,5.609665779,3,-1.073799444580078,6.93959351196289,-7.943961108398437,-35.14503816793893,-28.083969465648856,-0.6717557251908397
6296018247440,5.617002394,3,-1.120486376953125,6.818686328125,-7.9475524108886715,-26.435114503816795,-21.84732824427481,4.694656488549619
6296025591398,5.624346352,3,-1.1695675109863282,6.5780690612792965,-7.93558140258789,-17.49618320610687,-14.106870229007633,6.221374045801527
6296032964523,5.631719477,3,-0.9445125549316405,6.411672045898437,-7.882908966064453,-9.755725190839694,-7.229007633587786,7.580152671755725
6296040278117,5.639033071,3,-0.9050082275390624,6.244077929687499,-7.678204724121093,-3.5419847328244276,-2.068702290076336,7.213740458015267
6296047599627,5.646354581,3,-0.8080430603027343,6.121973645019531,-7.720103253173828,-2.427480916030534,-1.6259541984732824,7.480916030534351
6296054910825,5.653665779,3,-0.8571241943359375,6.063315704345703,-7.578845355224609,-6.99236641221374,-1.0916030534351144,6.183206106870229
6296062243117,5.660998071,3,-1.0007762939453124,6.233304022216797,-7.388506323242187,-13.98473282442748,0.6946564885496184,-0.37404580152671757
6296069598950,5.668353904,3,-1.1228805786132812,6.672640026855468,-7.241262921142578,-17.442748091603054,4.374045801526718,-10.396946564885496
6296076884055,5.675639009,3,-1.01514150390625,7.211335400390625,-7.052120989990234,-14.50381679389313,8.358778625954198,-20.267175572519083
6296084242752,5.682997706,3,-1.120486376953125,7.788338000488281,-6.868964562988281,-8.206106870229007,10.19083969465649,-21.64885496183206
6296091491398,5.690246352,3,-1.246181964111328,8.130708837890625,-6.890512377929687,-4.190839694656488,-0.3969465648854962,-16.33587786259542
6296098819523,5.697574477,3,-1.064222637939453,8.378508709716796,-7.068880401611327,1.534351145038168,4.8320610687022905,-10.259541984732824
6296106172492,5.704927446,3,-1.054645831298828,8.677783917236328,-6.762422589111328,-4.5038167938931295,-8.381679389312977,5.038167938931298
6296113458013,5.712212967,3,-1.485602130126953,8.939948999023438,-7.062894897460937,-20.885496183206108,-30.572519083969464,28.053435114503817
6296120818690,5.719573644,3,-1.7968483459472655,8.522160809326172,-7.79552060546875,-44.908396946564885,-51.17557251908397,48.61832061068702
6296128081919,5.726836873,3,-1.62805712890625,8.237250811767577,-8.350975390624999,-74.22900763358778,-65.06870229007633,69.17557251908397
6296135397752,5.734152706,3,-2.3163901062011716,7.7799582946777335,-8.779537487792968,-99.76335877862596,-77.52671755725191,91.33587786259542
6296142705304,5.741460258,3,-2.8383260681152342,7.523778717041015,-9.60793126220703,-110.43511450381679,-91.82442748091603,97.49618320610686
6296150014523,5.748769477,3,-3.071760729980469,7.495048297119141,-10.526107598876953,-119.14503816793894,-94.74045801526718,97.76335877862596
6296157404732,5.756159686,3,-3.3542765258789062,7.721300354003906,-11.089942089843749,-129.68702290076337,-77.67175572519083,91.98473282442748
6296164863794,5.763618748,3,-2.8383260681152342,7.868543756103515,-11.637017169189452,-132.26717557251908,-46.69465648854962,90.90839694656489
6296172280669,5.771035623,3,-2.817975354003906,8.17141026611328,-11.477802758789062,-115.99236641221374,-2.3740458015267176,76.96946564885496
6296179638638,5.778393592,3,-2.327164013671875,7.970297326660156,-11.079168182373046,-76.65648854961832,49.81679389312977,76.76335877862596
6296186927804,5.785682758,3,-1.2569558715820313,7.563283044433593,-10.429142431640624,-9.702290076335878,106.77862595419847,72.97709923664122
6296194264054,5.793019008,3,-0.3842693664550781,6.819883428955078,-9.131485131835937,64.02290076335878,170.8091603053435,73.9618320610687
6296201654159,5.800409113,3,0.49679684448242184,5.562927557373047,-7.406462835693359,119.19847328244275,224.58778625954199,76.63358778625954
6296209044263,5.807799217,3,0.8008604553222656,4.3993455505371095,-5.793968017578124,155.94656488549617,250.12977099236642,72.26717557251908
6296216350773,5.815105727,3,1.180341418457031,3.400963458251953,-4.304774584960938,185.33587786259542,250.12977099236642,57.969465648854964
6296223690929,5.822445883,3,1.284489190673828,2.6862942626953124,-3.084928839111328,194.29770992366412,250.12977099236642,39.87786259541985
6296231027909,5.829782863,3,1.4724340209960938,2.1823148132324217,-2.3738509460449215,183.4885496183206,246.0229007633588,20.435114503816795
6296238367127,5.837122081,3,1.889025109863281,2.061407629394531,-1.8926164123535154,156.93893129770993,222.04580152671755,-18.30534351145038
6296245724471,5.844479425,3,2.184709014892578,2.000355487060547,-1.47482822265625,119.03053435114504,156.93893129770993,-25.68702290076336
6296253032179,5.851787133,3,1.8997990173339843,2.1978771240234374,-1.1707646118164061,39.969465648854964,103.25954198473282,-28.076335877862597
6296260464315,5.859219269,3,2.8335376647949215,2.996343377685547,-2.375048046875,-37.786259541984734,67.79389312977099,-23.587786259541986
6296267793638,5.866548592,3,3.219004132080078,2.5103204406738278,-1.656787548828125,-71.7557251908397,81.22900763358778,-18.9618320610687
6296275085773,5.873840727,3,3.134009973144531,2.721010186767578,-1.8291700683593748,-39.030534351145036,43.0763358778626,-27.31297709923664
6296282435982,5.881190936,3,2.6611551452636717,3.017891192626953,-2.445676995849609,1.0687022900763359,-3.885496183206107,-17.984732824427482
6296289724992,5.888479946,3,3.5865140869140624,3.4249054748535155,-3.2561142578125,0.5114503816793893,-22.045801526717558,-20.572519083969464
6296297029836,5.89578479,3,2.5438392639160154,3.456030096435547,-3.076549133300781,-48.83206106870229,-12.488549618320612,-9.618320610687023
6296304350565,5.903105519,3,2.3127988037109373,3.333925811767578,-3.1555577880859373,-94.76335877862596,-30.412213740458014,-1.1603053435114503
6296311669315,5.910424269,3,2.5103204406738278,3.210624426269531,-3.6152445068359373,-102.81679389312977,-42.969465648854964,-1.8625954198473282
6296318942857,5.917697811,3,2.558204473876953,3.372233038330078,-3.8283284545898435,-74.58778625954199,-36.55725190839695,-12.763358778625955
6296326284731,5.925039685,3,2.6396073303222654,3.5506010620117183,-4.1192239562988275,-39.41984732824427,-34.725190839694655,-19.290076335877863
6296333601294,5.932356248,3,2.3834277526855465,3.7337574890136715,-4.278438366699218,-19.015267175572518,-37.29007633587786,-24.519083969465647
6296340952388,5.939707342,3,2.2194249389648437,3.7481226989746093,-4.461594793701171,-13.732824427480915,-30.083969465648856,-30.984732824427482
6296348281919,5.947036873,3,2.560598675537109,3.7900212280273435,-4.435258575439453,-5.374045801526718,-13.900763358778626,-41.89312977099237
6296355635461,5.954390415,3,2.3499089294433593,3.9659950500488277,-4.168305090332031,13.16030534351145,-7.374045801526718,-50.02290076335878
6296362952336,5.96170729,3,1.820790362548828,4.264073156738281,-4.185064501953125,34.86259541984733,-16.984732824427482,-56.02290076335878
6296370323065,5.969078019,3,1.6807295654296874,4.389768743896484,-4.189852905273438,45.603053435114504,-22.709923664122137,-60.099236641221374
6296377583586,5.97633854,3,1.5155296508789062,4.454412188720703,-4.365826727294921,40.396946564885496,-26.519083969465647,-62.41984732824427
6296384888481,5.983643435,3,1.5286977600097655,4.837484454345703,-4.695029455566406,25.16793893129771,-44.603053435114504,-70.12213740458016
6296392251346,5.9910063,3,1.485602130126953,5.219359619140625,-4.825513446044922,5.33587786259542,-56.38931297709924,-71.42748091603053
6296399561763,5.998316717,3,1.016338604736328,5.6407391113281244,-5.194220501708984,-20.53435114503817,-106.22900763358778,-65.83206106870229
6296406899315,6.005654269,3,0.4417302062988281,6.021417175292968,-5.613205792236328,-63.23664122137404,-128.18320610687022,-64.64885496183206
6296414185721,6.012940675,3,0.24779987182617186,6.423643054199219,-6.426037255859375,-85.07633587786259,-146.9083969465649,-63.49618320610687
6296421540200,6.020295154,3,-0.3268085266113281,6.798335614013672,-7.9283987976074215,-105.23664122137404,-166.45038167938932,-64.58778625954199
6296428876867,6.027631821,3,-1.0414777221679687,7.848193041992187,-8.929175091552734,-117.80916030534351,-171.22137404580153,-69.59541984732824
6296436209784,6.034964738,3,-1.7429788085937499,8.420407238769531,-9.692925421142577,-126.03053435114504,-167.00763358778627,-72.83969465648855
6296443509315,6.042264269,3,-2.1033061584472654,8.780734588623046,-10.36210478515625,-127.50381679389314,-159.9083969465649,-66.1526717557252
6296450826867,6.049581821,3,-1.8447323791503905,9.112331518554686,-11.182118853759764,-117.10687022900764,-146.42748091603053,-61.412213740458014
6296458200617,6.056955571,3,-1.265335577392578,9.435548742675781,-11.591527337646484,-101.49618320610686,-119.90076335877863,-60.80916030534351
6296465595096,6.06435005,3,-3.5697546752929687,10.085574493408203,-10.820594403076171,-83.64885496183206,-81.87022900763358,-56.396946564885496
