timestamp_ns,t_s,sensor_id,ax,ay,az,gx,gy,gz
6290571987546,0.1707425,1,3.355473626708984,0.8283937744140625,8.492233288574218,9.267175572519085,17.49618320610687,-2.8244274809160306
6290578615775,0.177370729,1,3.508702532958984,0.8283937744140625,8.531737615966797,7.251908396946565,14.702290076335878,-5.656488549618321
6290585273588,0.184028542,1,3.679887951660156,1.025915411376953,8.684966522216797,7.709923664122138,6.442748091603053,-4.793893129770993
6290591937702,0.190692656,1,3.697844464111328,1.0702081420898437,8.534131817626953,-0.10687022900763359,7.465648854961832,-2.2290076335877864
6290598605463,0.197360417,1,3.265691064453125,1.0175357055664063,8.079233502197265,-5.526717557251908,-4.259541984732825,-2.16793893129771
6290605272077,0.204027031,1,3.1950621154785153,0.9636661682128905,7.662642413330078,-4.312977099236641,-5.343511450381679,-2.16793893129771
6290611934890,0.210689844,1,3.4584242980957027,0.9409212524414062,7.580042456054687,2.83206106870229,1.7251908396946565,-4.206106870229007
6290618604786,0.21735974,1,3.6248213134765623,1.035492218017578,7.624335186767578,10.106870229007633,7.969465648854962,-4.862595419847328
6290625271505,0.224026459,1,3.69664736328125,1.1743559143066407,7.302315063476562,10.48091603053435,7.3893129770992365,-5.770992366412214
6290631936452,0.230691406,1,3.1962592163085937,1.1659762084960936,7.559691741943359,-3.5419847328244276,8.419847328244275,-8.450381679389313
6290638604265,0.237359219,1,3.124433166503906,1.5514426757812498,7.72489165649414,-8.19083969465649,15.82442748091603,-14.687022900763358
6290645271088,0.244026042,1,3.1567548889160153,1.8243816650390623,7.957129217529296,-7.809160305343512,19.46564885496183,-17.480916030534353
6290651935567,0.250690521,1,3.1172505615234374,2.033874310302734,8.070853796386718,-9.045801526717558,17.14503816793893,-15.076335877862595
6290658604629,0.257359583,1,2.96881005859375,2.0925322509765625,8.060079888916015,-7.847328244274809,14.106870229007633,-10.564885496183207
6290665268223,0.264023177,1,3.0633810241699218,2.1416133850097654,7.894879974365234,-5.213740458015267,11.335877862595419,-6.152671755725191
6290671937911,0.270692865,1,3.4488474914550777,2.1021090576171875,7.732074261474609,-4.961832061068702,11.259541984732824,-1.9618320610687023
6290678604525,0.277359479,1,3.9995138732910154,1.9285294372558592,7.320271575927734,-4.229007633587786,9.786259541984732,3.900763358778626
6290685270359,0.284025313,1,3.2525229553222657,1.5825672973632812,6.927622503662109,-3.045801526717557,10.0,11.603053435114504
6290691938275,0.290693229,1,2.962824554443359,0.97683427734375,6.775590698242187,6.030534351145038,15.969465648854962,20.290076335877863
6290698605046,0.29736,1,2.7473464050292966,0.7206546997070312,6.806715319824218,30.419847328244273,29.435114503816795,20.49618320610687
6290705270150,0.304025104,1,3.0442274108886718,0.5303156677246094,7.4399816589355465,40.221374045801525,51.10687022900763,14.740458015267176
6290711936244,0.310691198,1,3.0442274108886718,0.59376201171875,8.206126190185547,37.82442748091603,57.51908396946565,6.206106870229007
6290718604838,0.317359792,1,3.0430303100585934,0.59376201171875,8.866925848388671,22.31297709923664,51.80916030534351,-0.1450381679389313
6290725269682,0.324024636,1,2.422932080078125,0.6428431457519531,8.866925848388671,8.511450381679388,46.412213740458014,-6.412213740458015
6290731938484,0.330693438,1,2.0075380920410155,0.6907271789550781,9.479841473388671,8.511450381679388,44.42748091603053,-15.412213740458014
6290738604734,0.337359688,1,2.3032219970703123,1.0797849487304687,9.922768780517577,9.427480916030534,44.42748091603053,-17.419847328244273
6290745270411,0.344025365,1,2.9939491760253905,1.4437036010742186,9.849745629882811,10.404580152671755,34.49618320610687,-17.419847328244273
6290751938327,0.350693281,1,3.3399113159179685,1.562216583251953,9.13627353515625,3.4656488549618323,8.419847328244275,-11.595419847328245
6290758604838,0.357359792,1,3.1735143005371094,1.6017209106445311,8.239645013427733,-7.580152671755725,-9.251908396946565,-8.038167938931299
6290765271088,0.364026042,1,3.151966485595703,1.6675614562988281,7.7787611938476555,-13.374045801526718,-3.5114503816793894,-7.694656488549619
6290771937702,0.370692656,1,3.106476654052734,1.7944541442871094,7.556100439453124,-7.473282442748092,5.33587786259542,-9.068702290076336
6290778604369,0.377359323,1,2.9759926635742184,1.8411410766601561,7.501033801269531,-3.099236641221374,13.50381679389313,-5.748091603053435
6290785272286,0.38402724,1,3.227383837890625,1.744175909423828,7.808688714599609,4.732824427480916,23.106870229007633,-2.9160305343511452
6290791937546,0.3906925,1,3.327940307617187,1.7453730102539062,8.259995727539062,14.213740458015268,30.770992366412212,-2.1526717557251906
6290798603327,0.397358281,1,2.7186159851074216,1.6352397338867186,8.639476690673828,15.038167938931299,27.519083969465647,1.0305343511450382
6290805271713,0.404026667,1,2.2601263671875,1.2797007873535156,8.78552299194336,6.061068702290076,19.47328244274809,2.2748091603053435
6290811938119,0.410693073,1,2.062604730224609,1.1695675109863282,8.706514337158202,0.8931297709923665,13.045801526717558,2.618320610687023
6290818603015,0.417357969,1,2.445676995849609,1.2928688964843749,8.582015850830077,2.3282442748091605,14.473282442748092,-3.4580152671755724
6290825270723,0.424025677,1,2.5941174987792968,1.5442600708007812,8.690952026367187,-3.8931297709923665,14.618320610687023,-8.946564885496183
6290831936504,0.430691458,1,1.9967641845703124,1.552639776611328,8.589198455810546,-14.381679389312977,4.229007633587786,-6.419847328244275
6290838602077,0.437357031,1,1.361103643798828,1.5131354492187499,8.59997236328125,-15.358778625954198,-2.9160305343511452,-6.106870229007634
6290845270150,0.444025104,1,1.5670049865722655,1.705868682861328,8.894459167480468,-7.900763358778626,8.076335877862595,-12.709923664122137
6290851938015,0.450692969,1,1.638831036376953,2.136824981689453,8.99501563720703,3.0610687022900764,8.198473282442748,-16.053435114503817
6290858604473,0.457359427,1,1.945288848876953,2.0254946044921875,8.877699755859375,-6.748091603053435,-4.198473282442748,-10.511450381679388
6290865270306,0.46402526,1,2.0266917053222655,2.3319524169921872,8.857349041748046,-22.374045801526716,-12.305343511450381,-7.152671755725191
6290871937442,0.470692396,1,2.3427263244628906,2.3331495178222657,8.550891229248046,-23.33587786259542,-8.732824427480915,-4.9541984732824424
6290878604525,0.477359479,1,2.980781066894531,2.474407415771484,8.179789971923828,-21.38167938931298,-9.312977099236642,3.8473282442748094
6290885270879,0.484025833,1,3.1735143005371094,2.3523031311035156,7.794323504638672,-13.610687022900763,-9.312977099236642,3.8473282442748094
6290891935984,0.490690938,1,3.3674446350097655,2.2278046447753903,7.362170104980469,-9.564885496183207,-5.412213740458015,11.206106870229007
6290898604317,0.497359271,1,3.7804444213867185,1.7274164978027342,7.738059765625,-1.2061068702290076,17.83969465648855,15.221374045801527
6290905270775,0.504025729,1,3.7050270690917966,1.6244658264160154,8.022969763183593,28.374045801526716,28.519083969465647,17.33587786259542
6290911936973,0.510691927,1,2.9747955627441405,1.197100830078125,8.504204296874999,36.6793893129771,28.458015267175572,26.84732824427481
6290918606296,0.51736125,1,2.806004345703125,0.7565677246093749,9.014169250488282,31.17557251908397,32.23664122137404,26.946564885496183
6290925271921,0.524026875,1,2.779668127441406,0.7134720947265625,9.305064752197264,28.51145038167939,31.31297709923664,20.435114503816795
6290931936296,0.53069125,1,2.9700071594238278,0.6440402465820312,9.627084875488281,24.03053435114504,34.14503816793893,15.17557251908397
6290938603327,0.537358281,1,2.890998504638672,0.5961562133789062,9.858125335693359,26.427480916030536,24.732824427480917,11.931297709923664
6290945269525,0.544024479,1,2.8598738830566406,0.7601590270996094,9.843760125732421,28.87786259541985,17.633587786259543,7.564885496183206
6290951937494,0.550692448,1,2.8419173706054686,0.9133879333496093,9.938331091308592,25.938931297709924,11.664122137404581,0.12213740458015267
6290958613484,0.557368438,1,2.912546319580078,1.083376251220703,10.01015714111328,18.236641221374047,3.732824427480916,-5.809160305343512
6290965274421,0.564029375,1,3.151966485595703,1.22583125,9.90122096557617,13.625954198473282,-4.687022900763359,-9.954198473282442
6290971935411,0.570690365,1,3.1124621582031247,1.419761584472656,9.488221179199218,12.404580152671755,-14.358778625954198,-12.267175572519085
6290978605827,0.577360781,1,2.5713725830078125,1.5059528442382812,9.042899670410156,11.687022900763358,-25.053435114503817,-10.816793893129772
6290985270359,0.584025313,1,2.6479870361328124,1.5275006591796874,8.696937530517578,6.809160305343512,-21.49618320610687,-13.702290076335878
6290991937077,0.590692031,1,2.673126153564453,1.638831036376953,8.251616021728514,11.80916030534351,-19.068702290076335,-12.01526717557252
6290998604994,0.597359948,1,2.673126153564453,1.7501614135742187,7.87812056274414,27.519083969465647,-16.16030534351145,-9.641221374045802
6291005269317,0.604024271,1,2.4863784240722655,1.7501614135742187,7.621940985107422,32.465648854961835,-9.740458015267176,-6.809160305343512
6291011938796,0.61069375,1,2.1703438049316404,1.8052280517578123,7.621940985107422,25.938931297709924,-3.900763358778626,-9.603053435114504
6291018603275,0.617358229,1,1.8447323791503905,2.023100402832031,7.612364178466796,25.938931297709924,6.106870229007634,-8.770992366412214
6291025268327,0.624023281,1,1.7944541442871094,2.0973206542968748,7.900865478515625,10.320610687022901,6.106870229007634,-8.488549618320612
6291031937963,0.630692917,1,1.6807295654296874,2.1918916198730467,8.03134946899414,12.870229007633588,9.86259541984733,-6.534351145038168
6291038603431,0.637358385,1,1.3275848205566405,2.2002713256835937,8.039729174804688,21.717557251908396,12.206106870229007,-1.6564885496183206
6291045270775,0.644025729,1,1.3479355346679687,2.195482922363281,8.330624676513672,28.801526717557252,17.290076335877863,2.4198473282442747
6291051938796,0.65069375,1,1.5442600708007812,2.1344307800292968,8.603563665771484,36.74809160305343,22.374045801526716,4.770992366412214
6291058602546,0.6573575,1,1.697488977050781,2.0278888061523435,8.883685260009765,41.05343511450382,20.83206106870229,8.572519083969466
6291065270150,0.664025104,1,1.734599102783203,1.7764976318359373,8.844180932617187,41.534351145038165,10.992366412213741,13.045801526717558
6291071938015,0.670692969,1,1.9967641845703124,1.6316484313964843,8.762778076171875,40.961832061068705,4.7251908396946565,13.595419847328245
6291078602546,0.6773575,1,2.2972364929199216,1.5131354492187499,8.218097198486328,38.56488549618321,-4.022900763358779,12.183206106870228
6291085270567,0.684025521,1,2.243366955566406,1.4437036010742186,7.6087728759765625,33.3587786259542,-13.778625954198473,10.458015267175572
6291091937858,0.690692812,1,2.2936451904296873,1.455674609375,7.149086157226562,27.6793893129771,-15.610687022900763,4.343511450381679
6291098602702,0.697357656,1,2.5139117431640625,1.5394716674804687,7.052120989990234,21.328244274809162,-9.312977099236642,-3.5572519083969465
6291105271921,0.704026875,1,2.5809493896484375,1.6436194396972654,6.941987713623046,16.15267175572519,-7.931297709923665,-6.709923664122138
6291111935723,0.710690677,1,2.560598675537109,1.6412252380371093,6.725312463378906,15.290076335877863,-7.694656488549619,-8.816793893129772
6291118602650,0.717357604,1,2.3487118286132813,1.6412252380371093,6.822277630615234,18.03053435114504,-2.5572519083969465,-8.648854961832061
6291125271140,0.724026094,1,2.152387292480469,1.6017209106445311,6.959944226074218,28.267175572519083,3.8931297709923665,-9.13740458015267
6291131937598,0.730692552,1,1.8447323791503905,1.659181750488281,7.390900524902343,35.12977099236641,8.687022900763358,-12.381679389312977
6291138604733,0.737359687,1,1.9895815795898437,1.7908628417968748,7.844601739501953,31.229007633587788,7.900763358778626,-17.19083969465649
6291145269942,0.744024896,1,1.6831237670898436,1.7836802368164062,7.8529814453124995,24.045801526717558,0.33587786259541985,-18.801526717557252
6291151934421,0.750689375,1,1.695094775390625,1.7836802368164062,7.931990100097655,24.366412213740457,-9.954198473282442,-18.091603053435115
6291158603431,0.757358385,1,1.7357962036132812,1.8698714965820311,7.472303381347656,25.198473282442748,-9.458015267175572,-22.52671755725191
6291165271036,0.76402599,1,1.6723498596191406,2.261323468017578,7.321468676757812,27.15267175572519,-9.129770992366412,-32.030534351145036
6291171937442,0.770692396,1,1.7094599853515624,2.910152117919922,7.094019519042968,13.038167938931299,-13.038167938931299,-32.030534351145036
6291178604629,0.777359583,1,1.8734627990722654,3.1675287963867187,6.813897924804687,-17.870229007633586,-23.786259541984734,-33.63358778625954
6291185271140,0.784026094,1,2.094926452636719,3.4201170715332028,6.45476767578125,-25.022900763358777,-24.48854961832061,-35.19847328244275
6291191935827,0.790690781,1,2.4660277099609376,3.958812445068359,6.361393811035156,-13.061068702290076,-15.908396946564885,-36.038167938931295
6291198605567,0.797360521,1,2.6048914062499997,3.8666356811523435,6.4846951965332025,-8.83969465648855,-8.625954198473282,-27.259541984732824
6291205271192,0.804026146,1,2.607285607910156,3.8558617736816405,6.5577183471679685,-4.793893129770993,-10.541984732824428,-21.748091603053435
6291211937286,0.81069224,1,2.3247698120117186,3.4907460205078125,6.889315277099609,-6.534351145038168,-4.847328244274809,-17.297709923664122
6291218604421,0.817359375,1,2.517503045654297,3.3411084167480465,7.18859048461914,-9.534351145038167,-2.648854961832061,-19.763358778625953
6291225271296,0.82402625,1,2.8227637573242186,3.153163586425781,7.611167077636718,-13.755725190839694,1.8854961832061068,-14.587786259541986
6291231937129,0.830692083,1,2.6384102294921874,2.987963671875,7.943961108398437,1.2366412213740459,-0.5877862595419847,-9.213740458015268
6291238604838,0.837359792,1,2.512714642333984,2.93050283203125,8.109161022949218,7.961832061068702,-5.938931297709924,-6.412213740458015
6291245268379,0.844023333,1,2.867056488037109,2.876633294677734,8.197746484375,-5.015267175572519,-10.893129770992367,-7.717557251908397
6291251937754,0.850692708,1,3.727771984863281,2.6503812377929687,7.89727417602539,-22.99236641221374,-20.068702290076335,-8.816793893129772
6291258603744,0.857358698,1,3.238157745361328,2.4684219116210935,7.219715106201171,-22.137404580152673,-30.15267175572519,-5.106870229007634
6291265271140,0.864026094,1,2.8239608581542965,2.27927998046875,6.639121203613281,-14.076335877862595,-35.68702290076336,-2.8702290076335877
6291271936348,0.870691302,1,3.1483751831054687,2.403778466796875,6.3709706176757805,-18.732824427480917,-20.81679389312977,-8.206106870229007
6291278604108,0.877359062,1,3.744531396484375,2.427720483398437,6.505045910644531,-26.46564885496183,-3.5801526717557253,-11.587786259541986
6291285269577,0.884024531,1,3.744531396484375,2.479195819091797,6.570886456298828,-21.64885496183206,-1.4961832061068703,-8.106870229007633
6291291934525,0.890689479,1,3.5434184570312497,2.479195819091797,6.635529901123046,-14.82442748091603,2.366412213740458,-4.748091603053435
6291298604161,0.897359115,1,2.721010186767578,2.412158172607422,6.635529901123046,-10.16030534351145,16.450381679389313,-4.793893129770993
6291305271400,0.904026354,1,2.7724855224609373,2.384624853515625,6.980294940185546,-10.16030534351145,17.213740458015266,-7.961832061068702
6291311937181,0.910692135,1,2.8012159423828122,2.5055320373535155,7.524975817871093,-1.5114503816793894,28.938931297709924,-8.351145038167939
6291318603796,0.91735875,1,2.281674182128906,2.319981408691406,8.158242156982421,-2.969465648854962,29.14503816793893,-4.442748091603053
6291325269942,0.924024896,1,2.0159177978515626,2.3822306518554686,8.546102825927735,-2.2977099236641223,27.83969465648855,-4.824427480916031
6291331938327,0.930693281,1,2.0171148986816405,2.3307553161621093,8.961496813964843,-3.595419847328244,27.603053435114504,-7.923664122137405
6291338607129,0.937362083,1,2.2002713256835937,2.1595698974609374,9.083601098632812,-8.51908396946565,18.46564885496183,-9.80916030534351
6291345278588,0.944033542,1,2.1212626708984375,2.460042205810547,8.883685260009765,-10.65648854961832,7.290076335877862,-15.083969465648854
6291351942181,0.950697135,1,1.7944541442871094,2.205059729003906,8.84777223510742,-24.46564885496183,0.25190839694656486,-14.267175572519085
6291358602650,0.957357604,1,1.5658078857421873,2.2936451904296873,8.647856396484375,-27.259541984732824,-6.977099236641221,-19.52671755725191
6291365270723,0.964025677,1,1.867477294921875,2.6563667419433594,8.42160433959961,-35.35114503816794,-7.595419847328245,-24.610687022900763
6291371937858,0.970692812,1,2.152387292480469,2.536656658935547,8.565256439208984,-50.3587786259542,-6.137404580152672,-22.84732824427481
6291378602650,0.977357604,1,2.1416133850097654,2.7425580017089843,8.215702996826172,-39.62595419847328,-11.648854961832061,-20.14503816793893
6291385271035,0.984025989,1,1.8267758666992187,2.8323405639648436,8.339004382324218,-31.106870229007633,-4.770992366412214,-15.129770992366412
6291391939629,0.990694583,1,1.8914193115234375,2.8431144714355465,8.590395556640624,-31.541984732824428,-1.3282442748091603,-14.17557251908397
6291398605358,0.997360312,1,1.9393033447265624,2.863465185546875,8.619125976562499,-31.786259541984734,-1.4122137404580153,-9.351145038167939
6291405271140,1.004026094,1,2.0350714111328125,2.7437551025390623,8.457517364501953,-29.48854961832061,-4.022900763358779,-2.885496183206107
6291411937494,1.010692448,1,2.080561242675781,2.488772625732422,8.445546356201172,-28.450381679389313,-2.7099236641221376,5.809160305343512
6291418604838,1.017359792,1,2.129642376708984,2.231395947265625,8.301894256591796,-17.16030534351145,-0.8015267175572519,13.48091603053435
6291425272910,1.024027864,1,2.060210528564453,1.956062756347656,8.183381274414062,-5.290076335877862,3.885496183206107,18.954198473282442
6291431937025,1.030691979,1,2.060210528564453,1.908178723144531,8.19176098022461,-0.08396946564885496,10.587786259541986,21.96946564885496
6291438604317,1.037359271,1,2.091335150146484,1.6017209106445311,8.252813122558594,-0.022900763358778626,15.969465648854962,20.641221374045802
6291445271556,1.04402651,1,2.1727380065917967,1.429338391113281,8.252813122558594,-0.022900763358778626,21.709923664122137,21.236641221374047
6291451936504,1.050691458,1,2.4157494750976563,1.1947066284179686,8.37012900390625,-1.6564885496183206,21.709923664122137,19.908396946564885
6291458606296,1.05736125,1,2.461239306640625,1.016338604736328,8.674192614746094,2.66412213740458,24.81679389312977,19.908396946564885
6291465270723,1.064025677,1,1.9476830505371092,0.7864952453613281,8.896853369140624,1.3893129770992367,20.84732824427481,19.450381679389313
6291471935723,1.070690677,1,1.7298106994628906,0.5039794494628906,9.192537274169922,0.4732824427480916,19.282442748091604,13.633587786259541
6291478604056,1.07735901,1,2.1727380065917967,0.40581718139648437,9.421183532714844,7.427480916030534,23.52671755725191,6.66412213740458
6291485270931,1.084025885,1,2.318784307861328,0.5291185668945312,9.516951599121093,16.954198473282442,20.091603053435115,-0.4198473282442748
6291491938431,1.090693385,1,2.194285821533203,0.8750807067871094,9.612719665527344,9.770992366412214,11.51908396946565,-8.389312977099237
6291498606035,1.097360989,1,1.5358803649902344,0.9504980590820312,9.597157354736327,-10.213740458015268,1.6030534351145038,-14.900763358778626
6291505270671,1.104025625,1,1.8435352783203125,1.1480196960449218,9.381679205322266,-10.694656488549619,-7.66412213740458,-20.763358778625953
6291511939108,1.110694062,1,2.7641058166503907,1.9668366638183592,9.368511096191405,0.022900763358778626,4.183206106870229,-34.23664122137404
6291518605046,1.11736,1,3.0119056884765625,2.3331495178222657,9.546879119873047,-9.916030534351146,1.2442748091603053,-34.86259541984733
6291525270046,1.124025,1,2.901772412109375,2.5354595581054684,9.53131680908203,-16.19083969465649,-7.748091603053435,-30.587786259541986
6291531938796,1.13069375,1,2.881421697998047,2.70065947265625,9.56962403564453,-4.961832061068702,-8.038167938931299,-27.595419847328245
6291538604212,1.137359166,1,3.1735143005371094,2.9664158569335934,9.713276135253906,5.450381679389313,-2.984732824427481,-23.61832061068702
6291545270931,1.144025885,1,3.034650604248047,3.1172505615234374,9.5384994140625,8.381679389312977,-5.900763358778626,-16.251908396946565
6291551937962,1.150692916,1,2.4768016174316405,2.987963671875,9.362525592041015,4.297709923664122,-14.19083969465649,-5.702290076335878
6291558604994,1.157359948,1,2.5641899780273434,2.548627667236328,9.179369165039063,12.290076335877863,-10.86259541984733,4.061068702290076
6291565269160,1.164024114,1,2.7856536315917966,2.5809493896484375,8.905233074951171,40.01526717557252,-3.732824427480916,5.847328244274809
6291571938067,1.170693021,1,2.7856536315917966,2.242169854736328,8.71489404296875,49.786259541984734,-2.618320610687023,13.725190839694656
6291578604108,1.177359062,1,2.9508535461425778,2.242169854736328,8.468291271972657,52.43511450381679,-2.3740458015267176,14.290076335877863
6291585272806,1.18402776,1,2.7629087158203123,2.013523596191406,8.468291271972657,47.49618320610687,-4.374045801526718,6.893129770992366
6291591937494,1.190692448,1,2.6910826660156246,2.328361114501953,8.086416107177733,47.49618320610687,-4.641221374045801,3.145038167938931
6291598604212,1.197359166,1,2.890998504638672,2.1487959899902345,8.31865366821289,24.16030534351145,5.129770992366412,3.5572519083969465
6291605271140,1.204026094,1,2.8802245971679685,2.232593048095703,8.389282617187499,28.83969465648855,4.67175572519084,-0.3511450381679389
6291611938015,1.210692969,1,2.8227637573242186,2.269703173828125,8.397662322998046,47.29770992366412,5.916030534351145,0.17557251908396945
6291618603900,1.217358854,1,3.0609868225097654,2.4480711975097655,8.596381060791016,52.954198473282446,6.786259541984733,-1.3358778625954197
6291625270983,1.224025937,1,3.356670727539062,2.6491841369628903,8.584410052490234,42.6412213740458,1.6946564885496183,-3.351145038167939
6291631937546,1.2306925,1,3.2537200561523436,2.3247698120117186,8.360552197265624,27.519083969465647,-10.977099236641221,0.6564885496183206
6291638603535,1.237358489,1,2.845508673095703,2.3044190979003907,7.978677032470703,27.46564885496183,-16.732824427480917,-0.22900763358778625
6291645270723,1.244025677,1,2.7533319091796873,2.3523031311035156,7.7799582946777335,28.87786259541985,-12.572519083969466,-2.6946564885496183
6291651939004,1.250693958,1,2.8479028747558592,2.43250888671875,7.551312036132812,24.65648854961832,-10.664122137404581,-5.5038167938931295
6291658603171,1.257358125,1,2.7461493041992187,2.452859600830078,7.513004809570312,21.977099236641223,-9.15267175572519,-5.511450381679389
6291665271192,1.264026146,1,2.4959552307128905,2.3139959045410157,7.510610607910156,28.297709923664122,-5.1679389312977095,-4.549618320610687
6291671937390,1.270692344,1,2.2266075439453124,2.3295582153320313,7.662642413330078,37.10687022900763,-3.946564885496183,-4.557251908396947
6291678604056,1.27735901,1,2.139219183349609,2.3439234252929686,7.789535101318359,37.10687022900763,-2.3053435114503817,-5.9465648854961835
6291685270931,1.284025885,1,2.0745757385253905,2.39420166015625,7.783549597167968,34.229007633587784,-3.2595419847328246,-6.870229007633588
6291691935202,1.290690156,1,2.01112939453125,2.481590020751953,7.601590270996093,32.89312977099237,-8.412213740458014,-7.633587786259542
6291698604108,1.297359062,1,1.8219874633789062,2.588131994628906,7.2915411560058585,27.34351145038168,-12.549618320610687,-8.068702290076336
6291705271035,1.304025989,1,1.4820108276367188,2.7054478759765623,6.944381915283203,20.076335877862597,-15.687022900763358,-10.099236641221374
6291711937025,1.310691979,1,1.4006079711914061,3.028665100097656,6.853402252197265,12.053435114503817,-16.458015267175572,-14.763358778625955
6291718608952,1.317363906,1,1.0941501586914062,2.9185318237304685,6.757634185791015,1.6030534351145038,-12.335877862595419,-18.595419847328245
6291725277494,1.324032448,1,1.197100830078125,3.3782185424804685,6.773196496582031,-0.8244274809160306,-9.572519083969466,-17.091603053435115
6291731937546,1.3306925,1,1.4425065002441406,3.6260184143066403,6.773196496582031,-0.8244274809160306,-15.549618320610687,-11.351145038167939
6291738606348,1.337361302,1,1.284489190673828,3.768473413085937,6.461950280761719,5.297709923664122,-15.549618320610687,-4.641221374045801
6291745271192,1.344026146,1,1.1839327209472656,3.678690850830078,6.210559106445312,5.465648854961832,-19.34351145038168,-4.641221374045801
6291751936400,1.350691354,1,1.2246341491699217,3.547009759521484,6.004657763671875,5.091603053435114,-19.358778625954198,-0.5267175572519084
6291758604264,1.357359218,1,1.4604630126953124,3.305195391845703,5.7520694885253905,5.931297709923665,-20.15267175572519,2.282442748091603
6291765271192,1.364026146,1,1.2761094848632812,3.077746234130859,5.839457849121094,5.320610687022901,-18.053435114503817,4.0458015267175576
6291771936973,1.370691927,1,1.180341418457031,2.901772412109375,5.693411547851563,2.885496183206107,-21.557251908396946,4.847328244274809
6291778604785,1.377359739,1,1.3180080139160155,2.6336218261718747,5.697002850341796,-3.122137404580153,-20.85496183206107,6.022900763358779
6291785269264,1.384024218,1,1.696291876220703,2.5641899780273434,5.833472344970703,1.748091603053435,-17.045801526717558,4.0534351145038165
6291791936348,1.390691302,1,1.8531120849609375,2.6467899353027344,5.892130285644531,8.664122137404581,-15.01526717557252,3.427480916030534
6291798605098,1.397360052,1,1.744175909423828,2.479195819091797,6.003460662841796,3.7022900763358777,-22.236641221374047,5.6106870229007635
6291805268744,1.404023698,1,1.5203180541992187,2.627636322021484,6.251260534667968,6.793893129770993,-20.916030534351144,1.1221374045801527
6291811939421,1.410694375,1,1.6448165405273436,2.7246014892578123,6.366182214355469,-4.00763358778626,-25.47328244274809,-7.732824427480916
6291818604733,1.417359687,1,1.7357962036132812,2.9843723693847655,6.698976245117187,-42.67175572519084,-33.12977099236641,-17.015267175572518
6291825269108,1.424024062,1,1.4688427185058592,3.029862200927734,6.92043989868164,-77.33587786259542,-43.79389312977099,-22.46564885496183
6291831937702,1.430692656,1,1.01514150390625,3.1794998046874996,6.9336080078124995,-86.41221374045801,-54.06106870229008,-19.923664122137403
6291838603900,1.437358854,1,1.083376251220703,3.3219548034667965,7.167042669677734,-72.02290076335878,-48.732824427480914,-18.450381679389313
6291845269733,1.444024687,1,1.6651672546386718,3.497928625488281,7.523778717041015,-57.81679389312977,-37.94656488549618,-17.099236641221374
6291851937442,1.450692396,1,2.9364883361816405,2.971204260253906,7.411251239013671,-55.06870229007634,-41.9236641221374,-6.343511450381679
6291858604942,1.457359896,1,2.9364883361816405,2.8993782104492185,7.5345526245117185,-33.19847328244275,-35.58015267175573,0.19083969465648856
6291865273796,1.46402875,1,2.2661118713378903,2.8993782104492185,8.143876947021484,-30.519083969465647,-20.65648854961832,1.916030534351145
6291871937546,1.4706925,1,2.7234043884277344,2.588131994628906,8.143876947021484,-30.0,-7.9465648854961835,-0.5801526717557252
6291878603171,1.477358125,1,3.246537451171875,2.578555187988281,8.943540301513671,-43.6793893129771,-9.068702290076336,-1.7709923664122138
6291885270462,1.484025416,1,3.8091748413085935,2.6431986328124997,9.44871685180664,-55.97709923664122,-7.114503816793893,-1.16793893129771
6291891937858,1.490692812,1,4.254496350097656,2.825157958984375,9.73602105102539,-72.37404580152672,-12.091603053435115,-3.122137404580153
6291898603535,1.497358489,1,4.863820672607422,2.8371289672851563,9.956287603759765,-89.29007633587786,-12.381679389312977,-3.5419847328244276
6291905271504,1.504026458,1,5.652710119628906,2.829946362304687,10.819397302246093,-91.52671755725191,0.816793893129771,-6.435114503816794
6291911937494,1.510692448,1,5.246892938232421,2.6874913635253903,10.308235247802735,-64.70992366412214,-18.702290076335878,13.908396946564885
6291918603067,1.517358021,1,4.133589166259766,2.5067291381835934,9.422380633544922,-41.99236641221374,-37.30534351145038,25.358778625954198
6291925271452,1.524026406,1,4.370615130615234,1.9321207397460936,9.405621221923827,-38.35114503816794,-9.641221374045802,26.610687022900763
6291931937754,1.530692708,1,4.7931917236328125,1.839943975830078,10.052055670166014,-9.038167938931299,10.282442748091603,21.114503816793892
6291938606452,1.537361406,1,4.50109912109375,1.6077064147949218,10.353725079345702,9.259541984732824,8.16030534351145,25.69465648854962
6291945271192,1.544026146,1,4.199429711914062,1.3742717529296875,10.204087475585936,4.213740458015267,-8.198473282442748,25.30534351145038
6291951936660,1.550691614,1,4.171896392822266,1.1839327209472656,9.941922393798828,-15.778625954198473,-24.389312977099237,18.96946564885496
6291958603587,1.557358541,1,4.777629412841796,0.9816226806640624,9.405621221923827,-27.022900763358777,-36.9236641221374,9.49618320610687
6291965269837,1.564024791,1,5.280411761474609,1.1360486877441405,8.505401397705077,-23.267175572519083,-50.45038167938932,2.282442748091603
6291971936764,1.570691718,1,5.1152118469238275,1.2605471740722656,7.308300567626953,-29.72519083969466,-71.1526717557252,1.2595419847328244
6291978604733,1.577359687,1,4.633977313232422,1.1156979736328125,6.169857678222656,-42.83206106870229,-75.70992366412214,1.1450381679389312
6291985272546,1.5840275,1,4.8326960510253905,1.2102689392089843,5.3570262145996095,-35.80916030534351,-60.534351145038165,-5.366412213740458
6291991937025,1.590691979,1,5.284003063964843,1.3922282653808593,5.335478399658203,-14.938931297709924,-23.297709923664122,-13.572519083969466
6291998604785,1.597359739,1,5.2624552490234375,1.3407529296874998,5.778405706787109,0.04580152671755725,-1.7251908396946565,-10.320610687022901
6292005279264,1.604034218,1,5.415684155273437,1.2785036865234374,6.5385647338867185,11.129770992366412,12.099236641221374,-11.595419847328245
6292011941921,1.610696875,1,5.050568402099609,1.5849614990234373,6.5756748596191406,19.763358778625953,27.595419847328245,-8.458015267175572
6292018604837,1.617359791,1,4.75009609375,1.350329736328125,7.495048297119141,19.763358778625953,25.870229007633586,-12.061068702290076
6292025269889,1.624024843,1,4.294000677490234,1.725022296142578,8.11514652709961,32.778625954198475,25.870229007633586,-13.297709923664122
6292031939837,1.630694791,1,4.040215301513672,1.8183961608886718,8.674192614746094,17.85496183206107,21.587786259541986,-13.297709923664122
6292038605879,1.637360833,1,3.9324762268066404,1.848323681640625,8.604760766601562,1.9083969465648856,8.068702290076336,-15.34351145038168
6292045272129,1.644027083,1,3.754108203125,2.060210528564453,8.212111694335936,-1.1755725190839694,-3.381679389312977,-16.099236641221374
6292051938275,1.650693229,1,3.7816415222167965,2.233790148925781,8.135497241210937,-9.80916030534351,-2.5877862595419847,-18.595419847328245
6292058604108,1.657359062,1,3.6858734558105466,2.2756886779785157,8.097190014648437,-16.068702290076335,-2.6793893129770994,-17.85496183206107
6292065269369,1.664024323,1,3.381809844970703,2.1918916198730467,8.002619049072266,-12.038167938931299,-4.534351145038168,-13.931297709923664
6292071937494,1.670692448,1,3.1639374938964844,2.002749688720703,7.9463553100585935,-4.931297709923665,-2.8473282442748094,-9.801526717557252
6292078605098,1.677360052,1,3.0885201416015624,1.9093758239746093,8.226476904296874,4.770992366412214,4.793893129770993,-10.320610687022901
6292085270254,1.684025208,1,3.265691064453125,1.8339584716796873,8.506598498535157,10.488549618320612,9.17557251908397,-10.885496183206106
6292091938171,1.690693125,1,3.515885137939453,1.820790362548828,8.63109698486328,10.961832061068701,8.435114503816793,-11.961832061068701
6292098608483,1.697363437,1,3.6655227416992187,1.7429788085937499,8.695740429687499,8.221374045801527,3.6564885496183206,-11.450381679389313
6292105270202,1.704025156,1,3.994725469970703,1.705868682861328,8.552088330078124,8.564885496183207,0.6335877862595419,-12.51908396946565
6292111941191,1.710696145,1,4.153939880371094,1.562216583251953,8.469488372802735,8.351145038167939,-1.1145038167938932,-12.587786259541986
6292118603744,1.717358698,1,3.986345764160156,1.68551796875,8.325836273193358,8.358778625954198,-2.122137404580153,-14.01526717557252
6292125272806,1.72402776,1,4.311957189941406,1.637633935546875,8.512584002685546,7.1603053435114505,3.16793893129771,-17.35114503816794
6292131938275,1.730693229,1,4.490325213623047,1.5286977600097655,8.716091143798828,19.17557251908397,7.137404580152672,-16.671755725190838
6292138605462,1.737360416,1,4.478354205322265,1.4796166259765624,8.911218579101561,32.11450381679389,7.2748091603053435,-16.34351145038168
6292145271816,1.74402677,1,4.478354205322265,1.332373223876953,9.115922821044922,28.610687022900763,9.312977099236642,-18.625954198473284
6292151938431,1.750693385,1,4.413710760498047,1.332373223876953,9.102754711914063,25.38167938931298,6.190839694656488,-19.427480916030536
6292158603796,1.75735875,1,4.1946413085937495,1.1635820068359375,9.409212524414063,24.564885496183205,4.0,-20.015267175572518
6292165271035,1.764025989,1,3.815160345458984,0.8726865051269531,9.725247143554688,30.427480916030536,5.847328244274809,-19.374045801526716
6292171938379,1.770693333,1,3.0538042175292968,0.6165069274902344,10.104728106689452,41.42748091603053,3.8931297709923665,-18.793893129770993
6292178602650,1.777357604,1,2.711433380126953,0.6703764648437499,10.64222637939453,51.50381679389313,6.3816793893129775,-26.610687022900763
6292185273066,1.78402802,1,2.8419173706054686,0.7038952880859375,11.225214483642578,48.47328244274809,7.572519083969466,-32.76335877862596
6292191938171,1.790693125,1,2.902969512939453,1.0115502014160156,11.431115826416015,47.6412213740458,-7.99236641221374,-37.97709923664122
6292198603483,1.797358437,1,2.493561029052734,1.0235212097167967,11.337741961669922,39.47328244274809,-30.52671755725191,-37.58015267175573
6292205271452,1.804026406,1,2.3678654418945313,1.131260284423828,10.57878003540039,37.11450381679389,-54.29770992366412,-38.06870229007634
6292211937598,1.810692552,1,2.5821464904785154,1.351526837158203,9.344569079589844,33.93893129770992,-73.91603053435115,-40.969465648854964
6292218604316,1.81735927,1,2.8610709838867185,1.5682020874023437,7.934384301757812,23.85496183206107,-91.06106870229007,-42.93129770992366
6292225271712,1.824026666,1,2.808398547363281,1.6136919189453125,6.301538769531249,18.435114503816795,-106.62595419847328,-43.67175572519084
6292231937389,1.830692343,1,2.528276953125,2.1308394775390624,4.7752352111816405,14.305343511450381,-112.09160305343511,-51.091603053435115
6292238605046,1.83736,1,2.503137835693359,2.472013214111328,3.679887951660156,-2.6412213740458017,-102.81679389312977,-57.045801526717554
6292245272025,1.844026979,1,2.5007436340332028,3.1076737548828124,2.8323405639648436,-10.435114503816793,-89.67175572519083,-63.94656488549618
6292251937129,1.850692083,1,2.2361843505859373,3.6343981201171873,2.4396914916992185,-14.717557251908397,-73.58778625954199,-64.09160305343511
6292258605410,1.857360364,1,2.041056915283203,4.152742779541016,2.1260510742187497,-15.374045801526718,-55.099236641221374,-59.10687022900763
6292265269160,1.864024114,1,1.2629413757324217,4.333505004882812,2.365471240234375,-13.335877862595419,-42.06106870229008,-51.786259541984734
6292271935983,1.870690937,1,0.6500257507324219,4.6651019348144525,3.1280244689941403,-5.358778625954199,-19.14503816793893,-48.2442748091603
6292278604264,1.877359218,1,1.1923124267578125,4.954800335693359,3.379415643310547,-5.435114503816794,-9.106870229007633,-41.961832061068705
6292285272129,1.884027083,1,1.1109095703125,4.674678741455078,4.113238452148437,-19.442748091603054,2.2748091603053435,-18.778625954198475
6292291937754,1.890692708,1,0.8044517578125,4.674678741455078,4.815936639404296,0.37404580152671757,9.938931297709924,-2.49618320610687
6292298604421,1.897359375,1,0.55545478515625,4.398148449707031,4.815936639404296,26.938931297709924,19.954198473282442,13.610687022900763
6292305270827,1.904025781,1,0.7338228088378905,4.088099334716796,5.335478399658203,26.938931297709924,19.137404580152673,26.87786259541985
6292311937910,1.910692864,1,0.8116343627929687,3.852270471191406,5.759252093505859,41.916030534351144,19.137404580152673,39.86259541984733
6292318604264,1.917359218,1,1.0821791503906248,3.0526071166992184,6.203376501464843,37.87022900763359,13.526717557251908,39.86259541984733
6292325269264,1.924024218,1,1.8004396484374998,2.924517327880859,6.175843182373047,29.31297709923664,6.595419847328245,32.38931297709924
6292331937910,1.930692864,1,2.2170307373046874,2.5103204406738278,6.1650692749023435,-16.31297709923664,-6.465648854961832,32.32824427480916
6292338605150,1.937360104,1,2.9041666137695312,1.9692308654785156,6.204573602294921,-53.396946564885496,-19.595419847328245,27.938931297709924
6292345269108,1.944024062,1,3.9600095458984375,1.7597382202148437,6.448782171630859,-51.603053435114504,-8.404580152671755,18.221374045801525
6292351944316,1.95069927,1,4.055777612304687,2.1152771667480468,5.567715960693359,-32.87786259541985,-26.236641221374047,23.267175572519083
6292358613535,1.957368489,1,3.6260184143066403,2.232593048095703,5.127182855224609,-44.83969465648855,-31.3206106870229,24.564885496183205
6292365269941,1.964024895,1,4.649539624023437,2.233790148925781,5.567715960693359,-70.96946564885496,-5.885496183206107,14.442748091603054
6292371939525,1.970694479,1,5.0577510070800775,2.9664158569335934,6.34583150024414,-57.58015267175573,23.12213740458015,3.5343511450381677
6292378605410,1.977360364,1,5.127182855224609,3.4871547180175777,7.149086157226562,-56.954198473282446,27.076335877862597,3.282442748091603
6292385269577,1.984024531,1,5.1882349975585935,3.6451720275878903,7.8158713195800775,-82.89312977099236,29.46564885496183,8.916030534351146
6292391938223,1.990693177,1,5.248090039062499,3.6236242126464844,8.723273748779297,-88.4885496183206,38.0,13.748091603053435
6292398604889,1.997359843,1,5.432443566894531,3.6559459350585937,9.600748657226562,-69.06106870229007,43.732824427480914,20.259541984732824
6292405271452,2.004026406,1,5.203797308349609,3.276464971923828,10.350133776855468,-54.62595419847328,38.030534351145036,31.641221374045802
6292411937493,2.010692447,1,5.250484240722656,2.5941174987792968,10.837353814697265,-49.87786259541985,29.610687022900763,43.038167938931295
6292418603170,2.017358124,1,5.627571002197265,2.1739351074218747,10.539275708007812,-34.83206106870229,19.30534351145038,47.778625954198475
6292425270670,2.024025624,1,5.983109948730468,1.5957354064941405,10.381258398437499,-28.450381679389313,10.236641221374045,50.61068702290076
6292431937129,2.030692083,1,5.983109948730468,1.648407843017578,10.007762939453125,-27.793893129770993,-2.0381679389312977,47.343511450381676
6292438602806,2.03735776,1,5.983109948730468,1.1887211242675781,10.087968695068358,-34.13740458015267,-11.412213740458014,41.396946564885496
6292445270462,2.044025416,1,5.923254907226562,0.9085995300292968,9.475053070068359,-34.6793893129771,-16.17557251908397,33.847328244274806
6292451938483,2.050693437,1,5.895721588134765,0.6667851623535156,9.04649097290039,-38.587786259541986,-16.0381679389313,24.732824427480917
6292458606608,2.057361562,1,5.846640454101562,0.7015010864257812,8.530540515136718,-33.00763358778626,-16.0381679389313,24.38167938931298
6292465271973,2.064026927,1,5.724536169433593,0.8319850769042968,8.333018878173828,-27.00763358778626,-12.13740458015267,16.564885496183205
6292471938483,2.070693437,1,5.5832782714843745,0.9923965881347656,8.32463917236328,-23.68702290076336,-6.152671755725191,9.312977099236642
6292478606035,2.077360989,1,5.348646508789062,1.3443442321777344,8.098387115478515,-24.404580152671755,-7.687022900763359,4.435114503816794
6292485273014,2.084027968,1,5.40730444946289,1.4341267944335936,7.626729388427734,-35.25954198473283,-8.900763358778626,6.557251908396947
6292491943327,2.090698281,1,4.891353991699218,1.1719617126464843,7.574056951904296,-28.51145038167939,-3.5572519083969465,13.412213740458014
6292498605358,2.097360312,1,4.582501977539062,1.0773907470703123,7.349001995849609,5.229007633587786,6.00763358778626,16.0381679389313
6292505272285,2.104027239,1,4.886565588378906,0.6368576416015624,8.186972576904296,24.198473282442748,31.641221374045802,17.00763358778626
6292511938952,2.110693906,1,4.839878656005859,0.5781997009277343,9.182960467529297,37.85496183206107,40.32824427480916,10.885496183206106
6292518604889,2.117359843,1,4.778826513671874,0.5087678527832031,9.496600885009766,29.84732824427481,27.671755725190838,9.961832061068701
6292525270723,2.124025677,1,4.622006304931641,0.45489831542968745,9.364919793701171,10.13740458015267,4.9541984732824424,5.5038167938931295
6292531936608,2.130691562,1,4.497507818603515,0.6416460449218749,8.930372192382812,-7.0,-9.251908396946565,-3.4580152671755724
6292538602025,2.137356979,1,4.6627077331542965,1.0115502014160156,8.29351455078125,-16.83969465648855,-16.931297709923665,-11.122137404580153
6292545272285,2.144027239,1,4.5322237426757805,1.2497732666015624,7.770381488037109,-17.984732824427482,-22.64885496183206,-13.717557251908397
6292551935670,2.150690624,1,4.378994836425781,1.4772224243164063,7.388506323242187,-14.244274809160306,-18.580152671755727,-15.183206106870228
6292558604629,2.157359583,1,4.3622354248046875,1.6232687255859375,7.3478048950195305,-7.083969465648855,-7.129770992366412,-16.572519083969464
6292565274889,2.164029843,1,4.2700586608886715,1.8806454040527343,7.480683087158202,0.8396946564885496,2.7404580152671754,-16.076335877862597
6292571939264,2.170694218,1,4.2700586608886715,1.964442462158203,7.7224974548339835,3.519083969465649,6.473282442748092,-11.549618320610687
6292578606348,2.177361302,1,3.9324762268066404,1.964442462158203,7.996633544921875,7.793893129770993,10.51908396946565,-9.16793893129771
6292585271816,2.18402677,1,3.749319799804687,2.1416133850097654,7.996633544921875,7.67175572519084,14.305343511450381,-4.259541984732825
6292591936400,2.190691354,1,3.4524387939453125,1.9416975463867185,8.40125362548828,7.67175572519084,16.72519083969466,-1.5114503816793894
6292598604941,2.197359895,1,3.398569256591797,1.8339584716796873,8.62511148071289,19.061068702290076,16.72519083969466,3.2900763358778624
6292605268535,2.204023489,1,3.4775779113769527,1.7573440185546874,8.825027319335938,29.374045801526716,16.404580152671755,3.2900763358778624
6292611938431,2.210693385,1,3.5146880371093747,1.6017209106445311,8.90643017578125,31.862595419847327,10.687022900763358,5.893129770992366
6292618604629,2.217359583,1,3.7397429931640622,1.3491326354980469,9.051279376220702,26.72519083969466,8.335877862595419,6.122137404580153
6292625270931,2.224025885,1,4.042609503173828,1.2054805358886718,9.050082275390624,27.923664122137403,5.770992366412214,4.8396946564885495
6292631937493,2.230692447,1,4.027047192382812,1.1432312927246093,9.026140258789061,29.106870229007633,-2.114503816793893,4.709923664122138
6292638603639,2.237358593,1,3.9983167724609374,1.0307038146972656,8.850166436767578,23.755725190839694,-8.106870229007633,2.427480916030534
6292645268483,2.244023437,1,4.010287780761718,1.112106671142578,8.82263311767578,17.33587786259542,-10.320610687022901,-2.66412213740458
6292651937389,2.250692343,1,4.292803576660156,1.3682862487792968,8.88009395751953,12.954198473282442,-10.511450381679388,-9.49618320610687
6292658604733,2.257359687,1,4.627991809082031,1.4808137268066406,8.722076647949219,8.923664122137405,-12.763358778625955,-11.061068702290076
6292665270566,2.26402552,1,4.674678741455078,1.5023615417480467,8.628702783203124,11.732824427480915,-17.46564885496183,-9.335877862595419
6292671937806,2.27069276,1,4.631583111572265,1.3946224670410154,8.36294639892578,20.51145038167939,-20.35114503816794,-6.786259541984733
6292678603535,2.277358489,1,4.7943888244628905,1.2820949890136717,8.022969763183593,28.458015267175572,-19.259541984732824,-6.633587786259542
6292685271504,2.284026458,1,4.747701892089843,1.199495031738281,7.711723547363281,30.18320610687023,-20.35114503816794,-7.908396946564886
6292691937493,2.290692447,1,4.620809204101562,1.0893617553710937,7.523778717041015,26.946564885496183,-20.427480916030536,-10.427480916030534
6292698602597,2.297357551,1,4.566939666748047,1.180341418457031,7.416039642333984,26.732824427480917,-18.0381679389313,-15.694656488549619
6292705271868,2.304026822,1,4.365826727294921,1.3575123413085937,7.311891870117187,24.045801526717558,-17.366412213740457,-19.610687022900763
6292711937545,2.310692499,1,4.4196962646484375,1.590947003173828,7.1395093505859375,19.389312977099237,-17.206106870229007,-22.938931297709924
6292718603275,2.317358229,1,4.266467358398438,1.5538368774414062,7.0473325866699215,16.412213740458014,-15.083969465648854,-26.16793893129771
6292725271139,2.324026093,1,4.273649963378906,1.8602946899414061,6.995857250976562,17.27480916030534,-9.954198473282442,-27.328244274809162
6292731937233,2.330692187,1,4.295197778320312,2.067393133544922,6.995857250976562,15.748091603053435,-6.633587786259542,-25.564885496183205
6292738602389,2.337357343,1,4.272452862548828,2.272097375488281,7.0078282592773435,21.610687022900763,-6.8396946564885495,-22.17557251908397
6292745270514,2.344025468,1,4.062960217285156,2.366668341064453,7.017405065917968,23.19083969465649,-4.885496183206107,-21.85496183206107
6292751936972,2.350691926,1,3.907337109375,2.3355437194824216,7.038952880859375,25.81679389312977,-1.2671755725190839,-19.900763358778626
6292758604108,2.357359062,1,3.835511059570312,2.35589443359375,7.132326745605468,29.84732824427481,2.33587786259542,-17.885496183206108
6292765270150,2.364025104,1,3.6739024475097652,2.3044190979003907,7.114370233154297,31.64885496183206,2.0,-15.923664122137405
6292771938066,2.37069302,1,3.518279339599609,2.3211785095214843,7.104793426513671,28.610687022900763,0.015267175572519083,-15.595419847328245
6292778603847,2.377358801,1,3.2728736694335936,2.3977929626464842,6.9898717468261715,23.48854961832061,-2.1526717557251906,-15.770992366412214
6292785270618,2.384025572,1,3.1088708557128903,2.546233465576172,6.781576202392578,19.633587786259543,-5.8396946564885495,-16.87786259541985
6292791936504,2.390691458,1,2.986766571044922,2.6659435485839844,6.515819818115234,14.83206106870229,-8.259541984732824,-17.84732824427481
6292798606452,2.397361406,1,3.0442274108886718,2.906560815429687,6.327874987792969,9.374045801526718,-9.954198473282442,-18.931297709923665
6292805270931,2.404025885,1,3.1962592163085937,3.0131027893066404,6.110002636718749,5.801526717557252,-10.0,-17.625954198473284
6292811935566,2.41069052,1,3.276464971923828,3.125630267333984,5.926846209716796,8.679389312977099,-8.992366412213741,-16.045801526717558
6292818604056,2.41735901,1,3.374627239990234,3.1639374938964844,5.911283898925781,10.786259541984732,-7.351145038167939,-13.732824427480915
6292825270566,2.42402552,1,3.39018955078125,3.1364041748046874,5.792770916748046,9.419847328244275,-7.587786259541985,-10.099236641221374
6292831935514,2.430690468,1,3.3411084167480465,3.1507693847656246,5.6215854980468745,10.786259541984732,-9.045801526717558,-6.465648854961832
6292838604316,2.43735927,1,3.441664886474609,3.2321722412109373,5.414487054443359,7.809160305343512,-8.954198473282442,-4.847328244274809
6292845270566,2.44402552,1,3.417722869873047,3.1088708557128903,5.191826300048827,-2.83206106870229,-10.755725190839694,-2.5267175572519083
6292851940618,2.450695572,1,3.31357509765625,3.0933085449218747,4.970362646484375,-7.068702290076335,-10.068702290076336,0.22900763358778625
6292858605566,2.45736052,1,3.31357509765625,3.142389678955078,4.827907647705078,-4.32824427480916,-8.648854961832061,3.2748091603053435
6292865270045,2.464024999,1,2.972401361083984,3.142389678955078,4.791994622802734,-8.282442748091603,-5.480916030534351,7.396946564885496
6292871937493,2.470692447,1,2.8119898498535156,3.105279553222656,4.791994622802734,-7.374045801526718,3.66412213740458,12.320610687022901
6292878604629,2.477359583,1,2.511517541503906,2.890998504638672,5.036203192138672,-7.374045801526718,11.778625954198473,13.045801526717558
6292885269837,2.484024791,1,2.522291448974609,3.015496990966797,5.421669659423828,4.038167938931298,11.778625954198473,16.46564885496183
6292891937649,2.490692603,1,2.7617116149902343,3.125630267333984,5.566518859863281,0.09923664122137404,15.893129770992367,16.46564885496183
6292898607129,2.497362083,1,2.8945898071289062,2.980781066894531,5.72693037109375,-10.801526717557252,11.48091603053435,22.290076335877863
6292905270618,2.504025572,1,2.7808652282714843,2.901772412109375,5.705382556152343,-2.946564885496183,8.305343511450381,25.389312977099237
6292911936972,2.510691926,1,2.7449522033691403,3.220201232910156,5.5270145324707025,-14.099236641221374,3.0381679389312977,20.17557251908397
6292918603899,2.517358853,1,2.874239093017578,3.284844677734375,5.436034869384765,-64.82442748091603,-0.8244274809160306,18.977099236641223
6292925269160,2.524024114,1,3.2692823669433593,3.3219548034667965,5.80354482421875,-84.90839694656489,4.1603053435114505,13.053435114503817
6292931938327,2.530693281,1,3.2620997619628906,3.797203833007812,5.394136340332031,-64.61068702290076,6.465648854961832,22.358778625954198
6292938603952,2.537358906,1,2.1452046874999997,3.5577836669921874,4.7201685729980465,-52.2442748091603,-14.16793893129771,42.213740458015266
6292945271504,2.544026458,1,3.1651345947265623,3.305195391845703,5.166687182617188,-56.099236641221374,22.68702290076336,40.0763358778626
6292951942702,2.550697656,1,4.605246893310547,3.0023288818359375,6.5014546081542965,-32.38167938931298,60.717557251908396,45.38931297709924
6292958603014,2.557357968,1,5.577292767333984,2.469619012451172,7.4603323730468745,6.595419847328245,64.54198473282443,62.2442748091603
6292965270931,2.564025885,1,4.88417138671875,1.1923124267578125,7.864952453613281,27.801526717557252,55.51908396946565,83.53435114503817
6292971937910,2.570692864,1,3.754108203125,0.4644751220703125,7.8350249328613275,24.114503816793892,36.6793893129771,81.33587786259542
6292978602754,2.577357708,1,3.603273498535156,0.008379705810546874,8.285134844970703,-17.49618320610687,42.0763358778626,67.09160305343511
6292985270566,2.58402552,1,4.164713787841797,0.18914193115234373,9.436745843505859,-51.79389312977099,58.74809160305343,37.70229007633588
6292991937806,2.59069276,1,4.622006304931641,0.6177040283203125,10.488997473144531,-75.29770992366412,56.36641221374046,23.03053435114504
6292998603014,2.597357968,1,4.714183068847656,0.9923965881347656,11.195286962890624,-80.90076335877863,39.94656488549618,16.732824427480917
6293005272181,2.604027135,1,4.407725256347656,1.0223241088867188,11.560402716064452,-77.77099236641222,26.519083969465647,18.198473282442748
6293011937545,2.610692499,1,4.57771357421875,1.3287819213867187,11.54244620361328,-66.05343511450381,20.198473282442748,20.358778625954198
6293018599056,2.61735401,1,5.129577056884766,1.4532804077148436,11.69567510986328,-64.87786259541984,14.305343511450381,24.541984732824428
6293025272024,2.624026978,1,5.6024318847656245,1.3958195678710936,11.769895361328125,-55.10687022900763,14.488549618320612,34.36641221374046
6293031937754,2.630692708,1,6.081272216796875,1.0007762939453124,11.550825909423827,-48.64885496183206,2.763358778625954,33.25954198473283
6293038604004,2.637358958,1,6.315903979492187,0.1580173095703125,11.297040533447264,-33.2442748091603,-0.7022900763358778,43.030534351145036
6293045270462,2.644025416,1,6.445190869140625,-0.6200982299804687,11.05762036743164,-5.541984732824427,-0.6335877862595419,48.87022900763359
6293051935462,2.650690416,1,6.433219860839843,-1.3000515014648437,10.979808813476561,18.83969465648855,6.244274809160306,47.87786259541985
6293058604524,2.657359478,1,5.998672259521484,-1.7741034301757812,11.123460913085937,30.72519083969466,10.977099236641221,39.19847328244275
6293065272024,2.664026978,1,5.3953334411621094,-1.7286135986328124,10.809820495605468,27.81679389312977,1.549618320610687,24.709923664122137
6293071935462,2.670690416,1,4.939238024902344,-1.5394716674804687,10.309432348632813,-1.6946564885496183,-8.290076335877863,6.9541984732824424
6293078603014,2.677357968,1,4.977545251464844,-1.0558429321289062,9.970652813720703,-12.198473282442748,-11.396946564885496,-12.045801526717558
6293085270097,2.684025051,1,4.6076410949707025,-0.15083470458984374,9.987412225341796,0.0,-8.992366412213741,-30.557251908396946
6293091936660,2.690691614,1,4.547786053466797,0.6009446166992187,9.546879119873047,-8.83969465648855,-22.49618320610687,-38.82442748091603
6293098604160,2.697359114,1,4.327519500732421,1.1456254943847655,8.517372406005858,-19.87786259541985,-43.33587786259542,-39.83206106870229
6293105271035,2.704025989,1,3.812766143798828,1.839943975830078,7.42441934814453,-15.82442748091603,-55.25190839694657,-40.38167938931298
6293111936504,2.710691458,1,3.7768531188964842,2.29843359375,6.675034228515624,-10.625954198473282,-49.541984732824424,-39.83969465648855
6293118603691,2.717358645,1,3.8989574035644528,2.636016027832031,6.40329234008789,0.6793893129770993,-35.13740458015267,-36.29007633587786
6293125270722,2.724025676,1,4.011484881591796,2.8275521606445313,6.272808349609375,17.137404580152673,-21.68702290076336,-28.16793893129771
6293131937076,2.73069203,1,4.016273284912109,2.770091320800781,6.58884296875,31.99236641221374,-8.679389312977099,-17.893129770992367
6293138604316,2.73735927,1,4.037821099853516,2.6815058593749996,7.076063006591797,42.70992366412214,5.122137404580153,-8.786259541984732
6293145271816,2.74402677,1,4.037821099853516,2.4253262817382812,7.762001782226562,49.213740458015266,14.106870229007633,-1.3358778625954197
6293151937597,2.750692551,1,4.140771771240234,2.4253262817382812,8.482656481933594,51.00763358778626,16.793893129770993,5.809160305343512
6293158604420,2.757359374,1,4.2868180725097655,2.062604730224609,8.482656481933594,55.06870229007634,15.49618320610687,12.122137404580153
6293165270097,2.764025051,1,4.243722442626953,1.648407843017578,9.04649097290039,55.06870229007634,11.198473282442748,14.15267175572519
6293171937649,2.770692603,1,4.369418029785156,1.2952630981445312,9.408015423583985,57.656488549618324,11.198473282442748,13.282442748091603
6293178604368,2.777359322,1,4.598064288330078,1.0761936462402344,9.324218365478515,51.45038167938932,3.2213740458015265,13.282442748091603
6293185270254,2.784025208,1,4.503493322753906,0.7876923461914062,9.160215551757812,39.49618320610687,-6.687022900763359,13.183206106870228
6293191936764,2.790691718,1,3.640383624267578,0.7433996154785156,8.916006982421875,33.93129770992366,-18.236641221374047,8.67175572519084
6293198603847,2.797358801,1,3.9815573608398434,0.7924807495117187,8.913612780761719,21.64885496183206,-14.641221374045802,-0.8396946564885496
6293205269524,2.804024478,1,4.915296008300781,1.2437877624511717,9.114725720214842,22.061068702290076,-5.145038167938932,-13.053435114503817
6293211934576,2.81068953,1,4.601655590820312,1.408987677001953,8.8872765625,28.374045801526716,-20.16793893129771,-9.664122137404581
6293218604368,2.817359322,1,3.958812445068359,1.426944189453125,8.347384088134765,27.770992366412212,-35.56488549618321,-7.534351145038168
6293225270826,2.82402578,1,4.015076184082031,1.37906015625,8.02416686401367,25.0381679389313,-34.17557251908397,-9.48091603053435
6293231936191,2.830691145,1,4.3813890380859375,1.5502455749511719,7.740453967285156,37.10687022900763,-30.786259541984734,-14.549618320610687
6293238604837,2.837359791,1,4.727351177978515,1.552639776611328,7.541735229492187,38.16030534351145,-26.702290076335878,-15.778625954198473
6293245270045,2.844024999,1,4.44363828125,1.6208745239257811,7.042544183349609,28.702290076335878,-38.083969465648856,-16.259541984732824
6293251938379,2.850693333,1,4.426878869628906,1.4975731384277342,6.657077716064452,18.984732824427482,-36.847328244274806,-16.53435114503817
6293258602858,2.857357812,1,4.514267230224609,1.7238251953125,6.405686541748047,29.198473282442748,-26.763358778625953,-21.35114503816794
6293265271087,2.864026041,1,4.637568615722656,1.9476830505371092,6.300341668701171,37.48854961832061,-17.27480916030534,-24.72519083969466
6293271938535,2.870693489,1,4.7189714721679685,2.176329309082031,6.4092778442382805,36.99236641221374,-9.305343511450381,-24.870229007633586
6293278607649,2.877362603,1,4.698620758056641,2.469619012451172,6.418854650878906,35.50381679389313,-5.8396946564885495,-26.19083969465649
6293285271816,2.88402677,1,4.622006304931641,2.431311785888672,6.445190869140625,31.19083969465649,-6.977099236641221,-21.076335877862597
6293291938535,2.890693489,1,4.46877739868164,2.3439234252929686,6.341043096923828,40.56488549618321,-6.068702290076335,-20.564885496183205
6293298604056,2.89735901,1,4.21978042602539,2.6503812377929687,6.318298181152343,40.16793893129771,-1.3511450381679388,-20.564885496183205
6293305271347,2.904026301,1,4.290409374999999,2.6910826660156246,6.471527087402343,39.404580152671755,-2.6564885496183206,-18.366412213740457
6293311938483,2.910693437,1,4.216189123535156,2.6695348510742187,6.573280657958984,33.541984732824424,-3.7557251908396947,-16.793893129770993
6293318604785,2.917359739,1,3.9372646301269527,2.7341782958984373,6.282385156249999,32.61068702290076,-9.618320610687023,-17.404580152671755
6293325272337,2.924027291,1,3.707421270751953,2.7150246826171873,6.028599780273437,24.580152671755727,-12.213740458015268,-15.450381679389313
6293331942545,2.930697499,1,3.4488474914550777,2.712630480957031,5.668272430419922,17.396946564885496,-16.18320610687023,-14.946564885496183
6293338602858,2.937357812,1,3.388992449951172,2.7844565307617186,5.38815083618164,12.595419847328245,-16.427480916030536,-15.236641221374045
6293345273535,2.944028489,1,3.585316986083984,2.9041666137695312,5.106832141113281,9.244274809160306,-14.526717557251908,-16.53435114503817
6293351935774,2.950690728,1,3.6547488342285153,2.999934680175781,4.821922143554687,5.99236641221374,-12.17557251908397,-17.33587786259542
6293358604733,2.957359687,1,3.6739024475097652,3.0909143432617188,4.685452648925781,2.931297709923664,-11.305343511450381,-16.519083969465647
6293365271556,2.96402651,1,3.877409588623047,3.189076611328125,4.520252734375,0.9465648854961832,-9.717557251908397,-15.312977099236642
6293371936920,2.970691874,1,4.145560174560547,3.366247534179687,4.329913702392578,-0.9389312977099237,-6.221374045801527,-15.022900763358779
6293378605462,2.977360416,1,4.2868180725097655,3.399766357421875,4.174290594482422,-6.267175572519084,-4.770992366412214,-12.183206106870228
6293385271139,2.984026093,1,4.204218115234375,3.337517114257812,4.147954376220703,-9.86259541984733,-3.5801526717557253,-8.885496183206106
6293391936660,2.990691614,1,4.027047192382812,3.2225954345703123,4.11802685546875,-9.946564885496183,0.7175572519083969,-5.824427480916031
6293398605306,2.99736026,1,3.8654385803222655,3.0633810241699218,4.4376527770996095,-8.587786259541986,8.755725190839694,-4.625954198473282
6293405271399,3.004026353,1,3.545812658691406,3.0334535034179684,4.857835168457031,-8.374045801526718,16.290076335877863,-3.8702290076335877
6293411937962,3.010692916,1,3.422511273193359,3.0430303100585934,5.2648494506835934,-11.251908396946565,18.213740458015266,-2.732824427480916
6293418603847,3.017358801,1,3.417722869873047,3.0071172851562498,5.668272430419922,-17.267175572519083,19.801526717557252,-2.030534351145038
6293425269160,3.024024114,1,3.3865982482910155,2.759317413330078,6.102820031738281,-20.984732824427482,18.00763358778626,1.1068702290076335
6293431937128,3.030692082,1,3.3865982482910155,3.1124621582031247,6.11598814086914,-18.916030534351144,12.610687022900763,-1.4351145038167938
6293438603951,3.037358905,1,3.347093920898437,3.1124621582031247,6.268019946289062,-36.16793893129771,9.786259541984732,4.351145038167939
6293445268587,3.044023541,1,3.4105402648925778,2.906560815429687,6.268019946289062,-36.14503816793893,6.183206106870229,6.709923664122138
6293451937493,3.050692447,1,3.4680011047363277,2.7162217834472653,6.301538769531249,-36.14503816793893,4.106870229007634,6.312977099236641
6293458604628,3.057359582,1,3.7146038757324216,2.8502970764160156,6.151901165771484,-27.66412213740458,4.106870229007634,9.213740458015268
6293465269108,3.064024062,1,3.7301661865234372,2.7736826232910157,6.177040283203125,-36.99236641221374,4.229007633587786,9.213740458015268
6293471936972,3.070691926,1,3.7397429931640622,2.5617957763671875,6.137535955810547,-45.29770992366412,3.267175572519084,11.229007633587786
6293478604056,3.07735901,1,3.7014357666015623,2.3774422485351563,6.392518432617187,-47.343511450381676,5.412213740458015,10.030534351145038
6293485271295,3.084026249,1,5.17746109008789,2.608482708740234,6.672640026855468,-48.29770992366412,24.885496183206108,1.7938931297709924
6293491937858,3.090692812,1,4.593275885009765,2.3391350219726563,6.119579443359375,-50.725190839694655,6.458015267175573,18.450381679389313
6293498604316,3.09735927,1,4.5322237426757805,2.3726538452148436,5.386953735351562,-48.62595419847328,9.244274809160306,21.12213740458015
6293505271868,3.104026822,1,4.697423657226563,2.1499930908203124,5.687426043701172,-36.17557251908397,45.06106870229008,25.290076335877863
6293511936503,3.110691457,1,4.9069163024902345,1.8650830932617186,6.770802294921874,9.687022900763358,82.74809160305344,24.49618320610687
6293518602285,3.117357239,1,4.535815045166015,2.3523031311035156,8.003816149902343,33.847328244274806,100.78625954198473,17.68702290076336
6293525270566,3.12402552,1,3.9504327392578125,2.3499089294433593,9.447519750976562,-8.82442748091603,109.03053435114504,20.82442748091603
6293531937597,3.130692551,1,3.6272155151367187,2.281674182128906,11.00734213256836,-42.534351145038165,108.44274809160305,17.18320610687023
6293538602910,3.137357864,1,3.563769171142578,2.1583727966308595,12.089521282958984,-40.31297709923664,100.45801526717557,21.52671755725191
6293545271035,3.144025989,1,3.5865140869140624,1.9476830505371092,12.549208001708983,-17.6793893129771,78.5114503816794,29.69465648854962
6293551936660,3.150691614,1,3.4392706848144527,1.3347674255371094,12.482170355224609,-5.625954198473282,52.43511450381679,40.51908396946565
6293558603118,3.157358072,1,3.294421484375,0.7110778930664062,12.027272039794921,-4.969465648854962,28.786259541984734,43.89312977099237
6293565270201,3.164025155,1,3.1411925781249996,0.239420166015625,11.54244620361328,-9.251908396946565,10.687022900763358,39.656488549618324
6293571938170,3.170693124,1,3.0837317382812497,-0.12090718383789062,10.781090075683593,-14.01526717557252,-8.091603053435115,31.221374045801525
6293578603847,3.177358801,1,3.23696064453125,-0.11731588134765625,9.859322436523437,-22.045801526717558,-23.64885496183206,20.236641221374047
6293585271347,3.184026301,1,3.423708374023437,-0.11731588134765625,9.815029705810547,-33.847328244274806,-32.37404580152672,9.274809160305344
6293591938587,3.190693541,1,3.469198205566406,-0.016759411621093748,9.048885174560546,-33.770992366412216,-32.64885496183206,-2.4122137404580153
6293598603847,3.197358801,1,3.6451720275878903,0.26336218261718747,8.493430389404296,-35.725190839694655,-32.267175572519086,-13.251908396946565
6293605270826,3.20402578,1,3.9264907226562498,0.968454571533203,8.028955267333984,-30.297709923664122,-24.450381679389313,-12.13740458015267
6293611936712,3.210691666,1,4.2137949218749995,1.6304513305664061,7.999027746582031,-30.099236641221374,-15.030534351145038,-19.954198473282442
6293618604003,3.217358957,1,4.3634325256347655,2.2254104431152344,8.183381274414062,-31.64885496183206,-9.435114503816793,-20.870229007633586
6293625274003,3.224028957,1,4.461594793701171,2.565387078857422,8.245630517578125,-28.267175572519083,-5.770992366412214,-16.610687022900763
6293631937441,3.230692395,1,4.742913488769531,2.634818927001953,8.504204296874999,-19.53435114503817,-1.900763358778626,-9.900763358778626
6293638605358,3.237360312,1,4.976348150634766,2.4947581298828125,8.742427362060546,-7.66412213740458,1.748091603053435,-0.6793893129770993
6293645271191,3.244026145,1,5.033808990478516,2.2469582580566403,8.905233074951171,5.267175572519084,1.5954198473282444,7.091603053435114
6293651936191,3.250691145,1,4.781220715332031,1.8315642700195311,8.997409838867187,11.595419847328245,-1.5190839694656488,12.793893129770993
6293658607076,3.25736203,1,4.933252520751953,1.3838485595703125,8.482656481933594,3.519083969465649,-13.702290076335878,15.854961832061068
6293665270826,3.26402578,1,5.216965417480468,0.9109937316894531,8.443152154541016,-9.290076335877863,-6.877862595419847,14.305343511450381
6293671936972,3.270691926,1,5.3570262145996095,0.2861070983886719,8.960299713134765,7.351145038167939,5.900763358778626,12.610687022900763
6293678604628,3.277359582,1,5.210979913330078,0.40940848388671874,9.604339959716796,40.969465648854964,13.534351145038167,1.2290076335877862
6293685269733,3.284024687,1,5.528211633300781,0.3938461730957031,10.162188946533202,31.64885496183206,9.17557251908397,-7.786259541984733
6293691937858,3.290692812,1,5.40730444946289,0.36391865234375,10.54047280883789,10.458015267175572,-5.458015267175573,-16.0
6293698603899,3.297358853,1,5.278017559814453,0.49320554199218747,10.366893188476562,10.786259541984732,-25.34351145038168,-23.87786259541985
6293705269993,3.304024947,1,5.521029028320312,1.0043675964355467,9.771934075927733,11.633587786259541,-38.68702290076336,-33.717557251908396
6293711941191,3.310696145,1,5.53539423828125,1.5023615417480467,8.807070806884765,-8.664122137404581,-52.954198473282446,-43.16030534351145
6293718604993,3.317359947,1,5.53539423828125,1.8171990600585937,7.721300354003906,-34.97709923664122,-66.45038167938931,-44.656488549618324
6293725268378,3.324023332,1,5.164292980957031,1.8171990600585937,6.852205151367187,-31.923664122137403,-63.954198473282446,-41.465648854961835
6293731938847,3.330693801,1,4.802768530273437,1.9955670837402342,6.852205151367187,1.7709923664122138,-41.00763358778626,-40.54961832061068
6293738604368,3.337359322,1,4.796783026123046,2.460042205810547,6.236895324707031,1.7709923664122138,-11.557251908396946,-36.05343511450382
6293745269212,3.344024166,1,4.892551092529296,2.8036101440429686,6.1842228881835934,25.99236641221374,-11.557251908396946,-28.0
6293751938014,3.350692968,1,4.862623571777344,2.797624639892578,6.551732843017578,28.412213740458014,9.236641221374045,-28.0
6293758603951,3.357358905,1,4.602852691650391,2.337937921142578,7.267599139404297,32.31297709923664,21.045801526717558,-14.641221374045802
6293765271035,3.364025989,1,4.11802685546875,1.9105729248046874,7.999027746582031,58.93129770992366,33.38167938931298,-4.076335877862595
6293771937493,3.370692447,1,4.050989208984375,1.6304513305664061,8.619125976562499,81.80916030534351,43.213740458015266,1.282442748091603
6293778602597,3.377357551,1,4.089296435546875,1.341950030517578,9.216479290771483,80.67175572519083,41.48091603053435,2.3282442748091605
6293785271035,3.384025989,1,3.9815573608398434,1.0821791503906248,9.508571893310547,66.52671755725191,28.022900763358777,0.007633587786259542
6293791937597,3.390692551,1,3.688267657470703,1.0007762939453124,9.293093743896485,52.6412213740458,9.488549618320612,-5.465648854961832
6293798602649,3.397357603,1,3.496731524658203,1.0211270080566406,8.749609967041016,40.030534351145036,-7.67175572519084,-10.870229007633588
6293805271139,3.404026093,1,3.469198205566406,1.1815385192871093,8.087613208007811,32.05343511450382,-18.595419847328245,-18.31297709923664
6293811938482,3.410693436,1,3.248931652832031,1.514332550048828,7.445967163085937,27.870229007633586,-26.893129770992367,-24.625954198473284
6293818603118,3.417358072,1,3.1280244689941403,1.7274164978027342,6.830657336425781,23.938931297709924,-31.893129770992367,-27.96946564885496
6293825271816,3.42402677,1,2.9281086303710935,2.005143890380859,6.386532928466797,21.66412213740458,-30.885496183206108,-32.13740458015267
6293831936868,3.430691822,1,2.919728924560547,2.469619012451172,6.143521459960938,22.251908396946565,-25.328244274809162,-36.31297709923664
6293838603274,3.437358228,1,2.882618798828125,2.7940333374023436,5.968744738769531,21.572519083969464,-21.282442748091604,-37.05343511450382
6293845270930,3.444025884,1,2.797624639892578,3.0238766967773434,6.0154316711425775,19.587786259541986,-16.099236641221374,-35.30534351145038
6293851937493,3.450692447,1,3.0538042175292968,3.0801404357910154,6.1267620483398435,25.374045801526716,-9.801526717557252,-32.74809160305343
6293858605826,3.45736078,1,2.9508535461425778,2.977189764404297,6.277596752929687,33.717557251908396,-5.198473282442748,-27.66412213740458
6293865270618,3.464025572,1,3.104082452392578,2.987963671875,6.367379315185547,36.465648854961835,-5.580152671755725,-26.328244274809162
6293871934993,3.470689947,1,3.258508459472656,3.1411925781249996,6.415263348388671,23.251908396946565,-9.366412213740459,-23.625954198473284
6293878603951,3.477358905,1,3.086125939941406,3.1579519897460937,6.415263348388671,23.3206106870229,-15.419847328244275,-23.389312977099237
6293885270722,3.484025676,1,2.958036151123047,3.1866824096679687,6.275202551269531,9.641221374045802,-15.114503816793894,-22.442748091603054
6293891935982,3.490690936,1,2.9185318237304685,3.228580938720703,6.129156249999999,3.7938931297709924,-17.068702290076335,-22.442748091603054
6293898604107,3.497359061,1,2.8706477905273435,3.286041778564453,5.987898352050781,2.2595419847328246,-15.755725190839694,-22.129770992366414
6293905270253,3.504025207,1,2.93050283203125,3.2884359802246093,6.011840368652344,1.4274809160305344,-13.679389312977099,-18.6793893129771
6293911935462,3.510690416,1,3.015496990966797,3.611653204345703,5.804741925048828,-0.015267175572519083,-14.954198473282442,-18.938931297709924
6293918602076,3.51735703,1,3.0609868225097654,3.4811692138671875,5.704185455322265,-8.977099236641221,-18.16030534351145,-13.80916030534351
6293925270930,3.524025884,1,3.0262708984374997,3.362656231689453,5.6012347839355465,-5.66412213740458,-16.015267175572518,-8.19083969465649
6293931937649,3.530692603,1,3.076549133300781,3.380612744140625,5.5090580200195305,5.206106870229007,-10.061068702290076,-5.00763358778626
6293938603587,3.537358541,1,3.414131567382812,3.3506852233886715,5.513846423339843,5.213740458015267,-3.549618320610687,-1.1145038167938932
6293945270878,3.544025832,1,3.356670727539062,3.142389678955078,5.6012347839355465,1.6793893129770991,-1.2442748091603053,2.633587786259542
6293951937076,3.55069203,1,3.2836475769042965,3.0633810241699218,5.6766521362304685,0.19083969465648856,0.0916030534351145,5.687022900763359
6293958606920,3.557361874,1,3.057395520019531,2.895786907958984,5.6958057495117185,-4.236641221374046,0.648854961832061,8.198473282442748
6293965270201,3.564025155,1,3.029862200927734,2.6874913635253903,5.820304235839844,-6.2748091603053435,7.961832061068702,10.038167938931299
6293971937701,3.570692655,1,3.132812872314453,2.6683377502441403,6.093243225097656,2.351145038167939,13.366412213740459,10.641221374045802
6293978607180,3.577362134,1,3.068169427490234,2.4660277099609376,6.489483599853515,7.694656488549619,17.65648854961832,15.083969465648854
6293985271087,3.584026041,1,3.056198419189453,2.2840683837890623,6.732495068359374,12.748091603053435,16.69465648854962,16.450381679389313
6293991947597,3.590702551,1,2.8048072448730466,2.1823148132324217,6.9168485961914055,12.381679389312977,16.66412213740458,17.083969465648856
6293999245357,3.598000311,1,2.887407202148437,2.104503259277344,7.2903440551757805,0.46564885496183206,15.221374045801527,9.709923664122137
6294006559107,3.605314061,1,2.881421697998047,2.404975567626953,7.395688928222656,-18.748091603053435,9.221374045801527,2.198473282442748
6294014029107,3.612784061,1,2.6228479187011717,2.2744915771484373,7.5525091369628905,-40.587786259541986,0.8244274809160306,1.0076335877862594
6294021358170,3.620113124,1,2.73896669921875,2.29843359375,7.408857037353515,-40.14503816793893,-6.083969465648855,-0.7786259541984732
6294028698899,3.627453853,1,2.6994623718261717,2.2385785522460937,7.824251025390624,-26.198473282442748,0.4198473282442748,0.5877862595419847
6294036059159,3.634814113,1,3.0035259826660154,2.6013001037597654,7.921216192626953,-14.389312977099237,0.03816793893129771,-3.7480916030534353
6294043344524,3.642099478,1,3.4057518615722655,2.4851813232421875,8.300697155761718,-23.61832061068702,-3.1755725190839694,-1.0305343511450382
6294050771139,3.649526093,1,3.5913024902343746,2.6144682128906247,8.40125362548828,-30.366412213740457,-12.465648854961833,-5.221374045801527
6294058110514,3.656865468,1,3.9169139160156248,2.6611551452636717,8.481459381103516,-41.52671755725191,-20.51145038167939,-5.534351145038168
6294065436451,3.664191405,1,4.661510632324219,2.817975354003906,8.267178332519531,-45.74809160305343,-26.328244274809162,-8.274809160305344
6294072748274,3.671503228,1,5.228936425781249,2.9604303527832028,7.960720520019531,-45.93893129770992,-32.465648854961835,-7.358778625954199
6294080055462,3.678810416,1,5.164292980957031,3.0645781249999997,7.381323718261719,-46.099236641221374,-42.61832061068702,-2.877862595419847
6294087323534,3.686078488,1,5.213374114990234,2.844311572265625,6.985083343505859,-49.465648854961835,-42.62595419847328,0.8091603053435115
6294094678014,3.693432968,1,5.297171173095703,2.931699932861328,6.661866119384765,-45.61832061068702,-33.68702290076336,-2.9923664122137406
6294101998587,3.700753541,1,5.586869573974609,2.9927520751953125,6.766013891601562,-41.282442748091604,-11.80916030534351,-5.305343511450381
6294109385566,3.70814052,1,5.687426043701172,2.958036151123047,7.078457208251953,-45.00763358778626,-10.992366412213741,-1.0763358778625953
6294116713534,3.715468488,1,5.380968231201171,2.7629087158203123,7.62912359008789,-37.11450381679389,-9.82442748091603,4.900763358778626
6294124054003,3.722808957,1,5.21576831665039,2.607285607910156,7.723694555664062,-24.068702290076335,-4.061068702290076,4.816793893129771
6294131347284,3.730102238,1,5.2816088623046875,2.3056161987304686,7.643488800048828,-25.137404580152673,-6.938931297709924,11.488549618320612
6294138708743,3.737463697,1,5.155913275146484,2.088940948486328,7.310694769287109,-22.709923664122137,-13.488549618320612,13.954198473282442
6294145872389,3.744627343,1,4.950011932373046,2.019509100341797,6.955155822753905,-23.213740458015266,-13.229007633587786,13.541984732824428
6294153221972,3.751976926,1,4.770446807861328,1.8351555725097655,6.697779144287109,-29.916030534351144,-14.793893129770993,12.13740458015267
6294160535461,3.759290415,1,4.791994622802734,1.9141642272949217,6.457161877441406,-34.74045801526717,-10.145038167938932,7.977099236641221
6294167821399,3.766576353,1,4.815936639404296,2.0075380920410155,6.564900952148437,-36.00763358778626,-1.5572519083969465,4.541984732824427
6294175108170,3.773863124,1,4.860229370117187,2.2469582580566403,6.792350109863281,-35.87786259541985,5.854961832061068,1.6564885496183206
6294182458586,3.78121354,1,4.990713360595703,2.2840683837890623,7.1407064514160155,-39.45038167938932,11.511450381679388,3.7022900763358777
6294189746295,3.788501249,1,5.007472772216796,2.1787235107421874,7.564480145263672,-32.93893129770992,17.671755725190838,6.190839694656488
6294197162336,3.79591729,1,5.06253941040039,2.0350714111328125,7.8541785461425775,-25.374045801526716,20.358778625954198,11.244274809160306
6294204479576,3.80323453,1,4.92247861328125,1.7082628845214842,8.305485559082031,-20.419847328244273,23.114503816793892,16.633587786259543
6294211734316,3.81048927,1,4.766855505371093,1.438915197753906,8.487444885253906,-14.732824427480915,21.16030534351145,19.580152671755727
6294219080826,3.81783578,1,4.575319372558593,1.0594342346191405,8.725667950439453,-14.083969465648854,22.717557251908396,21.137404580152673
6294226416191,3.825171145,1,4.531026641845703,1.0187328063964842,8.853757739257812,-7.9541984732824424,22.206106870229007,18.6793893129771
6294233697232,3.832452186,1,4.710591766357422,1.0510545288085937,9.223661895751952,-5.351145038167939,24.458015267175572,13.01526717557252
6294241069159,3.839824113,1,5.127182855224609,1.1133037719726562,9.423577734375,-9.358778625954198,21.27480916030534,8.83206106870229
6294248389264,3.847144218,1,5.6383449096679685,1.149216796875,9.411606726074218,-14.030534351145038,13.67175572519084,6.183206106870229
6294255689732,3.854444686,1,5.510255120849609,1.1767501159667968,9.227253198242186,-14.679389312977099,-4.603053435114504,7.778625954198473
6294263017857,3.861772811,1,5.3953334411621094,1.180341418457031,8.670601312255858,-14.297709923664122,-2.5267175572519083,5.748091603053435
6294270345045,3.869099999,1,5.530605834960937,1.2174515441894531,7.829039428710937,-19.709923664122137,5.885496183206107,4.938931297709924
6294277643899,3.876398853,1,5.596446380615234,1.3215993164062498,8.443152154541016,-12.595419847328245,27.587786259541986,3.0
6294284893066,3.88364802,1,5.518634826660156,0.4225765930175781,9.580397943115234,36.49618320610687,43.969465648854964,4.5038167938931295
6294292159003,3.890913957,1,4.693832354736328,0.6763619689941406,10.350133776855468,67.87022900763358,50.66412213740458,-1.4122137404580153
6294299453482,3.898208436,1,5.432443566894531,0.7948749511718749,10.675745202636719,44.37404580152672,39.47328244274809,-4.427480916030534
6294306746034,3.905500988,1,5.183446594238281,1.0091559997558592,10.392032305908202,16.900763358778626,10.641221374045802,-10.86259541984733
6294314030774,3.912785728,1,5.260061047363281,1.438915197753906,9.797073193359374,0.5419847328244275,-3.8625954198473282,-16.65648854961832
6294321328222,3.920083176,1,4.991910461425781,1.7621324218749999,9.289502441406249,-1.381679389312977,-12.106870229007633,-18.267175572519083
6294328653691,3.927408645,1,4.9823336547851556,2.1679496032714844,8.91840118408203,6.4961832061068705,-10.221374045801527,-20.137404580152673
6294335921034,3.934675988,1,5.413289953613281,2.243366955566406,8.474276776123046,18.954198473282442,-5.862595419847328,-13.564885496183207
6294343270045,3.942024999,1,5.372588525390625,2.560598675537109,8.14028564453125,44.2442748091603,0.4351145038167939,-7.267175572519084
6294350533482,3.949288436,1,5.461173986816406,2.5617957763671875,8.292317449951172,51.16793893129771,15.007633587786259,-4.3816793893129775
6294357833899,3.956588853,1,5.293579870605469,2.281674182128906,8.429984045410155,44.847328244274806,16.114503816793892,-1.4045801526717556
6294365087597,3.963842551,1,4.902127899169922,1.7956512451171873,8.734047656249999,40.70992366412214,15.32824427480916,1.549618320610687
6294372409836,3.97116479,1,4.746504791259765,1.495178936767578,9.0021982421875,48.45038167938932,16.412213740458014,1.3740458015267176
6294379703795,3.978458749,1,4.552574456787109,1.5418658691406248,9.099163409423827,56.44274809160305,14.992366412213741,-0.8091603053435115
6294387069784,3.985824738,1,4.279635467529297,1.4425065002441406,9.10395181274414,50.458015267175576,7.099236641221374,-2.5877862595419847
6294394397284,3.993152238,1,3.877409588623047,1.2605471740722656,8.780734588623046,39.961832061068705,-6.32824427480916,-5.190839694656488
6294401712441,4.000467395,1,3.3638533325195312,1.199495031738281,8.497021691894531,37.587786259541986,-16.435114503816795,-9.49618320610687
6294409002909,4.007757863,1,3.1124621582031247,1.4233528869628906,8.002619049072266,35.66412213740458,-20.9618320610687,-13.86259541984733
6294416320618,4.015075572,1,3.019088293457031,1.6795324645996093,7.728482958984374,30.19083969465649,-24.366412213740457,-23.9618320610687
6294423588378,4.022343332,1,2.8191724548339843,1.915361328125,7.37414111328125,25.763358778625953,-33.396946564885496,-23.519083969465647
6294430877649,4.029632603,1,2.5761609863281247,2.117671368408203,7.0102224609374995,31.519083969465647,-38.89312977099237,-21.51145038167939
6294438308482,4.037063436,1,2.242169854736328,2.288856787109375,6.166266375732421,32.50381679389313,-35.41984732824427,-20.633587786259543
6294445657128,4.044412082,1,1.9967641845703124,2.5139117431640625,5.971138940429687,33.87022900763359,-31.221374045801525,-21.82442748091603
6294452961816,4.05171677,1,2.2266075439453124,2.558204473876953,5.819107135009765,31.52671755725191,-32.01526717557252,-19.137404580152673
6294460313534,4.059068488,1,2.221819140625,2.357091534423828,5.5653217590332025,30.229007633587788,-37.16793893129771,-15.511450381679388
6294467660253,4.066415207,1,2.2661118713378903,1.974019268798828,5.310339282226562,34.458015267175576,-38.83206106870229,-11.145038167938932
6294474974993,4.073729947,1,2.597708801269531,2.3331495178222657,4.994304663085937,42.56488549618321,-33.58015267175573,-18.641221374045802
6294482303534,4.081058488,1,2.958036151123047,2.43250888671875,4.745307690429687,22.770992366412212,-35.916030534351144,-21.770992366412212
6294489549472,4.088304426,1,3.0418332092285154,2.748543505859375,4.159925384521484,-0.9312977099236641,-45.81679389312977,-27.53435114503817
6294496945513,4.095700467,1,3.0430303100585934,2.906560815429687,3.708618371582031,-19.81679389312977,-47.7557251908397,-27.740458015267176
6294504235930,4.102990884,1,3.027467999267578,3.3327287109375,3.3865982482910155,-19.610687022900763,-38.10687022900763,-30.129770992366414
6294511533430,4.110288384,1,2.9939491760253905,3.7768531188964842,3.4296938781738278,-15.419847328244275,-26.17557251908397,-28.442748091603054
6294518926816,4.11768177,1,3.2225954345703123,4.116829754638672,3.5410242553710933,-17.923664122137403,-12.473282442748092,-23.717557251908396
6294526357388,4.125112342,1,3.336320013427734,4.295197778320312,3.8486791687011714,-13.893129770992367,-2.198473282442748,-16.16793893129771
6294533727180,4.132482134,1,3.084928839111328,3.987542864990234,4.302380383300781,-3.267175572519084,5.083969465648855,-1.7404580152671756
6294540994888,4.139749842,1,3.353079425048828,3.9564182434082027,4.7393221862792965,16.022900763358777,16.641221374045802,4.183206106870229
6294548293326,4.14704828,1,3.7385458923339843,3.687070556640625,5.392939239501953,11.801526717557252,27.923664122137403,8.366412213740459
6294555571607,4.154326561,1,3.9636008483886718,3.4632127014160154,5.902904193115234,-0.8396946564885496,23.870229007633586,13.83206106870229
6294562908899,4.161663853,1,4.015076184082031,3.1352070739746094,6.203376501464843,-5.748091603053435,19.30534351145038,20.38167938931298
6294570222961,4.168977915,1,3.821145849609375,2.9735984619140625,6.337451794433593,-6.290076335877862,12.389312977099237,20.541984732824428
6294577566711,4.176321665,1,3.8043864379882812,2.70065947265625,6.534973431396484,-13.870229007633588,15.877862595419847,20.290076335877863
6294584864159,4.183619113,1,4.273649963378906,2.3415292236328122,6.880935571289062,-7.091603053435114,14.229007633587786,13.770992366412214
6294592121868,4.190876822,1,4.2149920227050774,2.4516625,7.419630944824219,-23.671755725190838,14.053435114503817,8.32824427480916
6294599508274,4.198263228,1,4.384980340576171,2.5067291381835934,7.644685900878906,-45.62595419847328,8.297709923664122,5.312977099236641
6294606834576,4.20558953,1,4.587290380859375,2.47081611328125,7.659051110839843,-48.152671755725194,-4.0,4.801526717557252
6294614088065,4.212843019,1,4.398148449707031,2.4444798950195312,7.669825018310546,-48.31297709923664,-10.007633587786259,4.7251908396946565
6294621342857,4.220097811,1,4.486733911132812,2.6479870361328124,7.924807495117187,-50.725190839694655,-4.541984732824427,-1.702290076335878
6294628650045,4.227404999,1,4.878185882568359,2.8993782104492185,8.292317449951172,-55.94656488549618,-3.6106870229007635,-5.9541984732824424
6294635953951,4.234708905,1,5.2073886108398435,2.952050646972656,8.277952239990235,-61.595419847328245,-14.51908396946565,-3.0076335877862594
6294643305618,4.242060572,1,4.921281512451172,2.7329811950683593,8.285134844970703,-59.74809160305343,-22.259541984732824,4.603053435114504
6294650634888,4.249389842,1,4.619612103271484,2.5163059448242184,8.208520391845703,-44.0,-28.519083969465647,9.335877862595419
6294657904263,4.256659217,1,4.620809204101562,2.1811177124023438,8.245630517578125,-35.45038167938932,-24.66412213740458,13.282442748091603
6294665245565,4.264000519,1,4.650736724853515,1.945288848876953,8.47786807861328,-27.870229007633586,-23.786259541984734,14.67175572519084
6294672499368,4.271254322,1,4.809951135253906,1.5693991882324219,8.547299926757812,-23.17557251908397,-26.610687022900763,18.610687022900763
6294679824524,4.278579478,1,4.952406134033203,1.6424223388671875,8.137891442871092,-12.877862595419847,-32.916030534351144,15.572519083969466
6294687151347,4.285906301,1,4.7931917236328125,1.303642803955078,7.931990100097655,-34.6412213740458,-40.44274809160305,15.374045801526718
6294694516399,4.293271353,1,4.454412188720703,1.0079588989257813,7.70573804321289,-56.16030534351145,-49.6793893129771,10.251908396946565
6294701825253,4.300580207,1,4.589684582519531,0.9121908325195311,7.650671405029296,-59.786259541984734,-46.94656488549618,2.282442748091603
6294709127076,4.30788203,1,4.920084411621094,1.0043675964355467,7.618349682617187,-47.6412213740458,-39.86259541984733,-4.8320610687022905
6294716471399,4.315226353,1,4.972756848144531,1.3060370056152344,7.645883001708984,-39.916030534351144,-43.282442748091604,-9.381679389312977
6294723777857,4.322532811,1,5.040991595458984,1.254561669921875,7.660248211669922,-52.89312977099237,-46.93129770992366,-15.86259541984733
6294731105565,4.329860519,1,5.216965417480468,1.3874398620605468,7.247248425292969,-55.83969465648855,-55.25190839694657,-18.557251908396946
6294738422284,4.337177238,1,5.6407391113281244,1.5885528015136718,6.833051538085937,-54.31297709923664,-53.42748091603053,-21.671755725190838
6294745643326,4.34439828,1,6.046556292724609,1.9668366638183592,6.5206082214355465,-61.99236641221374,-56.152671755725194,-20.984732824427482
6294752947180,4.351702134,1,6.223727215576171,2.2876596862792966,5.538985540771484,-72.1145038167939,-50.656488549618324,-23.374045801526716
6294760276607,4.359031561,1,6.648698010253906,2.929305731201172,5.318718988037109,-75.06106870229007,-37.732824427480914,-19.6793893129771
6294767559107,4.366314061,1,6.836642840576172,3.0358477050781247,5.250484240722656,-64.66412213740458,-23.297709923664122,-10.351145038167939
6294774891607,4.373646561,1,6.265625744628906,2.901772412109375,5.521029028320312,-44.229007633587784,-1.0763358778625953,1.1221374045801527
6294782277753,4.381032707,1,5.929240411376953,2.5055320373535155,6.461950280761719,-24.091603053435115,29.18320610687023,12.732824427480915
6294789615305,4.388370259,1,5.6383449096679685,1.9512743530273435,7.8350249328613275,2.6717557251908395,53.83969465648855,24.0
6294796881399,4.395636353,1,5.467159490966797,1.2581529724121092,9.057264880371093,27.33587786259542,66.9618320610687,36.12977099236641
6294804129576,4.40288453,1,5.547365246582031,0.41898529052734373,10.290278735351562,45.16793893129771,75.03053435114504,42.80152671755725
6294811363430,4.410118384,1,6.009446166992187,0.10773907470703124,11.061211669921875,55.213740458015266,74.49618320610686,40.152671755725194
6294818697232,4.417452186,1,5.80953032836914,-0.42975919799804685,11.447875238037108,38.45038167938932,50.412213740458014,39.954198473282446
6294826019263,4.424774217,1,5.662286926269531,-0.7769184387207031,11.139023223876952,9.679389312977099,19.900763358778626,32.656488549618324
6294833308951,4.432063905,1,5.749675286865234,-0.9181763366699218,10.426748229980468,-11.51908396946565,0.732824427480916,21.34351145038168
6294840594680,4.439349634,1,5.9579708312988275,-0.6871358764648438,9.503783489990234,-20.12213740458015,-13.076335877862595,8.50381679389313
6294847871451,4.446626405,1,5.868188269042968,-0.7242460021972655,8.754398370361328,-16.412213740458014,-13.312977099236642,6.511450381679389
6294855244003,4.453998957,1,6.036979486083984,-0.15442600708007811,8.028955267333984,14.702290076335878,-12.98473282442748,-4.221374045801527
6294862538951,4.461293905,1,6.151901165771484,0.3268085266113281,8.412027532958984,22.083969465648856,12.82442748091603,-16.290076335877863
6294869844263,4.468599217,1,6.130353350830077,0.9277531433105468,8.675389715576172,18.748091603053435,13.19083969465649,-19.763358778625953
6294877129576,4.47588453,1,6.025008477783203,1.216254443359375,8.604760766601562,15.80916030534351,6.1603053435114505,-18.603053435114504
6294884410305,4.483165259,1,6.189011291503906,1.6555904479980468,8.336610180664062,18.396946564885496,5.809160305343512,-18.374045801526716
6294891776972,4.490531926,1,6.234501123046875,1.7872715393066405,8.300697155761718,20.96946564885496,4.7251908396946565,-6.824427480916031
6294899173170,4.497928124,1,6.3973068359375,1.7717092285156248,8.036137872314452,32.23664122137404,9.687022900763358,2.282442748091603
6294906476920,4.505231874,1,6.234501123046875,1.5849614990234373,7.720103253173828,64.09160305343511,15.122137404580153,8.114503816793894
6294913826711,4.512581665,1,6.062118603515625,1.3838485595703125,7.491456994628906,70.22137404580153,21.297709923664122,9.32824427480916
6294921161972,4.519916926,1,5.9208607055664055,0.8894459167480468,7.587225061035156,73.2442748091603,27.045801526717558,9.740458015267176
6294928495097,4.527250051,1,5.34984360961914,1.246181964111328,7.8170684204101555,72.42748091603053,25.6793893129771,-1.1984732824427482
6294935837597,4.534592551,1,5.831078143310546,1.236605157470703,8.458714465332031,40.70229007633588,38.61832061068702,-12.748091603053435
6294943215617,4.541970571,1,5.805939025878906,1.5059528442382812,8.67658681640625,20.96946564885496,27.87786259541985,-18.137404580152673
6294950543847,4.549298801,1,4.952406134033203,1.5298948608398437,8.422801440429687,20.870229007633586,10.793893129770993,-15.129770992366412
6294957859680,4.556614634,1,4.398148449707031,1.5011644409179687,8.251616021728514,32.954198473282446,7.7251908396946565,-15.80916030534351
6294965111867,4.563866821,1,4.304774584960938,1.7884686401367187,8.243236315917969,44.55725190839695,12.450381679389313,-22.33587786259542
6294972407649,4.571162603,1,4.3801919372558595,2.085349645996094,8.176198669433592,41.49618320610687,8.83206106870229,-26.938931297709924
6294979705201,4.578460155,1,4.055777612304687,2.404975567626953,7.791929302978515,27.732824427480917,-5.633587786259542,-29.19083969465649
6294987003065,4.585758019,1,3.5901053894042967,2.4564509033203126,7.274781744384765,16.900763358778626,-18.442748091603054,-28.297709923664122
6294994324524,4.593079478,1,3.248931652832031,2.607285607910156,6.665457421875,21.17557251908397,-25.946564885496183,-27.374045801526716
6295001721034,4.600475988,1,2.896984008789062,2.6779145568847653,6.044162091064453,29.480916030534353,-27.374045801526716,-25.03053435114504
6295009068847,4.607823801,1,2.644395733642578,2.7365724975585937,5.718550665283203,33.88549618320611,-29.801526717557252,-21.419847328244273
6295016384940,4.615139894,1,2.5354595581054684,2.7856536315917966,5.266046551513671,36.93129770992366,-27.931297709923665,-18.564885496183205
6295023681086,4.62243604,1,2.4875755249023435,2.778471026611328,4.8506525634765625,38.14503816793893,-29.31297709923664,-13.916030534351146
6295031008274,4.629763228,1,2.518700146484375,2.8119898498535156,4.655525128173828,38.36641221374046,-24.374045801526716,-11.870229007633588
6295038306451,4.637061405,1,2.6515783386230467,2.7521348083496093,4.319139794921875,36.10687022900763,-22.84732824427481,-7.900763358778626
6295045629315,4.644384269,1,2.5713725830078125,2.6420015319824217,4.163516687011718,33.030534351145036,-17.885496183206108,-3.2595419847328246
6295052964211,4.651719165,1,2.4444798950195312,2.5043349365234375,4.209006518554688,30.610687022900763,-7.206106870229007,-0.7938931297709924
6295060270044,4.659024998,1,3.277662072753906,2.2744915771484373,4.165910888671875,35.778625954198475,9.022900763358779,-10.816793893129772
6295067496451,4.666251405,1,4.158728283691406,2.786850732421875,4.302380383300781,12.053435114503817,0.7938931297709924,-6.137404580152672
6295074785826,4.67354078,1,4.116829754638672,2.8012159423828122,4.220977526855468,-6.198473282442748,-10.946564885496183,1.0229007633587786
6295082081242,4.680836196,1,3.5003228271484375,2.598905902099609,4.285620971679688,1.9694656488549618,0.549618320610687,1.1603053435114503
6295089374315,4.688129269,1,3.488351818847656,2.893392706298828,4.590881683349609,18.633587786259543,14.969465648854962,-1.816793893129771
6295096752544,4.695507498,1,3.718195178222656,3.077746234130859,4.915296008300781,10.351145038167939,17.328244274809162,-2.030534351145038
6295104058847,4.702813801,1,3.611653204345703,3.161543292236328,5.067327813720703,-10.702290076335878,11.938931297709924,-0.8396946564885496
6295111368378,4.710123332,1,3.5122938354492184,3.132812872314453,5.088875628662109,-20.450381679389313,8.274809160305344,1.9236641221374047
6295118703222,4.717458176,1,3.2620997619628906,3.436876483154297,5.360617517089843,-6.396946564885496,15.183206106870228,2.6793893129770994
6295126026711,4.724781665,1,3.4572271972656248,4.016273284912109,5.799953521728515,-7.564885496183206,24.587786259541986,-5.099236641221374
6295133266607,4.732021561,1,3.83072265625,4.049792108154296,6.410474945068359,-44.12213740458015,25.557251908396946,-4.66412213740458
6295140529419,4.739284373,1,4.109647149658203,4.033032696533203,6.707355950927734,-59.35114503816794,14.572519083969466,0.022900763358778626
6295147860669,4.746615623,1,4.237736938476562,3.749319799804687,6.773196496582031,-45.85496183206107,8.213740458015268,13.511450381679388
6295155195201,4.753950155,1,4.492719415283203,3.4931402221679684,6.603208178710937,-25.427480916030536,4.809160305343512,23.03053435114504
6295162478847,4.761233801,1,4.7560815979003905,3.015496990966797,6.459556079101562,-28.6793893129771,2.5114503816793894,29.740458015267176
6295169737544,4.768492498,1,4.891353991699218,2.3451205261230466,6.58884296875,-38.83969465648855,0.8015267175572519,32.67175572519084
6295177074732,4.775829686,1,4.977545251464844,1.8423381774902343,6.548141540527343,-37.86259541984733,-0.03816793893129771,32.954198473282446
6295184406867,4.783161821,1,4.487931011962891,1.35990654296875,6.673837127685546,-32.13740458015267,1.8854961832061068,33.42748091603053
6295191691294,4.790446248,1,4.522646936035156,1.0366893188476562,6.752845782470703,-27.66412213740458,0.8625954198473282,29.198473282442748
6295199064576,4.79781953,1,4.509478826904297,0.9169792358398436,7.031770275878906,-27.450381679389313,8.969465648854962,20.0381679389313
6295206379784,4.805134738,1,4.641159918212891,1.3479355346679687,7.199364392089843,-43.732824427480914,4.450381679389313,-1.984732824427481
6295213707336,4.81246229,1,4.602852691650391,1.3120225097656248,7.230489013671875,-86.06870229007633,-12.755725190839694,-11.969465648854962
6295221044419,4.819799373,1,4.50109912109375,1.7226280944824217,7.200561492919921,-101.00763358778626,-4.236641221374046,-16.229007633587788
6295228299524,4.827054478,1,5.092466931152344,2.1835119140624997,7.456741070556641,-95.80916030534351,6.572519083969466,-15.717557251908397
6295235663586,4.83441854,1,5.536591339111328,2.905363714599609,7.921216192626953,-92.43511450381679,2.198473282442748,-5.267175572519084
6295242981242,4.841736196,1,5.756857891845703,3.039439007568359,8.09479581298828,-90.30534351145039,8.83206106870229,4.1603053435114505
6295250272805,4.849027759,1,6.835445739746094,2.6563667419433594,8.524555010986328,-73.43511450381679,18.198473282442748,19.015267175572518
6295257629159,4.856384113,1,6.6702458251953125,2.176329309082031,8.608352069091797,-47.88549618320611,15.290076335877863,34.038167938931295
6295264976971,4.863731925,1,6.673837127685546,1.5227122558593749,8.476670977783202,-40.045801526717554,14.694656488549619,44.29770992366412
6295272292961,4.871047915,1,6.864176159667968,1.0043675964355467,8.312668164062499,-40.908396946564885,17.977099236641223,46.54961832061068
6295279608482,4.878363436,1,6.864176159667968,0.6691793640136718,8.177395770263672,-42.18320610687023,20.549618320610687,43.80152671755725
6295286928430,4.885683384,1,6.356605407714843,0.34117373657226563,8.061276989746093,-46.54961832061068,19.557251908396946,40.37404580152672
6295294293482,4.893048436,1,5.724536169433593,0.04668693237304687,8.155847955322265,-46.229007633587784,21.47328244274809,35.44274809160305
6295301639055,4.900394009,1,5.333084197998047,-0.025139117431640625,8.537723120117187,-36.48854961832061,28.396946564885496,27.374045801526716
6295308969836,4.90772479,1,5.0960582336425775,-0.04668693237304687,8.945934503173827,-27.106870229007633,33.19083969465649,20.938931297709924
6295316343065,4.915098019,1,4.660313531494141,0.013168109130859374,9.21887349243164,-20.954198473282442,28.625954198473284,17.786259541984734
6295323670617,4.922425571,1,4.302380383300781,-0.03232172241210937,9.299079248046874,-21.0381679389313,19.801526717557252,14.473282442748092
6295330998169,4.929753123,1,4.12401235961914,0.013168109130859374,9.222464794921875,-21.885496183206108,10.80916030534351,10.297709923664122
6295338341399,4.937096353,1,4.059368914794922,0.0383072265625,8.963891015625,-23.740458015267176,-0.5801526717557252,6.183206106870229
6295345608742,4.944363696,1,4.016273284912109,0.08738836059570312,8.40125362548828,-29.12213740458015,-12.954198473282442,4.305343511450381
6295352872492,4.951627446,1,4.545391851806641,0.39983167724609375,7.898471276855468,-27.870229007633586,-12.427480916030534,2.015267175572519
6295360215878,4.958970832,1,4.764461303710937,0.6368576416015624,7.447164263916015,-24.9618320610687,-11.961832061068701,3.954198473282443
6295367566034,4.966320988,1,4.811148236083984,0.6081272216796875,7.283161450195312,-26.96946564885496,-2.5114503816793894,6.5038167938931295
6295374913117,4.973668071,1,4.754884497070313,0.5267243652343749,7.168239770507812,-8.099236641221374,8.305343511450381,7.625954198473282
6295382215565,4.980970519,1,5.097255334472656,0.5722141967773438,7.6087728759765625,-4.656488549618321,19.34351145038168,8.320610687022901
6295389526346,4.9882813,1,5.538985540771484,0.32082302246093747,8.103175518798828,-2.49618320610687,24.47328244274809,11.679389312977099
6295396876659,4.995631613,1,5.431246466064453,0.18315642700195311,8.497021691894531,2.801526717557252,23.641221374045802,14.961832061068701
6295404232701,5.002987655,1,5.123591552734375,0.17118541870117188,8.795099798583983,3.717557251908397,25.34351145038168,12.358778625954198
6295411549888,5.010304842,1,5.274426257324219,0.023942016601562498,9.173383660888671,-2.9389312977099236,25.770992366412212,10.290076335877863
6295419607128,5.018362082,1,5.394136340332031,-0.010773907470703125,9.44871685180664,0.5038167938931297,22.099236641221374,9.923664122137405
6295426955565,5.025710519,1,5.3761798278808595,0.1388636962890625,9.090783703613281,11.916030534351146,15.67175572519084,9.366412213740459
6295434335982,5.033090936,1,5.493495709228515,0.1304839904785156,8.717288244628906,4.343511450381679,6.00763358778626,8.694656488549619
6295441644211,5.040399165,1,5.629965203857422,0.26336218261718747,8.128314636230469,-12.274809160305344,-0.45038167938931295,7.343511450381679
6295448884836,5.04763979,1,6.186617089843749,0.2561795776367187,7.592013464355468,-16.38167938931298,2.0076335877862594,6.847328244274809
6295456230930,5.054985884,1,6.151901165771484,-0.2885013000488281,8.062474090576172,6.351145038167939,20.778625954198475,9.19083969465649
6295463513638,5.062268592,1,5.606023187255859,-0.06823474731445311,8.177395770263672,48.038167938931295,23.68702290076336,2.4656488549618323
6295470860044,5.069614998,1,5.742492681884765,-0.19991583862304688,8.674192614746094,37.465648854961835,31.580152671755727,-2.2977099236641223
6295478224471,5.076979425,1,5.764040496826172,-0.0909796630859375,9.100360510253905,17.954198473282442,28.96946564885496,-10.98473282442748
6295485544940,5.084299894,1,5.735310076904296,0.2657563842773437,9.112331518554686,13.389312977099237,17.84732824427481,-15.595419847328245
6295492900201,5.091655155,1,5.412092852783203,0.42497079467773435,8.949525805664061,10.458015267175572,12.50381679389313,-19.076335877862597
6295500274263,5.099029217,1,5.073313317871094,0.5374982727050781,8.819041815185546,8.893129770992367,11.19083969465649,-21.47328244274809
6295507595044,5.106349998,1,4.7117888671875,0.5746083984375,8.88607946166992,11.213740458015268,13.755725190839694,-22.984732824427482
6295514899680,5.113654634,1,4.244919543457031,0.5422866760253906,9.075221392822264,23.267175572519083,19.106870229007633,-27.442748091603054
6295522227544,5.120982498,1,4.297591979980469,0.6200982299804687,10.160991845703125,26.35114503816794,24.076335877862597,-29.893129770992367
6295529547023,5.128301977,1,4.629188909912109,0.8307879760742187,10.43153663330078,30.374045801526716,14.320610687022901,-26.137404580152673
6295536897388,5.135652342,1,4.35385571899414,0.8044517578125,10.217255584716796,31.65648854961832,-3.267175572519084,-22.198473282442748
6295544166294,5.142921248,1,4.485536810302734,0.5279214660644531,9.811438403320311,31.0,-17.84732824427481,-19.259541984732824
6295551462857,5.150217811,1,4.601655590820312,0.4537012145996093,8.863334545898438,34.091603053435115,-29.984732824427482,-22.259541984732824
6295558789888,5.157544842,1,4.292803576660156,0.47285482788085936,8.128314636230469,25.893129770992367,-41.79389312977099,-22.83969465648855
6295566070201,5.164825155,1,4.480748406982421,0.3854664672851562,7.181407879638671,15.641221374045802,-51.16030534351145,-25.893129770992367
6295573423169,5.172178123,1,3.9372646301269527,0.7553706237792969,6.712144354248046,20.931297709923665,-41.74809160305343,-30.702290076335878
6295580768794,5.179523748,1,3.852270471191406,0.8774749084472656,5.864596966552734,28.48854961832061,-50.48854961832061,-32.152671755725194
6295588108065,5.186863019,1,3.833116857910156,1.0295067138671874,5.333084197998047,25.53435114503817,-44.76335877862596,-34.70992366412214
6295595409107,5.194164061,1,3.786429925537109,1.5155296508789062,4.859032269287109,20.52671755725191,-34.33587786259542,-41.42748091603053
6295602744576,5.20149953,1,3.5434184570312497,1.7381904052734374,4.6651019348144525,8.122137404580153,-26.221374045801525,-41.045801526717554
6295610070878,5.208825832,1,3.2213983337402343,2.214636535644531,4.516661431884765,1.816793893129771,-16.984732824427482,-41.51145038167939
6295617347805,5.216102759,1,3.1208418640136717,2.375048046875,4.525041137695312,-4.259541984732825,-2.1603053435114505,-38.0
6295624686138,5.223441092,1,2.9556419494628905,2.1739351074218747,4.997895965576172,3.3282442748091605,11.053435114503817,-29.99236641221374
6295631962232,5.230717186,1,2.4301146850585935,2.518700146484375,6.063315704345703,39.52671755725191,31.83969465648855,-25.786259541984734
6295639271555,5.238026509,1,3.1004911499023438,2.7066449768066403,7.122749938964843,41.42748091603053,49.19083969465649,-26.755725190839694
6295646578013,5.245332967,1,3.19865341796875,2.3295582153320313,8.010998754882811,17.3206106870229,37.656488549618324,-14.641221374045802
6295653925826,5.25268078,1,2.971204260253906,1.9428946472167967,8.31865366821289,17.0381679389313,13.01526717557252,0.7251908396946565
6295661249628,5.260004582,1,2.9927520751953125,1.4867992309570313,8.079233502197265,19.83969465648855,-14.740458015267176,2.9160305343511452
6295668619523,5.267374477,1,3.0980969482421874,1.1001356628417969,7.674613421630859,15.900763358778626,-32.229007633587784,2.16793893129771
6295675902023,5.274656977,1,3.008314385986328,0.8511386901855468,5.92445200805664,2.687022900763359,-43.916030534351144,-2.4732824427480917
6295683279003,5.282033957,1,2.959233251953125,0.9900023864746094,5.201403106689453,-8.030534351145038,-43.89312977099237,-10.083969465648854
6295690529523,5.289284477,1,2.9640216552734375,1.495178936767578,4.4184991638183595,-10.916030534351146,-42.81679389312977,-18.18320610687023
6295697854055,5.296609009,1,3.009511486816406,1.9285294372558592,4.259284753417968,-18.96946564885496,-34.66412213740458,-22.427480916030536
6295705180409,5.303935363,1,3.190273712158203,2.528276953125,4.053383410644531,-17.00763358778626,-22.480916030534353,-24.27480916030534
6295712503169,5.311258123,1,3.3016040893554686,3.071760729980469,4.182670300292968,-11.312977099236642,-10.335877862595419,-23.35114503816794
6295719856138,5.318611092,1,3.5122938354492184,3.488351818847656,4.402936853027343,-14.427480916030534,-2.1526717557251906,-18.213740458015266
6295727225357,5.325980311,1,3.4763808105468748,3.573345977783203,4.723759875488281,-16.938931297709924,2.801526717557252,-8.213740458015268
6295734545357,5.333300311,1,3.421314172363281,3.153163586425781,5.396530541992187,-5.916030534351145,13.13740458015267,7.763358778625954
6295741911138,5.340666092,1,3.678690850830078,3.794809631347656,5.45877978515625,25.213740458015266,17.549618320610687,4.984732824427481
6295749273846,5.3480288,1,4.368220928955078,3.058592620849609,6.372167718505859,-8.755725190839694,25.427480916030536,18.251908396946565
6295756621450,5.355376404,1,4.386177441406249,2.403778466796875,6.885723974609375,-24.977099236641223,16.17557251908397,25.786259541984734
6295763921503,5.362676457,1,3.900154504394531,1.8842367065429686,7.326257080078125,-9.129770992366412,10.641221374045802,33.86259541984733
6295771206815,5.369961769,1,4.3622354248046875,1.5095441467285156,7.887697369384765,-2.969465648854962,20.221374045801525,33.099236641221374
6295778583950,5.377338904,1,4.744110589599609,1.369483349609375,8.646659295654297,-9.389312977099237,23.549618320610687,28.916030534351144
6295785956503,5.384711457,1,5.542576843261719,1.131260284423828,9.057264880371093,-29.27480916030534,12.603053435114504,26.091603053435115
6295793270617,5.392025571,1,5.1894320983886715,1.052251629638672,9.132682232666015,-39.3206106870229,-8.030534351145038,24.595419847328245
6295800666294,5.399421248,1,4.896142395019531,0.709880792236328,8.93755479736328,-55.25954198473283,-21.358778625954198,15.358778625954198
6295808071763,5.406826717,1,5.146336468505859,0.6536170532226562,8.570044842529297,-68.76335877862596,-25.3206106870229,10.969465648854962
6295815408430,5.414163384,1,5.329492895507812,0.8451531860351562,8.313865264892577,-62.274809160305345,-27.091603053435115,12.717557251908397
6295822696450,5.421451404,1,4.80755693359375,0.7445967163085937,8.180987072753906,-52.083969465648856,-18.16030534351145,13.488549618320612
6295830017648,5.428772602,1,4.504690423583984,0.7362170104980469,8.47786807861328,-31.0381679389313,-0.7022900763358778,11.206106870229007
6295837362440,5.436117394,1,4.7572786987304685,0.8882488159179687,8.70771143798828,-16.236641221374047,4.717557251908397,13.030534351145038
6295844854992,5.443609946,1,4.842272857666015,0.6488286499023437,9.075221392822264,-17.47328244274809,4.1679389312977095,17.977099236641223
6295852216555,5.450971509,1,4.923675714111328,0.45968671875,9.240421307373046,-16.16030534351145,2.5877862595419847,20.076335877862597
6295859533221,5.458288175,1,4.939238024902344,0.4369418029785156,9.157821350097656,-9.992366412213741,-2.0610687022900764,20.717557251908396
6295866861398,5.465616352,1,4.8506525634765625,0.28969840087890625,9.258377819824219,-13.427480916030534,-2.687022900763359,18.61832061068702
6295874141711,5.472896665,1,4.763264202880859,0.105344873046875,9.05367357788086,-15.0,-6.923664122137405,18.251908396946565
6295881307388,5.480062342,1,4.872200378417968,0.19393033447265623,8.876502655029297,-9.221374045801527,-10.32824427480916,16.458015267175572
6295888690982,5.487445936,1,4.934449621582031,0.33518823242187495,8.534131817626953,-6.984732824427481,-12.419847328244275,14.625954198473282
6295896112180,5.494867134,1,4.8877626892089845,0.42497079467773435,8.39526812133789,-9.877862595419847,-10.473282442748092,12.778625954198473
6295903486555,5.502241509,1,4.856638067626953,0.6344634399414062,8.201337786865233,-8.931297709923664,-10.50381679389313,11.916030534351146
6295910792075,5.509547029,1,5.1152118469238275,0.8738836059570312,8.170213165283203,-8.541984732824428,-9.923664122137405,10.435114503816793
6295918083950,5.516838904,1,5.140350964355468,0.9744400756835937,8.02536396484375,-18.34351145038168,-13.366412213740459,10.557251908396946
6295925359211,5.524114165,1,5.128379956054687,1.0438719238281249,7.704540942382812,-32.31297709923664,-22.9618320610687,14.022900763358779
6295932717961,5.531472915,1,5.279214660644531,0.9062053283691406,7.44357296142578,-35.61832061068702,-19.12213740458015,16.923664122137403
6295940094992,5.538849946,1,5.371391424560547,0.7649474304199219,7.323862878417969,-21.96946564885496,-14.793893129770993,20.221374045801525
6295947423742,5.546178696,1,5.270834954833984,0.6428431457519531,7.1395093505859375,-13.51908396946565,-12.282442748091603,25.977099236641223
6295954712336,5.55346729,1,5.310339282226562,0.24660277099609373,7.110778930664062,-12.931297709923664,-11.114503816793894,25.259541984732824
6295962035305,5.560790259,1,5.389347937011719,-0.051475335693359374,7.179013677978515,-7.076335877862595,2.3969465648854964,24.458015267175572
6295969367596,5.56812255,1,5.463568188476562,-0.11731588134765625,7.351396197509765,3.66412213740458,5.450381679389313,22.732824427480917
6295976734159,5.575489113,1,5.334281298828125,-0.2166752502441406,7.518990313720702,-4.877862595419847,4.5038167938931295,20.65648854961832
6295984094211,5.582849165,1,5.128379956054687,-0.4165910888671875,7.491456994628906,-4.969465648854962,2.4885496183206106,16.38167938931298
6295991422544,5.590177498,1,5.085284326171875,-0.3842693664550781,7.576451153564452,-3.83206106870229,6.290076335877862,11.053435114503817
6295998718638,5.597473592,1,4.953603234863281,-0.2861070983886719,7.7416510681152335,-0.2366412213740458,7.908396946564886,6.259541984732825
6296006040148,5.604795102,1,5.176263989257812,-0.19991583862304688,7.8733321594238275,1.2366412213740459,6.374045801526718,3.1068702290076335
6296013355773,5.612110727,1,5.384559533691406,-0.06823474731445311,7.99304224243164,1.5954198473282444,5.9541984732824424,-0.9847328244274809
6296020692648,5.619447602,1,5.513846423339843,0.1771709228515625,8.009801654052733,0.5954198473282443,3.4198473282442747,-3.732824427480916
6296028066242,5.626821196,1,5.4887073059082025,0.35673604736328124,7.846995941162109,-3.8396946564885495,-2.5114503816793894,-3.8396946564885495
6296035407492,5.634162446,1,5.343858105468749,0.4165910888671875,7.68658442993164,-8.694656488549619,-3.427480916030534,-4.038167938931298
6296042724159,5.641479113,1,5.346252307128906,0.604535919189453,7.6099699768066404,-5.206106870229007,-0.5572519083969466,-5.2748091603053435
6296050046190,5.648801144,1,5.538985540771484,0.8080430603027343,7.643488800048828,-0.31297709923664124,5.0534351145038165,-5.083969465648855
6296057354419,5.656109373,1,5.849034655761718,0.8870517150878906,7.809885815429687,4.885496183206107,9.977099236641221,-4.015267175572519
6296064689002,5.663443956,1,6.060921502685546,0.8702923034667969,7.837419134521484,10.870229007633588,10.305343511450381,-1.3282442748091603
6296072054992,5.670809946,1,6.315903979492187,0.7003039855957031,7.721300354003906,15.053435114503817,9.007633587786259,2.9160305343511452
6296079323221,5.678078175,1,6.436811163330078,0.4896142395019531,7.586027960205078,20.85496183206107,8.15267175572519,6.32824427480916
6296086685773,5.685440727,1,6.190208392333984,0.3962403747558593,7.287949853515625,25.633587786259543,6.625954198473282,8.16793893129771
6296093941919,5.692696873,1,6.274005450439453,0.18315642700195311,6.981492041015625,23.862595419847327,8.34351145038168,10.297709923664122
6296101262752,5.700017706,1,6.402095239257812,-0.001197100830078125,7.230489013671875,28.259541984732824,23.076335877862597,7.259541984732825
6296108618273,5.707373227,1,5.875370874023437,-0.1352723937988281,7.951143713378905,45.12977099236641,51.76335877862596,6.526717557251908
6296115894263,5.714649217,1,5.124788653564453,-0.17477672119140625,8.978256225585938,56.49618320610687,59.29007633587786,4.129770992366412
6296123220357,5.721975311,1,4.8698061767578125,-0.29927520751953124,9.892841259765625,54.25954198473283,59.58015267175573,2.9389312977099236
6296130527440,5.729282394,1,4.6627077331542965,-0.44532150878906246,11.526883892822266,61.25954198473283,55.99236641221374,4.793893129770993
6296137839367,5.736594321,1,4.453215087890625,-0.2454056701660156,12.063185064697265,77.10687022900764,48.70229007633588,2.2595419847328246
6296145146919,5.743901873,1,4.649539624023437,-0.29927520751953124,12.220005273437499,84.52671755725191,35.656488549618324,4.3816793893129775
6296152493117,5.751248071,1,4.981136553955078,-0.488417138671875,11.838130108642577,97.61068702290076,12.557251908396946,6.916030534351145
6296159855096,5.75861005,1,5.159504577636718,-0.5913678100585937,10.9175595703125,112.09923664122137,-17.557251908396946,7.9465648854961835
6296167329419,5.766084373,1,5.23492192993164,-1.3682862487792968,10.031704956054687,109.77099236641222,-41.274809160305345,9.32824427480916
6296174725304,5.773480258,1,6.190208392333984,-1.1611878051757811,8.627505682373046,119.50381679389314,-59.67175572519084,-11.16793893129771
6296182080096,5.78083505,1,6.639121203613281,-0.9528922607421875,7.11197603149414,97.65648854961832,-83.44274809160305,-25.85496183206107
6296189352440,5.788107394,1,5.894524487304687,-0.5662286926269531,5.483918902587891,51.770992366412216,-118.17557251908397,-47.152671755725194
6296196754471,5.795509425,1,5.422866760253906,0.034715924072265626,4.171896392822266,1.9923664122137406,-130.26717557251908,-71.7175572519084
6296204128325,5.802883279,1,5.04338579711914,0.729034405517578,3.459621398925781,-23.625954198473284,-115.54198473282443,-97.19083969465649
6296211477648,5.810232602,1,4.867411975097656,1.5670049865722655,3.025073797607422,-20.12213740458015,-98.77099236641222,-117.5114503816794
6296218789211,5.817544165,1,4.667496136474609,2.5007436340332028,2.941276739501953,-13.34351145038168,-78.19847328244275,-126.01526717557252
6296226137596,5.82489255,1,4.2317514343261715,3.372233038330078,2.9831752685546875,-25.374045801526716,-64.99236641221374,-130.85496183206106
6296233469367,5.832224321,1,3.611653204345703,4.27724126586914,3.1495722839355467,-49.221374045801525,-53.725190839694655,-130.14503816793894
6296240838586,5.83959354,1,3.010708587646484,5.03740029296875,3.6571430358886716,-58.31297709923664,-33.68702290076336,-120.42748091603053
6296248164054,5.846919008,1,2.6240450195312497,5.5832782714843745,4.248510845947266,-36.900763358778626,-9.458015267175572,-84.93129770992367
6296255468273,5.854223227,1,3.116053460693359,6.320692382812499,4.897339495849609,-4.244274809160306,32.06106870229008,-54.64885496183206
6296262912544,5.861667498,1,2.110488763427734,6.470329986572265,5.829881042480468,20.083969465648856,13.404580152671755,-8.717557251908397
6296270252127,5.869007081,1,1.5729904907226562,5.1894320983886715,6.82467183227539,63.541984732824424,24.610687022900763,8.908396946564885
6296277525304,5.876280258,1,1.2018892333984375,4.833893151855468,7.438784558105469,64.16793893129771,38.091603053435115,28.740458015267176
6296284884732,5.883639686,1,1.9979612854003905,2.8311434631347656,7.550114935302734,68.32824427480917,18.00763358778626,44.10687022900763
6296292162752,5.890917706,1,2.7437551025390623,1.7980454467773437,7.133523846435547,61.80152671755725,-9.816793893129772,54.19847328244275
6296299465461,5.898220415,1,2.6491841369628903,1.0606313354492187,6.457161877441406,51.603053435114504,-25.045801526717558,52.85496183206107
6296306794627,5.905549581,1,3.005920184326172,0.7589619262695312,5.549759448242187,36.267175572519086,-41.80916030534351,42.961832061068705
6296314112023,5.912866977,1,3.6152445068359373,1.0211270080566406,4.483142608642578,8.412213740458014,-49.79389312977099,24.61832061068702
6296321384627,5.920139581,1,4.150348577880859,1.4125789794921875,3.475183709716797,-18.541984732824428,-56.0,10.633587786259541
6296328729002,5.927483956,1,4.256890551757812,1.9584569580078124,2.786850732421875,-32.603053435114504,-54.06870229007634,-2.801526717557252
6296336073429,5.934828383,1,4.426878869628906,2.551021868896484,2.1583727966308595,-39.99236641221374,-43.58015267175573,-11.633587786259541
6296343393638,5.942148592,1,4.574122271728515,3.305195391845703,2.001552587890625,-46.88549618320611,-30.0,-19.938931297709924
6296350724679,5.949479633,1,4.7189714721679685,3.8187516479492185,1.8950106140136718,-61.80152671755725,-15.404580152671755,-19.31297709923664
6296358078534,5.956833488,1,4.510675927734375,4.060566015625,2.3714567443847656,-57.396946564885496,6.702290076335878,-11.213740458015268
6296365428481,5.964183435,1,4.347870214843749,4.31554849243164,3.1483751831054687,-30.9618320610687,33.9236641221374,-5.809160305343512
6296372751763,5.971506717,1,4.299986181640625,4.46279189453125,4.455609289550781,-30.450381679389313,57.847328244274806,-0.9847328244274809
6296379971190,5.978726144,1,4.388571643066406,3.816357446289062,5.797559320068359,-45.87786259541985,70.91603053435115,17.46564885496183
6296387327388,5.986082342,1,4.211400720214844,3.2058360229492187,7.308300567626953,-28.053435114503817,77.65648854961832,30.83206106870229
6296394690877,5.993445831,1,4.469974499511719,2.461239306640625,8.78552299194336,-3.854961832061069,90.6030534351145,41.69465648854962
6296402030721,6.000785675,1,4.7369279846191406,2.0171148986816405,10.041281762695311,5.343511450381679,93.00763358778626,51.68702290076336
6296409322023,6.008076977,1,5.029020587158203,1.4879963317871092,10.976217510986327,-11.053435114503817,57.396946564885496,50.85496183206107
6296416661138,6.015416092,1,5.385756634521484,1.189918225097656,11.637017169189452,-38.900763358778626,39.900763358778626,49.969465648854964
6296423981554,6.022736508,1,5.884947680664062,0.9014169250488281,11.640608471679688,-35.55725190839695,14.938931297709924,49.2442748091603
6296431313117,6.030068071,1,6.129156249999999,0.9109937316894531,11.129446417236327,-40.48091603053435,-7.679389312977099,49.93893129770992
6296438639627,6.037394581,1,6.080075115966797,0.3124433166503906,10.404003314208984,-44.76335877862596,-22.931297709923665,44.36641221374046
6296445957648,6.044712602,1,5.844246252441406,0.02633621826171875,9.770736975097655,-50.786259541984734,-28.106870229007633,43.05343511450382
6296453266346,6.0520213,1,6.065709906005859,-0.19393033447265623,9.121908325195312,-41.14503816793893,-31.068702290076335,38.93129770992366
6296460685461,6.059440415,1,5.94360562133789,-0.5422866760253906,8.652644799804687,-15.076335877862595,-28.908396946564885,40.18320610687023
6296468065252,6.066820206,1,6.214150408935547,-0.18315642700195311,8.339004382324218,0.6030534351145038,-19.450381679389313,28.641221374045802
6296475412336,6.07416729,1,6.303932971191406,-0.49679684448242184,8.281543542480469,-16.908396946564885,-17.610687022900763,24.427480916030536
6296482701554,6.081456508,1,5.585672473144531,-0.5255272644042969,8.009801654052733,-17.129770992366414,-28.34351145038168,19.35114503816794
6296490019627,6.088774581,1,5.239710333251953,-0.41539398803710936,7.93558140258789,-17.12213740458015,-23.46564885496183,9.938931297709924
6296497351502,6.096106456,1,5.2456958374023435,-0.3591302490234375,8.119934930419921,-18.374045801526716,-15.351145038167939,1.1984732824427482
6296504846606,6.10360156,1,5.149927770996094,-0.10295067138671875,8.404844927978516,-5.412213740458015,-12.129770992366412,-5.137404580152672
6296512164002,6.110918956,1,4.855440966796874,0.19512743530273435,8.70771143798828,10.412213740458014,-12.748091603053435,-7.526717557251908
6296519516346,6.1182713,1,4.290409374999999,0.3495534423828125,8.795099798583983,17.244274809160306,-17.9618320610687,-6.694656488549619
6296526918742,6.125673696,1,4.055777612304687,0.7565677246093749,8.911218579101561,15.022900763358779,-18.82442748091603,-11.694656488549619
