timestamp_ns,t_s,sensor_id,ax,ay,az,gx,gy,gz
6290574097025,0.172851979,2,-3.440467785644531,-9.151835845947264,2.2206220397949217,-66.12977099236642,10.404580152671755,-39.458015267175576
6290580598536,0.17935349,2,-2.139219183349609,-8.838195428466797,1.744175909423828,-61.74045801526717,-2.1068702290076335,-48.81679389312977
6290587210359,0.185965313,2,-1.3778630554199218,-8.26837543334961,1.121683477783203,-50.06106870229008,-18.954198473282442,-50.02290076335878
6290593866557,0.192621511,2,-1.1384428894042968,-7.484274389648437,0.5458779785156249,-49.17557251908397,-26.748091603053435,-40.70229007633588
6290600535202,0.199290156,2,-1.47482822265625,-7.090428216552734,0.21188684692382811,-65.3206106870229,-10.82442748091603,-16.87786259541985
6290607198432,0.205953386,2,-1.618480322265625,-7.568071447753906,0.06105214233398437,-81.81679389312977,17.106870229007633,16.00763358778626
6290613864473,0.212619427,2,-1.707065783691406,-8.263587030029296,0.06464344482421874,-73.32824427480917,44.083969465648856,41.38931297709924
6290620531192,0.219286146,2,-2.129642376708984,-8.725667950439453,0.12090718383789062,-48.6793893129771,48.82442748091603,55.30534351145038
6290627194213,0.225949167,2,-2.0254946044921875,-9.212887988281249,0.13766659545898435,-26.65648854961832,38.221374045801525,60.19083969465649
6290633864525,0.232619479,2,-1.543062969970703,-9.757568865966796,-0.037110125732421874,-10.84732824427481,37.0763358778626,59.69465648854962
6290640533588,0.239288542,2,-1.6747440612792968,-9.477447271728515,0.23822306518554687,-9.19083969465649,36.603053435114504,57.76335877862596
6290647194577,0.245949531,2,-2.440888592529297,-9.387664709472656,0.25139117431640623,-29.236641221374047,18.091603053435115,61.29770992366412
6290653858223,0.252613177,2,-2.683900061035156,-10.000580334472655,0.277727392578125,-27.709923664122137,-5.786259541984733,61.70229007633588
6290660530984,0.259285938,2,-2.3774422485351563,-10.842142218017578,-0.028730419921875,-27.709923664122137,-1.5114503816793894,47.70992366412214
6290667154161,0.265909115,2,-2.0302830078125,-10.68053360595703,-0.20231004028320312,12.694656488549619,-1.5114503816793894,35.74809160305343
6290673864942,0.272619896,2,-2.2481553588867187,-9.635464581298828,0.08379705810546874,24.38167938931298,17.64885496183206,35.74809160305343
6290680527650,0.279282604,2,-3.0550013183593747,-8.93156929321289,0.4908113403320312,-22.603053435114504,44.88549618320611,37.229007633587784
6290687192390,0.285947344,2,-3.3961750549316405,-9.258377819824219,0.7817068420410156,-83.48091603053435,42.61832061068702,41.87022900763359
6290693858588,0.292613542,2,-3.824737152099609,-9.78031378173828,1.20667763671875,-77.95419847328245,63.54961832061068,51.717557251908396
6290700527442,0.299282396,2,-3.821145849609375,-9.885658654785155,1.484405029296875,-20.84732824427481,54.0,43.47328244274809
6290707188848,0.305943802,2,-2.463633508300781,-10.188525164794921,1.4245499877929686,25.53435114503817,29.763358778625953,29.129770992366414
6290713861504,0.312616458,2,-0.9097966308593749,-10.152612139892577,1.2713210815429687,25.870229007633586,17.954198473282442,18.16793893129771
6290720532338,0.319287292,2,-1.6268600280761718,-9.056067779541015,1.4508862060546874,-31.65648854961832,19.129770992366414,10.961832061068701
6290727189786,0.32594474,2,-2.73896669921875,-8.838195428466797,1.284489190673828,-133.4885496183206,-19.450381679389313,23.297709923664122
6290733864473,0.332619427,2,-3.555389465332031,-8.86094034423828,1.0917559570312498,-166.82442748091603,-55.68702290076336,31.671755725190838
6290740530359,0.339285313,2,-3.708618371582031,-8.799888201904297,0.7410054138183594,-109.19847328244275,-89.97709923664122,33.732824427480914
6290747152182,0.345907136,2,-4.114435552978516,-8.681375219726561,0.25139117431640623,-20.14503816793893,-122.70229007633588,37.541984732824424
6290753861088,0.352616042,2,-3.766079211425781,-8.743624462890624,-0.06943184814453125,44.76335877862596,-145.68702290076337,44.88549618320611
6290760540671,0.359295625,2,-2.6228479187011717,-8.657433203124999,-0.5578489868164063,58.06106870229008,-147.54961832061068,50.54961832061068
6290767200879,0.365955833,2,-2.2936451904296873,-7.953537915039062,-0.8547299926757812,13.129770992366412,-122.02290076335878,50.10687022900763
6290773862390,0.372617344,2,-2.6659435485839844,-7.332242584228515,-1.1982979309082031,-77.46564885496183,-105.16030534351145,57.38167938931298
6290780531296,0.37928625,2,-4.017470385742187,-6.945579016113281,-1.2330138549804688,-146.9083969465649,-95.3587786259542,71.83969465648855
6290787194890,0.385949844,2,-4.017470385742187,-7.641094598388672,-1.7010802795410156,-141.0381679389313,-93.1145038167939,94.45038167938931
6290793862494,0.392617448,2,-3.2692823669433593,-7.641094598388672,-2.185906115722656,-68.02290076335878,-82.0381679389313,99.29770992366412
6290800527650,0.399282604,2,-2.996343377685547,-7.316680273437499,-2.185906115722656,-13.076335877862595,-97.37404580152672,115.16030534351145
6290807188640,0.405943594,2,-4.096479040527344,-6.730100866699218,-2.6695348510742187,-13.076335877862595,-89.1526717557252,145.0763358778626
6290813863692,0.412618646,2,-4.168305090332031,-7.430404852294921,-3.181894006347656,1.0763358778625953,-89.1526717557252,161.48091603053436
6290820526504,0.419281458,2,-4.454412188720703,-7.8709379577636716,-3.324349005126953,5.877862595419847,-26.083969465648856,161.48091603053436
6290827194004,0.425948958,2,-4.188655804443359,-8.712499841308594,-3.6715082458496093,-13.0,-2.6564885496183206,169.4351145038168
6290833862077,0.432617031,2,-4.485536810302734,-9.14824454345703,-3.678690850830078,-26.206106870229007,42.61832061068702,167.95419847328245
6290840530463,0.439285417,2,-5.197811804199218,-9.054870678710937,-3.4344822814941405,-32.58015267175573,86.09923664122137,162.8854961832061
6290847189525,0.445944479,2,-5.430049365234375,-8.852560638427734,-3.3770214416503905,-44.02290076335878,104.10687022900764,148.793893129771
6290853861817,0.452616771,2,-6.270414147949219,-8.526949212646484,-2.844311572265625,-52.7557251908397,123.77099236641222,141.206106870229
6290860532650,0.459287604,2,-6.848613848876953,-8.601169464111328,-2.4899697265625,-44.33587786259542,138.05343511450383,140.81679389312978
6290867194942,0.465949896,2,-7.254431030273437,-8.780734588623046,-2.0302830078125,-12.946564885496183,134.0,138.19847328244273
6290873865463,0.472620417,2,-7.926004595947266,-8.890867864990234,-1.5215151550292967,30.328244274809162,135.6412213740458,133.0381679389313
6290880533119,0.479288073,2,-7.886500268554687,-9.749189160156249,-1.0809820495605469,59.11450381679389,123.6793893129771,130.86259541984734
6290887195463,0.485950417,2,-8.001421948242188,-10.121487518310547,-0.5123591552734374,85.08396946564885,113.26717557251908,119.87022900763358
6290893862077,0.492617031,2,-8.072050897216796,-10.327388861083984,-0.00718260498046875,98.70992366412214,96.67175572519083,97.22137404580153
6290900528223,0.499283177,2,-7.3657614074707025,-10.690110412597656,0.3315969299316406,90.41984732824427,78.34351145038168,70.06870229007633
6290907189056,0.50594401,2,-7.558494641113281,-9.90840357055664,0.719457598876953,73.69465648854961,60.29007633587786,43.45038167938932
6290913856661,0.512611615,2,-7.070077502441406,-9.539696514892578,0.7254431030273437,38.74045801526717,40.0763358778626,-5.587786259541985
6290920537442,0.519292396,2,-6.562506750488281,-9.502586389160156,0.6177040283203125,-6.824427480916031,36.62595419847328,-9.404580152671755
6290927186661,0.525941615,2,-6.726509564208984,-8.853757739257812,0.5063736511230469,-27.671755725190838,14.564885496183207,-21.374045801526716
6290933855567,0.532610521,2,-6.726509564208984,-8.084021905517577,0.3699041564941406,-27.091603053435115,-4.190839694656488,-30.671755725190838
6290940522806,0.53927776,2,-7.055712292480468,-8.084021905517577,0.10773907470703124,-20.51145038167939,-22.31297709923664,-33.74045801526717
6290947189161,0.545944115,2,-6.675034228515624,-7.869740856933594,0.10773907470703124,-7.923664122137405,-38.63358778625954,-31.633587786259543
6290953858640,0.552613594,2,-6.203376501464843,-7.896077075195312,-0.24660277099609373,-7.923664122137405,-59.16030534351145,-28.801526717557252
6290960587754,0.559342708,2,-6.180631585693359,-7.832630731201172,-0.6775590698242188,1.8015267175572518,-59.16030534351145,-21.442748091603054
6290967207338,0.565962292,2,-6.349422802734375,-7.754819177246094,-1.0235212097167967,-0.816793893129771,-73.2824427480916,-21.442748091603054
6290973880150,0.572635104,2,-6.459556079101562,-8.104372619628906,-1.5011644409179687,-12.450381679389313,-76.54961832061069,-11.740458015267176
6290980528796,0.57928375,2,-6.822277630615234,-8.407239129638672,-1.7585411193847655,-19.389312977099237,-72.96946564885496,-6.900763358778626
6290987191452,0.585946406,2,-6.76122548828125,-8.877699755859375,-2.1021090576171875,-14.320610687022901,-61.534351145038165,-7.412213740458015
6290993856609,0.592611563,2,-6.6139820861816405,-9.13627353515625,-2.2158336364746094,0.7557251908396947,-46.083969465648856,-9.816793893129772
6291000524942,0.599279896,2,-6.604405279541015,-9.133879333496093,-2.000355487060547,14.83969465648855,-27.908396946564885,-15.870229007633588
6291007194577,0.605949531,2,-6.130353350830077,-9.119514123535156,-1.8650830932617186,14.564885496183207,-1.7099236641221374,-22.80916030534351
6291013867338,0.612622292,2,-5.746083984375,-8.78432589111328,-1.6160861206054686,-1.0916030534351144,35.89312977099237,-33.94656488549618
6291020531244,0.619286198,2,-5.250484240722656,-8.536526019287109,-1.1815385192871093,-25.69465648854962,77.38167938931298,-38.916030534351144
6291027187650,0.625942604,2,-4.85184966430664,-8.349778289794921,-0.7302315063476562,-41.48091603053435,101.26717557251908,-36.541984732824424
6291033860150,0.632615104,2,-4.516661431884765,-8.194155181884765,-0.36750995483398435,-36.80152671755725,100.2442748091603,-33.87022900763359
6291040527598,0.639282552,2,-4.507084625244141,-7.819462622070312,-0.08858546142578125,-17.221374045801525,85.58778625954199,-30.412213740458014
6291047184213,0.645939167,2,-4.7117888671875,-7.349001995849609,0.047884033203124995,-0.04580152671755725,74.17557251908397,-24.595419847328245
6291053864109,0.652619063,2,-4.684255548095702,-7.351396197509765,0.25139117431640623,0.3435114503816794,75.12977099236642,-12.32824427480916
6291060520150,0.659275104,2,-4.741716387939453,-7.653065606689452,0.4369418029785156,-7.961832061068702,78.0,-1.0763358778625953
6291067195984,0.665950938,2,-4.930858319091796,-7.961917620849609,0.5039794494628906,-14.877862595419847,62.900763358778626,4.793893129770993
6291073857286,0.67261224,2,-5.023035083007812,-8.601169464111328,0.38187516479492184,-14.50381679389313,38.16793893129771,6.1679389312977095
6291080530098,0.679285052,2,-4.8698061767578125,-8.635885388183594,0.3387795349121094,-6.358778625954199,18.221374045801525,4.824427480916031
6291087189265,0.685944219,2,-5.495889910888671,-8.635885388183594,-0.17238251953125,-5.312977099236641,-21.099236641221374,-11.603053435114504
6291093859629,0.692614583,2,-5.518634826660156,-8.596381060791016,-0.17238251953125,-9.068702290076336,-29.31297709923664,-27.66412213740458
6291100528379,0.699283333,2,-5.936423016357422,-8.048108880615233,-0.29568390502929687,-9.068702290076336,-28.137404580152673,-34.50381679389313
6291107196244,0.705951198,2,-5.523423229980469,-8.289923248291014,-0.354341845703125,-27.572519083969464,-22.27480916030534,-34.52671755725191
6291113863900,0.712618854,2,-5.140350964355468,-8.589198455810546,-0.4896142395019531,-35.083969465648856,-27.31297709923664,-36.48091603053435
6291120526088,0.719281042,2,-5.306747979736328,-8.172607366943359,-0.6368576416015624,-23.83969465648855,-45.55725190839695,-49.41984732824427
6291127188744,0.725943698,2,-5.03740029296875,-7.857769848632812,-1.0019733947753906,-20.412213740458014,-62.69465648854962,-60.70992366412214
6291133859108,0.732614062,2,-4.35385571899414,-7.584830859375,-1.3000515014648437,-24.85496183206107,-72.00763358778626,-68.7557251908397
6291140525983,0.739280937,2,-3.77326181640625,-7.372944012451171,-1.5957354064941405,-30.0381679389313,-76.05343511450381,-73.94656488549619
6291147191608,0.745946562,2,-3.1268273681640624,-7.30351216430664,-1.8614917907714843,-31.66412213740458,-74.9618320610687,-73.02290076335878
6291153854317,0.752609271,2,-3.5517981628417967,-6.610390783691406,-2.023100402832031,-25.541984732824428,-71.29770992366412,-69.79389312977099
6291160527858,0.759282812,2,-4.050989208984375,-6.259640240478515,-1.9788076721191405,-28.198473282442748,-62.396946564885496,-57.9236641221374
6291167201608,0.765956562,2,-3.70263286743164,-6.7839704040527335,-1.9213468322753906,-29.580152671755727,-30.106870229007633,-38.70229007633588
6291173863119,0.772618073,2,-3.0035259826660154,-7.618349682617187,-1.7262193969726563,-10.129770992366412,-4.549618320610687,-23.053435114503817
6291180534421,0.779289375,2,-2.5953145996093747,-7.7967177062988275,-1.5945383056640625,21.48854961832061,-3.404580152671756,-21.740458015267176
6291187195254,0.785950208,2,-2.8502970764160156,-7.145494854736327,-1.1324573852539062,29.366412213740457,23.770992366412212,-21.702290076335878
6291193825983,0.792580937,2,-2.987963671875,-7.1407064514160155,-0.7936778503417968,-17.282442748091604,50.06870229007634,-6.206106870229007
6291200534473,0.799289427,2,-3.2405519470214843,-7.454346868896484,-0.27174188842773433,-70.70992366412214,67.9618320610687,7.022900763358779
6291207188223,0.805943177,2,-3.375824340820312,-7.690175732421874,0.00718260498046875,-90.58778625954199,49.412213740458014,10.908396946564885
6291213864838,0.812619792,2,-3.949235638427734,-7.38012661743164,-0.17956512451171874,-72.0,-19.72519083969466,2.5572519083969465
6291220525567,0.819280521,2,-3.860650177001953,-6.791153009033203,-0.6284779357910156,-39.16030534351145,-88.46564885496183,-4.358778625954199
6291227188536,0.82594349,2,-4.780023614501953,-6.774393597412109,-1.389834063720703,-20.083969465648856,-139.54198473282443,0.183206106870229
6291233854473,0.832609427,2,-5.040991595458984,-6.927622503662109,-1.514332550048828,-7.0534351145038165,-163.3740458015267,4.717557251908397
6291240529265,0.839284219,2,-4.978742352294922,-7.285555651855469,-1.974019268798828,-6.305343511450381,-160.93129770992365,8.022900763358779
6291247183744,0.845938698,2,-4.811148236083984,-7.7416510681152335,-2.6013001037597654,1.5114503816793894,-162.00763358778627,10.358778625954198
6291253856140,0.852611094,2,-4.930858319091796,-7.845798840332031,-2.9640216552734375,1.5114503816793894,-138.55725190839695,11.610687022900763
6291260531348,0.859286302,2,-5.556942053222656,-7.456741070556641,-3.296815686035156,-17.358778625954198,-115.1145038167939,-2.068702290076336
6291267194369,0.865949323,2,-5.967547637939453,-7.675810522460937,-3.277662072753906,-40.67175572519084,-74.65648854961832,5.587786259541985
6291273859681,0.872614635,2,-5.518634826660156,-8.45991156616211,-3.1747114013671873,-34.969465648854964,-18.244274809160306,19.00763358778626
6291280526140,0.879281094,2,-5.57370146484375,-8.645462194824217,-2.924517327880859,-10.045801526717558,-0.7938931297709924,15.900763358778626
6291287188171,0.885943125,2,-5.219359619140625,-8.671798413085938,-3.0837317382812497,5.709923664122138,-15.15267175572519,7.427480916030534
6291293856765,0.892611719,2,-5.9962780578613275,-7.803900311279296,-3.046621612548828,4.412213740458015,-12.465648854961833,-6.877862595419847
6291300527338,0.899282292,2,-5.628768103027343,-8.197746484375,-3.058592620849609,-20.72519083969466,-1.381679389312977,-2.427480916030534
6291307186765,0.905941719,2,-5.297171173095703,-8.591592657470702,-2.788047833251953,-17.801526717557252,17.564885496183205,0.46564885496183206
6291313858952,0.912613906,2,-4.955997436523437,-8.657433203124999,-2.9077579162597655,12.48091603053435,9.740458015267176,-6.580152671755725
6291320524890,0.919279844,2,-4.838681555175781,-8.239645013427733,-2.729389892578125,39.98473282442748,-0.6030534351145038,-15.435114503816793
6291327185098,0.925940052,2,-4.523844036865234,-8.02536396484375,-2.6970681701660153,43.37404580152672,7.961832061068702,-13.641221374045802
6291333859838,0.932614792,2,-4.332307904052734,-8.06965669555664,-2.328361114501953,31.748091603053435,38.48854961832061,-10.061068702290076
6291340535619,0.939290573,2,-3.957615344238281,-8.194155181884765,-1.9393033447265624,21.702290076335878,74.67175572519083,-4.396946564885496
6291347221921,0.945976875,2,-4.1192239562988275,-7.942764007568359,-1.39821376953125,19.061068702290076,90.18320610687023,-4.00763358778626
6291353910254,0.952665208,2,-4.046200805664062,-7.864952453613281,-0.9062053283691406,19.53435114503817,91.63358778625954,1.5267175572519085
6291360527442,0.959282396,2,-4.128800762939453,-7.769184387207031,-0.4321533996582031,22.480916030534353,84.90839694656489,6.404580152671755
6291367193483,0.965948437,2,-4.033032696533203,-7.978677032470703,-0.40581718139648437,26.18320610687023,60.01526717557252,14.404580152671755
6291373864265,0.972619219,2,-3.8798037902832028,-8.119934930419921,-0.13766659545898435,38.3206106870229,43.786259541984734,23.549618320610687
6291380525671,0.979280625,2,-4.3801919372558595,-7.9667060241699215,-0.1149216796875,48.12977099236641,22.946564885496183,28.954198473282442
6291387188431,0.985943385,2,-4.185064501953125,-8.38329711303711,-0.1149216796875,47.16793893129771,-0.04580152671755725,33.786259541984734
6291393864213,0.992619167,2,-4.291606475830078,-8.51617530517578,-0.21068974609375,53.030534351145036,-0.45038167938931295,41.10687022900763
6291400533067,0.999288021,2,-4.590881683349609,-8.729259252929687,-0.4465186096191406,47.083969465648856,-18.0381679389313,42.3587786259542
6291407191504,1.005946458,2,-5.036203192138672,-8.930372192382812,-0.5602431884765625,36.58015267175573,-30.053435114503817,44.31297709923664
6291413821973,1.012576927,2,-5.603628985595702,-9.18056626586914,-0.6667851623535156,29.244274809160306,-34.94656488549618,51.0
6291420528119,1.019283073,2,-5.950788226318359,-9.293093743896485,-0.9636661682128905,29.603053435114504,-27.702290076335878,49.70992366412214
6291427190931,1.025945885,2,-6.062118603515625,-9.466673364257812,-1.1109095703125,27.564885496183205,-3.145038167938931,48.099236641221374
6291433857077,1.032612031,2,-5.816712933349609,-9.85692823486328,-0.9014169250488281,23.938931297709924,25.595419847328245,44.87022900763359
6291440526244,1.039281198,2,-5.82868394165039,-9.937133990478515,-0.6488286499023437,24.389312977099237,39.94656488549618,34.412213740458014
6291447187546,1.0459425,2,-5.566518859863281,-9.9981861328125,-0.5051765502929687,27.35114503816794,44.465648854961835,30.595419847328245
6291453858275,1.052613229,2,-6.252457635498047,-9.361328491210937,-0.22026655273437498,29.358778625954198,53.81679389312977,25.458015267175572
6291460526504,1.059281458,2,-6.463147381591797,-9.124302526855468,0.031124621582031248,12.488549618320612,51.9236641221374,19.47328244274809
6291467184942,1.065939896,2,-6.593631372070312,-9.108740216064453,0.3555389465332031,-1.0458015267175573,57.10687022900763,12.931297709923664
6291473851921,1.072606875,2,-6.5397618347167965,-9.296685046386719,0.6200982299804687,2.351145038167939,49.656488549618324,6.9541984732824424
6291480524681,1.079279635,2,-6.216544610595703,-9.533711010742186,0.7410054138183594,20.0,25.66412213740458,3.236641221374046
6291487187129,1.085942083,2,-6.036979486083984,-9.44871685180664,0.6380547424316406,36.534351145038165,16.633587786259543,-4.259541984732825
6291493853327,1.092608281,2,-5.592855078125,-9.374496600341796,0.6512228515624999,29.358778625954198,29.18320610687023,-9.900763358778626
6291500530931,1.099285885,2,-5.512649322509765,-9.16859525756836,0.6069301208496093,-5.0458015267175576,30.68702290076336,-21.198473282442748
6291507190775,1.105945729,2,-5.434837768554687,-8.963891015625,0.5758054992675781,-49.89312977099237,25.595419847328245,-25.106870229007633
6291513822442,1.112577396,2,-5.434837768554687,-8.765172277832031,0.5398924743652344,-73.85496183206106,21.137404580152673,-25.38167938931298
6291520533275,1.119288229,2,-5.649118817138672,-8.760383874511719,0.34715924072265625,-72.6793893129771,-9.114503816793894,-26.282442748091604
6291527190462,1.125945416,2,-6.084863519287109,-8.300697155761718,0.430956298828125,-56.58015267175573,-46.88549618320611,-21.30534351145038
6291533860931,1.132615885,2,-6.455964776611328,-8.18457837524414,-0.028730419921875,-55.25954198473283,-74.93129770992367,-12.473282442748092
6291540529994,1.139284948,2,-6.704961749267578,-8.359355096435547,-0.47764323120117186,-35.717557251908396,-74.93129770992367,-5.022900763358779
6291547187546,1.1459425,2,-6.439205364990234,-8.8872765625,-1.1540052001953125,-16.702290076335878,-99.4885496183206,-5.022900763358779
6291553859160,1.152614114,2,-6.441599566650391,-9.334992272949219,-1.7800889343261719,-2.4656488549618323,-113.0381679389313,-2.183206106870229
6291560528640,1.159283594,2,-6.669048724365234,-9.648632690429688,-1.9812018737792967,-0.3511450381679389,-110.83206106870229,1.4961832061068703
6291567191921,1.165946875,2,-6.760028387451172,-9.846154327392577,-2.2960393920898436,-9.34351145038168,-96.80916030534351,-1.8931297709923665
6291573854265,1.172609219,2,-6.760028387451172,-9.999383233642577,-2.4911668273925778,-23.916030534351144,-70.6030534351145,-8.938931297709924
6291580524629,1.179279583,2,-6.25006343383789,-10.27232222290039,-2.7425580017089843,-39.19083969465649,-43.74045801526717,-19.786259541984734
6291587190619,1.185945573,2,-6.030993981933594,-9.890447058105469,-2.710236279296875,-42.43511450381679,-22.450381679389313,-35.56488549618321
6291593859004,1.192613958,2,-6.065709906005859,-8.864531646728516,-2.7844565307617186,-45.01526717557252,-20.3206106870229,-58.2442748091603
6291600525515,1.199280469,2,-5.965153436279296,-8.046911779785155,-2.8095956481933593,-54.02290076335878,2.1603053435114505,-64.74045801526718
6291607187025,1.205941979,2,-5.6766521362304685,-7.714117749023437,-2.5725696838378904,-63.51908396946565,26.35114503816794,-59.51908396946565
6291613853952,1.212608906,2,-5.449202978515625,-7.4591352722167965,-2.443282794189453,-58.85496183206107,33.916030534351144,-54.2442748091603
6291620528327,1.219283281,2,-5.396530541992187,-7.011419561767577,-2.3439234252929686,-41.05343511450382,32.20610687022901,-51.11450381679389
6291627185150,1.225940104,2,-5.266046551513671,-6.963535528564453,-2.3415292236328122,-25.213740458015266,25.3206106870229,-40.87022900763359
6291633860827,1.232615781,2,-4.712985968017578,-7.153874560546875,-2.450465399169922,-12.916030534351146,22.893129770992367,-31.045801526717558
6291640528640,1.239283594,2,-4.516661431884765,-7.334636785888671,-2.548627667236328,-3.7404580152671754,24.251908396946565,-21.251908396946565
6291647193535,1.245948489,2,-4.612429498291015,-7.503428002929687,-2.596511700439453,-1.8015267175572518,25.52671755725191,-11.183206106870228
6291653857546,1.2526125,2,-4.855440966796874,-7.621940985107422,-2.5821464904785154,-3.4732824427480917,31.00763358778626,-3.9236641221374047
6291660517650,1.259272604,2,-4.855440966796874,-7.861361151123046,-2.588131994628906,-4.175572519083969,34.732824427480914,-1.3282442748091603
6291667194942,1.265949896,2,-4.861426470947265,-7.861361151123046,-2.4768016174316405,1.8625954198473282,36.70992366412214,-2.946564885496183
6291673856765,1.272611719,2,-4.836287353515624,-7.943961108398437,-2.4768016174316405,9.053435114503817,41.74045801526717,-4.198473282442748
6291680526973,1.279281927,2,-4.716577270507813,-8.030152368164062,-2.519897247314453,9.053435114503817,56.54961832061068,-2.5572519083969465
6291687194369,1.285949323,2,-4.551377355957031,-8.19176098022461,-2.5151088439941405,12.236641221374045,56.54961832061068,1.4274809160305344
6291693855410,1.292610364,2,-4.384980340576171,-8.281543542480469,-2.2685060729980466,12.061068702290076,84.44274809160305,1.4274809160305344
6291700528848,1.299283802,2,-4.140771771240234,-8.52335791015625,-1.9991583862304687,8.251908396946565,114.05343511450381,5.5038167938931295
6291707187858,1.305942812,2,-3.909731311035156,-8.560468035888672,-1.4053963745117186,4.961832061068702,136.7175572519084,4.603053435114504
6291713857650,1.312612604,2,-4.6627077331542965,-8.012195855712891,-0.70868369140625,0.1450381679389313,140.78625954198472,-2.198473282442748
6291720542285,1.319297239,2,-3.948038537597656,-8.2743609375,-0.47165772705078124,-7.290076335877862,120.29770992366412,-8.664122137404581
6291727225046,1.32598,2,-3.745728497314453,-8.163030560302733,-0.11133037719726561,5.687022900763359,115.58778625954199,-17.106870229007633
6291733860827,1.332615781,2,-3.3506852233886715,-7.9463553100585935,0.08978256225585937,16.778625954198475,81.89312977099236,-25.587786259541986
6291740539942,1.339294896,2,-2.886210101318359,-7.735665563964844,0.02633621826171875,23.259541984732824,49.11450381679389,-33.25190839694657
6291747189889,1.345944843,2,-2.7198130859375,-7.340622290039062,0.11731588134765625,21.549618320610687,30.946564885496183,-40.465648854961835
6291753856296,1.35261125,2,-2.4253262817382812,-7.109581829833984,0.09935936889648436,8.946564885496183,8.870229007633588,-44.57251908396947
6291760520775,1.359275729,2,-2.1799206115722654,-6.752845782470703,-0.04548983154296875,0.1450381679389313,-10.15267175572519,-49.87022900763359
6291767192858,1.365947812,2,-2.2601263671875,-6.227318518066406,-0.12689268798828124,-4.587786259541985,-29.801526717557252,-53.36641221374046
6291773855723,1.372610677,2,-2.0757728393554684,-6.1459156616210935,-0.34117373657226563,-6.702290076335878,-53.587786259541986,-46.48091603053435
6291780532858,1.379287812,2,-2.0733786376953125,-6.076483813476562,-0.5734112976074218,5.8396946564885495,-77.29770992366412,-40.80916030534351
6291787183067,1.385938021,2,-2.4480711975097655,-5.8226984375,-0.7900865478515624,22.38167938931298,-94.40458015267176,-33.465648854961835
6291793854681,1.392609635,2,-2.5426421630859375,-6.076483813476562,-1.1085153686523437,25.267175572519083,-113.21374045801527,-21.244274809160306
6291800526087,1.399281041,2,-2.8371289672851563,-6.394912634277343,-1.2988544006347655,27.52671755725191,-119.27480916030534,-11.16793893129771
6291807188535,1.405943489,2,-2.8371289672851563,-6.739677673339843,-1.6603788513183593,29.900763358778626,-126.0381679389313,-11.320610687022901
6291813892181,1.412647135,2,-2.655169641113281,-6.739677673339843,-1.9141642272949217,32.786259541984734,-141.45801526717557,-13.244274809160306
6291820534733,1.419289687,2,-2.8419173706054686,-6.619967590332031,-1.9141642272949217,37.83969465648855,-138.14503816793894,-16.206106870229007
6291827187650,1.425942604,2,-3.1507693847656246,-6.278793853759765,-2.2673089721679687,37.83969465648855,-120.30534351145039,-2.7557251908396947
6291833861921,1.432616875,2,-3.0071172851562498,-6.720524060058593,-2.5007436340332028,36.732824427480914,-120.30534351145039,12.01526717557252
6291840529733,1.439284687,2,-2.618059515380859,-7.40526573486328,-2.6671406494140624,48.038167938931295,-91.54961832061069,12.01526717557252
6291847189942,1.445944896,2,-2.6515783386230467,-7.617152581787109,-2.6048914062499997,72.01526717557252,-63.56488549618321,16.50381679389313
6291853860202,1.452615156,2,-2.8107927490234372,-7.01620796508789,-2.499546533203125,77.56488549618321,-35.412213740458014,18.251908396946565
6291860530567,1.459285521,2,-3.2513258544921873,-7.041347082519531,-2.250549560546875,44.41984732824427,-4.0458015267175576,33.86259541984733
6291867192129,1.465947083,2,-3.5613749694824217,-7.266402038574219,-2.033874310302734,10.534351145038167,9.244274809160306,49.33587786259542
6291873862025,1.472616979,2,-3.9719805541992184,-7.01620796508789,-2.0745757385253905,18.82442748091603,1.251908396946565,52.770992366412216
6291880532285,1.479287239,2,-4.787206219482422,-6.756437084960937,-2.0075380920410155,62.33587786259542,10.65648854961832,72.64885496183206
6291887189889,1.485944843,2,-5.287594366455078,-7.297526660156249,-1.7764976318359373,107.09160305343511,34.18320610687023,113.90076335877863
6291893860410,1.492615364,2,-5.80354482421875,-8.526949212646484,-1.5059528442382812,138.4198473282443,56.88549618320611,157.3206106870229
6291900533639,1.499288593,2,-6.726509564208984,-9.76235726928711,-1.1192892761230469,156.57251908396947,80.58015267175573,189.73282442748092
6291907190098,1.505945052,2,-7.24605132446289,-10.65539448852539,-0.8583212951660156,162.04580152671755,103.77099236641222,205.6412213740458
6291913864264,1.512619218,2,-8.588001354980468,-10.9175595703125,-0.4955997436523437,132.32824427480915,117.29770992366412,202.51908396946564
6291920530462,1.519285416,2,-9.075221392822264,-12.310984936523436,-0.1005564697265625,84.61068702290076,141.87786259541986,223.2824427480916
6291927191139,1.525946093,2,-10.332177264404296,-12.439074725341795,0.6009446166992187,81.66412213740458,179.87786259541986,204.72519083969465
6291933856244,1.532611198,2,-11.155782635498046,-12.415132708740234,1.370680450439453,85.54198473282443,179.89312977099237,170.2824427480916
6291940527285,1.539282239,2,-11.658564984130859,-12.027272039794921,1.9381062438964842,82.89312977099236,163.1679389312977,119.00763358778626
6291947187754,1.545942708,2,-11.475408557128906,-11.717222924804688,2.2026655273437497,62.32824427480916,121.09160305343511,60.17557251908397
6291953859473,1.552614427,2,-11.475408557128906,-11.215637677001952,2.2086510314941403,30.793893129770993,77.53435114503817,1.8778625954198473
6291960523848,1.559278802,2,-10.76313356323242,-11.215637677001952,1.9907786804199217,3.9160305343511452,56.12977099236641,-49.908396946564885
6291967188691,1.565943645,2,-8.84777223510742,-10.94868419189453,1.9907786804199217,-12.106870229007633,49.725190839694655,-91.7175572519084
6291973858014,1.572612968,2,-8.045714678955077,-9.712079034423828,2.3487118286132813,-12.106870229007633,1.2671755725190839,-114.19847328244275
6291980529212,1.579284166,2,-7.059303594970703,-8.742427362060546,2.214636535644531,-37.17557251908397,1.2671755725190839,-114.8854961832061
6291987192494,1.585947448,2,-6.392518432617187,-7.784746697998046,1.9500772521972656,-50.038167938931295,-44.50381679389313,-128.5648854961832
6291993827077,1.592582031,2,-6.36498511352539,-6.433219860839843,1.3946224670410154,-48.14503816793893,-90.22900763358778,-139.3587786259542
6292000532598,1.599287552,2,-6.290764862060547,-5.6012347839355465,0.9708487731933593,-50.01526717557252,-127.78625954198473,-126.35114503816794
6292007537441,1.606292395,2,-5.979518646240234,-5.448005877685547,0.3603273498535156,-46.12213740458015,-150.49618320610688,-98.66412213740458
6292013905254,1.612660208,2,-5.607220288085937,-5.811924530029296,-0.2501940734863281,-26.564885496183205,-160.38167938931298,-70.06870229007633
6292020531087,1.619286041,2,-5.145139367675781,-6.387730029296875,-0.8690952026367187,-0.22900763358778625,-169.76335877862596,-43.23664122137404
6292027154994,1.625909948,2,-5.10084663696289,-6.797138513183594,-1.5107412475585937,21.251908396946565,-177.35114503816794,-26.717557251908396
6292033829785,1.632584739,2,-5.495889910888671,-6.590040069580078,-2.1128829650878904,20.83206106870229,-172.53435114503816,-20.404580152671755
6292040532285,1.639287239,2,-5.6383449096679685,-7.110778930664062,-2.4349030883789062,-6.923664122137405,-135.4732824427481,-8.068702290076336
6292047195723,1.645950677,2,-5.536591339111328,-8.210914593505859,-2.6563667419433594,-26.106870229007633,-88.98473282442748,16.213740458015266
6292053860566,1.65261552,2,-5.773617303466796,-8.627505682373046,-2.6467899353027344,-9.801526717557252,-69.94656488549619,17.290076335877863
6292060529577,1.659284531,2,-6.319495281982421,-8.627505682373046,-2.579752288818359,18.625954198473284,-45.80916030534351,12.19083969465649
6292067199056,1.66595401,2,-6.511031414794921,-8.857349041748046,-2.472013214111328,29.244274809160306,-15.885496183206106,10.679389312977099
6292073861921,1.672616875,2,-6.303932971191406,-9.185354669189453,-2.1739351074218747,25.786259541984734,22.900763358778626,8.679389312977099
6292080528327,1.679283281,2,-5.9208607055664055,-9.516951599121093,-1.7573440185546874,23.61832061068702,59.33587786259542,1.2366412213740459
6292087191087,1.685946041,2,-5.792770916748046,-9.198522778320312,-1.1982979309082031,25.045801526717558,80.76335877862596,-13.854961832061068
6292093857494,1.692612448,2,-5.6778492370605465,-8.683769421386717,-0.5698199951171875,18.87786259541985,96.96946564885496,-23.442748091603054
6292100541296,1.69929625,2,-5.984307049560546,-8.2743609375,-0.0526724365234375,4.33587786259542,113.51908396946565,-24.106870229007633
6292107186504,1.705941458,2,-6.110002636718749,-8.2743609375,-0.10654197387695312,-6.916030534351145,115.65648854961832,-19.435114503816795
6292113925566,1.71268052,2,-6.2021794006347655,-8.095992913818359,0.5063736511230469,-1.0534351145038168,110.55725190839695,-12.786259541984732
6292120531348,1.719286302,2,-6.247669232177734,-8.17141026611328,0.9361328491210937,-1.0534351145038168,109.91603053435115,-6.893129770992366
6292127194629,1.725949583,2,-6.208164904785156,-8.301894256591796,1.2078747375488281,16.84732824427481,94.2824427480916,-6.312977099236641
6292133860462,1.732615416,2,-6.398503936767578,-8.315062365722655,1.2677297790527342,32.61832061068702,71.62595419847328,-4.358778625954199
6292140529941,1.739284895,2,-6.418854650878906,-8.517372406005858,1.1168950744628905,31.106870229007633,48.3206106870229,-1.8778625954198473
6292147187233,1.745942187,2,-6.579266162109374,-8.657433203124999,1.005564697265625,16.31297709923664,32.25954198473283,-0.5801526717557252
6292153856296,1.75261125,2,-6.912060192871094,-8.871714251708983,0.8822633117675781,-1.4274809160305344,20.755725190839694,0.6259541984732825
6292160536869,1.759291823,2,-7.176619476318359,-9.167398156738281,0.6643909606933593,-10.541984732824428,20.30534351145038,1.0610687022900764
6292167191712,1.765946666,2,-7.082048510742187,-9.437942944335937,0.5291185668945312,-10.045801526717558,29.770992366412212,-1.0610687022900764
6292173858483,1.772613437,2,-6.853402252197265,-9.65342109375,0.430956298828125,-6.465648854961832,47.12977099236641,-4.702290076335878
6292180523275,1.779278229,2,-6.616376287841796,-9.87608184814453,0.5422866760253906,-8.320610687022901,70.29007633587786,-10.007633587786259
6292187199785,1.785954739,2,-6.828263134765624,-9.599551556396484,0.7864952453613281,-21.53435114503817,93.4885496183206,-16.267175572519083
6292193857598,1.792612552,2,-6.771999395751953,-9.619902270507811,1.1875240234375,-42.48854961832061,115.47328244274809,-19.82442748091603
6292200528171,1.799283125,2,-6.457161877441406,-9.682151513671874,1.5107412475585937,-51.847328244274806,130.86259541984734,-28.52671755725191
6292207188118,1.805943072,2,-6.059724401855468,-9.387664709472656,1.8459294799804686,-48.47328244274809,134.73282442748092,-42.02290076335878
6292213859785,1.812614739,2,-5.704185455322265,-8.951920007324219,2.157175695800781,-48.68702290076336,127.2442748091603,-56.770992366412216
6292220526087,1.819281041,2,-5.1511248718261715,-8.614337573242187,2.4971523315429685,-57.67175572519084,105.92366412213741,-69.85496183206106
6292227199629,1.825954583,2,-4.608838195800781,-8.218097198486328,2.626439221191406,-66.8473282442748,66.0381679389313,-86.14503816793894
6292233861660,1.832616614,2,-3.851073370361328,-7.751227874755859,2.4013842651367185,-67.32824427480917,10.755725190839694,-104.51908396946565
6292240529368,1.839284322,2,-3.9516298400878904,-7.095216619873047,2.105700360107422,-57.900763358778626,-48.152671755725194,-122.98473282442748
6292247193275,1.845948229,2,-3.1854853088378903,-7.144297753906249,1.523909356689453,-49.79389312977099,-94.19083969465649,-137.44274809160305
6292253858483,1.852613437,2,-2.346317626953125,-6.37815322265625,1.438915197753906,-50.06870229007634,-133.25954198473283,-142.6030534351145
6292260528327,1.859283281,2,-1.5023615417480467,-5.86699116821289,0.8259995727539062,-49.030534351145036,-158.95419847328245,-142.63358778625954
6292267192493,1.865947447,2,-0.6368576416015624,-5.409698651123047,0.21188684692382811,-52.93893129770992,-159.6946564885496,-137.33587786259542
6292273860410,1.872615364,2,-0.4417302062988281,-4.763264202880859,-0.3962403747558593,-55.229007633587784,-183.14503816793894,-138.26717557251908
6292280523743,1.879278697,2,-0.17597382202148437,-4.218583325195312,-1.2174515441894531,-52.76335877862596,-203.18320610687022,-126.54198473282443
6292287198900,1.885953854,2,0.037110125732421874,-3.8953661010742184,-1.7753005310058592,-42.221374045801525,-189.86259541984734,-107.23664122137404
6292293858900,1.892613854,2,0.4800374328613281,-4.107252947998047,-2.3032219970703123,-31.610687022900763,-172.44274809160305,-80.46564885496183
6292300524785,1.899279739,2,0.3172317199707031,-4.074931225585937,-2.398990063476562,-15.061068702290076,-142.86259541984734,-53.87022900763359
6292307186139,1.905941093,2,0.7134720947265625,-4.745307690429687,-2.7820623291015623,-0.22137404580152673,-128.6030534351145,-27.419847328244273
6292313820410,1.912575364,2,0.13407529296874998,-4.721365673828124,-2.6563667419433594,23.480916030534353,-90.22900763358778,-2.3740458015267176
6292320528379,1.919283333,2,0.008379705810546874,-5.086481427001953,-2.443282794189453,24.770992366412212,-45.83969465648855,23.625954198473284
6292327183483,1.925938437,2,-0.41898529052734373,-5.4515971801757805,-2.318784307861328,8.083969465648854,-29.625954198473284,44.58015267175573
6292333859889,1.932614843,2,-1.638831036376953,-5.403713146972656,-1.935712042236328,3.763358778625954,-13.122137404580153,59.541984732824424
6292340526764,1.939281718,2,-2.6001030029296874,-5.603628985595702,-1.5514426757812498,12.786259541984732,7.877862595419847,77.81679389312977
6292347245202,1.946000156,2,-2.721010186767578,-6.479906793212891,-1.3730746520996093,31.27480916030534,18.519083969465647,96.62595419847328
6292354008639,1.952763593,2,-3.450044592285156,-6.900089184570312,-1.303642803955078,52.54961832061068,4.923664122137405,111.20610687022901
6292360578014,1.959332968,2,-4.2329485351562495,-7.349001995849609,-1.0821791503906248,68.86259541984732,11.900763358778626,117.77862595419847
6292367195827,1.965950781,2,-4.697423657226563,-8.167818963623047,-0.833182177734375,71.6793893129771,24.31297709923664,131.59541984732823
6292373869785,1.972624739,2,-5.195417602539062,-8.832209924316405,-0.6404489440917969,70.42748091603053,28.541984732824428,135.65648854961833
6292380527129,1.979282083,2,-6.005854864501953,-9.216479290771483,-0.4572925170898437,67.1145038167939,13.122137404580153,135.793893129771
6292387191296,1.98594625,2,-6.074089611816406,-9.558850128173827,-0.5063736511230469,63.52671755725191,6.122137404580153,134.61068702290078
6292393866816,1.99262177,2,-6.8402341430664055,-9.64623848876953,-0.33518823242187495,63.091603053435115,5.816793893129771,135.31297709923663
6292400541087,1.999296041,2,-7.513004809570312,-9.952696301269532,-0.4537012145996093,70.29770992366412,17.236641221374047,132.54961832061068
6292407198743,2.005953697,2,-8.252813122558594,-10.269928021240235,-0.14724340209960937,70.05343511450381,15.229007633587786,128.06870229007635
6292413866035,2.012620989,2,-8.374917407226562,-10.824185705566405,0.010773907470703125,75.91603053435115,14.931297709923664,115.19083969465649
6292420534212,2.019289166,2,-8.88607946166992,-10.832565411376953,0.09457096557617187,81.34351145038168,20.793893129770993,115.19083969465649
6292427193014,2.025947968,2,-9.226056097412108,-10.983400115966797,0.20829554443359374,67.20610687022901,21.61832061068702,101.41221374045801
6292433859941,2.032614895,2,-9.412803826904296,-11.092336291503905,0.37229835815429685,42.282442748091604,30.908396946564885,86.13740458015268
6292440532962,2.039287916,2,-9.338583575439452,-11.212046374511718,0.6153098266601562,19.259541984732824,33.18320610687023,66.09160305343511
6292447194420,2.045949374,2,-9.279925634765624,-10.918756671142578,0.5877765075683593,8.045801526717558,20.244274809160306,38.48854961832061
6292453866452,2.052621406,2,-9.13028803100586,-10.317812054443358,0.5686228942871093,3.2442748091603053,7.358778625954199,12.816793893129772
6292460544316,2.05929927,2,-8.647856396484375,-9.842563024902343,0.5219359619140624,-3.4427480916030535,-1.1984732824427482,-7.969465648854962
6292467204004,2.065958958,2,-7.978677032470703,-9.307458953857422,0.33039982910156246,-10.908396946564885,-9.366412213740459,-24.129770992366414
6292473864316,2.07261927,2,-7.4591352722167965,-8.628702783203124,0.12449848632812499,-18.419847328244273,-18.213740458015266,-36.30534351145038
6292480545254,2.079300208,2,-7.204152795410156,-7.9846625366210935,-0.01915361328125,-25.03053435114504,-27.61832061068702,-41.93893129770992
6292487197389,2.085952343,2,-7.248445526123047,-7.433996154785156,-0.105344873046875,-20.702290076335878,-27.442748091603054,-38.282442748091604
6292493934785,2.092689739,2,-6.930016705322266,-7.435193255615234,-0.4034229797363281,-5.4961832061068705,-19.099236641221374,-24.69465648854962
6292500532077,2.099287031,2,-6.5589154479980465,-7.471106280517578,-0.40462008056640625,17.022900763358777,-9.419847328244275,-13.82442748091603
6292507194577,2.105949531,2,-6.612784985351562,-7.398083129882812,-0.16519991455078123,35.54961832061068,2.351145038167939,-5.221374045801527
6292513901660,2.112656614,2,-6.368576416015625,-7.7799582946777335,-0.1149216796875,30.6793893129771,18.83206106870229,6.137404580152672
6292520528639,2.119283593,2,-6.172251879882812,-8.21690009765625,0.09696516723632811,14.091603053435115,29.076335877862597,12.053435114503817
6292527189889,2.125944843,2,-6.396109735107421,-8.186972576904296,0.25258827514648435,3.9236641221374047,26.65648854961832,9.15267175572519
6292533868952,2.132623906,2,-6.333860491943359,-8.158242156982421,0.25139117431640623,-1.816793893129771,20.946564885496183,5.320610687022901
6292540565358,2.139320312,2,-6.640318304443359,-8.19176098022461,0.3136404174804687,-2.885496183206107,19.12213740458015,2.954198473282443
6292547204837,2.145959791,2,-6.487089398193359,-8.19176098022461,0.3136404174804687,0.8396946564885496,10.954198473282442,0.0
6292553862545,2.152617499,2,-6.449979272460937,-8.169016064453125,0.21906945190429686,0.8396946564885496,1.1603053435114503,-1.8778625954198473
6292560529264,2.159284218,2,-6.488286499023437,-8.25520732421875,0.09696516723632811,5.1603053435114505,1.1603053435114503,-3.2748091603053435
6292567228639,2.165983593,2,-6.349422802734375,-8.396465222167969,0.10654197387695312,9.534351145038167,1.1603053435114503,-3.2748091603053435
6292573865098,2.172620052,2,-6.016628771972656,-8.542511523437499,-0.03950432739257812,11.80916030534351,3.9923664122137406,-4.3816793893129775
6292580534733,2.179289687,2,-5.966350537109375,-8.531737615966797,-0.020350714111328123,12.007633587786259,15.17557251908397,-4.893129770992366
6292587193223,2.185948177,2,-5.835866546630859,-8.639476690673828,-0.015562310791015624,7.198473282442748,25.9618320610687,-6.251908396946565
6292593858170,2.192613124,2,-5.780799908447265,-8.542511523437499,0.09696516723632811,1.8396946564885497,41.030534351145036,-8.740458015267176
6292600527702,2.199282656,2,-5.609614489746093,-8.445546356201172,0.3064578125,-4.137404580152672,52.86259541984733,-9.740458015267176
6292607185931,2.205940885,2,-5.791573815917968,-8.310273962402343,0.47285482788085936,-7.580152671755725,64.29007633587786,-10.374045801526718
6292613858639,2.212613593,2,-6.0321910827636716,-8.10796392211914,0.8104372619628906,-11.091603053435115,70.38931297709924,-8.83206106870229
6292620528639,2.219283593,2,-6.1459156616210935,-8.020575561523437,1.1719617126464843,-11.458015267175572,72.90076335877863,-7.404580152671755
6292627191295,2.225946249,2,-6.139930157470703,-8.048108880615233,1.361103643798828,-8.297709923664122,65.72519083969466,-6.374045801526718
6292633863900,2.232618854,2,-6.087257720947266,-8.22288560180664,1.5789759948730469,-1.7938931297709924,49.770992366412216,-3.0381679389312977
6292640532754,2.239287708,2,-6.110002636718749,-8.294711651611328,1.6543933471679686,6.129770992366412,33.25190839694657,-3.763358778625954
6292647190931,2.245945885,2,-6.137535955810547,-8.289923248291014,1.714248388671875,6.763358778625954,15.770992366412214,-4.267175572519084
6292653830566,2.25258552,2,-6.333860491943359,-8.396465222167969,1.7357962036132812,-2.50381679389313,-0.32061068702290074,-2.8931297709923665
6292660531868,2.259286822,2,-6.677428430175781,-8.487444885253906,1.571793389892578,-15.038167938931299,-17.938931297709924,-0.9541984732824428
6292667196400,2.265951354,2,-7.07366880493164,-8.65623610229492,1.4137760803222656,-21.81679389312977,-34.70229007633588,-0.45038167938931295
6292673864160,2.272619114,2,-7.162254266357421,-8.804676605224609,1.1695675109863282,-20.549618320610687,-51.33587786259542,-4.412213740458015
6292680536035,2.279290989,2,-7.162254266357421,-8.92438668823242,0.729034405517578,-16.389312977099237,-66.25190839694656,-13.236641221374045
6292687191816,2.28594677,2,-6.965929730224609,-8.92438668823242,0.39264907226562495,-19.083969465648856,-69.59541984732824,-25.083969465648856
6292693866400,2.292621354,2,-7.1407064514160155,-8.712499841308594,0.39264907226562495,-36.732824427480914,-62.67175572519084,-31.870229007633586
6292700529160,2.299284114,2,-6.701370446777343,-8.842983831787109,-0.008379705810546874,-36.732824427480914,-62.099236641221374,-41.82442748091603
6292707195254,2.305950208,2,-6.196193896484375,-8.80946500854492,-0.1580173095703125,-50.7557251908397,-62.099236641221374,-55.31297709923664
6292713866920,2.312621874,2,-6.054935998535156,-8.29950005493164,-0.49320554199218747,-51.412213740458014,-60.465648854961835,-55.31297709923664
6292720536972,2.319291926,2,-5.692214447021484,-7.917624890136718,-0.7577648254394531,-50.969465648854964,-54.05343511450382,-61.82442748091603
6292727196400,2.325951354,2,-5.437231970214843,-7.574056951904296,-1.0031704956054688,-50.56488549618321,-43.43511450381679,-62.7557251908397
6292733861868,2.332616822,2,-5.181052392578125,-7.248445526123047,-1.0857704528808594,-47.908396946564885,-32.969465648854964,-59.152671755725194
6292740530775,2.339285729,2,-4.957194537353515,-7.146691955566406,-1.2533645690917967,-41.70229007633588,-24.49618320610687,-51.86259541984733
6292747193691,2.345948645,2,-4.786009118652344,-7.086836914062499,-1.3455413330078123,-31.519083969465647,-16.03053435114504,-41.81679389312977
6292753861972,2.352616926,2,-4.576516473388671,-7.173028173828125,-1.448492004394531,-19.580152671755727,-5.931297709923665,-31.52671755725191
6292760528431,2.359283385,2,-4.554968658447265,-7.261613635253906,-1.341950030517578,-8.801526717557252,11.114503816793894,-21.66412213740458
6292767195775,2.365950729,2,-4.429273071289062,-7.593210565185546,-1.303642803955078,-4.221374045801527,27.236641221374047,-13.541984732824428
6292773864681,2.372619635,2,-4.254496350097656,-7.7967177062988275,-1.1133037719726562,-3.0839694656488548,41.56488549618321,-9.610687022900763
6292780533170,2.379288124,2,-4.290409374999999,-7.8912886718749995,-0.8367734802246093,-3.7709923664122136,54.045801526717554,-9.603053435114504
6292787195150,2.385950104,2,-4.206612316894531,-7.880514764404296,-0.5602431884765625,-5.7251908396946565,64.32824427480917,-12.778625954198473
6292793830202,2.392585156,2,-3.9791631591796874,-7.812280017089844,-0.37229835815429685,-8.091603053435115,70.05343511450381,-18.328244274809162
6292800539316,2.39929427,2,-3.8283284545898435,-7.521384515380859,-0.05985504150390625,-11.435114503816793,69.61068702290076,-24.15267175572519
6292807194941,2.405949895,2,-3.821145849609375,-7.240065820312499,0.1640028137207031,-16.557251908396946,64.17557251908397,-27.541984732824428
6292813860410,2.412615364,2,-3.6727053466796873,-7.11197603149414,0.3268085266113281,-20.328244274809162,56.038167938931295,-27.549618320610687
6292820538275,2.419293229,2,-3.393780853271484,-6.926425402832031,0.2825157958984375,-19.16793893129771,44.916030534351144,-26.564885496183205
6292827194108,2.425949062,2,-3.393780853271484,-6.744466076660156,0.4070142822265625,-15.694656488549619,29.671755725190838,-23.770992366412212
6292833860306,2.43261526,2,-3.4069489624023435,-6.744466076660156,0.40940848388671874,-15.916030534351146,13.84732824427481,-20.748091603053435
6292840534472,2.439289426,2,-3.3207577026367185,-6.587645867919922,0.40940848388671874,-16.236641221374047,-1.8091603053435115,-17.297709923664122
6292847203222,2.445958176,2,-3.220201232910156,-6.609193682861328,0.3172317199707031,-16.236641221374047,-21.12213740458015,-14.84732824427481
6292853905097,2.452660051,2,-3.2321722412109373,-6.507440112304687,0.1592144104003906,-14.106870229007633,-21.12213740458015,-14.083969465648854
6292860540827,2.459295781,2,-3.134009973144531,-6.372167718505859,0.020350714111328123,-11.045801526717558,-36.64885496183206,-14.083969465648854
6292867198535,2.465953489,2,-3.1016882507324217,-6.429628558349609,-0.258573779296875,-11.572519083969466,-46.93129770992366,-10.076335877862595
6292873860566,2.47261552,2,-2.9759926635742184,-6.478709692382812,-0.565031591796875,-11.007633587786259,-47.458015267175576,-6.786259541984733
6292880534785,2.479289739,2,-2.91134921875,-6.482300994873047,-0.604535919189453,-10.931297709923664,-35.31297709923664,-4.519083969465649
6292887192962,2.485947916,2,-2.8802245971679685,-6.5218053222656245,-0.5817910034179687,-14.564885496183207,-20.72519083969466,1.6106870229007633
6292893859681,2.492614635,2,-2.817975354003906,-6.86297905883789,-0.5315127685546874,-19.259541984732824,-14.076335877862595,7.717557251908397
6292900539629,2.499294583,2,-2.948459344482422,-6.92043989868164,-0.3938461730957031,-14.282442748091603,-18.763358778625953,10.068702290076336
6292907196608,2.505951562,2,-2.6910826660156246,-6.889315277099609,-0.4608838195800781,-7.625954198473282,-29.30534351145038,4.5038167938931295
6292913860722,2.512615676,2,-2.567781280517578,-6.5960255737304685,-0.7038952880859375,-5.083969465648855,-41.51145038167939,1.702290076335878
6292920538483,2.519293437,2,-2.6048914062499997,-6.303932971191406,-0.6955155822753906,-3.4732824427480917,-39.18320610687023,5.061068702290076
6292927190254,2.525945208,2,-2.300827795410156,-6.362590911865234,-0.7302315063476562,-4.267175572519084,-34.541984732824424,12.511450381679388
6292933862285,2.532617239,2,-2.867056488037109,-6.110002636718749,-0.8918401184082031,-4.732824427480916,-39.18320610687023,30.34351145038168
6292940533014,2.539287968,2,-3.488351818847656,-5.954379528808594,-1.0378864196777342,-6.480916030534351,-47.01526717557252,41.83206106870229
6292947197233,2.545952187,2,-4.768052606201172,-5.594052178955078,-1.1049240661621094,-5.702290076335878,-41.68702290076336,55.68702290076336
6292953932597,2.552687551,2,-5.299565374755859,-6.1818286865234375,-1.1947066284179686,-4.900763358778626,-44.55725190839695,75.68702290076335
6292960528483,2.559283437,2,-5.934028814697265,-6.8031240173339835,-1.255758770751953,17.549618320610687,-47.282442748091604,86.45801526717557
6292967193222,2.565948176,2,-5.91846650390625,-7.690175732421874,-1.466448516845703,53.80152671755725,-56.61832061068702,90.07633587786259
6292973859316,2.57261427,2,-5.76523759765625,-7.751227874755859,-1.6819266662597656,87.16793893129771,-62.3206106870229,90.79389312977099
6292980532024,2.579286978,2,-5.966350537109375,-8.057685687255859,-1.5394716674804687,92.83206106870229,-46.37404580152672,90.74045801526718
6292987190462,2.585945416,2,-5.878962176513672,-8.547299926757812,-1.8459294799804686,92.17557251908397,-17.603053435114504,88.63358778625954
6292993862702,2.592617656,2,-6.287173559570312,-8.698134631347656,-1.6172832214355468,76.54198473282443,-18.82442748091603,88.61068702290076
6293000529629,2.599284583,2,-6.866570361328125,-8.678981018066406,-1.35990654296875,54.3206106870229,8.534351145038167,89.87786259541984
6293007194264,2.605949218,2,-7.7967177062988275,-8.652644799804687,-0.9181763366699218,42.86259541984733,38.66412213740458,93.78625954198473
6293013858639,2.612613593,2,-8.601169464111328,-8.85495484008789,-0.5422866760253906,44.98473282442748,60.3206106870229,104.45038167938931
6293020583274,2.619338228,2,-9.3852705078125,-9.05367357788086,-0.11013327636718749,61.12213740458015,86.06106870229007,115.8854961832061
6293027195254,2.625950208,2,-10.128670123291014,-9.470264666748045,0.3232172241210937,74.86259541984732,102.70992366412214,126.7175572519084
6293033864472,2.632619426,2,-11.429918725585937,-9.580397943115234,0.948103857421875,77.3206106870229,104.87786259541984,130.6259541984733
6293040528847,2.639283801,2,-12.77546005859375,-10.085574493408203,1.8854338073730468,71.02290076335878,138.16030534351145,133.68702290076337
6293047194420,2.645949374,2,-12.407950103759765,-11.57476792602539,2.43250888671875,58.81679389312977,134.06870229007635,131.793893129771
6293053861608,2.652616562,2,-12.638990563964843,-12.093112585449218,2.845508673095703,70.38167938931298,109.77099236641222,104.66412213740458
6293060530983,2.659285937,2,-12.242750189208984,-12.227187878417968,3.075352032470703,74.47328244274809,79.38167938931298,63.42748091603053
6293067192441,2.665947395,2,-10.996568225097656,-12.439074725341795,2.9472622436523435,51.63358778625954,54.87786259541985,18.908396946564885
6293073865879,2.672620833,2,-9.719261639404296,-11.853692419433592,2.6683377502441403,10.0,35.80916030534351,-31.625954198473284
6293080534785,2.679289739,2,-9.254786517333983,-10.144232434082031,2.6144682128906247,-51.587786259541986,14.557251908396946,-84.40458015267176
6293087199837,2.685954791,2,-8.313865264892577,-8.975862023925782,2.1835119140624997,-118.35114503816794,-0.6412213740458015,-114.73282442748092
6293093863066,2.69261802,2,-8.052897283935547,-7.978677032470703,1.678335363769531,-148.2824427480916,-34.38931297709924,-129.6259541984733
6293100535931,2.699290885,2,-7.176619476318359,-7.167042669677734,0.9732429748535155,-120.49618320610686,-70.16793893129771,-139.90076335877862
6293107191920,2.705946874,2,-6.13514175415039,-6.338648895263671,0.11133037719726561,-64.31297709923665,-92.94656488549619,-146.206106870229
6293113866347,2.712621301,2,-6.251260534667968,-5.704185455322265,-0.6667851623535156,-29.541984732824428,-108.96946564885496,-139.36641221374046
6293120529837,2.719284791,2,-5.025429284667968,-5.722141967773437,-1.1959037292480468,-29.00763358778626,-95.1526717557252,-120.16793893129771
6293127197389,2.725952343,2,-4.453215087890625,-5.109226342773437,-1.2126631408691406,-56.396946564885496,-75.7175572519084,-88.93129770992367
6293133862597,2.732617551,2,-4.180276098632812,-5.104437939453125,-1.3658920471191405,-54.76335877862596,-61.916030534351144,-56.274809160305345
6293140533274,2.739288228,2,-4.20062681274414,-5.268440753173828,-1.7334020019531249,-78.21374045801527,-60.67175572519084,-26.625954198473284
6293147192129,2.745947083,2,-4.754884497070313,-5.5461681457519525,-1.8052280517578123,-72.95419847328245,-45.038167938931295,-26.740458015267176
6293153863014,2.752617968,2,-5.1894320983886715,-6.02022007446289,-2.061407629394531,-46.38931297709924,-30.022900763358777,0.6183206106870229
6293160526399,2.759281353,2,-5.710170959472656,-6.570886456298828,-2.224213342285156,-13.198473282442748,-14.099236641221374,25.755725190839694
6293167193483,2.765948437,2,-6.0884548217773435,-7.37414111328125,-2.3487118286132813,8.465648854961833,10.267175572519085,44.69465648854962
6293173861920,2.772616874,2,-6.507440112304687,-8.288726147460936,-2.243366955566406,9.908396946564885,37.11450381679389,58.213740458015266
6293180532129,2.779287083,2,-6.552929943847656,-9.379285003662108,-2.0254946044921875,4.297709923664122,53.3587786259542,66.02290076335878
6293187191868,2.785946822,2,-7.1778165771484375,-9.585186346435547,-1.9009961181640624,13.687022900763358,54.083969465648856,51.267175572519086
6293193866139,2.792621093,2,-7.584830859375,-9.431957440185545,-1.2222399475097656,25.916030534351144,103.2824427480916,48.458015267175576
6293200532806,2.79928776,2,-7.484274389648437,-9.457096557617186,-0.3962403747558593,2.312977099236641,146.03053435114504,36.41984732824427
6293207191295,2.805946249,2,-7.597998968505859,-9.504980590820312,0.27174188842773433,-43.37404580152672,136.54198473282443,21.35114503816794
6293213894056,2.81264901,2,-7.4794859863281244,-9.478644372558593,0.82360537109375,-54.916030534351144,134.03053435114504,5.076335877862595
6293220534576,2.81928953,2,-7.754819177246094,-8.802282403564453,1.16837041015625,-44.68702290076336,105.96946564885496,-15.427480916030534
6293227186608,2.825941562,2,-8.013392956542969,-8.095992913818359,1.465251416015625,-36.06106870229008,81.77862595419847,-30.908396946564885
6293233860983,2.832615937,2,-6.903680487060546,-8.078036401367187,1.2617442749023438,-38.83969465648855,72.21374045801527,-52.12213740458015
6293240534733,2.839289687,2,-5.333084197998047,-8.665812908935546,1.1982979309082031,-44.11450381679389,50.656488549618324,-50.76335877862596
6293247191972,2.845946926,2,-5.510255120849609,-7.978677032470703,1.045069024658203,-32.732824427480914,-12.50381679389313,-56.343511450381676
6293253859472,2.852614426,2,-5.990292553710937,-7.127538342285156,0.7278373046875,-29.66412213740458,-52.80152671755725,-63.61832061068702
6293260527806,2.85928276,2,-6.016628771972656,-7.01620796508789,0.30526071166992186,-45.17557251908397,-65.87786259541984,-58.61832061068702
6293267191451,2.865946405,2,-5.710170959472656,-7.029376074218749,-0.23223756103515625,-55.74045801526717,-79.49618320610686,-54.17557251908397
6293273862649,2.872617603,2,-5.646724615478515,-7.029376074218749,-0.18555062866210936,-48.778625954198475,-93.26717557251908,-52.48091603053435
6293280545253,2.879300207,2,-6.1626750732421876,-6.738480572509765,-0.6452373474121094,-47.030534351145036,-100.8854961832061,-50.05343511450382
6293287192337,2.885947291,2,-5.501875415039062,-7.180210778808593,-1.2330138549804688,-35.30534351145038,-100.14503816793894,-47.16793893129771
6293293858639,2.892613593,2,-5.236119030761718,-7.28435855102539,-1.6927005737304686,-19.03053435114504,-115.77862595419847,-47.16793893129771
6293300528170,2.899283124,2,-5.4779333984375,-6.886921075439453,-2.175132208251953,-13.969465648854962,-117.09923664122137,-46.152671755725194
6293307196035,2.905950989,2,-4.96078583984375,-7.122749938964843,-2.7521348083496093,-31.595419847328245,-99.6793893129771,-43.12977099236641
6293313862128,2.912617082,2,-4.938040924072265,-7.068880401611327,-3.020285394287109,-47.18320610687023,-75.78625954198473,-40.83206106870229
6293320529160,2.919284114,2,-4.969165545654296,-6.851008050537109,-3.1687258972167966,-52.76335877862596,-49.58015267175573,-42.213740458015266
6293327199576,2.92595453,2,-4.516661431884765,-6.769605194091796,-3.199850518798828,-45.56488549618321,-12.564885496183207,-42.786259541984734
6293333927285,2.932682239,2,-4.053383410644531,-6.533776330566406,-3.027467999267578,-30.091603053435115,18.045801526717558,-44.30534351145038
6293340546712,2.939301666,2,-3.6056677001953124,-6.179434484863281,-2.8574796813964842,-18.587786259541986,40.83969465648855,-45.099236641221374
6293347195566,2.94595052,2,-3.3865982482910155,-5.7843912109375,-2.517503045654297,-20.053435114503817,56.9236641221374,-42.33587786259542
6293353858378,2.952613332,2,-3.337517114257812,-5.5090580200195305,-2.091335150146484,-29.633587786259543,67.92366412213741,-34.534351145038165
6293360522285,2.959277239,2,-3.2908301818847656,-5.443217474365234,-1.7214309936523438,-33.656488549618324,69.99236641221374,-25.129770992366414
6293367193378,2.965948332,2,-3.3710359375,-5.377376928710937,-1.5011644409179687,-24.419847328244273,59.99236641221374,-16.671755725190838
6293373860358,2.972615312,2,-3.5482068603515624,-5.270834954833984,-1.4173673828125,-8.206106870229007,40.0,-9.412213740458014
6293380533535,2.979288489,2,-3.67749375,-5.354632012939453,-1.4377180969238281,5.580152671755725,17.595419847328245,-1.1526717557251909
6293387189212,2.985944166,2,-3.6942531616210936,-5.689820245361328,-1.6077064147949218,15.374045801526718,-3.519083969465649,6.541984732824427
6293393858170,2.992613124,2,-3.7205893798828122,-5.987898352050781,-1.848323681640625,24.671755725190838,-19.267175572519083,10.396946564885496
6293400539108,2.999294062,2,-3.718195178222656,-6.228515618896484,-2.0542250244140625,30.30534351145038,-24.297709923664122,11.908396946564885
6293407191451,3.005946405,2,-3.718195178222656,-6.458358978271484,-2.1452046874999997,28.480916030534353,-20.137404580152673,13.488549618320612
6293413860462,3.012615416,2,-3.6846763549804686,-6.458358978271484,-2.2541408630371094,23.0381679389313,-12.13740458015267,14.412213740458014
6293420531503,3.019286457,2,-3.72178648071289,-6.566098052978515,-2.2541408630371094,20.16793893129771,-0.0916030534351145,12.793893129770993
6293427183743,3.025938697,2,-3.7720647155761715,-6.56968935546875,-2.251746661376953,20.16793893129771,18.00763358778626,14.961832061068701
6293433862128,3.032617082,2,-3.958812445068359,-6.514622717285156,-1.905784521484375,19.328244274809162,18.00763358778626,18.396946564885496
6293440525306,3.03928026,2,-3.5889082885742187,-6.64630380859375,-1.4808137268066406,21.603053435114504,31.541984732824428,18.396946564885496
6293447187701,3.045942655,2,-4.013879083251953,-6.433219860839843,-1.2030863342285156,32.083969465648856,30.85496183206107,19.572519083969464
6293453859420,3.052614374,2,-4.1946413085937495,-6.509834313964843,-0.8774749084472656,33.19847328244275,33.274809160305345,27.52671755725191
6293460526347,3.059281301,2,-4.021061688232422,-6.841431243896484,-0.6476315490722656,31.778625954198475,36.465648854961835,33.083969465648856
6293467184108,3.065939062,2,-4.210203619384766,-6.886921075439453,-0.45010991210937495,33.64885496183206,21.47328244274809,34.770992366412216
6293473859264,3.072614218,2,-4.6447512207031245,-6.872555865478515,-0.3711012573242187,36.00763358778626,4.572519083969466,36.25190839694657
6293480527649,3.079282603,2,-5.210979913330078,-6.801926916503906,0.031124621582031248,36.656488549618324,-7.6106870229007635,38.9236641221374
6293487188378,3.085943332,2,-4.546588952636719,-7.417236743164062,-0.4369418029785156,42.0,-15.549618320610687,45.85496183206107
6293493854628,3.092609582,2,-5.561730456542969,-7.11197603149414,-0.8511386901855468,45.85496183206107,-60.61832061068702,52.343511450381676
6293500525462,3.099280416,2,-6.418854650878906,-6.6151791870117185,-1.0115502014160156,48.51145038167939,-52.48854961832061,51.87786259541985
6293507192753,3.105947707,2,-6.548141540527343,-7.72489165649414,-0.9624690673828125,38.12213740458015,-33.06870229007634,78.38167938931298
6293513854785,3.112609739,2,-6.785167504882812,-8.787917193603516,-0.9612719665527343,55.847328244274806,-18.82442748091603,94.52671755725191
6293520524003,3.119278957,2,-7.311891870117187,-9.028534460449219,-0.8930372192382812,92.3587786259542,-27.091603053435115,91.89312977099236
6293527188639,3.125943593,2,-7.9272016967773435,-9.211690887451171,-0.7003039855957031,110.74809160305344,-13.114503816793894,91.3969465648855
6293533860514,3.132615468,2,-8.385691314697265,-9.56962403564453,-0.39145197143554683,96.67175572519083,15.557251908396946,92.54198473282443
6293540525722,3.139280676,2,-8.503007196044921,-9.829394915771484,0.058657940673828124,71.80916030534351,51.091603053435115,85.27480916030534
6293547189003,3.145943957,2,-8.494627490234375,-10.263942517089843,0.5135562561035156,47.35114503816794,72.64885496183206,78.57251908396947
6293553858118,3.152613072,2,-8.494627490234375,-10.256759912109374,0.9121908325195311,37.87786259541985,85.46564885496183,66.2824427480916
6293560516503,3.159271457,2,-8.635885388183594,-10.256759912109374,1.3479355346679687,36.770992366412216,90.83969465648855,47.458015267175576
6293567192597,3.165947551,2,-8.736441857910156,-10.12507882080078,1.3479355346679687,31.53435114503817,91.14503816793894,29.328244274809162
6293573860774,3.172615728,2,-8.307879760742187,-10.08677159423828,1.8291700683593748,31.53435114503817,79.01526717557252,5.396946564885496
6293580524941,3.179279895,2,-7.564480145263672,-9.706093530273437,2.0566192260742184,22.50381679389313,79.01526717557252,-18.03053435114504
6293587194524,3.185949478,2,-7.000645654296875,-8.901641772460938,2.1116858642578125,1.816793893129771,59.42748091603053,-18.03053435114504
6293593864680,3.192619634,2,-6.712144354248046,-8.173804467773436,2.1487959899902345,-32.52671755725191,34.282442748091604,-30.076335877862597
6293600526920,3.199281874,2,-6.641515405273437,-7.449558465576171,1.8818425048828125,-59.38931297709924,6.290076335877862,-32.916030534351144
6293607192858,3.205947812,2,-6.500257507324219,-6.981492041015625,1.5753846923828123,-60.79389312977099,-24.198473282442748,-30.00763358778626
6293613862285,3.212617239,2,-6.5206082214355465,-6.5960255737304685,1.0283096130371092,-41.42748091603053,-58.404580152671755,-22.65648854961832
6293620529368,3.219284322,2,-6.524199523925781,-6.3901242309570305,0.2932897033691406,-19.603053435114504,-89.02290076335878,-9.908396946564885
6293627207337,3.225962291,2,-6.868964562988281,-6.542156036376952,-0.16280571289062498,-7.473282442748092,-112.46564885496183,7.473282442748092
6293633862858,3.232617812,2,-7.152677459716797,-6.97790073852539,-0.8116343627929687,2.480916030534351,-126.90076335877863,23.19083969465649
6293640532545,3.239287499,2,-7.655459808349609,-7.358578802490234,-1.4281412902832031,13.526717557251908,-140.46564885496184,31.106870229007633
6293647190097,3.245945051,2,-8.1594392578125,-7.6470801025390625,-2.070984436035156,17.99236641221374,-142.5648854961832,35.083969465648856
6293653858118,3.252613072,2,-7.7033438415527336,-7.995436444091796,-2.7377695983886716,14.412213740458014,-128.90076335877862,31.99236641221374
6293660541451,3.259296405,2,-8.283937744140625,-7.151480358886718,-2.876633294677734,6.221374045801527,-102.22900763358778,23.900763358778626
6293667194316,3.26594927,2,-8.29950005493164,-7.3094976684570305,-3.0621839233398433,-12.709923664122137,-69.6030534351145,20.671755725190838
6293673861087,3.272616041,2,-8.17859287109375,-7.692569934082031,-3.0885201416015624,-6.465648854961832,-38.11450381679389,24.328244274809162
6293680528378,3.279283332,2,-8.747215765380858,-7.30351216430664,-3.066972326660156,24.977099236641223,-30.603053435114504,24.366412213740457
6293687184264,3.285939218,2,-8.980650427246093,-7.28435855102539,-3.151966485595703,46.61832061068702,-5.366412213740458,28.87786259541985
6293693857493,3.292612447,2,-8.965088116455078,-7.556100439453124,-2.8658593872070313,45.12213740458015,41.2442748091603,37.87022900763359
6293700529524,3.299284478,2,-8.965088116455078,-8.154650854492187,-2.6144682128906247,30.442748091603054,77.73282442748092,44.42748091603053
6293707198014,3.305952968,2,-9.069235888671875,-8.154650854492187,-2.096123553466797,21.68702290076336,106.63358778625954,46.14503816793893
6293713931607,3.312686561,2,-9.791087689208984,-8.456320263671875,-2.096123553466797,31.893129770992367,144.4732824427481,40.595419847328245
6293720539941,3.319294895,2,-9.922768780517577,-8.89326206665039,-1.369483349609375,31.893129770992367,166.3053435114504,27.480916030534353
6293727191607,3.325946561,2,-9.630676177978515,-9.303867651367186,-0.6811503723144531,53.61068702290076,166.3053435114504,10.435114503816793
6293733861087,3.332616041,2,-9.48702407836914,-9.399635717773437,0.07541735229492187,67.41221374045801,177.54198473282443,10.435114503816793
6293740523587,3.339278541,2,-9.349357482910156,-9.106346014404297,0.7864952453613281,61.67175572519084,181.64885496183206,-8.244274809160306
6293747189055,3.345944009,2,-8.912415679931641,-8.672995513916016,1.4305354919433593,36.56488549618321,176.14503816793894,-31.923664122137403
6293753854420,3.352609374,2,-8.305485559082031,-8.445546356201172,1.8997990173339843,3.0610687022900764,167.2290076335878,-46.396946564885496
6293760527285,3.359282239,2,-7.997830645751953,-8.010998754882811,2.3331495178222657,-16.244274809160306,148.5114503816794,-58.33587786259542
6293767185514,3.365940468,2,-7.660248211669922,-7.449558465576171,2.3774422485351563,-19.946564885496183,114.03053435114504,-66.48091603053435
6293773857128,3.372612082,2,-7.237671618652343,-7.062894897460937,2.2194249389648437,-14.908396946564885,76.78625954198473,-69.06106870229007
6293780523378,3.379278332,2,-6.789955908203124,-6.74805737915039,2.0841525451660154,-8.229007633587786,39.57251908396947,-66.34351145038168
6293787187337,3.385942291,2,-6.659471917724609,-6.664260321044922,1.6723498596191406,-4.786259541984733,8.755725190839694,-61.16030534351145
6293793856972,3.392611926,2,-6.064512805175781,-6.921636999511718,1.1647791076660157,-6.183206106870229,-14.916030534351146,-52.152671755725194
6293800529420,3.399284374,2,-5.983109948730468,-6.919242797851562,0.7517793212890624,-5.015267175572519,-36.81679389312977,-50.717557251908396
6293807186087,3.405941041,2,-6.137535955810547,-6.925228302001953,0.26336218261718747,-8.801526717557252,-49.99236641221374,-49.06870229007634
6293813861868,3.412616822,2,-6.294356164550781,-7.032967376708984,-0.09337386474609374,-17.198473282442748,-54.229007633587784,-49.213740458015266
6293820536607,3.419291561,2,-5.187037896728516,-7.3657614074707025,-0.6751648681640625,-17.732824427480917,-51.93893129770992,-56.70992366412214
6293827198326,3.42595328,2,-4.704606262207031,-6.980294940185546,-1.061828436279297,-13.221374045801527,-36.83969465648855,-66.72519083969466
6293833859160,3.432614114,2,-4.778826513671874,-6.410474945068359,-1.1288660827636718,-27.229007633587788,-21.916030534351144,-67.63358778625954
6293840529003,3.439283957,2,-4.825513446044922,-6.308721374511719,-1.2773065856933592,-48.13740458015267,-2.5267175572519083,-61.2442748091603
6293847187649,3.445942603,2,-4.519055633544921,-6.3901242309570305,-1.254561669921875,-52.6412213740458,12.83206106870229,-52.3206106870229
6293853859837,3.452614791,2,-4.679467144775391,-6.236895324707031,-1.3754688537597655,-37.6412213740458,11.603053435114504,-44.23664122137404
6293860529472,3.459284426,2,-4.337096307373047,-6.299144567871093,-1.3754688537597655,-37.38167938931298,16.916030534351144,-39.14503816793893
6293867189680,3.465944634,2,-4.116829754638672,-6.218938812255859,-1.4808137268066406,-11.977099236641221,16.114503816793892,-31.48854961832061
6293873856451,3.472611405,2,-4.21978042602539,-6.111199737548827,-1.294065997314453,2.83206106870229,21.977099236641223,-32.412213740458014
6293880524889,3.479279843,2,-3.954024041748047,-6.4284314575195305,-1.2533645690917967,2.3282442748091605,31.419847328244273,-22.641221374045802
6293887187337,3.485942291,2,-3.824737152099609,-6.616376287841796,-1.0043675964355467,-1.9083969465648856,43.30534351145038,-16.061068702290076
6293893824472,3.492579426,2,-4.11802685546875,-6.585251666259765,-0.6452373474121094,-4.885496183206107,47.86259541984733,-11.786259541984732
6293900530410,3.499285364,2,-4.073734124755859,-6.679822631835937,-0.5422866760253906,-6.1679389312977095,46.045801526717554,-9.633587786259541
6293907192180,3.505947134,2,-3.812766143798828,-6.812700823974609,-0.3794809631347656,-3.877862595419847,43.847328244274806,-8.381679389312977
6293913857128,3.512612082,2,-3.8103719421386715,-6.793547210693359,-0.258573779296875,-1.5877862595419847,35.274809160305345,-7.061068702290076
6293920537076,3.51929203,2,-3.83072265625,-6.731297967529296,-0.0718260498046875,-2.50381679389313,19.938931297709924,-8.244274809160306
6293927190462,3.525945416,2,-3.8941690002441405,-6.5960255737304685,-0.12449848632812499,-8.305343511450381,10.908396946564885,-6.526717557251908
6293933857857,3.532612811,2,-4.065354418945312,-6.5577183471679685,-0.07422025146484375,-15.282442748091603,-1.7328244274809161,-3.1603053435114505
6293940527128,3.539282082,2,-4.2521021484374995,-6.580463262939452,-0.26216508178710934,-13.977099236641221,-14.748091603053435,0.21374045801526717
6293947187649,3.545942603,2,-4.39216294555664,-6.523002423095702,-0.3387795349121094,-4.984732824427481,-25.53435114503817,1.4198473282442747
6293953849889,3.552604843,2,-4.404133953857421,-6.6139820861816405,-0.5805939025878906,1.6030534351145038,-32.87786259541985,3.687022900763359
6293960537389,3.559292343,2,-4.23893403930664,-6.791153009033203,-0.7781155395507812,2.0076335877862594,-40.30534351145038,8.106870229007633
6293967185774,3.565940728,2,-4.650736724853515,-6.80551821899414,-1.0678139404296874,2.4122137404580153,-45.43511450381679,8.916030534351146
6293973856607,3.572611561,2,-4.641159918212891,-6.913257293701172,-1.3060370056152344,0.4732824427480916,-44.847328244274806,10.038167938931299
6293980528795,3.579283749,2,-4.452017987060547,-6.9898717468261715,-1.5167267517089842,0.48091603053435117,-33.458015267175576,9.335877862595419
6293987191451,3.585946405,2,-4.5693338684082025,-6.904877587890625,-1.4041992736816404,0.9770992366412213,-17.12213740458015,11.106870229007633
6293994361555,3.593116509,2,-4.643554119873047,-6.890512377929687,-1.2617442749023438,1.5572519083969465,2.1374045801526718,13.450381679389313
6294001677024,3.600431978,2,-4.461594793701171,-6.965929730224609,-1.1252747802734375,3.404580152671756,18.87786259541985,17.396946564885496
6294009047441,3.607802395,2,-4.33470210571289,-6.755239984130859,-0.8726865051269531,4.885496183206107,32.3587786259542,19.66412213740458
6294016485201,3.615240155,2,-4.460397692871093,-6.679822631835937,-0.6943184814453125,2.0916030534351147,43.89312977099237,24.38167938931298
6294023794264,3.622549218,2,-4.629188909912109,-6.64630380859375,-0.3315969299316406,-4.206106870229007,54.770992366412216,33.3587786259542
6294031141399,3.629896353,2,-4.716577270507813,-6.904877587890625,-0.040701428222656245,-6.419847328244275,59.3206106870229,41.99236641221374
6294038503847,3.637258801,2,-5.1128176452636716,-7.001842755126953,0.2454056701660156,-2.0839694656488548,56.2442748091603,47.778625954198475
6294045886399,3.644641353,2,-5.5641246582031245,-6.941987713623046,0.469263525390625,0.7022900763358778,43.7557251908397,51.06870229007634
6294053245774,3.652000728,2,-6.098031628417968,-7.108384729003906,0.6979097839355468,-5.862595419847328,26.801526717557252,54.83206106870229
6294060546607,3.659301561,2,-6.296750366210937,-7.7967177062988275,0.6069301208496093,-11.221374045801527,5.129770992366412,62.20610687022901
6294067872649,3.666627603,2,-6.886921075439453,-7.975085729980468,0.4010287780761719,-2.366412213740458,-32.954198473282446,57.778625954198475
6294075181764,3.673936718,2,-7.255628131103515,-8.015787158203125,-0.06943184814453125,6.625954198473282,-65.9618320610687,49.68702290076336
6294082497076,3.68125203,2,-7.410054138183593,-8.20971749267578,-0.612915625,3.213740458015267,-88.44274809160305,44.30534351145038
6294089842649,3.688597603,2,-7.78235249633789,-8.334215979003906,-0.8164227661132812,-6.0458015267175576,-105.94656488549619,37.19083969465649
6294097099837,3.695854791,2,-7.671022119140624,-8.555679632568358,-1.3299790222167969,-9.67175572519084,-111.67175572519083,15.297709923664122
6294104495201,3.703250155,2,-7.554903338623046,-8.250418920898436,-1.7405846069335937,-3.4656488549618323,-126.80152671755725,2.8244274809160306
6294111824732,3.710579686,2,-7.64827720336914,-7.687781530761718,-2.129642376708984,-14.458015267175572,-112.58778625954199,0.9694656488549618
6294119145670,3.717900624,2,-7.484274389648437,-7.353790399169921,-2.483984222412109,-24.16030534351145,-98.77862595419847,2.2519083969465647
6294126490878,3.725245832,2,-7.487865692138671,-7.153874560546875,-2.935291235351562,-21.34351145038168,-77.98473282442748,6.412213740458015
6294133812909,3.732567863,2,-7.6099699768066404,-6.930016705322266,-2.9281086303710935,-6.015267175572519,-50.603053435114504,12.312977099236642
6294141131139,3.739886093,2,-7.074865905761718,-7.023390570068359,-2.920926025390625,17.0,-25.85496183206107,14.16030534351145
6294148321555,3.747076509,2,-6.738480572509765,-6.851008050537109,-2.721010186767578,30.641221374045802,-3.16793893129771,14.19083969465649
6294155669628,3.754424582,2,-6.5409589355468745,-6.707355950927734,-2.412158172607422,25.297709923664122,23.48854961832061,16.18320610687023
6294162970878,3.761725832,2,-6.609193682861328,-6.622361791992187,-1.9201497314453124,11.358778625954198,47.89312977099237,20.564885496183205
6294170286711,3.769041665,2,-6.697779144287109,-6.64630380859375,-1.4820108276367188,5.030534351145038,62.23664122137404,24.412213740458014
6294177574784,3.776329738,2,-6.785167504882812,-6.623558892822265,-1.0821791503906248,14.213740458015268,67.13740458015268,27.603053435114504
6294184900826,3.78365578,2,-7.183802081298828,-6.399701037597656,-0.6117185241699218,30.419847328244273,61.45038167938932,31.17557251908397
6294192307857,3.791062811,2,-7.436390356445312,-6.5601125488281244,-0.19393033447265623,40.13740458015267,53.908396946564885,38.36641221374046
6294199593639,3.798348593,2,-7.490259893798828,-6.9731123352050774,0.04908113403320312,44.62595419847328,47.29770992366412,46.93129770992366
6294206911503,3.805666457,2,-7.726088757324218,-7.362170104980469,0.15442600708007811,48.900763358778626,38.274809160305345,50.70229007633588
6294214178378,3.812933332,2,-8.003816149902343,-7.655459808349609,0.3746925598144531,50.29007633587786,33.55725190839695,51.94656488549618
6294221522857,3.820277811,2,-8.028955267333984,-8.224082702636718,0.63206923828125,48.11450381679389,33.52671755725191,49.54961832061068
6294228862649,3.827617603,2,-8.128314636230469,-8.458714465332031,0.7230489013671875,44.80152671755725,29.84732824427481,43.17557251908397
6294236146711,3.834901665,2,-8.440757952880858,-8.319850769042969,0.7745242370605468,33.20610687022901,15.206106870229007,31.587786259541986
6294243509368,3.842264322,2,-8.828618621826172,-8.237250811767577,0.7529764221191406,11.557251908396946,3.3206106870229006,23.625954198473284
6294250821243,3.849576197,2,-9.212887988281249,-8.250418920898436,0.612915625,-6.603053435114504,-7.709923664122138,9.541984732824428
6294258155930,3.856910884,2,-9.470264666748045,-8.24203921508789,0.42018239135742186,-9.610687022900763,-25.412213740458014,0.3969465648854962
6294265455930,3.864210884,2,-9.458293658447266,-8.164227661132813,-0.02633621826171875,0.2366412213740458,-61.13740458015267,-9.435114503816793
6294272777857,3.871532811,2,-9.17458076171875,-8.119934930419921,-0.4010287780761719,18.0381679389313,-58.51908396946565,-15.206106870229007
6294280082180,3.878837134,2,-9.101557611083983,-7.8912886718749995,-0.8918401184082031,11.076335877862595,-34.6412213740458,-11.755725190839694
6294287321451,3.886076405,2,-9.521740002441407,-8.352172491455077,-0.853532891845703,0.5954198473282443,-9.442748091603054,-4.778625954198473
6294294588222,3.893343176,2,-9.04050546875,-8.316259466552735,-0.9564835632324218,2.6564885496183206,-4.244274809160306,-17.396946564885496
6294301886816,3.90064177,2,-8.757989672851561,-7.976282830810546,-0.8786720092773437,4.770992366412214,4.305343511450381,-24.435114503816795
6294309215097,3.907970051,2,-8.45272896118164,-7.85896694946289,-0.7864952453613281,-2.198473282442748,20.458015267175572,-29.053435114503817
6294316469264,3.915224218,2,-8.517372406005858,-7.732074261474609,-0.5207388610839844,-10.793893129770993,34.725190839694655,-29.946564885496183
6294323761972,3.922516926,2,-8.611943371582031,-7.560888842773437,-0.3076549133300781,-14.84732824427481,33.16030534351145,-28.84732824427481
6294331049576,3.92980453,2,-8.74003316040039,-7.509413507080078,-0.21068974609375,-12.419847328244275,32.38931297709924,-26.587786259541986
6294338366920,3.937121874,2,-8.658630303955078,-7.688978631591796,-0.1580173095703125,-6.290076335877862,27.83206106870229,-22.938931297709924
6294345711868,3.944466822,2,-8.526949212646484,-7.931990100097655,-0.11133037719726561,2.969465648854962,20.984732824427482,-20.51145038167939
6294352968378,3.951723332,2,-8.730456353759765,-7.899668377685546,-0.19512743530273435,9.244274809160306,8.198473282442748,-23.61832061068702
6294360263378,3.959018332,2,-8.760383874511719,-8.055291485595703,-0.3016694091796875,3.946564885496183,2.0229007633587788,-26.206106870229007
6294367514732,3.966269686,2,-8.651447698974609,-8.227674005126953,-0.36750995483398435,-5.404580152671755,-0.022900763358778626,-30.519083969465647
6294374842961,3.973597915,2,-8.403647827148436,-8.23006820678711,-0.5219359619140624,-9.816793893129772,-3.564885496183206,-40.80916030534351
6294382167909,3.980922863,2,-7.990648040771484,-8.02536396484375,-0.6835445739746093,-10.564885496183207,-5.450381679389313,-53.16030534351145
6294389481451,3.988236405,2,-7.566874346923828,-7.721300354003906,-0.7960720520019531,-12.83206106870229,-2.854961832061069,-62.01526717557252
6294396849159,3.995604113,2,-7.043741284179687,-7.45075556640625,-0.7350199096679687,-15.702290076335878,10.099236641221374,-68.45801526717557
6294404154055,4.002909009,2,-6.194996795654297,-7.333439685058593,-0.63206923828125,-18.66412213740458,27.48854961832061,-72.31297709923665
6294411448274,4.010203228,2,-5.671863732910156,-6.980294940185546,-0.469263525390625,-21.641221374045802,36.93893129770992,-75.31297709923665
6294418757076,4.01751203,2,-5.0757075195312495,-6.764816790771484,-0.3387795349121094,-26.221374045801525,53.32824427480916,-70.87022900763358
6294426024941,4.024779895,2,-4.496310717773437,-6.527790826416015,-0.12569558715820311,-28.022900763358777,70.49618320610686,-67.52671755725191
6294433315878,4.032070832,2,-4.423287567138671,-6.065709906005859,0.1388636962890625,-36.47328244274809,77.13740458015268,-60.66412213740458
6294440762805,4.039517759,2,-4.005499377441406,-5.979518646240234,0.5398924743652344,-36.80916030534351,83.93893129770993,-51.18320610687023
6294448099888,4.046854842,2,-3.9516298400878904,-6.0908490234374995,0.4429273071289062,-32.64885496183206,69.45801526717557,-47.57251908396947
6294455394993,4.054149947,2,-2.902969512939453,-5.929240411376953,0.3687070556640625,-25.65648854961832,63.88549618320611,-45.969465648854964
6294462778222,4.061533176,2,-2.958036151123047,-5.691017346191406,0.2920926025390625,-32.06106870229008,52.06870229007634,-39.908396946564885
6294470108743,4.068863697,2,-3.009511486816406,-5.643133312988281,0.2561795776367187,-41.94656488549618,40.717557251908396,-34.16793893129771
6294477416711,4.076171665,2,-2.7473464050292966,-5.787982513427734,0.086191259765625,-42.908396946564885,31.259541984732824,-28.3206106870229
6294484744524,4.083499478,2,-2.6575638427734374,-5.7317187744140625,0.08978256225585937,-31.64885496183206,13.679389312977099,-25.84732824427481
6294492063638,4.090818592,2,-2.731784094238281,-5.491101507568359,-0.16639701538085935,-20.137404580152673,-8.427480916030534,-26.114503816793892
6294499386763,4.098141717,2,-2.9185318237304685,-5.298368273925781,-0.4369418029785156,-18.366412213740457,-24.3206106870229,-21.641221374045802
6294506671711,4.105426665,2,-3.0526071166992184,-5.236119030761718,-0.5698199951171875,-21.64885496183206,-36.74045801526717,-17.16030534351145
6294513998638,4.112753592,2,-2.924517327880859,-5.467159490966797,-0.949300958251953,-22.900763358778626,-46.64885496183206,-10.694656488549619
6294521425149,4.120180103,2,-3.001131781005859,-5.49708701171875,-1.2892775939941405,-16.33587786259542,-61.68702290076336,-6.694656488549619
6294528848326,4.12760328,2,-3.3686417358398435,-5.352237811279297,-1.6017209106445311,-8.0,-69.61832061068702,-1.2595419847328244
6294536165722,4.134920676,2,-3.6343981201171873,-5.57370146484375,-1.935712042236328,-6.862595419847328,-66.07633587786259,10.511450381679388
6294543429368,4.142184322,2,-3.9240965209960934,-5.913678100585937,-2.0302830078125,-4.038167938931298,-55.19847328244275,20.9618320610687
6294550720982,4.149475936,2,-4.264073156738281,-6.224924316406249,-2.0649989318847655,6.213740458015267,-48.152671755725194,27.984732824427482
6294558011399,4.156766353,2,-4.611232397460937,-6.42244595336914,-2.1152771667480468,18.53435114503817,-41.213740458015266,32.56488549618321
6294565347076,4.16410203,2,-4.842272857666015,-6.508637213134765,-2.0350714111328125,22.610687022900763,-28.290076335877863,38.213740458015266
6294572693430,4.171448384,2,-4.944026428222656,-6.910863092041015,-1.9524714538574217,16.015267175572518,-5.6183206106870225,37.49618320610687
6294580031763,4.178786717,2,-5.155913275146484,-7.020996368408203,-1.7812860351562498,6.908396946564886,3.618320610687023,37.2442748091603
6294587299472,4.186054426,2,-5.432443566894531,-7.053318090820312,-1.5634136840820312,3.66412213740458,9.648854961832061,36.69465648854962
6294594684003,4.193438957,2,-5.5844753723144525,-6.950367419433594,-1.2880804931640624,3.8091603053435112,12.50381679389313,36.3587786259542
6294601980826,4.20073578,2,-5.562927557373047,-6.848613848876953,-1.121683477783203,7.152671755725191,11.19083969465649,38.0
6294609272649,4.208027603,2,-5.591657977294922,-6.740874774169922,-1.1755530151367186,9.48091603053435,6.679389312977099,39.25190839694657
6294616522961,4.215277915,2,-5.813121630859374,-6.758831286621094,-1.0761936462402344,8.427480916030534,-0.1450381679389313,44.41984732824427
6294623775618,4.222530572,2,-6.046556292724609,-6.718129858398437,-0.9576806640625,7.450381679389313,-6.595419847328245,48.19083969465649
6294631088170,4.229843124,2,-6.26921704711914,-6.760028387451172,-0.9708487731933593,10.34351145038168,-16.53435114503817,52.916030534351144
6294638436659,4.237191613,2,-6.792350109863281,-6.509834313964843,-0.9552864624023437,16.900763358778626,-26.84732824427481,54.85496183206107
6294645774732,4.244529686,2,-7.072471704101562,-6.546944439697265,-1.061828436279297,22.083969465648856,-39.152671755725194,53.93129770992366
6294653078586,4.25183354,2,-6.561309649658202,-7.082048510742187,-1.2533645690917967,30.442748091603054,-24.66412213740458,64.1526717557252
6294660338743,4.259093697,2,-6.801926916503906,-7.122749938964843,-1.209071838378906,34.603053435114504,-23.30534351145038,68.90076335877863
6294667673690,4.266428644,2,-7.495048297119141,-6.874950067138672,-1.2485761657714842,27.259541984732824,-17.50381679389313,70.9618320610687
6294674932388,4.273687342,2,-7.382520819091797,-7.285555651855469,-1.197100830078125,11.099236641221374,5.030534351145038,77.03053435114504
6294682293586,4.28104854,2,-7.586027960205078,-7.4782888854980465,-1.0079588989257813,5.32824427480916,18.198473282442748,75.83969465648855
6294689617909,4.288372863,2,-7.735665563964844,-7.311891870117187,-0.8559270935058593,12.022900763358779,24.900763358778626,68.78625954198473
6294696961868,4.295716822,2,-7.3094976684570305,-7.345410693359375,-0.6093243225097655,18.84732824427481,36.79389312977099,61.98473282442748
6294704265565,4.303020519,2,-7.299920861816406,-7.097610821533203,-0.33399113159179683,18.610687022900763,39.3206106870229,54.30534351145038
6294711565930,4.310320884,2,-7.356184600830078,-6.815095025634765,-0.09816226806640624,8.793893129770993,31.18320610687023,48.87786259541985
6294718912857,4.317667811,2,-7.538143927001952,-6.603208178710937,0.2657563842773437,1.618320610687023,21.419847328244273,49.61832061068702
6294726244628,4.324999582,2,-7.698555438232422,-6.542156036376952,0.373495458984375,4.603053435114504,8.549618320610687,52.030534351145036
6294733542440,4.332297394,2,-7.7596075805664055,-6.842628344726562,0.40940848388671874,14.045801526717558,-31.30534351145038,49.06106870229008
6294740858743,4.339613697,2,-7.9463553100585935,-6.983886242675781,0.38187516479492184,32.33587786259542,-54.603053435114504,46.56488549618321
6294748073899,4.346828853,2,-8.245630517578125,-7.181407879638671,0.05027823486328125,26.12213740458015,-76.62595419847328,42.89312977099237
6294755384784,4.354139738,2,-8.890867864990234,-7.758410479736328,-0.4129997863769531,24.870229007633586,-91.08396946564885,36.48854961832061
6294762711243,4.361466197,2,-8.763975177001953,-7.788338000488281,-0.6500257507324219,32.18320610687023,-95.34351145038168,26.72519083969466
6294770004159,4.368759113,2,-9.09198080444336,-7.8529814453124995,-0.9660603698730468,31.137404580152673,-101.97709923664122,22.85496183206107
6294777329784,4.376084738,2,-9.045293872070312,-7.857769848632812,-1.3443442321777344,25.297709923664122,-94.47328244274809,17.12213740458015
6294784720305,4.383475259,2,-9.24520971069336,-7.784746697998046,-1.3204022155761719,19.244274809160306,-74.33587786259542,12.572519083969466
6294792072961,4.390827915,2,-9.038111267089842,-7.696161236572265,-1.4927847351074217,18.099236641221374,-42.3587786259542,10.83969465648855
6294799308170,4.398063124,2,-9.063250384521483,-7.167042669677734,-1.2701239807128906,18.00763358778626,-1.1145038167938932,7.862595419847328
6294806539888,4.405294842,2,-9.587580548095703,-6.974309436035155,-0.7996633544921875,2.1526717557251906,33.343511450381676,19.770992366412212
6294813796815,4.412551769,2,-9.373299499511718,-7.299920861816406,-0.3950432739257812,-3.6564885496183206,64.1145038167939,27.99236641221374
6294821134263,4.419889217,2,-9.879673150634765,-7.296329559326171,0.143652099609375,11.442748091603054,82.00763358778626,30.80916030534351
6294828463117,4.427218071,2,-9.87727894897461,-7.429207751464843,0.5267243652343749,26.732824427480917,87.4885496183206,31.221374045801525
6294835745253,4.434500207,2,-9.566032733154296,-7.711723547363281,0.7709329345703124,34.091603053435115,87.30534351145039,26.587786259541986
6294842993638,4.441748592,2,-9.648632690429688,-7.7224974548339835,1.1228805786132812,28.793893129770993,83.68702290076335,18.80916030534351
6294850358013,4.449112967,2,-9.657012396240233,-7.845798840332031,1.3060370056152344,11.534351145038167,72.9618320610687,11.98473282442748
6294857678638,4.456433592,2,-10.022128149414062,-7.861361151123046,1.5646107849121094,-3.8625954198473282,66.44274809160305,3.9389312977099236
6294864974628,4.463729582,2,-9.819818109130859,-7.967903124999999,1.6112977172851561,-9.84732824427481,53.969465648854964,-6.603053435114504
6294872282753,4.471037707,2,-9.512163195800781,-7.903259680175781,1.5286977600097655,-9.045801526717558,33.725190839694655,-19.6793893129771
6294879562649,4.478317603,2,-9.400832818603515,-7.481880187988281,1.1851298217773436,-14.541984732824428,7.229007633587786,-34.25954198473283
6294886845982,4.485600936,2,-9.205705383300781,-7.179013677978515,0.8104372619628906,-30.740458015267176,-10.320610687022901,-49.70992366412214
6294894309367,4.493064321,2,-9.253589416503905,-6.798335614013672,0.35194764404296874,-47.152671755725194,-36.99236641221374,-53.595419847328245
6294901609992,4.500364946,2,-9.246406811523437,-6.476315490722656,-0.14006079711914063,-46.23664122137404,-44.282442748091604,-50.55725190839695
6294908918534,4.507673488,2,-9.070432989501953,-6.325480786132812,-1.1288660827636718,-30.33587786259542,-50.99236641221374,-48.0
6294916287492,4.515042446,2,-8.773551983642578,-6.410474945068359,-1.5394716674804687,-13.557251908396946,-45.12213740458015,-44.93129770992366
6294923595149,4.522350103,2,-8.647856396484375,-6.421248852539062,-1.8291700683593748,-3.946564885496183,-31.206106870229007,-41.58015267175573
6294930939888,4.529694842,2,-8.400056524658202,-6.764816790771484,-1.9129671264648436,-7.549618320610687,-14.274809160305344,-34.14503816793893
6294938307128,4.537062082,2,-8.304288458251953,-7.076063006591797,-1.6316484313964843,-7.816793893129771,17.68702290076336,-32.38931297709924
6294945682545,4.544437499,2,-8.252813122558594,-7.247248425292969,-1.456871710205078,-1.5190839694656488,29.091603053435115,-32.70992366412214
6294953012961,4.551767915,2,-8.172607366943359,-7.3274541809082026,-1.2701239807128906,6.9465648854961835,40.656488549618324,-35.42748091603053
6294960300461,4.559055415,2,-7.687781530761718,-7.582436657714843,-1.0175357055664063,6.3893129770992365,59.35114503816794,-38.213740458015266
6294967544420,4.566299374,2,-7.231686114501953,-7.593210565185546,-0.7218518005371093,-2.099236641221374,72.41221374045801,-45.030534351145036
6294974841763,4.573596717,2,-6.706158850097656,-7.448361364746093,-0.4656722229003906,-14.282442748091603,78.18320610687023,-53.404580152671755
6294982172284,4.580927238,2,-6.337451794433593,-7.168239770507812,-0.08978256225585937,-25.198473282442748,78.9618320610687,-61.14503816793893
6294989438013,4.588192967,2,-5.833472344970703,-6.815095025634765,0.03950432739257812,-31.580152671755727,75.33587786259542,-69.17557251908397
6294996851347,4.595606301,2,-5.239710333251953,-6.5206082214355465,0.26216508178710934,-33.67175572519084,67.4885496183206,-75.41984732824427
6295004164420,4.602919374,2,-4.866214874267578,-6.064512805175781,0.49799394531249996,-33.541984732824424,53.51145038167939,-81.21374045801527
6295011508899,4.610263853,2,-4.505887524414062,-5.729324572753906,0.5686228942871093,-33.099236641221374,40.82442748091603,-83.6793893129771
6295018821347,4.617576301,2,-3.841496563720703,-5.659892724609374,0.5542576843261718,-31.778625954198475,30.022900763358777,-82.18320610687023
6295026152701,4.624907655,2,-3.1459809814453124,-5.4013189453125,0.3591302490234375,-29.427480916030536,13.13740458015267,-85.90076335877863
6295033450930,4.632205884,2,-2.711433380126953,-4.993107562255859,0.20709844360351562,-31.81679389312977,-0.5267175572519084,-80.20610687022901
6295040746972,4.639501926,2,-2.481590020751953,-4.631583111572265,-0.011971008300781249,-40.152671755725194,-14.633587786259541,-70.06870229007633
6295048096242,4.646851196,2,-2.463633508300781,-4.388571643066406,-0.04908113403320312,-44.9236641221374,-24.709923664122137,-56.12213740458015
6295055393065,4.654148019,2,-2.8730419921875,-4.089296435546875,-0.16041151123046873,-34.02290076335878,-40.221374045801525,-39.87022900763359
6295062709263,4.661464217,2,-2.914940521240234,-4.074931225585937,-0.7745242370605468,-16.53435114503817,-49.412213740458014,-23.18320610687023
6295069926086,4.66868104,2,-2.977189764404297,-4.636371514892578,-1.2210428466796874,-3.8625954198473282,-64.76335877862596,-6.916030534351145
6295077231867,4.675986821,2,-3.5110967346191404,-4.910507604980468,-1.4832079284667967,2.49618320610687,-74.85496183206106,4.259541984732825
6295084512492,4.683267446,2,-3.7241806823730466,-5.340266802978515,-1.8638859924316404,2.8244274809160306,-67.47328244274809,14.870229007633588
6295091814367,4.690569321,2,-3.7205893798828122,-5.853823059082031,-2.0266917053222655,1.6564885496183206,-57.01526717557252,20.549618320610687
6295099185774,4.697940728,2,-3.7672763122558592,-6.072892510986327,-2.288856787109375,4.770992366412214,-46.48854961832061,20.091603053435115
6295106501867,4.705256821,2,-3.902548706054687,-6.068104107666016,-2.2828712829589843,6.206106870229007,-31.18320610687023,19.251908396946565
6295113810669,4.712565623,2,-4.13718046875,-5.953182427978516,-2.2014684265136717,1.381679389312977,-10.900763358778626,21.81679389312977
6295121137805,4.719892759,2,-4.314351391601562,-5.999869360351562,-2.029085906982422,-7.229007633587786,13.213740458015268,28.732824427480917
6295128463690,4.727218644,2,-4.57771357421875,-5.92445200805664,-1.629254229736328,-11.458015267175572,26.641221374045802,31.33587786259542
6295135694836,4.73444979,2,-5.106832141113281,-5.877765075683594,-1.3311761230468748,-6.679389312977099,30.16793893129771,38.396946564885496
6295142965565,4.741720519,2,-5.347449407958984,-6.026205578613281,-1.0378864196777342,4.778625954198473,33.038167938931295,47.25190839694657
6295150328742,4.749083696,2,-5.79037671508789,-6.117185241699218,-0.7996633544921875,15.442748091603054,20.27480916030534,53.3206106870229
6295157635722,4.756390676,2,-6.196193896484375,-6.175843182373047,-0.7218518005371093,19.442748091603054,4.412213740458015,53.19083969465649
6295164913482,4.763668436,2,-6.376956121826171,-6.579266162109374,-0.7445967163085937,16.31297709923664,-8.98473282442748,58.79389312977099
6295172181242,4.770936196,2,-6.730100866699218,-6.763619689941406,-0.7410054138183594,17.99236641221374,-19.061068702290076,56.93893129770992
6295179516294,4.778271248,2,-6.771999395751953,-6.980294940185546,-0.9050082275390624,21.68702290076336,-26.595419847328245,53.98473282442748
6295186841242,4.785596196,2,-6.676231329345702,-7.217320904541015,-0.9277531433105468,25.099236641221374,-27.33587786259542,50.274809160305345
6295194168430,4.792923384,2,-6.732495068359374,-7.304709265136719,-1.0031704956054688,24.244274809160306,-23.885496183206108,30.748091603053435
6295201507024,4.800261978,2,-6.330269189453125,-7.080851409912109,-1.0474632263183594,15.50381679389313,-10.679389312977099,18.46564885496183
6295208841867,4.807596821,2,-6.351817004394531,-6.394912634277343,-0.9504980590820312,-15.282442748091603,-7.099236641221374,20.12213740458015
6295216150513,4.814905467,2,-6.412869146728515,-6.25006343383789,-0.603338818359375,-5.267175572519084,-2.9770992366412212,25.412213740458014
6295223487857,4.822242811,2,-6.391321331787109,-6.087257720947266,-0.31962592163085934,22.51145038167939,-15.770992366412214,35.19847328244275
6295230754524,4.829509478,2,-6.961141326904296,-5.90529839477539,-0.18914193115234373,55.64885496183206,-30.65648854961832,39.465648854961835
6295238100461,4.836855415,2,-7.918821990966796,-5.853823059082031,-0.29927520751953124,58.465648854961835,-37.404580152671755,51.038167938931295
6295245415774,4.844170728,2,-8.805873706054687,-6.329072088623047,-0.15203180541992187,34.37404580152672,-36.31297709923664,73.77862595419847
6295252713586,4.85146854,2,-9.597157354736327,-7.1023992248535155,-0.21308394775390624,24.068702290076335,-41.045801526717554,88.41984732824427
6295260096451,4.858851405,2,-10.228029492187499,-7.742848168945312,-0.15682020874023436,41.916030534351144,-50.35114503816794,93.25190839694656
6295267407909,4.866162863,2,-10.722432135009765,-8.30668265991211,-0.24660277099609373,66.77099236641222,-57.786259541984734,91.3587786259542
6295274722805,4.873477759,2,-10.85291612548828,-8.838195428466797,-0.18555062866210936,78.1145038167939,-59.61068702290076,80.96946564885496
6295282054107,4.880809061,2,-10.61708726196289,-9.249998114013671,-0.23582886352539062,69.58015267175573,-59.88549618320611,63.16793893129771
6295289392857,4.888147811,2,-10.415974322509765,-9.324218365478515,-0.1867477294921875,46.41984732824427,-54.465648854961835,39.48091603053435
6295296752805,4.895507759,2,-10.019733947753906,-9.157821350097656,-0.32082302246093747,19.740458015267176,-47.541984732824424,13.030534351145038
6295304080721,4.902835675,2,-9.223661895751952,-8.547299926757812,-0.2597708801269531,-1.2061068702290076,-39.900763358778626,-15.114503816793894
6295311404003,4.910158957,2,-8.514978204345702,-7.746439471435546,-0.373495458984375,-15.893129770992367,-34.16793893129771,-38.79389312977099
6295318784680,4.917539634,2,-7.8709379577636716,-6.800729815673828,-0.5183446594238281,-25.0381679389313,-27.068702290076335,-52.10687022900763
6295326107805,4.924862759,2,-7.317877374267578,-5.811924530029296,-0.35673604736328124,-27.458015267175572,-19.83969465648855,-58.083969465648856
6295333434784,4.932189738,2,-6.648698010253906,-5.288791467285156,-0.3555389465332031,-21.80916030534351,-5.0,-51.16793893129771
6295340780826,4.93953578,2,-6.87614716796875,-4.96078583984375,-0.24899697265624998,-10.86259541984733,-0.8549618320610687,-14.98473282442748
6295347986138,4.946741092,2,-6.118382342529297,-5.2265422241210935,-0.603338818359375,7.938931297709924,-9.16030534351145,-6.343511450381679
6295355270774,4.954025728,2,-6.776787799072265,-4.584896179199219,-0.35673604736328124,36.19083969465649,20.557251908396946,18.30534351145038
6295362679003,4.961433957,2,-6.87614716796875,-4.897339495849609,-0.29568390502929687,20.916030534351144,34.11450381679389,42.11450381679389
6295370008482,4.968763436,2,-7.031770275878906,-5.7317187744140625,-0.1484405029296875,29.885496183206108,31.114503816793892,46.98473282442748
6295377352961,4.976107915,2,-7.638700396728515,-6.17344898071289,-0.16280571289062498,44.534351145038165,27.85496183206107,47.16793893129771
6295384645513,4.983400467,2,-8.2360537109375,-6.327874987792969,-0.26695348510742184,49.82442748091603,28.106870229007633,50.31297709923664
6295391969784,4.990724738,2,-8.741230261230468,-6.259640240478515,0.1867477294921875,49.25954198473283,57.66412213740458,53.74045801526717
6295399316607,4.998071561,2,-8.894459167480468,-6.773196496582031,0.49799394531249996,33.48091603053435,71.78625954198473,57.778625954198475
6295406672753,5.005427707,2,-8.80347950439453,-7.264007836914062,0.6392518432617187,23.53435114503817,74.2824427480916,56.82442748091603
6295414389524,5.013144478,2,-9.154230047607422,-7.364564306640625,0.8583212951660156,26.00763358778626,67.54198473282443,50.56488549618321
6295422069992,5.020824946,2,-9.604339959716796,-7.201758593749999,0.8463502868652343,25.46564885496183,51.091603053435115,42.29007633587786
6295429426138,5.028181092,2,-9.95389340209961,-7.152677459716797,0.7829039428710937,16.198473282442748,40.221374045801525,34.17557251908397
6295436769628,5.035524582,2,-10.229226593017577,-7.059303594970703,0.6452373474121094,5.984732824427481,25.46564885496183,23.053435114503817
6295444084367,5.042839321,2,-10.27232222290039,-7.017405065917968,0.49320554199218747,5.488549618320611,9.374045801526718,9.679389312977099
6295451318638,5.050073592,2,-9.853336932373047,-7.183802081298828,0.10175357055664062,17.793893129770993,-3.3587786259541983,-2.0916030534351147
6295458667388,5.057422342,2,-9.74200655517578,-7.126341241455077,0.01915361328125,37.13740458015267,-0.5267175572519084,-6.763358778625954
6295465984784,5.064739738,2,-9.589974749755859,-7.15028325805664,0.05386953735351562,36.44274809160305,-1.8854961832061068,-12.0
6295473307596,5.07206255,2,-9.745597857666015,-7.129932543945312,-0.010773907470703125,16.282442748091604,-2.854961832061069,-20.49618320610687
6295480666294,5.079421248,2,-9.882067352294921,-7.241262921142578,0.143652099609375,-1.0381679389312977,-2.83206106870229,-36.045801526717554
6295487977544,5.086732498,2,-10.08078609008789,-7.072471704101562,0.1771709228515625,-0.3282442748091603,-12.801526717557252,-42.83969465648855
6295495337492,5.094092446,2,-9.710881933593749,-7.20774409790039,0.04668693237304687,29.885496183206108,-14.236641221374045,-48.969465648854964
6295502711659,5.101466613,2,-9.390058911132812,-7.317877374267578,0.23343466186523437,33.900763358778626,-17.81679389312977,-55.58015267175573
6295510031138,5.108786092,2,-9.14225903930664,-7.349001995849609,0.3603273498535156,22.68702290076336,-14.870229007633588,-60.0763358778626
6295517335513,5.116090467,2,-8.620323077392577,-7.369352709960937,0.4572925170898437,8.442748091603054,-11.572519083969466,-62.3587786259542
6295524665253,5.123420207,2,-8.628702783203124,-7.194575988769531,0.47285482788085936,2.045801526717557,-7.099236641221374,-65.45801526717557
6295531988951,5.130743905,2,-8.526949212646484,-7.094019519042968,0.6284779357910156,0.48854961832061067,8.061068702290076,-65.53435114503817
6295539330096,5.13808505,2,-8.110358123779296,-7.141903552246093,0.7326257080078125,-2.3206106870229006,22.34351145038168,-65.87786259541984
6295546594732,5.145349686,2,-7.903259680175781,-6.979097839355468,0.7972691528320313,-7.511450381679389,29.61832061068702,-66.95419847328245
6295553903378,5.152658332,2,-7.5333555236816405,-6.781576202392578,0.7864952453613281,-20.30534351145038,19.763358778625953,-73.51908396946565
6295561228534,5.159983488,2,-7.406462835693359,-6.380547424316406,0.7433996154785156,-34.10687022900763,12.816793893129772,-79.79389312977099
6295568503690,5.167258644,2,-6.185419989013671,-6.792350109863281,0.34835634155273437,-41.213740458015266,9.488549618320612,-83.94656488549619
6295575861190,5.174616144,2,-6.139930157470703,-6.204573602294921,0.29448680419921874,-29.48854961832061,-0.2595419847328244,-83.51908396946565
6295583202232,5.181957186,2,-6.215347509765625,-5.384559533691406,0.3136404174804687,-16.793893129770993,-8.916030534351146,-97.00763358778626
6295590552701,5.189307655,2,-5.463568188476562,-5.463568188476562,0.06584054565429687,-25.49618320610687,-5.076335877862595,-85.25190839694656
6295597857701,5.196612655,2,-4.75009609375,-5.722141967773437,-0.09576806640624999,-29.916030534351144,-7.916030534351145,-78.38167938931298
6295605223482,5.203978436,2,-4.356249920654297,-5.537788439941406,-0.23223756103515625,-15.061068702290076,-6.404580152671755,-79.64885496183206
6295612503430,5.211258384,2,-3.863044378662109,-5.462371087646484,-0.37229835815429685,-5.595419847328245,-7.885496183206107,-72.7557251908397
6295619785930,5.218540884,2,-3.7146038757324216,-5.310339282226562,-0.4955997436523437,-0.8778625954198473,-1.282442748091603,-61.656488549618324
6295627118013,5.225872967,2,-4.896142395019531,-4.8698061767578125,0.09217676391601562,0.7175572519083969,7.015267175572519,-49.38931297709924
6295634434211,5.233189165,2,-4.352658618164062,-5.66946953125,0.055066638183593745,-2.2748091603053435,24.870229007633586,-25.450381679389313
6295641704471,5.240459425,2,-4.236539837646484,-6.022614276123046,0.17357962036132812,5.549618320610687,20.33587786259542,-23.450381679389313
6295649045773,5.247800727,2,-4.655525128173828,-5.859808563232422,0.25258827514648435,19.46564885496183,23.99236641221374,-15.992366412213741
6295656366659,5.255121613,2,-4.521449835205078,-6.066907006835937,0.30047230834960936,6.8320610687022905,25.580152671755727,-10.755725190839694
6295663695096,5.26245005,2,-4.618415002441406,-6.325480786132812,0.20709844360351562,-6.320610687022901,21.244274809160306,-12.076335877862595
6295671056450,5.269811404,2,-4.417302062988281,-6.533776330566406,0.2885013000488281,-9.01526717557252,30.740458015267176,-10.618320610687023
6295678373065,5.277128019,2,-4.459200592041015,-6.344634399414062,0.6236895324707031,0.25190839694656486,52.68702290076336,-10.091603053435115
6295685724628,5.284479582,2,-4.144363073730468,-6.367379315185547,0.8367734802246093,-3.015267175572519,43.80916030534351,-16.16793893129771
6295692972284,5.291727238,2,-3.816357446289062,-6.271611248779297,0.8942343200683593,-9.145038167938932,37.36641221374046,-20.46564885496183
6295700303742,5.299058696,2,-3.5326445495605467,-6.010643267822266,0.9660603698730468,-13.15267175572519,28.267175572519083,-24.748091603053435
6295707624159,5.306379113,2,-3.5709517761230467,-5.725733270263672,0.9732429748535155,-19.603053435114504,13.007633587786259,-26.603053435114504
6295714942440,5.313697394,2,-3.478775012207031,-5.430049365234375,0.9935936889648437,-25.221374045801525,-3.030534351145038,-26.412213740458014
6295722331607,5.321086561,2,-3.518279339599609,-5.2085857116699215,0.9002198242187499,-24.68702290076336,-19.48854961832061,-21.442748091603054
6295729665669,5.328420623,2,-3.582922784423828,-4.981136553955078,0.6260837341308594,-19.404580152671755,-39.717557251908396,-15.198473282442748
6295736968586,5.33572354,2,-3.8690298828125,-5.035006091308594,0.49799394531249996,-14.534351145038167,-51.14503816793893,0.19083969465648856
6295744353325,5.343108279,2,-4.000710974121094,-5.003881469726562,0.24660277099609373,-15.725190839694656,-76.70229007633588,3.053435114503817
6295751705825,5.350460779,2,-4.3442789123535155,-4.923675714111328,-0.17118541870117188,-13.221374045801527,-106.89312977099236,10.381679389312977
6295759056034,5.357810988,2,-4.808754034423828,-5.032611889648437,-0.507570751953125,0.19083969465648856,-114.97709923664122,28.35114503816794
6295766359263,5.365114217,2,-5.406107348632812,-5.379771130371093,-0.8667010009765624,16.755725190839694,-118.55725190839695,48.50381679389313
6295773647075,5.372402029,2,-5.862202764892578,-5.862202764892578,-1.3670891479492187,30.404580152671755,-110.30534351145039,63.3206106870229
6295781054055,5.379809009,2,-6.545747338867187,-6.37815322265625,-1.485602130126953,33.038167938931295,-94.74045801526718,91.99236641221374
6295788395930,5.387150884,2,-6.963535528564453,-7.22689771118164,-1.5574281799316405,30.53435114503817,-46.02290076335878,96.3587786259542
6295795710305,5.394465259,2,-8.073247998046874,-7.453149768066406,-1.3168109130859373,35.31297709923664,-25.328244274809162,100.16030534351145
6295803107909,5.401862863,2,-8.305485559082031,-8.426392742919921,-1.2701239807128906,49.32824427480916,5.145038167938932,95.99236641221374
6295810523325,5.409278279,2,-7.9295958984374995,-8.875305554199219,-0.594959112548828,59.2442748091603,45.656488549618324,83.53435114503817
6295817850096,5.41660505,2,-9.233238702392578,-8.662221606445312,-0.14484920043945312,33.94656488549618,70.8473282442748,62.76335877862596
6295825137232,5.423892186,2,-9.129090930175781,-9.035717065429687,0.5374982727050781,0.3282442748091603,98.89312977099236,56.82442748091603
6295832485565,5.431240519,2,-9.112331518554686,-8.883685260009765,1.2880804931640624,-0.7022900763358778,118.45801526717557,40.51145038167939
6295839843794,5.438598748,2,-8.85495484008789,-8.59278975830078,1.7836802368164062,16.603053435114504,116.38931297709924,24.65648854961832
6295847304055,5.446059009,2,-8.51018980102539,-8.125920434570313,2.1978771240234374,27.786259541984734,106.6030534351145,11.251908396946565
6295854650617,5.453405571,2,-8.23006820678711,-7.669825018310546,2.4193407775878906,19.389312977099237,94.32824427480917,2.2519083969465647
6295862003794,5.460758748,2,-8.040926275634765,-7.613561279296874,2.7341782958984373,-2.183206106870229,80.30534351145039,3.7938931297709924
6295869291503,5.468046457,2,-7.958326318359375,-7.3466077941894525,3.0502129150390624,-13.335877862595419,63.152671755725194,-0.0916030534351145
6295876566086,5.47532104,2,-7.685387329101562,-7.333439685058593,3.020285394287109,-15.213740458015268,35.16793893129771,0.9618320610687023
6295883752753,5.482507707,2,-7.636306195068359,-7.129932543945312,2.9364883361816405,-8.213740458015268,6.396946564885496,0.13740458015267176
6295891132180,5.489887134,2,-7.486668591308593,-6.967126831054687,2.7808652282714843,-8.435114503816793,-22.82442748091603,0.5954198473282443
6295898568586,5.49732354,2,-7.540538128662109,-6.836642840576172,2.421734979248047,-18.984732824427482,-51.49618320610687,1.366412213740458
6295905935357,5.504690311,2,-7.6997525390625,-6.78636460571289,2.1823148132324217,-28.82442748091603,-77.79389312977099,2.267175572519084
6295913236502,5.511991456,2,-7.594407666015624,-6.72291826171875,1.467645617675781,-28.244274809160306,-98.43511450381679,-4.076335877862595
6295920520148,5.519275102,2,-7.5716627502441405,-6.563703851318359,1.1935095275878906,-20.435114503816795,-93.06870229007633,-7.900763358778626
6295927795669,5.526550623,2,-7.513004809570312,-6.776787799072265,1.2102689392089843,-18.083969465648856,-71.85496183206106,-0.7480916030534351
6295935157127,5.533912081,2,-7.558494641113281,-6.842628344726562,0.7685387329101562,-23.17557251908397,-114.70229007633588,-2.7709923664122136
6295942538013,5.541292967,2,-7.808688714599609,-6.903680487060546,0.3363853332519531,-23.916030534351144,-129.22137404580153,-5.648854961832061
6295949864940,5.548619894,2,-7.9655089233398435,-6.8964978820800775,-0.5003881469726562,-18.244274809160306,-129.4351145038168,-7.519083969465649
6295957152857,5.555907811,2,-8.10796392211914,-6.930016705322266,-0.8032546569824218,-14.19083969465649,-113.89312977099236,-5.152671755725191
6295964468586,5.56322354,2,-8.060079888916015,-7.094019519042968,-0.8726865051269531,-9.183206106870228,-77.62595419847328,-2.0916030534351147
6295971803117,5.570558071,2,-7.588422161865234,-7.287949853515625,-0.9169792358398436,-8.312977099236642,-40.396946564885496,-5.893129770992366
6295979168690,5.577923644,2,-7.504625103759765,-7.116764434814453,-0.843956085205078,-15.961832061068701,-15.709923664122137,-10.213740458015268
6295986534836,5.58528979,2,-7.4782888854980465,-6.866570361328125,-0.7817068420410156,-31.900763358778626,-3.885496183206107,-16.732824427480917
6295993863065,5.592618019,2,-7.587225061035156,-6.387730029296875,-0.6907271789550781,-41.83969465648855,9.870229007633588,-23.0381679389313
6296001160877,5.599915831,2,-7.429207751464843,-6.066907006835937,-0.5207388610839844,-40.11450381679389,19.068702290076335,-25.19083969465649
6296008473065,5.607228019,2,-6.906074688720703,-5.902904193115234,-0.5051765502929687,-26.3206106870229,27.022900763358777,-23.106870229007633
6296015788169,5.614543123,2,-6.868964562988281,-5.627571002197265,-0.4369418029785156,-10.076335877862595,33.54961832061068,-14.045801526717558
6296023120669,5.621875623,2,-6.955155822753905,-5.596446380615234,-0.2932897033691406,-2.854961832061069,39.656488549618324,-0.05343511450381679
6296030510096,5.62926505,2,-7.060500695800781,-5.930437512207031,-0.15083470458984374,-2.1297709923664123,48.12213740458015,15.442748091603054
6296037848638,5.636603592,2,-7.2723875427246085,-6.366182214355469,-0.00239420166015625,1.8091603053435115,56.16793893129771,27.900763358778626
6296045166711,5.643921665,2,-7.520187414550781,-6.8031240173339835,0.22864625854492185,9.022900763358779,64.10687022900764,37.05343511450382
6296052481294,5.651236248,2,-7.657854010009765,-7.26520493774414,0.3399766357421875,13.083969465648854,69.47328244274809,41.36641221374046
6296059785982,5.658540936,2,-7.926004595947266,-7.44357296142578,0.42975919799804685,9.106870229007633,70.19083969465649,40.68702290076336
6296067126138,5.665881092,2,-8.530540515136718,-7.431601953125,0.488417138671875,-7.030534351145038,64.87786259541984,36.732824427480914
6296074484992,5.673239946,2,-9.106346014404297,-7.485471490478515,0.40222587890625,-29.52671755725191,52.67175572519084,19.84732824427481
6296081784680,5.680539634,2,-9.576806640625,-7.456741070556641,0.2346317626953125,-40.37404580152672,26.03053435114504,11.748091603053435
6296089104367,5.687859321,2,-9.710881933593749,-7.654262707519531,-0.037110125732421874,-19.51145038167939,11.625954198473282,0.6870229007633588
6296096422752,5.695177706,2,-9.376890802001952,-7.72489165649414,-0.48243163452148435,-3.877862595419847,8.274809160305344,-11.908396946564885
6296103698586,5.70245354,2,-9.253589416503905,-7.37414111328125,-0.9624690673828125,-5.465648854961832,22.85496183206107,-15.068702290076336
6296111052127,5.709807081,2,-9.19971987915039,-7.335833886718749,-1.0211270080566406,-18.69465648854962,45.282442748091604,-11.648854961832061
6296118360513,5.717115467,2,-9.00100114135742,-7.672219219970703,-0.8295908752441405,-21.068702290076335,80.87022900763358,-4.343511450381679
6296125646711,5.724401665,2,-9.056067779541015,-7.746439471435546,-0.5147533569335937,-9.801526717557252,108.83206106870229,-0.22137404580152673
6296132967804,5.731722758,2,-8.810662109374999,-8.036137872314452,-0.27293898925781246,0.05343511450381679,132.9770992366412,4.9465648854961835
6296140275096,5.73903005,2,-9.029731561279297,-7.95473501586914,0.017956512451171875,-0.015267175572519083,155.3587786259542,5.687022900763359
6296147578377,5.746333331,2,-9.381679205322266,-8.014590057373047,0.5758054992675781,-16.801526717557252,169.22137404580153,5.694656488549619
6296154926607,5.753681561,2,-9.532513909912108,-8.189366778564453,1.0570400329589844,-36.16793893129771,169.73282442748092,-0.5267175572519084
6296162336450,5.761091404,2,-9.969455712890625,-7.942764007568359,1.2234370483398436,-49.06106870229008,141.0229007633588,-19.84732824427481
6296169809836,5.76856479,2,-9.68454571533203,-8.062474090576172,1.2198457458496093,-50.786259541984734,103.12977099236642,-32.267175572519086
6296177201346,5.7759563,2,-9.753977563476562,-7.202955694580078,0.9816226806640624,-38.38167938931298,60.656488549618324,-69.67175572519083
6296184519940,5.783274894,2,-9.366116894531249,-6.524199523925781,0.824802471923828,-54.48091603053435,27.778625954198475,-98.38931297709924
6296191804627,5.790559581,2,-7.41244833984375,-7.138312249755859,0.4225765930175781,-80.05343511450381,10.946564885496183,-114.46564885496183
6296199223898,5.797978852,2,-6.519411120605469,-6.744466076660156,0.22744915771484372,-79.87786259541984,-25.557251908396946,-129.80152671755727
6296206572857,5.805327811,2,-5.802347723388672,-5.723339068603515,-0.1352723937988281,-73.45801526717557,-94.5114503816794,-166.6412213740458
6296213918429,5.812673383,2,-6.121973645019531,-4.037821099853516,-0.40581718139648437,-71.3587786259542,-127.30534351145039,-185.206106870229
6296221243690,5.819998644,2,-4.408922357177734,-4.220977526855468,-1.1360486877441405,-91.56488549618321,-151.38167938931298,-158.64885496183206
6296228581607,5.827336561,2,-3.3590649291992185,-4.429273071289062,-1.6771382629394531,-84.42748091603053,-175.58778625954199,-140.54961832061068
6296235908325,5.834663279,2,-2.693476867675781,-4.444835382080078,-2.288856787109375,-16.404580152671755,-188.95419847328245,-121.00763358778626
6296243277857,5.842032811,2,-2.4756045166015626,-4.248510845947266,-3.2597055603027343,-0.6641221374045801,-178.38167938931298,-90.81679389312977
6296250594836,5.84934979,2,-2.3582886352539063,-5.230133526611328,-4.017470385742187,3.5114503816793894,-144.6412213740458,-58.48091603053435
6296257999992,5.856754946,2,-1.935712042236328,-5.161898779296875,-3.778050219726562,6.900763358778626,-88.86259541984732,-23.938931297709924
6296265349732,5.864104686,2,-2.6982652709960937,-5.0948611328124995,-3.564966271972656,-1.900763358778626,-28.610687022900763,-13.961832061068701
6296272683482,5.871438436,2,-2.5546131713867184,-5.79037671508789,-3.4644098022460934,-17.366412213740457,17.47328244274809,17.480916030534353
6296279953013,5.878707967,2,-2.902969512939453,-5.665878228759765,-3.125630267333984,-13.50381679389313,57.656488549618324,21.419847328244273
6296287320304,5.886075258,2,-3.2225954345703123,-5.625176800537109,-2.5857377929687497,-4.633587786259542,101.58778625954199,29.099236641221374
6296294595200,5.893350154,2,-3.356670727539062,-5.749675286865234,-2.0446482177734375,-0.732824427480916,126.6793893129771,37.88549618320611
6296301910617,5.900665571,2,-3.479972113037109,-5.699397052001952,-1.5598223815917969,3.236641221374046,131.76335877862596,33.61832061068702
6296309235044,5.907989998,2,-3.4775779113769527,-5.781997009277344,-1.2174515441894531,4.480916030534351,124.61832061068702,35.36641221374046
6296316545825,5.915300779,2,-3.6092590026855467,-5.746083984375,-0.6488286499023437,11.030534351145038,117.74809160305344,34.49618320610687
6296323824419,5.922579373,2,-3.712209674072265,-5.723339068603515,-0.19512743530273435,18.72519083969466,106.85496183206106,33.083969465648856
6296331165929,5.929920883,2,-2.987963671875,-6.0321910827636716,-0.3124433166503906,20.885496183206108,77.8473282442748,26.885496183206108
6296338516242,5.937271196,2,-3.2118215270996093,-5.774814404296874,-0.0143652099609375,25.19083969465649,65.53435114503817,21.50381679389313
6296345842700,5.944597654,2,-3.2501287536621093,-5.767631799316406,0.36750995483398435,20.610687022900763,48.13740458015267,25.47328244274809
6296353204836,5.95195979,2,-3.451241693115234,-5.793968017578124,0.4381389038085937,15.122137404580153,21.106870229007633,28.595419847328245
6296360518429,5.959273383,2,-3.8486791687011714,-5.711368060302734,0.373495458984375,14.083969465648854,-28.389312977099237,28.587786259541986
6296367868950,5.966623904,2,-4.537012145996093,-5.202600207519531,-0.028730419921875,19.435114503816795,-72.26717557251908,28.53435114503817
6296375176971,5.973931925,2,-4.314351391601562,-5.238513232421875,-0.7015010864257812,19.984732824427482,-128.51908396946564,47.954198473282446
6296382452440,5.981207394,2,-4.586093280029297,-5.568913061523437,-1.3838485595703125,28.091603053435115,-136.99236641221373,59.02290076335878
6296389791450,5.988546404,2,-5.579686968994141,-5.408501550292969,-1.9476830505371092,63.62595419847328,-114.63358778625954,79.22900763358778
6296397127804,5.995882758,2,-7.252036828613281,-5.239710333251953,-2.288856787109375,66.26717557251908,-86.83969465648855,100.36641221374046
6296404461711,6.003216665,2,-7.266402038574219,-7.520187414550781,-1.9632453613281249,91.55725190839695,-33.64885496183206,122.91603053435115
6296411703534,6.010458488,2,-8.97705912475586,-8.206126190185547,-1.6124948181152343,113.57251908396947,2.5267175572519083,134.45801526717557
6296419102075,6.017857029,2,-9.865307940673828,-8.77115778198242,-1.1252747802734375,114.80916030534351,43.50381679389313,140.42748091603053
