timestamp_ns,t_s,sensor_id,ax,ay,az,gx,gy,gz
3859478083109,0.186202292,2,8.106766821289062,5.746083984375,0.7278373046875,-1.7633587786259541,0.24427480916030533,-1.5725190839694656
3859497859776,0.205978959,2,8.106766821289062,5.767631799316406,0.7230489013671875,-1.717557251908397,0.2366412213740458,-1.5877862595419847
3859517817640,0.225936823,2,8.116343627929687,5.753266589355468,0.7218518005371093,-1.748091603053435,0.25190839694656486,-1.6564885496183206
3859537793838,0.245913021,2,8.112752325439452,5.742492681884765,0.7481880187988281,-1.7633587786259541,0.22137404580152673,-1.6106870229007633
3859557791651,0.265910834,2,8.100781317138672,5.768828900146484,0.7146691955566405,-1.748091603053435,0.2366412213740458,-1.5877862595419847
3859577794255,0.285913438,2,8.131905938720703,5.7329158752441405,0.7266402038574218,-1.7633587786259541,0.2366412213740458,-1.6030534351145038
3859597781963,0.305901146,2,8.097190014648437,5.761646295166015,0.7338228088378905,-1.7633587786259541,0.24427480916030533,-1.6030534351145038
3859617787328,0.325906511,2,8.10197841796875,5.756857891845703,0.7206546997070312,-1.717557251908397,0.26717557251908397,-1.5801526717557253
3859637779932,0.345899115,2,8.119934930419921,5.734112976074218,0.7122749938964843,-1.786259541984733,0.2595419847328244,-1.5954198473282444
3859657809828,0.365929011,2,8.124723333740233,5.728127471923828,0.7565677246093749,-1.7328244274809161,0.19083969465648856,-1.6564885496183206
3859677786442,0.385905625,2,8.124723333740233,5.760449194335937,0.7302315063476562,-1.7328244274809161,0.22900763358778625,-1.5954198473282444
3859697779567,0.40589875,2,8.254010223388672,5.76523759765625,0.7398083129882812,-1.7328244274809161,0.26717557251908397,-1.5572519083969465
3859717775921,0.425895104,2,8.113949426269532,5.754463690185546,0.7206546997070312,-1.717557251908397,0.22900763358778625,-1.6259541984732824
3859737790453,0.445909636,2,8.116343627929687,5.7317187744140625,0.7505822204589844,-1.7251908396946565,0.20610687022900764,-1.5648854961832062
3859757780244,0.465899427,2,7.970297326660156,5.766434698486328,0.7026981872558593,-1.6870229007633588,0.21374045801526717,-1.6259541984732824
3859777798473,0.485917656,2,8.100781317138672,5.762843395996094,0.7338228088378905,-1.7633587786259541,0.183206106870229,-1.6412213740458015
3859797785348,0.505904531,2,8.104372619628906,5.753266589355468,0.7242460021972655,-1.7709923664122138,0.183206106870229,-1.5419847328244274
3859817785401,0.525904584,2,8.100781317138672,5.7508723876953125,0.709880792236328,-1.7633587786259541,0.2595419847328244,-1.5954198473282444
3859837800713,0.545919896,2,8.11514652709961,5.747281085205078,0.6955155822753906,-1.786259541984733,0.2748091603053435,-1.6259541984732824
3859857794359,0.565913542,2,8.104372619628906,5.766434698486328,0.7314286071777343,-1.7633587786259541,0.26717557251908397,-1.5954198473282444
3859877783630,0.585902813,2,8.118737829589843,5.744886883544922,0.679953271484375,-1.7786259541984732,0.20610687022900764,-1.6030534351145038
3859897746494,0.605865677,2,8.10197841796875,5.76523759765625,0.7398083129882812,-1.748091603053435,0.1984732824427481,-1.6106870229007633
3859917790400,0.625909583,2,8.10796392211914,5.767631799316406,0.7158662963867187,-1.748091603053435,0.22137404580152673,-1.5648854961832062
3859937775348,0.645894531,2,8.135497241210937,5.748478186035156,0.7074865905761718,-1.748091603053435,0.2595419847328244,-1.5801526717557253
3859957772067,0.66589125,2,8.135497241210937,5.748478186035156,0.7278373046875,-1.7709923664122138,0.21374045801526717,-1.5725190839694656
3859977777953,0.685897136,2,8.097190014648437,5.749675286865234,0.7242460021972655,-1.7404580152671756,0.2900763358778626,-1.5725190839694656
3859997842796,0.705961979,2,8.141482745361328,5.737704278564453,0.709880792236328,-1.7938931297709924,0.26717557251908397,-1.5954198473282444
3860017783578,0.725902761,2,8.128314636230469,5.759252093505859,0.74699091796875,-1.7633587786259541,0.22900763358778625,-1.6259541984732824
3860037818317,0.7459375,2,8.12113203125,5.776011505126953,0.7110778930664062,-1.7786259541984732,0.1984732824427481,-1.534351145038168
3860057781807,0.76590099,2,8.111555224609374,5.766434698486328,0.7338228088378905,-1.7404580152671756,0.2366412213740458,-1.6106870229007633
3860077771703,0.785890886,2,8.137891442871092,5.748478186035156,0.7457938171386719,-1.7557251908396947,0.24427480916030533,-1.6106870229007633
3860097785713,0.805904896,2,8.105569720458984,5.783194110107422,0.7134720947265625,-1.786259541984733,0.31297709923664124,-1.6259541984732824
3860117773473,0.825892656,2,8.098387115478515,5.759252093505859,0.7541735229492187,-1.7557251908396947,0.22900763358778625,-1.618320610687023
3860137775869,0.845895052,2,8.131905938720703,5.735310076904296,0.7457938171386719,-1.8015267175572518,0.22137404580152673,-1.618320610687023
3860157774880,0.865894063,2,8.123526232910155,5.7891796142578125,0.7529764221191406,-1.7328244274809161,0.24427480916030533,-1.5801526717557253
3860177777171,0.885896354,2,8.087613208007811,5.742492681884765,0.7218518005371093,-1.7251908396946565,0.2748091603053435,-1.5725190839694656
3860197766598,0.905885781,2,8.104372619628906,5.759252093505859,0.7445967163085937,-1.7557251908396947,0.26717557251908397,-1.5801526717557253
3860217783682,0.925902865,2,8.10796392211914,5.754463690185546,0.7062894897460937,-1.7404580152671756,0.2366412213740458,-1.6030534351145038
3860237772380,0.945891563,2,8.118737829589843,5.740098480224609,0.7350199096679687,-1.7633587786259541,0.20610687022900764,-1.6412213740458015
3860257775557,0.96589474,2,8.100781317138672,5.755660791015624,0.74699091796875,-1.7251908396946565,0.24427480916030533,-1.5648854961832062
3860277779307,0.98589849,2,8.12711753540039,5.767631799316406,0.7314286071777343,-1.717557251908397,0.24427480916030533,-1.5877862595419847
3860297785452,1.005904635,2,8.10796392211914,5.747281085205078,0.7074865905761718,-1.7709923664122138,0.22900763358778625,-1.6412213740458015
3860317799723,1.025918906,2,8.103175518798828,5.758054992675781,0.7170633972167968,-1.748091603053435,0.25190839694656486,-1.534351145038168
3860337785765,1.045904948,2,8.104372619628906,5.7520694885253905,0.7206546997070312,-1.702290076335878,0.22900763358778625,-1.5725190839694656
3860357771859,1.065891042,2,8.118737829589843,5.758054992675781,0.7062894897460937,-1.7557251908396947,0.2595419847328244,-1.5801526717557253
3860377817067,1.08593625,2,8.123526232910155,5.753266589355468,0.7122749938964843,-1.7404580152671756,0.2595419847328244,-1.618320610687023
3860397780140,1.105899323,2,8.09479581298828,5.754463690185546,0.6883329772949218,-1.7633587786259541,0.26717557251908397,-1.618320610687023
3860417779671,1.125898854,2,8.11514652709961,5.748478186035156,0.7505822204589844,-1.702290076335878,0.25190839694656486,-1.5954198473282444
3860437772275,1.145891458,2,8.109161022949218,5.761646295166015,0.699106884765625,-1.717557251908397,0.21374045801526717,-1.5648854961832062
3860457823265,1.165942448,2,8.112752325439452,5.772420202636718,0.737414111328125,-1.7099236641221374,0.24427480916030533,-1.5801526717557253
3860477781234,1.185900417,2,8.113949426269532,5.741295581054687,0.7481880187988281,-1.7328244274809161,0.24427480916030533,-1.5801526717557253
3860497782588,1.205901771,2,8.074445098876952,5.749675286865234,0.7266402038574218,-1.7938931297709924,0.2595419847328244,-1.5954198473282444
3860517748994,1.225868177,2,8.110358123779296,5.743689782714843,0.7445967163085937,-1.7709923664122138,0.2366412213740458,-1.6106870229007633
3860537752900,1.245872083,2,8.098387115478515,5.717353564453124,0.74699091796875,-1.7557251908396947,0.3053435114503817,-1.6259541984732824
3860557786129,1.265905312,2,8.112752325439452,5.736507177734374,0.699106884765625,-1.7709923664122138,0.22900763358778625,-1.5801526717557253
3860577779567,1.28589875,2,8.113949426269532,5.738901379394531,0.6883329772949218,-1.7709923664122138,0.24427480916030533,-1.6412213740458015
3860597848369,1.305967552,2,8.131905938720703,5.7317187744140625,0.7338228088378905,-1.7938931297709924,0.2900763358778626,-1.5877862595419847
3860617792848,1.325912031,2,8.13310303955078,5.722141967773437,0.6967126831054687,-1.7328244274809161,0.2595419847328244,-1.5725190839694656
3860637810192,1.345929375,2,8.093598712158203,5.7317187744140625,0.7529764221191406,-1.7786259541984732,0.26717557251908397,-1.6030534351145038
3860657786806,1.365905989,2,8.092401611328125,5.754463690185546,0.7218518005371093,-1.7633587786259541,0.22900763358778625,-1.6030534351145038
3860677782744,1.385901927,2,8.09479581298828,5.735310076904296,0.7493851196289062,-1.748091603053435,0.19083969465648856,-1.6106870229007633
3860697792848,1.405912031,2,8.124723333740233,5.746083984375,0.719457598876953,-1.8091603053435115,0.21374045801526717,-1.5954198473282444
3860717782379,1.425901562,2,8.141482745361328,5.7700260009765625,0.7362170104980469,-1.7557251908396947,0.22900763358778625,-1.6106870229007633
3860737782119,1.445901302,2,8.097190014648437,5.743689782714843,0.7362170104980469,-1.7633587786259541,0.2595419847328244,-1.6106870229007633
3860757780765,1.465899948,2,8.10796392211914,5.711368060302734,0.7038952880859375,-1.7633587786259541,0.25190839694656486,-1.5725190839694656
3860777782588,1.485901771,2,8.123526232910155,5.7508723876953125,0.6967126831054687,-1.7404580152671756,0.21374045801526717,-1.5725190839694656
3860797795921,1.505915104,2,8.103175518798828,5.762843395996094,0.7254431030273437,-1.748091603053435,0.22137404580152673,-1.5419847328244274
3860817790713,1.525909896,2,8.116343627929687,5.736507177734374,0.719457598876953,-1.786259541984733,0.2900763358778626,-1.618320610687023
3860837782744,1.545901927,2,8.100781317138672,5.736507177734374,0.7302315063476562,-1.786259541984733,0.20610687022900764,-1.534351145038168
3860857781858,1.565901041,2,8.139088543701172,5.7891796142578125,0.7230489013671875,-1.7633587786259541,0.26717557251908397,-1.5648854961832062
3860877786494,1.585905677,2,8.125920434570313,5.767631799316406,0.729034405517578,-1.7404580152671756,0.2366412213740458,-1.5877862595419847
3860897781650,1.605900833,2,8.118737829589843,5.754463690185546,0.7326257080078125,-1.7709923664122138,0.2900763358778626,-1.6030534351145038
3860917780817,1.6259,2,8.10796392211914,5.759252093505859,0.7074865905761718,-1.7557251908396947,0.1984732824427481,-1.633587786259542
3860937793525,1.645912708,2,8.104372619628906,5.744886883544922,0.7745242370605468,-1.7633587786259541,0.2366412213740458,-1.5877862595419847
3860958038838,1.666158021,2,8.11514652709961,5.7520694885253905,0.7709329345703124,-1.7633587786259541,0.24427480916030533,-1.5877862595419847
3860977809567,1.68592875,2,8.10796392211914,5.738901379394531,0.7050923889160156,-1.7404580152671756,0.2900763358778626,-1.5877862595419847
3860997811181,1.705930364,2,8.116343627929687,5.741295581054687,0.6859387756347656,-1.748091603053435,0.17557251908396945,-1.6030534351145038
3861017752015,1.725871198,2,8.11514652709961,5.7520694885253905,0.7134720947265625,-1.7633587786259541,0.24427480916030533,-1.5954198473282444
3861037791129,1.745910312,2,8.134300140380859,5.737704278564453,0.6655880615234374,-1.748091603053435,0.2366412213740458,-1.5572519083969465
3861057788733,1.765907916,2,8.106766821289062,5.743689782714843,0.7314286071777343,-1.748091603053435,0.22137404580152673,-1.618320610687023
3861077785140,1.785904323,2,8.098387115478515,5.728127471923828,0.7218518005371093,-1.748091603053435,0.22900763358778625,-1.5801526717557253
3861097780244,1.805899427,2,8.118737829589843,5.7520694885253905,0.6667851623535156,-1.7709923664122138,0.21374045801526717,-1.5954198473282444
3861117791963,1.825911146,2,8.113949426269532,5.754463690185546,0.729034405517578,-1.7251908396946565,0.21374045801526717,-1.5725190839694656
3861137781754,1.845900937,2,8.139088543701172,5.7520694885253905,0.7254431030273437,-1.786259541984733,0.22900763358778625,-1.5725190839694656
3861157784827,1.86590401,2,8.0828248046875,5.736507177734374,0.7433996154785156,-1.748091603053435,0.1984732824427481,-1.633587786259542
3861177784150,1.885903333,2,8.137891442871092,5.741295581054687,0.7386112121582031,-1.7633587786259541,0.22900763358778625,-1.5954198473282444
3861197780713,1.905899896,2,8.099584216308592,5.753266589355468,0.6715735656738281,-1.748091603053435,0.24427480916030533,-1.5801526717557253
3861217777588,1.925896771,2,8.091204510498047,5.737704278564453,0.7350199096679687,-1.7786259541984732,0.2366412213740458,-1.6259541984732824
3861237791337,1.94591052,2,8.134300140380859,5.742492681884765,0.7493851196289062,-1.7328244274809161,0.2595419847328244,-1.6106870229007633
3861257779410,1.965898593,2,8.119934930419921,5.742492681884765,0.7254431030273437,-1.7251908396946565,0.2366412213740458,-1.5801526717557253
3861277790765,1.985909948,2,8.135497241210937,5.764040496826172,0.7362170104980469,-1.7557251908396947,0.2366412213740458,-1.5725190839694656
3861297783785,2.005902968,2,8.110358123779296,5.758054992675781,0.7326257080078125,-1.7328244274809161,0.22900763358778625,-1.6106870229007633
3861317785140,2.025904323,2,8.125920434570313,5.7317187744140625,0.7218518005371093,-1.7633587786259541,0.24427480916030533,-1.6106870229007633
3861337745296,2.045864479,2,8.10796392211914,5.753266589355468,0.7218518005371093,-1.786259541984733,0.24427480916030533,-1.633587786259542
3861357797952,2.065917135,2,8.109161022949218,5.760449194335937,0.7445967163085937,-1.8015267175572518,0.22137404580152673,-1.6259541984732824
3861377796494,2.085915677,2,8.092401611328125,5.7520694885253905,0.7134720947265625,-1.7404580152671756,0.25190839694656486,-1.6259541984732824
3861397783317,2.1059025,2,8.092401611328125,5.737704278564453,0.7410054138183594,-1.8015267175572518,0.1984732824427481,-1.6106870229007633
3861417807952,2.125927135,2,8.087613208007811,5.746083984375,0.7457938171386719,-1.7633587786259541,0.2595419847328244,-1.6106870229007633
3861437784254,2.145903437,2,8.125920434570313,5.77122310180664,0.7015010864257812,-1.8091603053435115,0.22900763358778625,-1.5877862595419847
3861457785817,2.165905,2,8.110358123779296,5.766434698486328,0.7445967163085937,-1.7557251908396947,0.20610687022900764,-1.5954198473282444
3861477832431,2.185951614,2,8.122329132080077,5.746083984375,0.7206546997070312,-1.7633587786259541,0.19083969465648856,-1.534351145038168
3861497789567,2.20590875,2,8.085219006347655,5.747281085205078,0.7362170104980469,-1.7328244274809161,0.24427480916030533,-1.5877862595419847
3861517784358,2.225903541,2,8.130708837890625,5.772420202636718,0.7302315063476562,-1.7633587786259541,0.3053435114503817,-1.5801526717557253
3861537787744,2.245906927,2,8.122329132080077,5.728127471923828,0.7350199096679687,-1.7328244274809161,0.2595419847328244,-1.5954198473282444
3861557836806,2.265955989,2,8.097190014648437,5.728127471923828,0.7350199096679687,-1.7786259541984732,0.24427480916030533,-1.633587786259542
3861577804619,2.285923802,2,8.152256652832031,5.753266589355468,0.7062894897460937,-1.7251908396946565,0.24427480916030533,-1.6030534351145038
3861597788056,2.305907239,2,8.11514652709961,5.758054992675781,0.7015010864257812,-1.7404580152671756,0.22900763358778625,-1.618320610687023
3861617782587,2.32590177,2,8.093598712158203,5.728127471923828,0.7625532287597656,-1.7633587786259541,0.26717557251908397,-1.5954198473282444
3861637775817,2.345895,2,8.112752325439452,5.730521673583984,0.7362170104980469,-1.748091603053435,0.21374045801526717,-1.5877862595419847
3861657789775,2.365908958,2,8.128314636230469,5.7520694885253905,0.7206546997070312,-1.7328244274809161,0.25190839694656486,-1.5572519083969465
3861677776285,2.385895468,2,8.12711753540039,5.722141967773437,0.6727706665039062,-1.748091603053435,0.21374045801526717,-1.5725190839694656
3861697779827,2.40589901,2,8.118737829589843,5.741295581054687,0.70868369140625,-1.748091603053435,0.22900763358778625,-1.5648854961832062
3861717779410,2.425898593,2,8.109161022949218,5.762843395996094,0.7314286071777343,-1.7404580152671756,0.2595419847328244,-1.5801526717557253
3861737778316,2.445897499,2,8.134300140380859,5.746083984375,0.7230489013671875,-1.7786259541984732,0.22900763358778625,-1.618320610687023
3861757736077,2.46585526,2,8.110358123779296,5.753266589355468,0.7026981872558593,-1.7251908396946565,0.21374045801526717,-1.5648854961832062
3861777788733,2.485907916,2,8.112752325439452,5.740098480224609,0.6883329772949218,-1.7786259541984732,0.3282442748091603,-1.618320610687023
3861797774619,2.505893802,2,8.099584216308592,5.746083984375,0.6883329772949218,-1.7404580152671756,0.21374045801526717,-1.534351145038168
3861817742066,2.525861249,2,8.104372619628906,5.772420202636718,0.7362170104980469,-1.7709923664122138,0.17557251908396945,-1.5572519083969465
3861837798212,2.545917395,2,8.07683930053711,5.7508723876953125,0.7158662963867187,-1.7633587786259541,0.24427480916030533,-1.5954198473282444
3861857780348,2.565899531,2,8.111555224609374,5.760449194335937,0.7457938171386719,-1.7404580152671756,0.21374045801526717,-1.5877862595419847
3861877776181,2.585895364,2,8.129511737060547,5.759252093505859,0.7254431030273437,-1.7557251908396947,0.25190839694656486,-1.6030534351145038
3861897779827,2.60589901,2,8.081627703857421,5.747281085205078,0.7326257080078125,-1.7557251908396947,0.26717557251908397,-1.5725190839694656
3861917848473,2.625967656,2,8.116343627929687,5.72693037109375,0.7003039855957031,-1.7251908396946565,0.2366412213740458,-1.5877862595419847
3861937791858,2.645911041,2,8.12113203125,5.759252093505859,0.7613561279296874,-1.786259541984733,0.1984732824427481,-1.5801526717557253
3861957792796,2.665911979,2,8.109161022949218,5.768828900146484,0.7422025146484375,-1.7633587786259541,0.21374045801526717,-1.5801526717557253
3861977784306,2.685903489,2,8.131905938720703,5.755660791015624,0.7398083129882812,-1.7557251908396947,0.1984732824427481,-1.5725190839694656
3861997781598,2.705900781,2,8.118737829589843,5.747281085205078,0.7817068420410156,-1.7328244274809161,0.1984732824427481,-1.5801526717557253
3862018034254,2.726153437,2,8.111555224609374,5.749675286865234,0.7589619262695312,-1.7251908396946565,0.22900763358778625,-1.5801526717557253
3862037809671,2.745928854,2,8.113949426269532,5.748478186035156,0.7218518005371093,-1.7633587786259541,0.24427480916030533,-1.6030534351145038
3862057799514,2.765918697,2,8.118737829589843,5.737704278564453,0.737414111328125,-1.7557251908396947,0.2366412213740458,-1.5572519083969465
3862077808525,2.785927708,2,8.113949426269532,5.774814404296874,0.718260498046875,-1.7557251908396947,0.25190839694656486,-1.5648854961832062
3862097784462,2.805903645,2,8.125920434570313,5.746083984375,0.7230489013671875,-1.7709923664122138,0.24427480916030533,-1.5954198473282444
3862117777639,2.825896822,2,8.092401611328125,5.767631799316406,0.7589619262695312,-1.7786259541984732,0.22900763358778625,-1.6412213740458015
3862137793993,2.845913176,2,8.109161022949218,5.740098480224609,0.7266402038574218,-1.7786259541984732,0.25190839694656486,-1.6412213740458015
3862157782743,2.865901926,2,8.079233502197265,5.768828900146484,0.7254431030273437,-1.7709923664122138,0.2748091603053435,-1.5801526717557253
3862177780608,2.885899791,2,8.136694342041014,5.742492681884765,0.729034405517578,-1.8015267175572518,0.22900763358778625,-1.5877862595419847
3862197787848,2.905907031,2,8.087613208007811,5.743689782714843,0.7433996154785156,-1.748091603053435,0.22137404580152673,-1.5877862595419847
3862217779306,2.925898489,2,8.110358123779296,5.756857891845703,0.7350199096679687,-1.7557251908396947,0.24427480916030533,-1.6488549618320612
3862237803525,2.945922708,2,8.086416107177733,5.735310076904296,0.7314286071777343,-1.7557251908396947,0.22137404580152673,-1.6259541984732824
3862257797587,2.96591677,2,8.116343627929687,5.7520694885253905,0.74699091796875,-1.7328244274809161,0.22137404580152673,-1.5954198473282444
3862277783368,2.985902551,2,8.099584216308592,5.7520694885253905,0.737414111328125,-1.7404580152671756,0.2824427480916031,-1.618320610687023
3862297781025,3.005900208,2,8.124723333740233,5.7520694885253905,0.7386112121582031,-1.7557251908396947,0.2366412213740458,-1.6106870229007633
3862317786702,3.025905885,2,8.118737829589843,5.755660791015624,0.74699091796875,-1.7786259541984732,0.26717557251908397,-1.6106870229007633
3862337786597,3.04590578,2,8.129511737060547,5.777208605957031,0.7362170104980469,-1.786259541984733,0.2824427480916031,-1.5725190839694656
3862357782170,3.065901353,2,8.11514652709961,5.7520694885253905,0.7422025146484375,-1.717557251908397,0.2366412213740458,-1.618320610687023
3862377799045,3.085918228,2,8.125920434570313,5.759252093505859,0.7062894897460937,-1.7251908396946565,0.22137404580152673,-1.5725190839694656
3862397784879,3.105904062,2,8.135497241210937,5.744886883544922,0.7146691955566405,-1.7404580152671756,0.22900763358778625,-1.549618320610687
3862417777952,3.125897135,2,8.119934930419921,5.742492681884765,0.6955155822753906,-1.7557251908396947,0.22137404580152673,-1.6106870229007633
3862437792379,3.145911562,2,8.110358123779296,5.744886883544922,0.6907271789550781,-1.7404580152671756,0.24427480916030533,-1.6259541984732824
3862457780816,3.165899999,2,8.104372619628906,5.758054992675781,0.7074865905761718,-1.6946564885496183,0.22900763358778625,-1.6259541984732824
3862477782743,3.185901926,2,8.087613208007811,5.760449194335937,0.7350199096679687,-1.7557251908396947,0.22137404580152673,-1.6030534351145038
3862497781389,3.205900572,2,8.124723333740233,5.743689782714843,0.699106884765625,-1.7938931297709924,0.2595419847328244,-1.6030534351145038
3862517800712,3.225919895,2,8.09479581298828,5.748478186035156,0.7314286071777343,-1.7938931297709924,0.24427480916030533,-1.6412213740458015
3862537781129,3.245900312,2,8.113949426269532,5.748478186035156,0.7517793212890624,-1.7633587786259541,0.21374045801526717,-1.6259541984732824
3862557791024,3.265910207,2,8.106766821289062,5.722141967773437,0.6787561706542968,-1.7404580152671756,0.24427480916030533,-1.5877862595419847
3862577803472,3.285922655,2,8.097190014648437,5.737704278564453,0.7410054138183594,-1.7404580152671756,0.2366412213740458,-1.5954198473282444
3862597825243,3.305944426,2,8.135497241210937,5.748478186035156,0.7386112121582031,-1.7328244274809161,0.2366412213740458,-1.6106870229007633
3862617795764,3.325914947,2,8.14028564453125,5.755660791015624,0.7254431030273437,-1.717557251908397,0.26717557251908397,-1.633587786259542
3862637783264,3.345902447,2,8.122329132080077,5.742492681884765,0.7410054138183594,-1.7251908396946565,0.24427480916030533,-1.6488549618320612
3862657785035,3.365904218,2,8.111555224609374,5.7520694885253905,0.7038952880859375,-1.7404580152671756,0.20610687022900764,-1.6106870229007633
3862677785660,3.385904843,2,8.103175518798828,5.755660791015624,0.7278373046875,-1.748091603053435,0.22900763358778625,-1.6030534351145038
3862697784670,3.405903853,2,8.124723333740233,5.754463690185546,0.7110778930664062,-1.7633587786259541,0.22900763358778625,-1.6106870229007633
3862717779202,3.425898385,2,8.090007409667969,5.740098480224609,0.7062894897460937,-1.7633587786259541,0.24427480916030533,-1.5954198473282444
3862737790399,3.445909582,2,8.100781317138672,5.7508723876953125,0.7649474304199219,-1.7786259541984732,0.22137404580152673,-1.6259541984732824
3862757782066,3.465901249,2,8.14028564453125,5.72693037109375,0.7314286071777343,-1.7557251908396947,0.22900763358778625,-1.5877862595419847
3862777785868,3.485905051,2,8.111555224609374,5.735310076904296,0.6919242797851562,-1.7251908396946565,0.24427480916030533,-1.5801526717557253
3862797788941,3.505908124,2,8.14627114868164,5.7508723876953125,0.7398083129882812,-1.7786259541984732,0.20610687022900764,-1.5954198473282444
3862817786285,3.525905468,2,8.095992913818359,5.737704278564453,0.7266402038574218,-1.7709923664122138,0.25190839694656486,-1.6106870229007633
3862837780608,3.545899791,2,8.093598712158203,5.7508723876953125,0.709880792236328,-1.7404580152671756,0.25190839694656486,-1.5801526717557253
3862857804879,3.565924062,2,8.124723333740233,5.754463690185546,0.737414111328125,-1.748091603053435,0.26717557251908397,-1.5877862595419847
3862878355868,3.586475051,2,8.106766821289062,5.722141967773437,0.7206546997070312,-1.7557251908396947,0.24427480916030533,-1.5877862595419847
3862898610295,3.606729478,2,8.112752325439452,5.728127471923828,0.7302315063476562,-1.7709923664122138,0.22900763358778625,-1.6030534351145038
3862918581858,3.626701041,2,8.099584216308592,5.749675286865234,0.7050923889160156,-1.8015267175572518,0.2595419847328244,-1.6641221374045803
3862938574358,3.646693541,2,8.116343627929687,5.746083984375,0.7074865905761718,-1.7557251908396947,0.25190839694656486,-1.618320610687023
3862958575816,3.666694999,2,8.118737829589843,5.737704278564453,0.7433996154785156,-1.7709923664122138,0.2900763358778626,-1.5801526717557253
3862978633212,3.686752395,2,8.117540728759765,5.722141967773437,0.7218518005371093,-1.7709923664122138,0.2595419847328244,-1.6030534351145038
3862998524149,3.706643332,2,8.12113203125,5.7508723876953125,0.7158662963867187,-1.7251908396946565,0.22900763358778625,-1.5572519083969465
3863018613316,3.726732499,2,8.099584216308592,5.734112976074218,0.7386112121582031,-1.786259541984733,0.2366412213740458,-1.6030534351145038
3863038580295,3.746699478,2,8.131905938720703,5.742492681884765,0.7206546997070312,-1.786259541984733,0.25190839694656486,-1.5954198473282444
3863058578889,3.766698072,2,8.092401611328125,5.756857891845703,0.74699091796875,-1.7938931297709924,0.2366412213740458,-1.6030534351145038
3863078594566,3.786713749,2,8.11514652709961,5.749675286865234,0.7146691955566405,-1.7709923664122138,0.2366412213740458,-1.6030534351145038
3863098534722,3.806653905,2,8.109161022949218,5.781997009277344,0.6883329772949218,-1.7786259541984732,0.20610687022900764,-1.618320610687023
3863118588212,3.826707395,2,8.136694342041014,5.749675286865234,0.7314286071777343,-1.7709923664122138,0.24427480916030533,-1.5801526717557253
3863138576806,3.846695989,2,8.11514652709961,5.776011505126953,0.7206546997070312,-1.83206106870229,0.22900763358778625,-1.5648854961832062
3863158580087,3.86669927,2,8.09479581298828,5.740098480224609,0.7074865905761718,-1.7786259541984732,0.24427480916030533,-1.6259541984732824
3863178584670,3.886703853,2,8.095992913818359,5.742492681884765,0.7170633972167968,-1.7557251908396947,0.2748091603053435,-1.618320610687023
3863198580555,3.906699738,2,8.099584216308592,5.7508723876953125,0.70868369140625,-1.702290076335878,0.25190839694656486,-1.633587786259542
3863218592222,3.926711405,2,8.113949426269532,5.777208605957031,0.7422025146484375,-1.748091603053435,0.24427480916030533,-1.5801526717557253
3863238572691,3.946691874,2,8.103175518798828,5.761646295166015,0.7038952880859375,-1.7557251908396947,0.2366412213740458,-1.5648854961832062
3863258583212,3.966702395,2,8.104372619628906,5.747281085205078,0.7062894897460937,-1.7557251908396947,0.21374045801526717,-1.618320610687023
3863278581024,3.986700207,2,8.13310303955078,5.747281085205078,0.7038952880859375,-1.7251908396946565,0.22900763358778625,-1.618320610687023
3863298583108,4.006702291,2,8.090007409667969,5.764040496826172,0.7481880187988281,-1.7328244274809161,0.2595419847328244,-1.618320610687023
3863318581805,4.026700988,2,8.119934930419921,5.756857891845703,0.6979097839355468,-1.7251908396946565,0.24427480916030533,-1.5267175572519085
3863338574201,4.046693384,2,8.095992913818359,5.755660791015624,0.709880792236328,-1.7938931297709924,0.26717557251908397,-1.5725190839694656
3863358586858,4.066706041,2,8.10197841796875,5.760449194335937,0.7553706237792969,-1.7557251908396947,0.2595419847328244,-1.6106870229007633
3863378603212,4.086722395,2,8.129511737060547,5.729324572753906,0.6859387756347656,-1.7404580152671756,0.24427480916030533,-1.6106870229007633
3863398580608,4.106699791,2,8.10197841796875,5.764040496826172,0.7350199096679687,-1.7404580152671756,0.2366412213740458,-1.6259541984732824
3863418601493,4.126720676,2,8.093598712158203,5.761646295166015,0.7278373046875,-1.7251908396946565,0.2366412213740458,-1.618320610687023
3863438583107,4.14670229,2,8.116343627929687,5.7317187744140625,0.6919242797851562,-1.7404580152671756,0.24427480916030533,-1.5725190839694656
3863458585868,4.166705051,2,8.12113203125,5.773617303466796,0.74699091796875,-1.7557251908396947,0.20610687022900764,-1.6259541984732824
3863478628524,4.186747707,2,8.099584216308592,5.773617303466796,0.7350199096679687,-1.7709923664122138,0.22900763358778625,-1.5954198473282444
3863498580139,4.206699322,2,8.099584216308592,5.754463690185546,0.7170633972167968,-1.7328244274809161,0.19083969465648856,-1.6030534351145038
3863518582691,4.226701874,2,8.106766821289062,5.743689782714843,0.7350199096679687,-1.786259541984733,0.2595419847328244,-1.6259541984732824
3863538583837,4.24670302,2,8.104372619628906,5.7329158752441405,0.737414111328125,-1.7557251908396947,0.26717557251908397,-1.5648854961832062
3863558573576,4.266692759,2,8.129511737060547,5.749675286865234,0.7110778930664062,-1.7557251908396947,0.2595419847328244,-1.5877862595419847
3863578636076,4.286755259,2,8.100781317138672,5.7329158752441405,0.7410054138183594,-1.7633587786259541,0.2748091603053435,-1.5648854961832062
3863598574253,4.306693436,2,8.129511737060547,5.729324572753906,0.7661445312499999,-1.717557251908397,0.22137404580152673,-1.5877862595419847
3863618530295,4.326649478,2,8.136694342041014,5.758054992675781,0.7350199096679687,-1.748091603053435,0.22900763358778625,-1.618320610687023
3863638583993,4.346703176,2,8.099584216308592,5.740098480224609,0.7996633544921875,-1.748091603053435,0.19083969465648856,-1.5572519083969465
3863658577795,4.366696978,2,8.10796392211914,5.764040496826172,0.7278373046875,-1.748091603053435,0.24427480916030533,-1.618320610687023
3863678579670,4.386698853,2,8.111555224609374,5.754463690185546,0.7422025146484375,-1.7633587786259541,0.22137404580152673,-1.5648854961832062
3863698586024,4.406705207,2,8.11514652709961,5.772420202636718,0.7410054138183594,-1.8091603053435115,0.22900763358778625,-1.5877862595419847
3863718579566,4.426698749,2,8.10796392211914,5.741295581054687,0.6536170532226562,-1.7328244274809161,0.20610687022900764,-1.6030534351145038
3863738577014,4.446696197,2,8.104372619628906,5.753266589355468,0.7158662963867187,-1.7328244274809161,0.19083969465648856,-1.5801526717557253
3863758586441,4.466705624,2,8.090007409667969,5.758054992675781,0.7170633972167968,-1.7404580152671756,0.29770992366412213,-1.5954198473282444
3863778595816,4.486714999,2,8.100781317138672,5.743689782714843,0.7350199096679687,-1.7709923664122138,0.2366412213740458,-1.5572519083969465
3863798579826,4.506699009,2,8.12113203125,5.736507177734374,0.7338228088378905,-1.786259541984733,0.21374045801526717,-1.5725190839694656
3863818583420,4.526702603,2,8.103175518798828,5.7317187744140625,0.6859387756347656,-1.7557251908396947,0.2366412213740458,-1.5954198473282444
3863838563524,4.546682707,2,8.110358123779296,5.742492681884765,0.7457938171386719,-1.7709923664122138,0.183206106870229,-1.5648854961832062
3863858582951,4.566702134,2,8.10796392211914,5.7520694885253905,0.6943184814453125,-1.7557251908396947,0.2595419847328244,-1.6030534351145038
3863878579618,4.586698801,2,8.12711753540039,5.7508723876953125,0.7793126403808593,-1.7786259541984732,0.21374045801526717,-1.6030534351145038
3863898580034,4.606699217,2,8.116343627929687,5.7329158752441405,0.7122749938964843,-1.7633587786259541,0.2366412213740458,-1.5954198473282444
3863918580191,4.626699374,2,8.129511737060547,5.761646295166015,0.7158662963867187,-1.7404580152671756,0.2748091603053435,-1.5954198473282444
3863938602274,4.646721457,2,8.097190014648437,5.761646295166015,0.709880792236328,-1.7557251908396947,0.24427480916030533,-1.6030534351145038
3863958574722,4.666693905,2,8.06965669555664,5.781997009277344,0.7302315063476562,-1.6946564885496183,0.24427480916030533,-1.5648854961832062
3863978578680,4.686697863,2,8.125920434570313,5.736507177734374,0.7015010864257812,-1.7251908396946565,0.26717557251908397,-1.5572519083969465
3863998568316,4.706687499,2,8.111555224609374,5.744886883544922,0.7230489013671875,-1.7557251908396947,0.24427480916030533,-1.6030534351145038
3864018591857,4.72671104,2,8.128314636230469,5.758054992675781,0.7398083129882812,-1.7557251908396947,0.25190839694656486,-1.5801526717557253
3864038570555,4.746689738,2,8.12711753540039,5.777208605957031,0.7242460021972655,-1.7709923664122138,0.20610687022900764,-1.6259541984732824
3864058569357,4.76668854,2,8.097190014648437,5.747281085205078,0.7553706237792969,-1.748091603053435,0.22137404580152673,-1.549618320610687
3864078574878,4.786694061,2,8.104372619628906,5.7125651611328125,0.7314286071777343,-1.7786259541984732,0.22137404580152673,-1.633587786259542
3864098584930,4.806704113,2,8.14028564453125,5.725733270263672,0.7386112121582031,-1.7557251908396947,0.2366412213740458,-1.6259541984732824
3864118575347,4.82669453,2,8.093598712158203,5.76523759765625,0.7050923889160156,-1.7328244274809161,0.22900763358778625,-1.5877862595419847
3864138578888,4.846698071,2,8.110358123779296,5.777208605957031,0.7230489013671875,-1.786259541984733,0.25190839694656486,-1.618320610687023
3864158567013,4.866686196,2,8.119934930419921,5.743689782714843,0.7170633972167968,-1.7557251908396947,0.2366412213740458,-1.5801526717557253
3864178586909,4.886706092,2,8.12113203125,5.730521673583984,0.7242460021972655,-1.7404580152671756,0.26717557251908397,-1.6030534351145038
3864198575972,4.906695155,2,8.105569720458984,5.755660791015624,0.7230489013671875,-1.7709923664122138,0.2824427480916031,-1.5648854961832062
3864218571805,4.926690988,2,8.118737829589843,5.764040496826172,0.7146691955566405,-1.7633587786259541,0.2748091603053435,-1.5877862595419847
3864238519305,4.946638488,2,8.118737829589843,5.743689782714843,0.7302315063476562,-1.7709923664122138,0.2366412213740458,-1.6564885496183206
3864258585191,4.966704374,2,8.135497241210937,5.756857891845703,0.7146691955566405,-1.7709923664122138,0.24427480916030533,-1.5954198473282444
3864278576961,4.986696144,2,8.12711753540039,5.744886883544922,0.7110778930664062,-1.7709923664122138,0.20610687022900764,-1.6259541984732824
3864298576388,5.006695571,2,8.078036401367187,5.756857891845703,0.7074865905761718,-1.6946564885496183,0.21374045801526717,-1.6106870229007633
3864318568159,5.026687342,2,8.099584216308592,5.735310076904296,0.7110778930664062,-1.7557251908396947,0.22900763358778625,-1.5877862595419847
3864338576336,5.046695519,2,8.125920434570313,5.748478186035156,0.7529764221191406,-1.7557251908396947,0.2366412213740458,-1.5877862595419847
3864358570347,5.06668953,2,8.13310303955078,5.755660791015624,0.7314286071777343,-1.8091603053435115,0.16793893129770993,-1.5954198473282444
3864378525503,5.086644686,2,8.09479581298828,5.744886883544922,0.6835445739746093,-1.7709923664122138,0.24427480916030533,-1.6259541984732824
3864398578524,5.106697707,2,8.0828248046875,5.762843395996094,0.7326257080078125,-1.717557251908397,0.2595419847328244,-1.618320610687023
3864418586805,5.126705988,2,8.097190014648437,5.734112976074218,0.7362170104980469,-1.7404580152671756,0.22900763358778625,-1.5725190839694656
3864438571597,5.14669078,2,8.128314636230469,5.737704278564453,0.7206546997070312,-1.7709923664122138,0.29770992366412213,-1.5954198473282444
3864458576805,5.166695988,2,8.095992913818359,5.766434698486328,0.6943184814453125,-1.748091603053435,0.26717557251908397,-1.5801526717557253
3864478571024,5.186690207,2,8.123526232910155,5.7520694885253905,0.737414111328125,-1.7328244274809161,0.22137404580152673,-1.5648854961832062
3864498583680,5.206702863,2,8.092401611328125,5.776011505126953,0.7338228088378905,-1.7633587786259541,0.20610687022900764,-1.5877862595419847
3864518618940,5.226738123,2,8.119934930419921,5.735310076904296,0.7146691955566405,-1.7633587786259541,0.22137404580152673,-1.6259541984732824
3864538568836,5.246688019,2,8.117540728759765,5.756857891845703,0.7326257080078125,-1.7709923664122138,0.2366412213740458,-1.5648854961832062
3864558576961,5.266696144,2,8.103175518798828,5.747281085205078,0.7589619262695312,-1.7404580152671756,0.22137404580152673,-1.5572519083969465
3864578593211,5.286712394,2,8.070853796386718,5.762843395996094,0.7003039855957031,-1.7709923664122138,0.24427480916030533,-1.6106870229007633
3864598624722,5.306743905,2,8.145074047851562,5.748478186035156,0.7050923889160156,-1.7633587786259541,0.1984732824427481,-1.6106870229007633
3864618579617,5.3266988,2,8.119934930419921,5.777208605957031,0.718260498046875,-1.7328244274809161,0.21374045801526717,-1.6030534351145038
3864638589826,5.346709009,2,8.10796392211914,5.740098480224609,0.7015010864257812,-1.7557251908396947,0.2366412213740458,-1.618320610687023
3864658588992,5.366708175,2,8.08881030883789,5.755660791015624,0.719457598876953,-1.7251908396946565,0.22137404580152673,-1.6106870229007633
3864678569774,5.386688957,2,8.106766821289062,5.766434698486328,0.729034405517578,-1.748091603053435,0.22900763358778625,-1.6106870229007633
3864698574045,5.406693228,2,8.10197841796875,5.762843395996094,0.7206546997070312,-1.7251908396946565,0.26717557251908397,-1.6030534351145038
3864718576805,5.426695988,2,8.12113203125,5.741295581054687,0.7398083129882812,-1.7709923664122138,0.24427480916030533,-1.5801526717557253
3864738584774,5.446703957,2,8.116343627929687,5.728127471923828,0.7230489013671875,-1.7328244274809161,0.2824427480916031,-1.5267175572519085
3864758571701,5.466690884,2,8.112752325439452,5.746083984375,0.7481880187988281,-1.748091603053435,0.2366412213740458,-1.5114503816793894
3864778572534,5.486691717,2,8.122329132080077,5.72693037109375,0.7278373046875,-1.717557251908397,0.2595419847328244,-1.5954198473282444
3864798578836,5.506698019,2,8.110358123779296,5.741295581054687,0.7517793212890624,-1.7557251908396947,0.2366412213740458,-1.549618320610687
3864818581753,5.526700936,2,8.131905938720703,5.7508723876953125,0.737414111328125,-1.7557251908396947,0.22137404580152673,-1.5419847328244274
3864838567847,5.54668703,2,8.112752325439452,5.728127471923828,0.7170633972167968,-1.7099236641221374,0.1984732824427481,-1.534351145038168
3864858576076,5.566695259,2,8.08881030883789,5.756857891845703,0.6943184814453125,-1.7709923664122138,0.26717557251908397,-1.5725190839694656
3864878565607,5.58668479,2,8.116343627929687,5.735310076904296,0.7601590270996094,-1.7709923664122138,0.24427480916030533,-1.5419847328244274
3864898607534,5.606726717,2,8.119934930419921,5.7700260009765625,0.7146691955566405,-1.717557251908397,0.25190839694656486,-1.5725190839694656
3864918575607,5.62669479,2,8.09479581298828,5.743689782714843,0.7445967163085937,-1.7328244274809161,0.26717557251908397,-1.5954198473282444
3864938570972,5.646690155,2,8.091204510498047,5.747281085205078,0.7122749938964843,-1.7251908396946565,0.25190839694656486,-1.6259541984732824
3864958569826,5.666689009,2,8.12711753540039,5.76523759765625,0.7733271362304687,-1.7251908396946565,0.2748091603053435,-1.6106870229007633
3864978570242,5.686689425,2,8.11514652709961,5.748478186035156,0.7062894897460937,-1.7404580152671756,0.21374045801526717,-1.5725190839694656
3864998592274,5.706711457,2,8.109161022949218,5.758054992675781,0.7422025146484375,-1.7328244274809161,0.26717557251908397,-1.6030534351145038
3865018578784,5.726697967,2,8.139088543701172,5.756857891845703,0.7026981872558593,-1.7404580152671756,0.24427480916030533,-1.618320610687023
3865038565503,5.746684686,2,8.098387115478515,5.766434698486328,0.7015010864257812,-1.7404580152671756,0.26717557251908397,-1.6030534351145038
3865058586649,5.766705832,2,8.139088543701172,5.740098480224609,0.7445967163085937,-1.7099236641221374,0.22137404580152673,-1.6106870229007633
3865078568992,5.786688175,2,8.12113203125,5.740098480224609,0.7649474304199219,-1.748091603053435,0.25190839694656486,-1.6106870229007633
3865098579044,5.806698227,2,8.119934930419921,5.740098480224609,0.7266402038574218,-1.7633587786259541,0.25190839694656486,-1.618320610687023
3865118585711,5.826704894,2,8.090007409667969,5.736507177734374,0.7003039855957031,-1.7328244274809161,0.2595419847328244,-1.633587786259542
3865138568211,5.846687394,2,8.106766821289062,5.740098480224609,0.7338228088378905,-1.748091603053435,0.2748091603053435,-1.5954198473282444
3865158581544,5.866700727,2,8.08881030883789,5.746083984375,0.6931213806152343,-1.7633587786259541,0.22137404580152673,-1.5954198473282444
3865178574253,5.886693436,2,8.12711753540039,5.762843395996094,0.7613561279296874,-1.8015267175572518,0.19083969465648856,-1.5801526717557253
3865198567482,5.906686665,2,8.11514652709961,5.760449194335937,0.7625532287597656,-1.7557251908396947,0.22137404580152673,-1.618320610687023
3865218580711,5.926699894,2,8.06965669555664,5.723339068603515,0.709880792236328,-1.7557251908396947,0.21374045801526717,-1.5954198473282444
3865238574982,5.946694165,2,8.079233502197265,5.779602807617187,0.7062894897460937,-1.7633587786259541,0.2595419847328244,-1.6106870229007633
3865258572169,5.966691352,2,8.112752325439452,5.738901379394531,0.7122749938964843,-1.7938931297709924,0.25190839694656486,-1.6259541984732824
3865278578367,5.98669755,2,8.129511737060547,5.758054992675781,0.7146691955566405,-1.702290076335878,0.26717557251908397,-1.6106870229007633
3865298578003,6.006697186,2,8.125920434570313,5.744886883544922,0.7146691955566405,-1.786259541984733,0.1984732824427481,-1.6412213740458015
3865318577951,6.026697134,2,8.11514652709961,5.7700260009765625,0.7481880187988281,-1.786259541984733,0.1984732824427481,-1.6030534351145038
3865338569982,6.046689165,2,8.099584216308592,5.741295581054687,0.719457598876953,-1.7633587786259541,0.20610687022900764,-1.5877862595419847
3865358567326,6.066686509,2,8.106766821289062,5.7317187744140625,0.7433996154785156,-1.786259541984733,0.2366412213740458,-1.5877862595419847
3865378586128,6.086705311,2,8.134300140380859,5.730521673583984,0.709880792236328,-1.7557251908396947,0.1984732824427481,-1.5877862595419847
3865398588159,6.106707342,2,8.095992913818359,5.737704278564453,0.7493851196289062,-1.786259541984733,0.22900763358778625,-1.6488549618320612
3865418589409,6.126708592,2,8.087613208007811,5.730521673583984,0.7110778930664062,-1.7328244274809161,0.1984732824427481,-1.5954198473282444
3865438598836,6.146718019,2,8.104372619628906,5.762843395996094,0.709880792236328,-1.7251908396946565,0.20610687022900764,-1.6412213740458015
3865458584096,6.166703279,2,8.119934930419921,5.755660791015624,0.7601590270996094,-1.7557251908396947,0.16793893129770993,-1.5572519083969465
3865478524096,6.186643279,2,8.095992913818359,5.741295581054687,0.7146691955566405,-1.7251908396946565,0.22900763358778625,-1.549618320610687
3865498633315,6.206752498,2,8.110358123779296,5.728127471923828,0.74699091796875,-1.748091603053435,0.2824427480916031,-1.6030534351145038
3865518576909,6.226696092,2,8.097190014648437,5.741295581054687,0.7050923889160156,-1.748091603053435,0.22137404580152673,-1.5801526717557253
3865538576596,6.246695779,2,8.104372619628906,5.764040496826172,0.7422025146484375,-1.7404580152671756,0.26717557251908397,-1.5648854961832062
3865558572117,6.2666913,2,8.129511737060547,5.7520694885253905,0.6919242797851562,-1.7633587786259541,0.25190839694656486,-1.5648854961832062
3865578581648,6.286700831,2,8.11514652709961,5.776011505126953,0.7445967163085937,-1.7786259541984732,0.2366412213740458,-1.5877862595419847
3865598622794,6.306741977,2,8.11514652709961,5.7317187744140625,0.7110778930664062,-1.7557251908396947,0.24427480916030533,-1.5801526717557253
3865618575659,6.326694842,2,8.154650854492187,5.748478186035156,0.7350199096679687,-1.7786259541984732,0.25190839694656486,-1.5801526717557253
3865638569200,6.346688383,2,8.109161022949218,5.753266589355468,0.699106884765625,-1.7404580152671756,0.1984732824427481,-1.633587786259542
3865658521805,6.366640988,2,8.129511737060547,5.754463690185546,0.7625532287597656,-1.8015267175572518,0.24427480916030533,-1.5954198473282444
3865678573836,6.386693019,2,8.118737829589843,5.749675286865234,0.7338228088378905,-1.748091603053435,0.2595419847328244,-1.5954198473282444
3865698664565,6.406783748,2,8.117540728759765,5.72693037109375,0.8008604553222656,-1.748091603053435,0.21374045801526717,-1.5572519083969465
3865718572534,6.426691717,2,8.122329132080077,5.725733270263672,0.74699091796875,-1.7557251908396947,0.2595419847328244,-1.5648854961832062
3865738577742,6.446696925,2,8.113949426269532,5.77122310180664,0.7661445312499999,-1.717557251908397,0.1984732824427481,-1.5954198473282444
3865758570138,6.466689321,2,8.098387115478515,5.728127471923828,0.7433996154785156,-1.748091603053435,0.21374045801526717,-1.6106870229007633
3865778577377,6.48669656,2,8.097190014648437,5.76523759765625,0.709880792236328,-1.748091603053435,0.20610687022900764,-1.5877862595419847
3865798627482,6.506746665,2,8.118737829589843,5.738901379394531,0.7278373046875,-1.7557251908396947,0.20610687022900764,-1.6259541984732824
3865818573107,6.52669229,2,8.122329132080077,5.740098480224609,0.7122749938964843,-1.748091603053435,0.21374045801526717,-1.6259541984732824
3865838573471,6.546692654,2,8.10796392211914,5.747281085205078,0.7314286071777343,-1.7099236641221374,0.2748091603053435,-1.5725190839694656
3865858576232,6.566695415,2,8.124723333740233,5.767631799316406,0.7422025146484375,-1.7786259541984732,0.19083969465648856,-1.6488549618320612
3865878564357,6.58668354,2,8.103175518798828,5.747281085205078,0.70868369140625,-1.7633587786259541,0.22900763358778625,-1.6030534351145038
3865898620398,6.606739581,2,8.119934930419921,5.737704278564453,0.6907271789550781,-1.7328244274809161,0.22137404580152673,-1.5725190839694656
3865918586023,6.626705206,2,8.130708837890625,5.767631799316406,0.7505822204589844,-1.7709923664122138,0.2595419847328244,-1.5877862595419847
3865938579357,6.64669854,2,8.129511737060547,5.729324572753906,0.6967126831054687,-1.7404580152671756,0.1984732824427481,-1.549618320610687
3865958616804,6.666735987,2,8.109161022949218,5.735310076904296,0.7122749938964843,-1.786259541984733,0.19083969465648856,-1.6259541984732824
3865978796284,6.686915467,2,8.129511737060547,5.740098480224609,0.7661445312499999,-1.7557251908396947,0.2900763358778626,-1.5877862595419847
3865998656023,6.706775206,2,8.128314636230469,5.753266589355468,0.7170633972167968,-1.786259541984733,0.183206106870229,-1.549618320610687
3866018598784,6.726717967,2,8.066065393066406,5.764040496826172,0.7386112121582031,-1.7251908396946565,0.1984732824427481,-1.618320610687023
3866038569721,6.746688904,2,8.151059552001952,5.766434698486328,0.70868369140625,-1.7251908396946565,0.17557251908396945,-1.6030534351145038
3866058566075,6.766685258,2,8.131905938720703,5.760449194335937,0.70868369140625,-1.7251908396946565,0.2900763358778626,-1.6106870229007633
3866078569617,6.7866888,2,8.112752325439452,5.743689782714843,0.7769184387207031,-1.7328244274809161,0.20610687022900764,-1.6030534351145038
3866098631127,6.80675031,2,8.134300140380859,5.759252093505859,0.7146691955566405,-1.7328244274809161,0.21374045801526717,-1.5801526717557253
3866118564356,6.826683539,2,8.091204510498047,5.759252093505859,0.7206546997070312,-1.7251908396946565,0.2595419847328244,-1.5648854961832062
3866138528836,6.846648019,2,8.130708837890625,5.749675286865234,0.7242460021972655,-1.786259541984733,0.29770992366412213,-1.5801526717557253
3866158570450,6.866689633,2,8.10197841796875,5.761646295166015,0.7158662963867187,-1.7251908396946565,0.2366412213740458,-1.5801526717557253
3866178577325,6.886696508,2,8.123526232910155,5.738901379394531,0.6943184814453125,-1.7404580152671756,0.22900763358778625,-1.5267175572519085
3866198620971,6.906740154,2,8.119934930419921,5.737704278564453,0.7338228088378905,-1.7633587786259541,0.22900763358778625,-1.5877862595419847
3866218566804,6.926685987,2,8.105569720458984,5.754463690185546,0.7278373046875,-1.786259541984733,0.25190839694656486,-1.6030534351145038
3866238577273,6.946696456,2,8.095992913818359,5.768828900146484,0.7529764221191406,-1.7251908396946565,0.3053435114503817,-1.5648854961832062
3866258573471,6.966692654,2,8.119934930419921,5.766434698486328,0.6979097839355468,-1.7557251908396947,0.24427480916030533,-1.5877862595419847
3866278569565,6.986688748,2,8.125920434570313,5.738901379394531,0.7481880187988281,-1.7404580152671756,0.25190839694656486,-1.6259541984732824
3866298583679,7.006702862,2,8.119934930419921,5.783194110107422,0.7206546997070312,-1.7709923664122138,0.22137404580152673,-1.5954198473282444
3866318565502,7.026684685,2,8.119934930419921,5.737704278564453,0.6931213806152343,-1.7557251908396947,0.20610687022900764,-1.5954198473282444
3866338575190,7.046694373,2,8.125920434570313,5.762843395996094,0.7517793212890624,-1.7251908396946565,0.2595419847328244,-1.5877862595419847
3866358564356,7.066683539,2,8.111555224609374,5.758054992675781,0.7074865905761718,-1.748091603053435,0.21374045801526717,-1.618320610687023
3866378573002,7.086692185,2,8.134300140380859,5.755660791015624,0.7122749938964843,-1.7709923664122138,0.21374045801526717,-1.5877862595419847
3866398570242,7.106689425,2,8.093598712158203,5.772420202636718,0.7541735229492187,-1.786259541984733,0.17557251908396945,-1.5801526717557253
3866418570346,7.126689529,2,8.136694342041014,5.749675286865234,0.7457938171386719,-1.7633587786259541,0.2366412213740458,-1.5954198473282444
3866438573627,7.14669281,2,8.103175518798828,5.7508723876953125,0.7529764221191406,-1.748091603053435,0.2366412213740458,-1.618320610687023
3866458512065,7.166631248,2,8.106766821289062,5.7137622619628905,0.7541735229492187,-1.748091603053435,0.24427480916030533,-1.5801526717557253
3866478574981,7.186694164,2,8.130708837890625,5.716156463623046,0.7422025146484375,-1.717557251908397,0.20610687022900764,-1.5648854961832062
3866498576127,7.20669531,2,8.092401611328125,5.738901379394531,0.7254431030273437,-1.7709923664122138,0.21374045801526717,-1.5801526717557253
3866518566960,7.226686143,2,8.111555224609374,5.758054992675781,0.6871358764648438,-1.7328244274809161,0.24427480916030533,-1.5648854961832062
3866538580450,7.246699633,2,8.116343627929687,5.743689782714843,0.709880792236328,-1.748091603053435,0.25190839694656486,-1.5725190839694656
3866558559408,7.266678591,2,8.09479581298828,5.7700260009765625,0.6787561706542968,-1.7709923664122138,0.20610687022900764,-1.6259541984732824
3866578579877,7.28669906,2,8.110358123779296,5.724536169433593,0.7457938171386719,-1.7404580152671756,0.1984732824427481,-1.5725190839694656
3866598586231,7.306705414,2,8.090007409667969,5.728127471923828,0.729034405517578,-1.7404580152671756,0.22900763358778625,-1.6106870229007633
3866618615971,7.326735154,2,8.130708837890625,5.746083984375,0.7386112121582031,-1.748091603053435,0.1984732824427481,-1.5725190839694656
3866638573054,7.346692237,2,8.092401611328125,5.754463690185546,0.7158662963867187,-1.7557251908396947,0.2595419847328244,-1.5954198473282444
3866658519877,7.36663906,2,8.100781317138672,5.772420202636718,0.7410054138183594,-1.7404580152671756,0.22137404580152673,-1.5801526717557253
3866678592533,7.386711716,2,8.10197841796875,5.748478186035156,0.6572083557128906,-1.7709923664122138,0.2595419847328244,-1.5877862595419847
3866698582533,7.406701716,2,8.095992913818359,5.736507177734374,0.7266402038574218,-1.748091603053435,0.22137404580152673,-1.5648854961832062
3866718524981,7.426644164,2,8.109161022949218,5.753266589355468,0.7302315063476562,-1.748091603053435,0.22900763358778625,-1.5572519083969465
3866738576700,7.446695883,2,8.124723333740233,5.768828900146484,0.7386112121582031,-1.7938931297709924,0.21374045801526717,-1.5648854961832062
3866758565554,7.466684737,2,8.10796392211914,5.748478186035156,0.737414111328125,-1.7404580152671756,0.22900763358778625,-1.5801526717557253
3866778565815,7.486684998,2,8.130708837890625,5.7520694885253905,0.7481880187988281,-1.7786259541984732,0.25190839694656486,-1.6106870229007633
3866798572690,7.506691873,2,8.13310303955078,5.744886883544922,0.6715735656738281,-1.7633587786259541,0.22137404580152673,-1.5877862595419847
3866818576492,7.526695675,2,8.134300140380859,5.755660791015624,0.7673416320800781,-1.7709923664122138,0.22900763358778625,-1.6106870229007633
3866838567429,7.546686612,2,8.113949426269532,5.755660791015624,0.7134720947265625,-1.748091603053435,0.16793893129770993,-1.5572519083969465
3866858569929,7.566689112,2,8.117540728759765,5.7329158752441405,0.7158662963867187,-1.7328244274809161,0.2595419847328244,-1.5648854961832062
3866878571075,7.586690258,2,8.113949426269532,5.719747766113281,0.7170633972167968,-1.717557251908397,0.24427480916030533,-1.5801526717557253
3866898579304,7.606698487,2,8.113949426269532,5.758054992675781,0.709880792236328,-1.748091603053435,0.22900763358778625,-1.5725190839694656
3866918569044,7.626688227,2,8.11514652709961,5.768828900146484,0.7565677246093749,-1.7328244274809161,0.2595419847328244,-1.618320610687023
3866938518106,7.646637289,2,8.12113203125,5.734112976074218,0.7170633972167968,-1.7099236641221374,0.24427480916030533,-1.5954198473282444
3866958609512,7.666728695,2,8.098387115478515,5.754463690185546,0.7206546997070312,-1.7557251908396947,0.22137404580152673,-1.618320610687023
3866978579981,7.686699164,2,8.10796392211914,5.741295581054687,0.7015010864257812,-1.7786259541984732,0.22900763358778625,-1.5954198473282444
3866998570814,7.706689997,2,8.11514652709961,5.748478186035156,0.718260498046875,-1.7938931297709924,0.22900763358778625,-1.5419847328244274
3867018570971,7.726690154,2,8.113949426269532,5.773617303466796,0.7146691955566405,-1.7709923664122138,0.2595419847328244,-1.5725190839694656
3867038562950,7.746682133,2,8.119934930419921,5.753266589355468,0.7242460021972655,-1.7938931297709924,0.21374045801526717,-1.6564885496183206
3867058580346,7.766699529,2,8.098387115478515,5.766434698486328,0.7230489013671875,-1.786259541984733,0.22900763358778625,-1.6259541984732824
3867078564981,7.786684164,2,8.116343627929687,5.781997009277344,0.6464344482421874,-1.7404580152671756,0.2366412213740458,-1.5877862595419847
3867098566596,7.806685779,2,8.106766821289062,5.767631799316406,0.7350199096679687,-1.7633587786259541,0.2595419847328244,-1.6106870229007633
3867118568471,7.826687654,2,8.123526232910155,5.773617303466796,0.7170633972167968,-1.7786259541984732,0.20610687022900764,-1.5801526717557253
3867138580398,7.846699581,2,8.116343627929687,5.758054992675781,0.6979097839355468,-1.7633587786259541,0.21374045801526717,-1.5954198473282444
3867158559929,7.866679112,2,8.091204510498047,5.766434698486328,0.737414111328125,-1.8091603053435115,0.2366412213740458,-1.6030534351145038
3867178590762,7.886709945,2,8.130708837890625,5.743689782714843,0.7170633972167968,-1.7786259541984732,0.22900763358778625,-1.5648854961832062
3867198568054,7.906687237,2,8.129511737060547,5.758054992675781,0.7146691955566405,-1.7557251908396947,0.2366412213740458,-1.5877862595419847
3867218580658,7.926699841,2,8.116343627929687,5.738901379394531,0.7613561279296874,-1.7328244274809161,0.24427480916030533,-1.618320610687023
3867238570971,7.946690154,2,8.098387115478515,5.736507177734374,0.7422025146484375,-1.7633587786259541,0.21374045801526717,-1.618320610687023
3867258566387,7.96668557,2,8.116343627929687,5.749675286865234,0.6967126831054687,-1.717557251908397,0.2366412213740458,-1.6106870229007633
3867278567585,7.986686768,2,8.12711753540039,5.725733270263672,0.7230489013671875,-1.7786259541984732,0.2366412213740458,-1.5877862595419847
3867298574304,8.006693487,2,8.131905938720703,5.779602807617187,0.7146691955566405,-1.7709923664122138,0.26717557251908397,-1.6106870229007633
3867318560710,8.026679893,2,8.151059552001952,5.766434698486328,0.7038952880859375,-1.748091603053435,0.20610687022900764,-1.5801526717557253
3867338574512,8.046693695,2,8.12113203125,5.762843395996094,0.6979097839355468,-1.7404580152671756,0.2366412213740458,-1.5419847328244274
3867358664096,8.066783279,2,8.113949426269532,5.759252093505859,0.7481880187988281,-1.7786259541984732,0.22900763358778625,-1.5954198473282444
3867378591491,8.086710674,2,8.119934930419921,5.748478186035156,0.70868369140625,-1.7786259541984732,0.24427480916030533,-1.5877862595419847
3867398607481,8.106726664,2,8.109161022949218,5.743689782714843,0.719457598876953,-1.7633587786259541,0.25190839694656486,-1.549618320610687
3867418579356,8.126698539,2,8.13310303955078,5.773617303466796,0.7170633972167968,-1.7404580152671756,0.25190839694656486,-1.5801526717557253
3867438597377,8.14671656,2,8.104372619628906,5.7508723876953125,0.7302315063476562,-1.7404580152671756,0.2595419847328244,-1.5801526717557253
3867458589252,8.166708435,2,8.124723333740233,5.754463690185546,0.7410054138183594,-1.7404580152671756,0.24427480916030533,-1.5648854961832062
3867478582637,8.18670182,2,8.103175518798828,5.725733270263672,0.718260498046875,-1.7786259541984732,0.21374045801526717,-1.549618320610687
3867498643314,8.206762497,2,8.116343627929687,5.716156463623046,0.7445967163085937,-1.7099236641221374,0.20610687022900764,-1.5725190839694656
3867518587429,8.226706612,2,8.123526232910155,5.742492681884765,0.7003039855957031,-1.748091603053435,0.25190839694656486,-1.5877862595419847
3867538588627,8.24670781,2,8.110358123779296,5.756857891845703,0.7206546997070312,-1.7709923664122138,0.2824427480916031,-1.5877862595419847
3867558577221,8.266696404,2,8.09479581298828,5.719747766113281,0.7864952453613281,-1.7328244274809161,0.2366412213740458,-1.5877862595419847
3867578579720,8.286698903,2,8.104372619628906,5.7520694885253905,0.70868369140625,-1.7709923664122138,0.2366412213740458,-1.5725190839694656
3867598586075,8.306705258,2,8.125920434570313,5.72693037109375,0.7338228088378905,-1.7557251908396947,0.2366412213740458,-1.6106870229007633
3867618616595,8.326735778,2,8.113949426269532,5.764040496826172,0.7398083129882812,-1.7328244274809161,0.24427480916030533,-1.618320610687023
3867638579877,8.34669906,2,8.136694342041014,5.754463690185546,0.7266402038574218,-1.7404580152671756,0.22137404580152673,-1.6030534351145038
3867658579460,8.366698643,2,8.11514652709961,5.783194110107422,0.7302315063476562,-1.748091603053435,0.20610687022900764,-1.5572519083969465
3867678534148,8.386653331,2,8.110358123779296,5.774814404296874,0.7553706237792969,-1.7328244274809161,0.25190839694656486,-1.549618320610687
3867698585814,8.406704997,2,8.086416107177733,5.7329158752441405,0.6907271789550781,-1.7099236641221374,0.20610687022900764,-1.6488549618320612
3867718589773,8.426708956,2,8.106766821289062,5.730521673583984,0.6596025573730468,-1.7404580152671756,0.24427480916030533,-1.5419847328244274
3867738583158,8.446702341,2,8.10197841796875,5.7520694885253905,0.689530078125,-1.7328244274809161,0.25190839694656486,-1.5419847328244274
3867758583158,8.466702341,2,8.118737829589843,5.761646295166015,0.7565677246093749,-1.816793893129771,0.1984732824427481,-1.6030534351145038
3867778583418,8.486702601,2,8.125920434570313,5.742492681884765,0.7170633972167968,-1.7404580152671756,0.2366412213740458,-1.5648854961832062
3867798579564,8.506698747,2,8.124723333740233,5.753266589355468,0.737414111328125,-1.7786259541984732,0.21374045801526717,-1.5419847328244274
3867818678783,8.526797966,2,8.099584216308592,5.742492681884765,0.7242460021972655,-1.8091603053435115,0.17557251908396945,-1.5725190839694656
3867838581960,8.546701143,2,8.109161022949218,5.743689782714843,0.6859387756347656,-1.7709923664122138,0.17557251908396945,-1.6106870229007633
3867858584772,8.566703955,2,8.112752325439452,5.758054992675781,0.7302315063476562,-1.7404580152671756,0.22900763358778625,-1.633587786259542
3867878572377,8.58669156,2,8.106766821289062,5.760449194335937,0.6967126831054687,-1.7557251908396947,0.2366412213740458,-1.6259541984732824
3867898576179,8.606695362,2,8.141482745361328,5.7520694885253905,0.7362170104980469,-1.7404580152671756,0.25190839694656486,-1.6030534351145038
3867918639981,8.626759164,2,8.129511737060547,5.749675286865234,0.729034405517578,-1.786259541984733,0.16793893129770993,-1.6106870229007633
3867938577272,8.646696455,2,8.11514652709961,5.742492681884765,0.7553706237792969,-1.7709923664122138,0.24427480916030533,-1.6259541984732824
3867958533731,8.666652914,2,8.106766821289062,5.7508723876953125,0.737414111328125,-1.717557251908397,0.2824427480916031,-1.5877862595419847
3867978586022,8.686705205,2,8.117540728759765,5.766434698486328,0.699106884765625,-1.7557251908396947,0.21374045801526717,-1.633587786259542
3867998577324,8.706696507,2,8.10197841796875,5.766434698486328,0.7553706237792969,-1.7709923664122138,0.2366412213740458,-1.5954198473282444
3868018876804,8.726995987,2,8.119934930419921,5.759252093505859,0.6883329772949218,-1.748091603053435,0.26717557251908397,-1.5725190839694656
3868038545658,8.746664841,2,8.104372619628906,5.7317187744140625,0.7050923889160156,-1.7786259541984732,0.25190839694656486,-1.5725190839694656
3868058580345,8.766699528,2,8.10197841796875,5.7317187744140625,0.737414111328125,-1.7786259541984732,0.2824427480916031,-1.633587786259542
3868078567845,8.786687028,2,8.110358123779296,5.734112976074218,0.6727706665039062,-1.8091603053435115,0.25190839694656486,-1.5648854961832062
3868098572324,8.806691507,2,8.12113203125,5.708973858642578,0.6967126831054687,-1.7404580152671756,0.22900763358778625,-1.5267175572519085
3868118568470,8.826687653,2,8.122329132080077,5.740098480224609,0.7266402038574218,-1.7633587786259541,0.2366412213740458,-1.5877862595419847
3868138560710,8.846679893,2,8.119934930419921,5.76523759765625,0.7362170104980469,-1.7709923664122138,0.2595419847328244,-1.5725190839694656
3868158577897,8.86669708,2,8.129511737060547,5.753266589355468,0.6679822631835937,-1.8015267175572518,0.2366412213740458,-1.5572519083969465
3868178568783,8.886687966,2,8.13310303955078,5.753266589355468,0.7266402038574218,-1.786259541984733,0.25190839694656486,-1.5725190839694656
3868198579147,8.90669833,2,8.106766821289062,5.749675286865234,0.70868369140625,-1.786259541984733,0.17557251908396945,-1.5419847328244274
3868218529043,8.926648226,2,8.116343627929687,5.737704278564453,0.6907271789550781,-1.7404580152671756,0.25190839694656486,-1.6030534351145038
3868238571908,8.946691091,2,8.134300140380859,5.740098480224609,0.7326257080078125,-1.7633587786259541,0.24427480916030533,-1.618320610687023
3868258568574,8.966687757,2,8.098387115478515,5.7700260009765625,0.689530078125,-1.7633587786259541,0.2366412213740458,-1.618320610687023
3868278563679,8.986682862,2,8.10796392211914,5.737704278564453,0.6931213806152343,-1.7786259541984732,0.24427480916030533,-1.5954198473282444
3868298566595,9.006685778,2,8.106766821289062,5.758054992675781,0.7218518005371093,-1.7633587786259541,0.19083969465648856,-1.5725190839694656
3868318581856,9.026701039,2,8.095992913818359,5.760449194335937,0.7326257080078125,-1.7786259541984732,0.25190839694656486,-1.5877862595419847
3868338563574,9.046682757,2,8.141482745361328,5.77122310180664,0.719457598876953,-1.7786259541984732,0.19083969465648856,-1.5877862595419847
3868358571804,9.066690987,2,8.103175518798828,5.749675286865234,0.7362170104980469,-1.7633587786259541,0.2595419847328244,-1.5801526717557253
3868378563626,9.086682809,2,8.130708837890625,5.761646295166015,0.7493851196289062,-1.7404580152671756,0.26717557251908397,-1.5954198473282444
3868398573001,9.106692184,2,8.092401611328125,5.760449194335937,0.7649474304199219,-1.7557251908396947,0.24427480916030533,-1.5954198473282444
3868418579668,9.126698851,2,8.117540728759765,5.747281085205078,0.7218518005371093,-1.7633587786259541,0.22900763358778625,-1.5801526717557253
3868438561022,9.146680205,2,8.128314636230469,5.753266589355468,0.7398083129882812,-1.7786259541984732,0.2366412213740458,-1.633587786259542
3868458575085,9.166694268,2,8.105569720458984,5.7700260009765625,0.7254431030273437,-1.7557251908396947,0.24427480916030533,-1.5877862595419847
3868478578678,9.186697861,2,8.134300140380859,5.7508723876953125,0.7170633972167968,-1.7633587786259541,0.2824427480916031,-1.5877862595419847
3868498570918,9.206690101,2,8.084021905517577,5.7700260009765625,0.6763619689941406,-1.7099236641221374,0.24427480916030533,-1.6106870229007633
3868518588053,9.226707236,2,8.125920434570313,5.737704278564453,0.7505822204589844,-1.7328244274809161,0.20610687022900764,-1.5801526717557253
3868538577272,9.246696455,2,8.136694342041014,5.735310076904296,0.7697358337402344,-1.7557251908396947,0.24427480916030533,-1.6106870229007633
3868558578731,9.266697914,2,8.130708837890625,5.749675286865234,0.719457598876953,-1.7099236641221374,0.2366412213740458,-1.5801526717557253
3868578561751,9.286680934,2,8.131905938720703,5.7329158752441405,0.7433996154785156,-1.7557251908396947,0.21374045801526717,-1.633587786259542
3868598583106,9.306702289,2,8.103175518798828,5.747281085205078,0.6847416748046875,-1.7404580152671756,0.22900763358778625,-1.6106870229007633
3868618622897,9.32674208,2,8.13310303955078,5.756857891845703,0.7505822204589844,-1.7328244274809161,0.183206106870229,-1.549618320610687
3868638572585,9.346691768,2,8.11514652709961,5.76523759765625,0.7206546997070312,-1.7633587786259541,0.183206106870229,-1.5954198473282444
3868658574043,9.366693226,2,8.141482745361328,5.734112976074218,0.7134720947265625,-1.7709923664122138,0.16030534351145037,-1.6106870229007633
3868678561439,9.386680622,2,8.12711753540039,5.730521673583984,0.7003039855957031,-1.83206106870229,0.21374045801526717,-1.5954198473282444
3868698573678,9.406692861,2,8.109161022949218,5.749675286865234,0.7218518005371093,-1.7557251908396947,0.2595419847328244,-1.5877862595419847
3868718632428,9.426751611,2,8.125920434570313,5.754463690185546,0.7302315063476562,-1.7251908396946565,0.22137404580152673,-1.6106870229007633
3868738561908,9.446681091,2,8.122329132080077,5.72693037109375,0.7721300354003906,-1.7557251908396947,0.24427480916030533,-1.6106870229007633
3868758569095,9.466688278,2,8.131905938720703,5.741295581054687,0.7433996154785156,-1.7633587786259541,0.21374045801526717,-1.6030534351145038
3868778565345,9.486684528,2,8.130708837890625,5.748478186035156,0.7050923889160156,-1.7633587786259541,0.22137404580152673,-1.5801526717557253
3868798572793,9.506691976,2,8.122329132080077,5.786785412597656,0.7481880187988281,-1.717557251908397,0.2366412213740458,-1.5419847328244274
3868818622116,9.526741299,2,8.12113203125,5.722141967773437,0.7457938171386719,-1.717557251908397,0.2595419847328244,-1.5419847328244274
3868838558158,9.546677341,2,8.100781317138672,5.746083984375,0.7278373046875,-1.748091603053435,0.2824427480916031,-1.5877862595419847
3868858581439,9.566700622,2,8.105569720458984,5.76523759765625,0.719457598876953,-1.748091603053435,0.22900763358778625,-1.5801526717557253
3868878578262,9.586697445,2,8.124723333740233,5.740098480224609,0.7422025146484375,-1.7557251908396947,0.19083969465648856,-1.6259541984732824
3868898564460,9.606683643,2,8.129511737060547,5.77122310180664,0.699106884765625,-1.7557251908396947,0.20610687022900764,-1.5725190839694656
3868918620345,9.626739528,2,8.10796392211914,5.762843395996094,0.7386112121582031,-1.7404580152671756,0.22137404580152673,-1.5954198473282444
3868938567012,9.646686195,2,8.119934930419921,5.758054992675781,0.6955155822753906,-1.748091603053435,0.24427480916030533,-1.5725190839694656
3868958572064,9.666691247,2,8.117540728759765,5.749675286865234,0.7062894897460937,-1.748091603053435,0.2824427480916031,-1.5801526717557253
3868978565501,9.686684684,2,8.103175518798828,5.741295581054687,0.7026981872558593,-1.7251908396946565,0.29770992366412213,-1.5877862595419847
3868998570970,9.706690153,2,8.141482745361328,5.734112976074218,0.7254431030273437,-1.748091603053435,0.22900763358778625,-1.5877862595419847
3869018570970,9.726690153,2,8.123526232910155,5.778405706787109,0.7170633972167968,-1.7557251908396947,0.20610687022900764,-1.633587786259542
3869038569251,9.746688434,2,8.124723333740233,5.755660791015624,0.709880792236328,-1.717557251908397,0.1984732824427481,-1.5877862595419847
3869058566387,9.76668557,2,8.12113203125,5.748478186035156,0.7326257080078125,-1.786259541984733,0.24427480916030533,-1.618320610687023
3869078564980,9.786684163,2,8.128314636230469,5.755660791015624,0.718260498046875,-1.702290076335878,0.1984732824427481,-1.6259541984732824
3869098573991,9.806693174,2,8.139088543701172,5.736507177734374,0.719457598876953,-1.717557251908397,0.22137404580152673,-1.6030534351145038
3869118575293,9.826694476,2,8.109161022949218,5.741295581054687,0.7206546997070312,-1.7709923664122138,0.22900763358778625,-1.6030534351145038
3869138573834,9.846693017,2,8.09479581298828,5.762843395996094,0.7314286071777343,-1.7633587786259541,0.2900763358778626,-1.5954198473282444
3869158565032,9.866684215,2,8.104372619628906,5.7508723876953125,0.7062894897460937,-1.8015267175572518,0.22137404580152673,-1.618320610687023
3869178564772,9.886683955,2,8.090007409667969,5.738901379394531,0.7493851196289062,-1.7786259541984732,0.25190839694656486,-1.6488549618320612
3869198519616,9.906638799,2,8.124723333740233,5.755660791015624,0.7326257080078125,-1.7938931297709924,0.24427480916030533,-1.5725190839694656
3869218580449,9.926699632,2,8.117540728759765,5.741295581054687,0.7422025146484375,-1.7938931297709924,0.2366412213740458,-1.5801526717557253
3869238566803,9.946685986,2,8.08881030883789,5.77122310180664,0.6931213806152343,-1.748091603053435,0.26717557251908397,-1.5725190839694656
3869258579980,9.966699163,2,8.112752325439452,5.735310076904296,0.7338228088378905,-1.7328244274809161,0.2748091603053435,-1.549618320610687
3869278568418,9.986687601,2,8.103175518798828,5.76523759765625,0.7398083129882812,-1.7786259541984732,0.26717557251908397,-1.618320610687023
3869298563366,10.006682549,2,8.097190014648437,5.735310076904296,0.74699091796875,-1.7404580152671756,0.2366412213740458,-1.5725190839694656
3869318570084,10.026689267,2,8.148665350341796,5.762843395996094,0.709880792236328,-1.786259541984733,0.21374045801526717,-1.5877862595419847
3869338557949,10.046677132,2,8.137891442871092,5.743689782714843,0.7254431030273437,-1.702290076335878,0.24427480916030533,-1.5572519083969465
3869358580657,10.06669984,2,8.129511737060547,5.760449194335937,0.7661445312499999,-1.7328244274809161,0.25190839694656486,-1.5954198473282444
3869378562532,10.086681715,2,8.131905938720703,5.760449194335937,0.6943184814453125,-1.7786259541984732,0.22137404580152673,-1.6106870229007633
3869398566543,10.106685726,2,8.117540728759765,5.774814404296874,0.74699091796875,-1.7557251908396947,0.26717557251908397,-1.5954198473282444
3869418582011,10.126701194,2,8.104372619628906,5.744886883544922,0.7505822204589844,-1.7557251908396947,0.20610687022900764,-1.6259541984732824
3869438575345,10.146694528,2,8.086416107177733,5.749675286865234,0.7158662963867187,-1.7557251908396947,0.25190839694656486,-1.6106870229007633
3869458575918,10.166695101,2,8.128314636230469,5.777208605957031,0.7254431030273437,-1.7633587786259541,0.24427480916030533,-1.5877862595419847
3869478561803,10.186680986,2,7.982268334960937,5.720944866943359,0.7015010864257812,-1.83206106870229,0.26717557251908397,-1.5725190839694656
3869498521022,10.206640205,2,8.135497241210937,5.759252093505859,0.7122749938964843,-1.748091603053435,0.22900763358778625,-1.6106870229007633
3869518627689,10.226746872,2,8.10796392211914,5.722141967773437,0.7481880187988281,-1.7633587786259541,0.22137404580152673,-1.5725190839694656
3869538578001,10.246697184,2,8.113949426269532,5.767631799316406,0.689530078125,-1.7633587786259541,0.25190839694656486,-1.5877862595419847
3869558564616,10.266683799,2,8.085219006347655,5.76523759765625,0.7433996154785156,-1.7251908396946565,0.22137404580152673,-1.618320610687023
3869578566230,10.286685413,2,8.11514652709961,5.734112976074218,0.7326257080078125,-1.7404580152671756,0.25190839694656486,-1.5801526717557253
3869598568157,10.30668734,2,8.093598712158203,5.724536169433593,0.7386112121582031,-1.7633587786259541,0.21374045801526717,-1.5801526717557253
3869618570501,10.326689684,2,8.099584216308592,5.766434698486328,0.7422025146484375,-1.7633587786259541,0.2595419847328244,-1.6106870229007633
3869638566803,10.346685986,2,8.097190014648437,5.754463690185546,0.7015010864257812,-1.7633587786259541,0.19083969465648856,-1.618320610687023
3869658519980,10.366639163,2,8.104372619628906,5.734112976074218,0.7398083129882812,-1.7557251908396947,0.2366412213740458,-1.5954198473282444
3869678574772,10.386693955,2,8.117540728759765,5.737704278564453,0.7589619262695312,-1.748091603053435,0.21374045801526717,-1.5725190839694656
3869698571647,10.40669083,2,8.095992913818359,5.761646295166015,0.719457598876953,-1.7404580152671756,0.22900763358778625,-1.6259541984732824
3869718572116,10.426691299,2,8.099584216308592,5.755660791015624,0.6751648681640625,-1.7786259541984732,0.1984732824427481,-1.6259541984732824
3869738565709,10.446684892,2,8.12711753540039,5.728127471923828,0.7146691955566405,-1.7709923664122138,0.22900763358778625,-1.6106870229007633
3869758582220,10.466701403,2,8.131905938720703,5.7700260009765625,0.6883329772949218,-1.7786259541984732,0.2595419847328244,-1.5877862595419847
3869778560084,10.486679267,2,8.111555224609374,5.759252093505859,0.7565677246093749,-1.7099236641221374,0.2366412213740458,-1.5877862595419847
3869798570345,10.506689528,2,8.129511737060547,5.756857891845703,0.7625532287597656,-1.7557251908396947,0.2595419847328244,-1.5725190839694656
3869818565240,10.526684423,2,8.10796392211914,5.735310076904296,0.7314286071777343,-1.7557251908396947,0.29770992366412213,-1.5725190839694656
3869838573886,10.546693069,2,8.112752325439452,5.744886883544922,0.7026981872558593,-1.7557251908396947,0.25190839694656486,-1.5725190839694656
3869858563418,10.566682601,2,8.123526232910155,5.753266589355468,0.7110778930664062,-1.786259541984733,0.22137404580152673,-1.5801526717557253
3869878568105,10.586687288,2,8.13310303955078,5.759252093505859,0.6907271789550781,-1.8091603053435115,0.2595419847328244,-1.5725190839694656
3869898574251,10.606693434,2,8.129511737060547,5.734112976074218,0.7242460021972655,-1.786259541984733,0.26717557251908397,-1.5725190839694656
3869918679563,10.626798746,2,8.116343627929687,5.754463690185546,0.7338228088378905,-1.7786259541984732,0.21374045801526717,-1.5801526717557253
3869938592063,10.646711246,2,8.142679846191406,5.735310076904296,0.7601590270996094,-1.7709923664122138,0.21374045801526717,-1.5801526717557253
3869958579511,10.666698694,2,8.117540728759765,5.762843395996094,0.70868369140625,-1.7709923664122138,0.20610687022900764,-1.6030534351145038
3869978519147,10.68663833,2,8.116343627929687,5.741295581054687,0.7493851196289062,-1.7557251908396947,0.2366412213740458,-1.618320610687023
3869998603574,10.706722757,2,8.104372619628906,5.706579656982422,0.7302315063476562,-1.7328244274809161,0.2900763358778626,-1.618320610687023
3870018611751,10.726730934,2,8.119934930419921,5.7317187744140625,0.6943184814453125,-1.7251908396946565,0.2595419847328244,-1.5877862595419847
3870038579042,10.746698225,2,8.110358123779296,5.778405706787109,0.7577648254394531,-1.7251908396946565,0.25190839694656486,-1.6030534351145038
3870058583001,10.766702184,2,8.100781317138672,5.741295581054687,0.7170633972167968,-1.7557251908396947,0.2748091603053435,-1.5572519083969465
3870078584355,10.786703538,2,8.124723333740233,5.736507177734374,0.6931213806152343,-1.7328244274809161,0.2824427480916031,-1.5572519083969465
3870098581386,10.806700569,2,8.129511737060547,5.744886883544922,0.719457598876953,-1.748091603053435,0.25190839694656486,-1.5648854961832062
3870118583105,10.826702288,2,8.118737829589843,5.754463690185546,0.719457598876953,-1.7404580152671756,0.22900763358778625,-1.5572519083969465
3870138580709,10.846699892,2,8.105569720458984,5.742492681884765,0.7038952880859375,-1.7633587786259541,0.24427480916030533,-1.5572519083969465
3870158585084,10.866704267,2,8.110358123779296,5.747281085205078,0.7445967163085937,-1.7633587786259541,0.22137404580152673,-1.5877862595419847
3870178578470,10.886697653,2,8.097190014648437,5.759252093505859,0.7410054138183594,-1.7709923664122138,0.2366412213740458,-1.5648854961832062
3870198579876,10.906699059,2,8.105569720458984,5.747281085205078,0.7050923889160156,-1.7786259541984732,0.2366412213740458,-1.618320610687023
3870218583886,10.926703069,2,8.118737829589843,5.753266589355468,0.6943184814453125,-1.7404580152671756,0.25190839694656486,-1.6412213740458015
3870238604094,10.946723277,2,8.095992913818359,5.748478186035156,0.7206546997070312,-1.7404580152671756,0.21374045801526717,-1.6412213740458015
3870258582844,10.966702027,2,8.105569720458984,5.759252093505859,0.7062894897460937,-1.7328244274809161,0.19083969465648856,-1.6259541984732824
3870278584667,10.98670385,2,8.105569720458984,5.741295581054687,0.718260498046875,-1.7557251908396947,0.2748091603053435,-1.6412213740458015
3870298578261,11.006697444,2,8.106766821289062,5.759252093505859,0.7422025146484375,-1.8015267175572518,0.22900763358778625,-1.6106870229007633
3870318585553,11.026704736,2,8.095992913818359,5.737704278564453,0.7553706237792969,-1.7709923664122138,0.25190839694656486,-1.6106870229007633
3870338587636,11.046706819,2,8.117540728759765,5.76523759765625,0.7350199096679687,-1.7709923664122138,0.26717557251908397,-1.5801526717557253
3870358579303,11.066698486,2,8.113949426269532,5.7520694885253905,0.7218518005371093,-1.7633587786259541,0.26717557251908397,-1.5954198473282444
3870378578469,11.086697652,2,8.095992913818359,5.778405706787109,0.7146691955566405,-1.7633587786259541,0.25190839694656486,-1.618320610687023
3870398584355,11.106703538,2,8.106766821289062,5.760449194335937,0.7206546997070312,-1.7557251908396947,0.2824427480916031,-1.549618320610687
3870418583782,11.126702965,2,8.109161022949218,5.760449194335937,0.7721300354003906,-1.7099236641221374,0.2366412213740458,-1.5801526717557253
3870438576021,11.146695204,2,8.099584216308592,5.754463690185546,0.737414111328125,-1.7709923664122138,0.16793893129770993,-1.5877862595419847
3870458585240,11.166704423,2,8.134300140380859,5.754463690185546,0.7134720947265625,-1.7251908396946565,0.22137404580152673,-1.5572519083969465
3870478581959,11.186701142,2,8.119934930419921,5.72693037109375,0.7062894897460937,-1.7709923664122138,0.21374045801526717,-1.5954198473282444
3870498584980,11.206704163,2,8.134300140380859,5.768828900146484,0.729034405517578,-1.7938931297709924,0.15267175572519084,-1.6106870229007633
3870518579563,11.226698746,2,8.117540728759765,5.772420202636718,0.709880792236328,-1.717557251908397,0.2366412213740458,-1.5954198473282444
3870538690657,11.24680984,2,8.112752325439452,5.7520694885253905,0.7314286071777343,-1.7557251908396947,0.20610687022900764,-1.5572519083969465
3870558596803,11.266715986,2,8.109161022949218,5.746083984375,0.7577648254394531,-1.786259541984733,0.2366412213740458,-1.5877862595419847
3870578594928,11.286714111,2,8.079233502197265,5.764040496826172,0.7314286071777343,-1.717557251908397,0.25190839694656486,-1.5725190839694656
3870598571230,11.306690413,2,8.095992913818359,5.738901379394531,0.7338228088378905,-1.786259541984733,0.19083969465648856,-1.5877862595419847
3870618579251,11.326698434,2,8.123526232910155,5.747281085205078,0.7445967163085937,-1.7404580152671756,0.25190839694656486,-1.5954198473282444
3870638736803,11.346855986,2,8.128314636230469,5.743689782714843,0.7673416320800781,-1.7404580152671756,0.25190839694656486,-1.5954198473282444
3870658584459,11.366703642,2,8.117540728759765,5.779602807617187,0.7302315063476562,-1.7786259541984732,0.22137404580152673,-1.5954198473282444
3870678578469,11.386697652,2,8.134300140380859,5.741295581054687,0.7541735229492187,-1.748091603053435,0.22137404580152673,-1.5877862595419847
3870698638521,11.406757704,2,8.103175518798828,5.735310076904296,0.7015010864257812,-1.7709923664122138,0.2366412213740458,-1.6030534351145038
3870718588782,11.426707965,2,8.09479581298828,5.743689782714843,0.7003039855957031,-1.7557251908396947,0.24427480916030533,-1.6030534351145038
3870738573782,11.446692965,2,8.122329132080077,5.738901379394531,0.7015010864257812,-1.7404580152671756,0.20610687022900764,-1.5877862595419847
3870758566803,11.466685986,2,8.111555224609374,5.764040496826172,0.7709329345703124,-1.816793893129771,0.2748091603053435,-1.633587786259542
3870778527480,11.486646663,2,8.112752325439452,5.758054992675781,0.7038952880859375,-1.786259541984733,0.20610687022900764,-1.549618320610687
3870798576438,11.506695621,2,8.157045056152343,5.7149593627929685,0.7230489013671875,-1.7938931297709924,0.2595419847328244,-1.5801526717557253
3870818566021,11.526685204,2,8.099584216308592,5.72693037109375,0.6931213806152343,-1.7251908396946565,0.24427480916030533,-1.5877862595419847
3870838576959,11.546696142,2,8.130708837890625,5.748478186035156,0.699106884765625,-1.7251908396946565,0.22137404580152673,-1.549618320610687
3870858561907,11.56668109,2,8.106766821289062,5.734112976074218,0.7338228088378905,-1.7328244274809161,0.26717557251908397,-1.5801526717557253
3870878584407,11.58670359,2,8.128314636230469,5.762843395996094,0.7170633972167968,-1.7709923664122138,0.17557251908396945,-1.6259541984732824
3870898557375,11.606676558,2,8.123526232910155,5.729324572753906,0.679953271484375,-1.7709923664122138,0.19083969465648856,-1.5725190839694656
3870918561646,11.626680829,2,8.145074047851562,5.76523759765625,0.7170633972167968,-1.7557251908396947,0.22900763358778625,-1.6106870229007633
3870938616803,11.646735986,2,8.143876947021484,5.759252093505859,0.719457598876953,-1.786259541984733,0.1984732824427481,-1.6030534351145038
3870958571907,11.66669109,2,8.119934930419921,5.749675286865234,0.7158662963867187,-1.7328244274809161,0.2595419847328244,-1.5648854961832062
3870978959980,11.687079163,2,8.123526232910155,5.761646295166015,0.7410054138183594,-1.7709923664122138,0.25190839694656486,-1.5725190839694656
3870998596073,11.706715256,2,8.136694342041014,5.779602807617187,0.7038952880859375,-1.7709923664122138,0.16793893129770993,-1.5877862595419847
3871018604563,11.726723746,2,8.111555224609374,5.744886883544922,0.7386112121582031,-1.7709923664122138,0.21374045801526717,-1.633587786259542
3871038649042,11.746768225,2,8.116343627929687,5.737704278564453,0.7457938171386719,-1.8244274809160306,0.22900763358778625,-1.6106870229007633
3871058581177,11.76670036,2,8.12711753540039,5.755660791015624,0.7110778930664062,-1.7786259541984732,0.22900763358778625,-1.5801526717557253
3871078576230,11.786695413,2,8.139088543701172,5.742492681884765,0.7541735229492187,-1.748091603053435,0.2900763358778626,-1.618320610687023
3871098583313,11.806702496,2,8.084021905517577,5.749675286865234,0.7457938171386719,-1.7328244274809161,0.2748091603053435,-1.5954198473282444
3871118577011,11.826696194,2,8.123526232910155,5.768828900146484,0.7206546997070312,-1.7633587786259541,0.22137404580152673,-1.5801526717557253
3871138628938,11.846748121,2,8.109161022949218,5.753266589355468,0.6811503723144531,-1.816793893129771,0.183206106870229,-1.6030534351145038
3871158582740,11.866701923,2,8.109161022949218,5.759252093505859,0.7386112121582031,-1.7557251908396947,0.26717557251908397,-1.5725190839694656
3871178578886,11.886698069,2,8.111555224609374,5.772420202636718,0.7170633972167968,-1.7786259541984732,0.22137404580152673,-1.5877862595419847
3871198608990,11.906728173,2,8.105569720458984,5.736507177734374,0.7422025146484375,-1.7786259541984732,0.22900763358778625,-1.5725190839694656
3871218631230,11.926750413,2,8.117540728759765,5.766434698486328,0.7110778930664062,-1.7633587786259541,0.22900763358778625,-1.5801526717557253
3871238628052,11.946747235,2,8.106766821289062,5.760449194335937,0.7158662963867187,-1.7633587786259541,0.2595419847328244,-1.5954198473282444
3871258545292,11.966664475,2,8.122329132080077,5.778405706787109,0.7517793212890624,-1.786259541984733,0.24427480916030533,-1.5648854961832062
3871278593469,11.986712652,2,8.095992913818359,5.787982513427734,0.6955155822753906,-1.7404580152671756,0.25190839694656486,-1.5801526717557253
3871298593261,12.006712444,2,8.11514652709961,5.738901379394531,0.7637503295898437,-1.7328244274809161,0.24427480916030533,-1.5801526717557253
3871318582323,12.026701506,2,8.103175518798828,5.758054992675781,0.6907271789550781,-1.7557251908396947,0.2824427480916031,-1.618320610687023
3871338581907,12.04670109,2,8.122329132080077,5.720944866943359,0.7386112121582031,-1.748091603053435,0.2595419847328244,-1.6030534351145038
3871358580396,12.066699579,2,8.124723333740233,5.7137622619628905,0.7254431030273437,-1.7099236641221374,0.24427480916030533,-1.6106870229007633
3871378580969,12.086700152,2,8.139088543701172,5.7508723876953125,0.6943184814453125,-1.7557251908396947,0.25190839694656486,-1.5648854961832062
3871398576125,12.106695308,2,8.098387115478515,5.741295581054687,0.7445967163085937,-1.786259541984733,0.2824427480916031,-1.6030534351145038
3871418582636,12.126701819,2,8.124723333740233,5.762843395996094,0.6931213806152343,-1.7938931297709924,0.24427480916030533,-1.633587786259542
3871438601177,12.14672036,2,8.104372619628906,5.738901379394531,0.7517793212890624,-1.7557251908396947,0.25190839694656486,-1.618320610687023
3871458575813,12.166694996,2,8.10197841796875,5.743689782714843,0.70868369140625,-1.7404580152671756,0.22137404580152673,-1.618320610687023
3871478582115,12.186701298,2,8.112752325439452,5.759252093505859,0.7781155395507812,-1.748091603053435,0.22137404580152673,-1.5877862595419847
3871498587115,12.206706298,2,8.130708837890625,5.766434698486328,0.7422025146484375,-1.7099236641221374,0.2366412213740458,-1.5725190839694656
3871518628677,12.22674786,2,8.118737829589843,5.764040496826172,0.7350199096679687,-1.7709923664122138,0.25190839694656486,-1.6106870229007633
3871538585709,12.246704892,2,8.111555224609374,5.724536169433593,0.7481880187988281,-1.816793893129771,0.2748091603053435,-1.5877862595419847
3871558578313,12.266697496,2,8.092401611328125,5.7508723876953125,0.7362170104980469,-1.7709923664122138,0.24427480916030533,-1.6106870229007633
3871578531125,12.286650308,2,8.095992913818359,5.761646295166015,0.718260498046875,-1.7099236641221374,0.22137404580152673,-1.5648854961832062
3871598595604,12.306714787,2,8.109161022949218,5.7700260009765625,0.7218518005371093,-1.7938931297709924,0.24427480916030533,-1.5954198473282444
3871618577896,12.326697079,2,8.117540728759765,5.758054992675781,0.7326257080078125,-1.786259541984733,0.2366412213740458,-1.6106870229007633
3871638577636,12.346696819,2,8.09479581298828,5.740098480224609,0.7206546997070312,-1.786259541984733,0.20610687022900764,-1.6106870229007633
3871658758886,12.366878069,2,8.118737829589843,5.762843395996094,0.7003039855957031,-1.786259541984733,0.22137404580152673,-1.5648854961832062
3871678541906,12.386661089,2,8.097190014648437,5.740098480224609,0.70868369140625,-1.7709923664122138,0.22137404580152673,-1.5419847328244274
3871698589667,12.40670885,2,8.10197841796875,5.7520694885253905,0.699106884765625,-1.7404580152671756,0.20610687022900764,-1.5954198473282444
3871718596750,12.426715933,2,8.113949426269532,5.742492681884765,0.7553706237792969,-1.7633587786259541,0.25190839694656486,-1.5954198473282444
3871738594354,12.446713537,2,8.097190014648437,5.744886883544922,0.718260498046875,-1.7633587786259541,0.22900763358778625,-1.5648854961832062
3871758593469,12.466712652,2,8.129511737060547,5.7508723876953125,0.7242460021972655,-1.7786259541984732,0.24427480916030533,-1.5954198473282444
3871778584198,12.486703381,2,8.119934930419921,5.736507177734374,0.7362170104980469,-1.7328244274809161,0.21374045801526717,-1.618320610687023
3871798584823,12.506704006,2,8.11514652709961,5.7520694885253905,0.7026981872558593,-1.7557251908396947,0.26717557251908397,-1.6106870229007633
3871818584979,12.526704162,2,8.100781317138672,5.761646295166015,0.718260498046875,-1.717557251908397,0.29770992366412213,-1.5877862595419847
3871838590396,12.546709579,2,8.113949426269532,5.796362219238281,0.7338228088378905,-1.7786259541984732,0.29770992366412213,-1.5877862595419847
3871858600604,12.566719787,2,8.12113203125,5.755660791015624,0.6871358764648438,-1.7938931297709924,0.2900763358778626,-1.5725190839694656
3871878584667,12.58670385,2,8.09479581298828,5.760449194335937,0.7062894897460937,-1.7938931297709924,0.22900763358778625,-1.5572519083969465
3871898587636,12.606706819,2,8.141482745361328,5.7700260009765625,0.7254431030273437,-1.7633587786259541,0.2366412213740458,-1.5648854961832062
3871918589927,12.62670911,2,8.125920434570313,5.749675286865234,0.7122749938964843,-1.7938931297709924,0.22900763358778625,-1.6030534351145038
3871938589719,12.646708902,2,8.111555224609374,5.749675286865234,0.7003039855957031,-1.8244274809160306,0.2824427480916031,-1.5572519083969465
3871958589667,12.66670885,2,8.136694342041014,5.755660791015624,0.7038952880859375,-1.7938931297709924,0.26717557251908397,-1.6030534351145038
3871978582948,12.686702131,2,8.105569720458984,5.756857891845703,0.719457598876953,-1.7404580152671756,0.21374045801526717,-1.6106870229007633
3871998612740,12.706731923,2,8.128314636230469,5.77122310180664,0.7553706237792969,-1.7404580152671756,0.24427480916030533,-1.5954198473282444
3872018571125,12.726690308,2,8.099584216308592,5.755660791015624,0.7170633972167968,-1.7251908396946565,0.2366412213740458,-1.5877862595419847
3872038571281,12.746690464,2,8.131905938720703,5.77122310180664,0.7134720947265625,-1.7557251908396947,0.22900763358778625,-1.5877862595419847
3872058515448,12.766634631,2,8.119934930419921,5.774814404296874,0.7074865905761718,-1.7404580152671756,0.26717557251908397,-1.6106870229007633
3872078583885,12.786703068,2,8.124723333740233,5.7508723876953125,0.7505822204589844,-1.7328244274809161,0.25190839694656486,-1.618320610687023
3872098573573,12.806692756,2,8.10197841796875,5.740098480224609,0.7362170104980469,-1.7099236641221374,0.2595419847328244,-1.5267175572519085
3872118568990,12.826688173,2,8.131905938720703,5.743689782714843,0.7242460021972655,-1.7786259541984732,0.24427480916030533,-1.5954198473282444
3872138572115,12.846691298,2,8.13310303955078,5.754463690185546,0.7003039855957031,-1.7709923664122138,0.22900763358778625,-1.6488549618320612
3872158583469,12.866702652,2,8.113949426269532,5.746083984375,0.709880792236328,-1.7938931297709924,0.22900763358778625,-1.5648854961832062
3872178577010,12.886696193,2,8.105569720458984,5.776011505126953,0.74699091796875,-1.717557251908397,0.24427480916030533,-1.5648854961832062
3872198568729,12.906687912,2,8.149862451171874,5.7700260009765625,0.74699091796875,-1.748091603053435,0.2748091603053435,-1.618320610687023
3872218563260,12.926682443,2,8.113949426269532,5.756857891845703,0.6919242797851562,-1.7557251908396947,0.25190839694656486,-1.5954198473282444
3872238578052,12.946697235,2,8.104372619628906,5.7520694885253905,0.718260498046875,-1.7709923664122138,0.22137404580152673,-1.6030534351145038
3872258575760,12.966694943,2,8.097190014648437,5.749675286865234,0.7433996154785156,-1.7633587786259541,0.24427480916030533,-1.549618320610687
3872278568833,12.986688016,2,8.11514652709961,5.755660791015624,0.7266402038574218,-1.748091603053435,0.2900763358778626,-1.6106870229007633
3872298587167,13.00670635,2,8.12113203125,5.742492681884765,0.7541735229492187,-1.7633587786259541,0.2824427480916031,-1.618320610687023
3872318579927,13.02669911,2,8.143876947021484,5.728127471923828,0.7230489013671875,-1.7786259541984732,0.22137404580152673,-1.534351145038168
3872338570708,13.046689891,2,8.090007409667969,5.749675286865234,0.718260498046875,-1.7633587786259541,0.1984732824427481,-1.5877862595419847
3872358580031,13.066699214,2,8.118737829589843,5.768828900146484,0.7122749938964843,-1.786259541984733,0.16793893129770993,-1.5801526717557253
3872378573677,13.08669286,2,8.109161022949218,5.734112976074218,0.6967126831054687,-1.7557251908396947,0.2366412213740458,-1.6106870229007633
3872398581333,13.106700516,2,8.105569720458984,5.761646295166015,0.7362170104980469,-1.7557251908396947,0.20610687022900764,-1.5877862595419847
3872418570656,13.126689839,2,8.112752325439452,5.728127471923828,0.7457938171386719,-1.7328244274809161,0.2595419847328244,-1.5648854961832062
3872438572323,13.146691506,2,8.12711753540039,5.7317187744140625,0.6763619689941406,-1.7786259541984732,0.2366412213740458,-1.618320610687023
3872458586542,13.166705725,2,8.122329132080077,5.758054992675781,0.718260498046875,-1.7633587786259541,0.22137404580152673,-1.6106870229007633
3872478595604,13.186714787,2,8.111555224609374,5.736507177734374,0.6871358764648438,-1.717557251908397,0.24427480916030533,-1.5954198473282444
3872498572010,13.206691193,2,8.125920434570313,5.760449194335937,0.7709329345703124,-1.7251908396946565,0.2900763358778626,-1.5725190839694656
3872518570500,13.226689683,2,8.142679846191406,5.741295581054687,0.7433996154785156,-1.7404580152671756,0.2748091603053435,-1.5954198473282444
3872538582687,13.24670187,2,8.117540728759765,5.740098480224609,0.6967126831054687,-1.7633587786259541,0.20610687022900764,-1.6030534351145038
3872558586958,13.266706141,2,8.079233502197265,5.725733270263672,0.709880792236328,-1.7557251908396947,0.2595419847328244,-1.6030534351145038
3872578577062,13.286696245,2,8.113949426269532,5.761646295166015,0.7338228088378905,-1.7404580152671756,0.2595419847328244,-1.6030534351145038
3872598587219,13.306706402,2,8.111555224609374,5.7520694885253905,0.7206546997070312,-1.6946564885496183,0.26717557251908397,-1.6106870229007633
3872618588000,13.326707183,2,8.081627703857421,5.761646295166015,0.7218518005371093,-1.7404580152671756,0.20610687022900764,-1.5648854961832062
3872638627010,13.346746193,2,8.12113203125,5.767631799316406,0.7254431030273437,-1.7251908396946565,0.25190839694656486,-1.5877862595419847
3872658583885,13.366703068,2,8.098387115478515,5.753266589355468,0.7613561279296874,-1.7709923664122138,0.25190839694656486,-1.549618320610687
3872678569927,13.38668911,2,8.117540728759765,5.754463690185546,0.7577648254394531,-1.7404580152671756,0.2366412213740458,-1.5648854961832062
3872698568677,13.40668786,2,8.104372619628906,5.737704278564453,0.7350199096679687,-1.7404580152671756,0.25190839694656486,-1.5801526717557253
3872718576333,13.426695516,2,8.117540728759765,5.725733270263672,0.7410054138183594,-1.7251908396946565,0.26717557251908397,-1.5419847328244274
3872738576541,13.446695724,2,8.12711753540039,5.749675286865234,0.7398083129882812,-1.7938931297709924,0.2595419847328244,-1.6259541984732824
3872758622271,13.466741454,2,8.106766821289062,5.7508723876953125,0.7170633972167968,-1.7786259541984732,0.25190839694656486,-1.6259541984732824
3872778572166,13.486691349,2,8.105569720458984,5.7508723876953125,0.719457598876953,-1.7786259541984732,0.2748091603053435,-1.5801526717557253
3872798586125,13.506705308,2,8.10796392211914,5.744886883544922,0.7553706237792969,-1.7786259541984732,0.2595419847328244,-1.5572519083969465
3872818565864,13.526685047,2,8.111555224609374,5.749675286865234,0.7254431030273437,-1.7557251908396947,0.24427480916030533,-1.6106870229007633
3872838581750,13.546700933,2,8.134300140380859,5.7508723876953125,0.7661445312499999,-1.7633587786259541,0.22900763358778625,-1.5725190839694656
3872858612375,13.566731558,2,8.12113203125,5.740098480224609,0.7386112121582031,-1.7786259541984732,0.2595419847328244,-1.5954198473282444
3872878571854,13.586691037,2,8.10197841796875,5.759252093505859,0.7050923889160156,-1.786259541984733,0.21374045801526717,-1.6030534351145038
3872898567010,13.606686193,2,8.109161022949218,5.756857891845703,0.7314286071777343,-1.7404580152671756,0.24427480916030533,-1.5801526717557253
3872918517531,13.626636714,2,8.110358123779296,5.764040496826172,0.7146691955566405,-1.7557251908396947,0.22900763358778625,-1.5648854961832062
3872938573260,13.646692443,2,8.154650854492187,5.747281085205078,0.7015010864257812,-1.7557251908396947,0.25190839694656486,-1.6106870229007633
3872958576385,13.666695568,2,8.130708837890625,5.7520694885253905,0.6967126831054687,-1.7709923664122138,0.22900763358778625,-1.549618320610687
3872978562010,13.686681193,2,8.098387115478515,5.76523759765625,0.7218518005371093,-1.7404580152671756,0.26717557251908397,-1.6106870229007633
3872998569146,13.706688329,2,8.118737829589843,5.755660791015624,0.7541735229492187,-1.7633587786259541,0.25190839694656486,-1.618320610687023
3873018570864,13.726690047,2,8.116343627929687,5.744886883544922,0.6739677673339843,-1.7557251908396947,0.1984732824427481,-1.5954198473282444
3873038575552,13.746694735,2,8.125920434570313,5.7508723876953125,0.6907271789550781,-1.7709923664122138,0.22137404580152673,-1.618320610687023
3873058576177,13.76669536,2,8.105569720458984,5.718550665283203,0.6715735656738281,-1.7938931297709924,0.22900763358778625,-1.5725190839694656
3873078561333,13.786680516,2,8.110358123779296,5.760449194335937,0.7601590270996094,-1.786259541984733,0.2748091603053435,-1.5725190839694656
3873098577218,13.806696401,2,8.118737829589843,5.755660791015624,0.7386112121582031,-1.7633587786259541,0.26717557251908397,-1.6412213740458015
3873118578156,13.826697339,2,8.106766821289062,5.747281085205078,0.6955155822753906,-1.7404580152671756,0.21374045801526717,-1.5801526717557253
3873138564510,13.846683693,2,8.110358123779296,5.758054992675781,0.6775590698242188,-1.7709923664122138,0.19083969465648856,-1.5877862595419847
3873158572687,13.86669187,2,8.110358123779296,5.753266589355468,0.7278373046875,-1.7557251908396947,0.20610687022900764,-1.5725190839694656
3873178567791,13.886686974,2,8.10796392211914,5.746083984375,0.6955155822753906,-1.816793893129771,0.25190839694656486,-1.5648854961832062
3873198571073,13.906690256,2,8.105569720458984,5.779602807617187,0.7386112121582031,-1.748091603053435,0.2748091603053435,-1.6488549618320612
3873218565968,13.926685151,2,8.112752325439452,5.760449194335937,0.7038952880859375,-1.7786259541984732,0.1984732824427481,-1.6412213740458015
3873238567843,13.946687026,2,8.097190014648437,5.734112976074218,0.7386112121582031,-1.748091603053435,0.2595419847328244,-1.6106870229007633
3873258572166,13.966691349,2,8.11514652709961,5.7520694885253905,0.6955155822753906,-1.7709923664122138,0.25190839694656486,-1.6030534351145038
3873278574822,13.986694005,2,8.10796392211914,5.741295581054687,0.6943184814453125,-1.786259541984733,0.20610687022900764,-1.618320610687023
3873298566020,14.006685203,2,8.097190014648437,5.741295581054687,0.7338228088378905,-1.786259541984733,0.2366412213740458,-1.5648854961832062
3873318579197,14.02669838,2,8.135497241210937,5.747281085205078,0.7757213378906249,-1.7557251908396947,0.21374045801526717,-1.5648854961832062
3873338521437,14.04664062,2,8.110358123779296,5.749675286865234,0.70868369140625,-1.8015267175572518,0.2366412213740458,-1.5954198473282444
3873358582843,14.066702026,2,8.12113203125,5.743689782714843,0.7912836486816406,-1.7404580152671756,0.24427480916030533,-1.633587786259542
3873378566020,14.086685203,2,8.092401611328125,5.754463690185546,0.7170633972167968,-1.7251908396946565,0.2748091603053435,-1.5648854961832062
3873398564145,14.106683328,2,8.119934930419921,5.7317187744140625,0.7206546997070312,-1.786259541984733,0.20610687022900764,-1.6030534351145038
3873418566958,14.126686141,2,8.104372619628906,5.743689782714843,0.7433996154785156,-1.786259541984733,0.2595419847328244,-1.5954198473282444
3873438602375,14.146721558,2,8.106766821289062,5.756857891845703,0.7206546997070312,-1.7557251908396947,0.2366412213740458,-1.633587786259542
3873458574354,14.166693537,2,8.123526232910155,5.760449194335937,0.7158662963867187,-1.786259541984733,0.21374045801526717,-1.5877862595419847
3873478562895,14.186682078,2,8.104372619628906,5.756857891845703,0.7050923889160156,-1.7633587786259541,0.2595419847328244,-1.6030534351145038
3873498571958,14.206691141,2,8.130708837890625,5.754463690185546,0.7110778930664062,-1.7099236641221374,0.2366412213740458,-1.5801526717557253
3873518569145,14.226688328,2,8.109161022949218,5.737704278564453,0.7062894897460937,-1.7099236641221374,0.21374045801526717,-1.5572519083969465
3873538623833,14.246743016,2,8.092401611328125,5.761646295166015,0.7266402038574218,-1.7709923664122138,0.2595419847328244,-1.5725190839694656
3873558578104,14.266697287,2,8.113949426269532,5.741295581054687,0.6763619689941406,-1.7786259541984732,0.1984732824427481,-1.5954198473282444
3873578562427,14.28668161,2,8.09479581298828,5.738901379394531,0.7529764221191406,-1.7633587786259541,0.25190839694656486,-1.618320610687023
3873598582010,14.306701193,2,8.118737829589843,5.756857891845703,0.7266402038574218,-1.7709923664122138,0.2366412213740458,-1.618320610687023
3873618561229,14.326680412,2,8.124723333740233,5.779602807617187,0.7721300354003906,-1.748091603053435,0.183206106870229,-1.6488549618320612
3873638571645,14.346690828,2,8.128314636230469,5.747281085205078,0.7757213378906249,-1.816793893129771,0.2366412213740458,-1.633587786259542
3873658618520,14.366737703,2,8.139088543701172,5.7508723876953125,0.7266402038574218,-1.7633587786259541,0.22900763358778625,-1.6259541984732824
3873678578885,14.386698068,2,8.118737829589843,5.722141967773437,0.7565677246093749,-1.7633587786259541,0.2366412213740458,-1.618320610687023
3873698568156,14.406687339,2,8.103175518798828,5.734112976074218,0.7206546997070312,-1.7633587786259541,0.2366412213740458,-1.5725190839694656
3873718563676,14.426682859,2,8.10796392211914,5.72693037109375,0.7062894897460937,-1.702290076335878,0.2595419847328244,-1.5954198473282444
3873738567426,14.446686609,2,8.097190014648437,5.730521673583984,0.7326257080078125,-1.7557251908396947,0.20610687022900764,-1.6030534351145038
3873758635551,14.466754734,2,8.117540728759765,5.785588311767578,0.709880792236328,-1.748091603053435,0.22137404580152673,-1.6106870229007633
3873778564614,14.486683797,2,8.14028564453125,5.748478186035156,0.7206546997070312,-1.7938931297709924,0.2595419847328244,-1.6030534351145038
3873798567010,14.506686193,2,8.118737829589843,5.7508723876953125,0.7445967163085937,-1.7557251908396947,0.26717557251908397,-1.5877862595419847
3873818567843,14.526687026,2,8.093598712158203,5.716156463623046,0.7326257080078125,-1.7404580152671756,0.29770992366412213,-1.6030534351145038
3873838577843,14.546697026,2,8.123526232910155,5.7329158752441405,0.7649474304199219,-1.7709923664122138,0.24427480916030533,-1.6030534351145038
3873858615187,14.56673437,2,8.14627114868164,5.77122310180664,0.7577648254394531,-1.7251908396946565,0.2366412213740458,-1.6030534351145038
3873878561437,14.58668062,2,8.137891442871092,5.773617303466796,0.7038952880859375,-1.786259541984733,0.19083969465648856,-1.6030534351145038
3873898566593,14.606685776,2,8.124723333740233,5.755660791015624,0.6943184814453125,-1.748091603053435,0.2824427480916031,-1.549618320610687
3873918572531,14.626691714,2,8.091204510498047,5.748478186035156,0.699106884765625,-1.7709923664122138,0.2595419847328244,-1.5954198473282444
3873938566801,14.646685984,2,8.131905938720703,5.7700260009765625,0.7410054138183594,-1.7328244274809161,0.2366412213740458,-1.5801526717557253
3873958616281,14.666735464,2,8.116343627929687,5.7520694885253905,0.7003039855957031,-1.7633587786259541,0.26717557251908397,-1.5877862595419847
3873978572687,14.68669187,2,8.110358123779296,5.735310076904296,0.718260498046875,-1.7328244274809161,0.21374045801526717,-1.6106870229007633
3873998576437,14.70669562,2,8.081627703857421,5.772420202636718,0.7661445312499999,-1.7251908396946565,0.26717557251908397,-1.549618320610687
3874018790916,14.726910099,2,8.11514652709961,5.749675286865234,0.7505822204589844,-1.7328244274809161,0.2595419847328244,-1.5648854961832062
3874038592791,14.746711974,2,8.112752325439452,5.747281085205078,0.6955155822753906,-1.717557251908397,0.21374045801526717,-1.6259541984732824
3874058571853,14.766691036,2,8.106766821289062,5.742492681884765,0.7230489013671875,-1.7633587786259541,0.2748091603053435,-1.5877862595419847
3874078571124,14.786690307,2,8.105569720458984,5.747281085205078,0.70868369140625,-1.7709923664122138,0.2824427480916031,-1.6412213740458015
3874098569249,14.806688432,2,8.122329132080077,5.760449194335937,0.729034405517578,-1.7099236641221374,0.19083969465648856,-1.5877862595419847
3874118569510,14.826688693,2,8.12113203125,5.737704278564453,0.7745242370605468,-1.717557251908397,0.2595419847328244,-1.5877862595419847
3874138565187,14.84668437,2,8.100781317138672,5.7329158752441405,0.709880792236328,-1.748091603053435,0.21374045801526717,-1.5801526717557253
3874158527062,14.866646245,2,8.113949426269532,5.746083984375,0.7445967163085937,-1.7633587786259541,0.1984732824427481,-1.5725190839694656
3874178571072,14.886690255,2,8.119934930419921,5.746083984375,0.7733271362304687,-1.7557251908396947,0.2595419847328244,-1.6106870229007633
3874198569145,14.906688328,2,8.143876947021484,5.76523759765625,0.7074865905761718,-1.748091603053435,0.29770992366412213,-1.5725190839694656
3874218567426,14.926686609,2,8.08881030883789,5.743689782714843,0.7589619262695312,-1.7786259541984732,0.2824427480916031,-1.6106870229007633
3874238574926,14.946694109,2,8.12711753540039,5.761646295166015,0.7625532287597656,-1.748091603053435,0.22900763358778625,-1.6106870229007633
3874258572739,14.966691922,2,8.103175518798828,5.748478186035156,0.718260498046875,-1.7328244274809161,0.22137404580152673,-1.618320610687023
3874278566124,14.986685307,2,8.10796392211914,5.744886883544922,0.7158662963867187,-1.7404580152671756,0.2366412213740458,-1.633587786259542
3874298574770,15.006693953,2,8.099584216308592,5.740098480224609,0.7230489013671875,-1.7709923664122138,0.2595419847328244,-1.5648854961832062
3874318566593,15.026685776,2,8.137891442871092,5.7700260009765625,0.7398083129882812,-1.786259541984733,0.33587786259541985,-1.633587786259542
3874338570864,15.046690047,2,8.093598712158203,5.766434698486328,0.7386112121582031,-1.7557251908396947,0.26717557251908397,-1.618320610687023
3874358567843,15.066687026,2,8.110358123779296,5.758054992675781,0.6967126831054687,-1.7251908396946565,0.21374045801526717,-1.618320610687023
3874378574301,15.086693484,2,8.118737829589843,5.740098480224609,0.74699091796875,-1.7251908396946565,0.24427480916030533,-1.6030534351145038
3874398566489,15.106685672,2,8.100781317138672,5.7520694885253905,0.7362170104980469,-1.7709923664122138,0.2595419847328244,-1.5801526717557253
3874418569770,15.126688953,2,8.097190014648437,5.768828900146484,0.7661445312499999,-1.7938931297709924,0.2748091603053435,-1.6106870229007633
3874438569197,15.14668838,2,8.118737829589843,5.746083984375,0.7350199096679687,-1.748091603053435,0.31297709923664124,-1.6106870229007633
3874458569353,15.166688536,2,8.0828248046875,5.747281085205078,0.7170633972167968,-1.748091603053435,0.25190839694656486,-1.6259541984732824
