timestamp_ns,t_s,sensor_id,ax,ay,az,gx,gy,gz
3859480199203,0.188318386,3,-0.1927332336425781,-0.5482721801757812,-8.974664923095702,-7.122137404580153,-0.5801526717557252,-5.076335877862595
3859499857692,0.207976875,3,-0.1927332336425781,-0.5410895751953124,-8.955511309814453,-4.404580152671755,-0.2824427480916031,-3.1297709923664123
3859519810505,0.227929688,3,-0.21428104858398436,-0.5506663818359374,-8.951920007324219,-4.442748091603053,-0.3053435114503817,-3.122137404580153
3859539774359,0.247893542,3,-0.17118541870117188,-0.5279214660644531,-8.986635931396483,-4.396946564885496,-0.29770992366412213,-3.1603053435114505
3859559762536,0.267881719,3,-0.21068974609375,-0.5327098693847656,-8.95670841064453,-4.427480916030534,-0.32061068702290074,-3.1374045801526718
3859579762484,0.287881667,3,-0.18914193115234373,-0.5087678527832031,-8.96987651977539,-4.450381679389313,-0.3053435114503817,-3.1297709923664123
3859599754619,0.307873802,3,-0.21068974609375,-0.5303156677246094,-8.908824377441405,-4.435114503816794,-0.26717557251908397,-3.1755725190839694
3859619757484,0.327876667,3,-0.21308394775390624,-0.5662286926269531,-8.986635931396483,-4.435114503816794,-0.3053435114503817,-3.183206106870229
3859639716234,0.347835417,3,-0.2154781494140625,-0.5434837768554687,-8.961496813964843,-4.3893129770992365,-0.2748091603053435,-3.16793893129771
3859659784619,0.367903802,3,-0.20949264526367187,-0.5434837768554687,-8.943540301513671,-4.3893129770992365,-0.2824427480916031,-3.2213740458015265
3859679725974,0.387845157,3,-0.22744915771484372,-0.5363011718749999,-8.97705912475586,-4.427480916030534,-0.26717557251908397,-3.16793893129771
3859699713161,0.407832344,3,-0.18555062866210936,-0.5626373901367188,-8.936357696533202,-4.435114503816794,-0.29770992366412213,-3.1755725190839694
3859719744880,0.427864063,3,-0.21068974609375,-0.5339069702148437,-8.955511309814453,-4.419847328244275,-0.2900763358778626,-3.145038167938931
3859739757276,0.447876459,3,-0.19632453613281248,-0.5422866760253906,-8.981847528076171,-4.427480916030534,-0.33587786259541985,-3.099236641221374
3859759746338,0.467865521,3,-0.18555062866210936,-0.5434837768554687,-8.972270721435546,-4.450381679389313,-0.29770992366412213,-3.16793893129771
3859779777953,0.487897136,3,-0.2166752502441406,-0.5494692810058593,-8.967482318115234,-4.419847328244275,-0.29770992366412213,-3.183206106870229
3859799751911,0.507871094,3,-0.23343466186523437,-0.5267243652343749,-8.947131604003905,-4.412213740458015,-0.2900763358778626,-3.1297709923664123
3859819751494,0.527870677,3,-0.1975216369628906,-0.5207388610839844,-8.957905511474609,-4.404580152671755,-0.32061068702290074,-3.1603053435114505
3859839770869,0.547890052,3,-0.20829554443359374,-0.55545478515625,-8.987833032226561,-4.412213740458015,-0.2900763358778626,-3.122137404580153
3859859760765,0.567879948,3,-0.2262520568847656,-0.5315127685546874,-8.941146099853515,-4.450381679389313,-0.2900763358778626,-3.114503816793893
3859879747796,0.587866979,3,-0.22385785522460935,-0.5351040710449219,-8.954314208984375,-4.435114503816794,-0.2900763358778626,-3.1526717557251906
3859899681651,0.607800834,3,-0.20949264526367187,-0.565031591796875,-8.932766394042968,-4.450381679389313,-0.31297709923664124,-3.1526717557251906
3859919746130,0.627865313,3,-0.19632453613281248,-0.5506663818359374,-8.992621435546875,-4.343511450381679,-0.3053435114503817,-3.145038167938931
3859939732223,0.647851406,3,-0.1879448303222656,-0.5374982727050781,-8.998606939697265,-4.404580152671755,-0.3511450381679389,-3.183206106870229
3859959726911,0.667846094,3,-0.21787235107421873,-0.5279214660644531,-8.914809881591797,-4.465648854961832,-0.29770992366412213,-3.16793893129771
3859979733317,0.6878525,3,-0.17477672119140625,-0.5315127685546874,-8.949525805664061,-4.419847328244275,-0.3282442748091603,-3.1603053435114505
3859999819880,0.707939063,3,-0.18914193115234373,-0.5291185668945312,-8.948328704833983,-4.435114503816794,-0.2900763358778626,-3.1603053435114505
3860019748317,0.7278675,3,-0.20949264526367187,-0.5291185668945312,-8.895656268310546,-4.396946564885496,-0.29770992366412213,-3.1908396946564888
3860039783682,0.747902865,3,-0.21068974609375,-0.5339069702148437,-8.94473740234375,-4.3893129770992365,-0.3282442748091603,-3.1603053435114505
3860059738994,0.767858177,3,-0.19153613281249998,-0.5410895751953124,-8.974664923095702,-4.435114503816794,-0.3282442748091603,-3.145038167938931
3860079724984,0.787844167,3,-0.18315642700195311,-0.5315127685546874,-8.972270721435546,-4.404580152671755,-0.26717557251908397,-3.16793893129771
3860099737848,0.807857031,3,-0.21188684692382811,-0.5470750793457031,-8.947131604003905,-4.442748091603053,-0.29770992366412213,-3.1374045801526718
3860119722640,0.827841823,3,-0.18076222534179687,-0.5374982727050781,-8.984241729736327,-4.442748091603053,-0.2824427480916031,-3.122137404580153
3860139739723,0.847858906,3,-0.21787235107421873,-0.5315127685546874,-8.9255837890625,-4.442748091603053,-0.32061068702290074,-3.1297709923664123
3860159730609,0.867849792,3,-0.20231004028320312,-0.55545478515625,-8.96987651977539,-4.404580152671755,-0.35877862595419846,-3.16793893129771
3860179734098,0.887853281,3,-0.20350714111328125,-0.5494692810058593,-8.968679418945312,-4.473282442748092,-0.3282442748091603,-3.1908396946564888
3860199744359,0.907863542,3,-0.20350714111328125,-0.5291185668945312,-8.939948999023438,-4.427480916030534,-0.29770992366412213,-3.1908396946564888
3860219745661,0.927864844,3,-0.17597382202148437,-0.5410895751953124,-8.91840118408203,-4.427480916030534,-0.2824427480916031,-3.1603053435114505
3860239727588,0.947846771,3,-0.19632453613281248,-0.5363011718749999,-8.953117108154297,-4.435114503816794,-0.32061068702290074,-3.1603053435114505
3860259735400,0.967854583,3,-0.18555062866210936,-0.5386953735351562,-8.90643017578125,-4.419847328244275,-0.29770992366412213,-3.114503816793893
3860279733473,0.987852656,3,-0.23104046020507812,-0.5386953735351562,-8.927977990722656,-4.442748091603053,-0.32061068702290074,-3.099236641221374
3860299731182,1.007850365,3,-0.21308394775390624,-0.5315127685546874,-8.933963494873046,-4.396946564885496,-0.29770992366412213,-3.122137404580153
3860319764723,1.027883906,3,-0.18435352783203124,-0.5566518859863281,-8.957905511474609,-4.458015267175573,-0.33587786259541985,-3.122137404580153
3860339741755,1.047860938,3,-0.19871873779296872,-0.5398924743652344,-8.905233074951171,-4.3893129770992365,-0.35877862595419846,-3.1068702290076335
3860359723161,1.067842344,3,-0.23702596435546874,-0.5386953735351562,-8.926780889892578,-4.435114503816794,-0.3282442748091603,-3.1603053435114505
3860379781077,1.08790026,3,-0.21188684692382811,-0.5494692810058593,-8.93875189819336,-4.458015267175573,-0.3282442748091603,-3.1374045801526718
3860399734150,1.107853333,3,-0.21787235107421873,-0.5518634826660156,-8.930372192382812,-4.442748091603053,-0.31297709923664124,-3.1374045801526718
3860419735036,1.127854219,3,-0.2154781494140625,-0.5243301635742187,-8.91840118408203,-4.435114503816794,-0.32061068702290074,-3.145038167938931
3860439731807,1.14785099,3,-0.21787235107421873,-0.5339069702148437,-8.948328704833983,-4.427480916030534,-0.3282442748091603,-3.1755725190839694
3860459802536,1.167921719,3,-0.21068974609375,-0.5351040710449219,-8.916006982421875,-4.404580152671755,-0.3435114503816794,-3.1297709923664123
3860479749150,1.187868333,3,-0.23343466186523437,-0.5482721801757812,-8.921992486572265,-4.374045801526718,-0.3053435114503817,-3.1068702290076335
3860499753682,1.207872865,3,-0.21068974609375,-0.5279214660644531,-8.963891015625,-4.3893129770992365,-0.33587786259541985,-3.145038167938931
3860519688265,1.227807448,3,-0.1867477294921875,-0.5470750793457031,-8.965088116455078,-4.458015267175573,-0.31297709923664124,-3.114503816793893
3860539714775,1.247833958,3,-0.22744915771484372,-0.5530605834960938,-8.92438668823242,-4.404580152671755,-0.3435114503816794,-3.145038167938931
3860559754150,1.267873333,3,-0.19632453613281248,-0.5614402893066406,-8.935160595703124,-4.404580152671755,-0.33587786259541985,-3.1374045801526718
3860579787796,1.287906979,3,-0.20231004028320312,-0.5231330627441406,-8.935160595703124,-4.442748091603053,-0.32061068702290074,-3.1603053435114505
3860599832536,1.307951719,3,-0.20470424194335937,-0.5494692810058593,-8.936357696533202,-4.450381679389313,-0.33587786259541985,-3.1374045801526718
3860619767952,1.327887135,3,-0.22026655273437498,-0.5410895751953124,-8.963891015625,-4.419847328244275,-0.33587786259541985,-3.1297709923664123
3860639783213,1.347902396,3,-0.20350714111328125,-0.5386953735351562,-8.961496813964843,-4.419847328244275,-0.2595419847328244,-3.1374045801526718
3860659750713,1.367869896,3,-0.16041151123046873,-0.5434837768554687,-8.957905511474609,-4.435114503816794,-0.3053435114503817,-3.1297709923664123
3860679740244,1.387859427,3,-0.1879448303222656,-0.5267243652343749,-8.980650427246093,-4.427480916030534,-0.3053435114503817,-3.1908396946564888
3860699765504,1.407884687,3,-0.1975216369628906,-0.5530605834960938,-8.97705912475586,-4.465648854961832,-0.3282442748091603,-3.1374045801526718
3860719748681,1.427867864,3,-0.19632453613281248,-0.5386953735351562,-8.954314208984375,-4.4961832061068705,-0.3053435114503817,-3.1526717557251906
3860739749046,1.447868229,3,-0.20350714111328125,-0.5327098693847656,-8.93755479736328,-4.412213740458015,-0.3053435114503817,-3.1755725190839694
3860759747379,1.467866562,3,-0.20949264526367187,-0.5434837768554687,-8.932766394042968,-4.442748091603053,-0.31297709923664124,-3.1755725190839694
3860779748213,1.487867396,3,-0.22266075439453123,-0.5315127685546874,-8.979453326416015,-4.427480916030534,-0.3435114503816794,-3.1603053435114505
3860799770921,1.507890104,3,-0.2059013427734375,-0.5351040710449219,-8.936357696533202,-4.473282442748092,-0.25190839694656486,-3.1374045801526718
3860819764879,1.527884062,3,-0.21308394775390624,-0.5518634826660156,-8.95670841064453,-4.450381679389313,-0.25190839694656486,-3.1755725190839694
3860839741494,1.547860677,3,-0.19991583862304688,-0.5267243652343749,-8.95670841064453,-4.442748091603053,-0.2900763358778626,-3.1526717557251906
3860859753317,1.5678725,3,-0.20231004028320312,-0.5542576843261718,-8.917204083251953,-4.404580152671755,-0.3511450381679389,-3.213740458015267
3860879757379,1.587876562,3,-0.1879448303222656,-0.5482721801757812,-8.948328704833983,-4.519083969465649,-0.31297709923664124,-3.1526717557251906
3860899746338,1.607865521,3,-0.21308394775390624,-0.5530605834960938,-8.930372192382812,-4.465648854961832,-0.29770992366412213,-3.114503816793893
3860919746858,1.627866041,3,-0.21428104858398436,-0.5339069702148437,-9.0021982421875,-4.419847328244275,-0.32061068702290074,-3.1603053435114505
3860939765348,1.647884531,3,-0.18435352783203124,-0.5458779785156249,-8.927977990722656,-4.427480916030534,-0.35877862595419846,-3.1755725190839694
3860960094567,1.66821375,3,-0.20829554443359374,-0.5219359619140624,-8.963891015625,-4.404580152671755,-0.3435114503816794,-3.1526717557251906
3860979779254,1.687898437,3,-0.22266075439453123,-0.5566518859863281,-8.972270721435546,-4.480916030534351,-0.35877862595419846,-3.1374045801526718
3860999783838,1.707903021,3,-0.19632453613281248,-0.5374982727050781,-8.92438668823242,-4.450381679389313,-0.31297709923664124,-3.1374045801526718
3861019680296,1.727799479,3,-0.181959326171875,-0.5374982727050781,-8.954314208984375,-4.427480916030534,-0.3435114503816794,-3.114503816793893
3861039765921,1.747885104,3,-0.2214636535644531,-0.5267243652343749,-8.993818536376953,-4.458015267175573,-0.3282442748091603,-3.1374045801526718
3861059760869,1.767880052,3,-0.18555062866210936,-0.5315127685546874,-8.971073620605468,-4.450381679389313,-0.32061068702290074,-3.099236641221374
3861079753369,1.787872552,3,-0.21428104858398436,-0.5386953735351562,-8.914809881591797,-4.427480916030534,-0.2824427480916031,-3.114503816793893
3861099753838,1.807873021,3,-0.19632453613281248,-0.5674257934570313,-8.92438668823242,-4.404580152671755,-0.2595419847328244,-3.1603053435114505
3861119762067,1.82788125,3,-0.21787235107421873,-0.5434837768554687,-8.96269391479492,-4.435114503816794,-0.26717557251908397,-3.1603053435114505
3861139751285,1.847870468,3,-0.17836802368164062,-0.5470750793457031,-8.929175091552734,-4.419847328244275,-0.2900763358778626,-3.1526717557251906
3861159759671,1.867878854,3,-0.1927332336425781,-0.5243301635742187,-8.92438668823242,-4.419847328244275,-0.3053435114503817,-3.1297709923664123
3861179753838,1.887873021,3,-0.20231004028320312,-0.5590460876464843,-8.950722906494141,-4.450381679389313,-0.31297709923664124,-3.1755725190839694
3861199747327,1.90786651,3,-0.19632453613281248,-0.5303156677246094,-8.933963494873046,-4.374045801526718,-0.32061068702290074,-3.198473282442748
3861219747223,1.927866406,3,-0.1879448303222656,-0.5386953735351562,-8.972270721435546,-4.419847328244275,-0.33587786259541985,-3.1526717557251906
3861239757327,1.94787651,3,-0.16759411621093748,-0.5518634826660156,-8.93755479736328,-4.412213740458015,-0.33587786259541985,-3.1603053435114505
3861259736337,1.96785552,3,-0.181959326171875,-0.5363011718749999,-8.96269391479492,-4.419847328244275,-0.2824427480916031,-3.1603053435114505
3861279773681,1.987892864,3,-0.2059013427734375,-0.5781997009277343,-8.941146099853515,-4.488549618320611,-0.3511450381679389,-3.145038167938931
3861299741494,2.007860677,3,-0.21428104858398436,-0.5195417602539062,-8.926780889892578,-4.427480916030534,-0.3282442748091603,-3.1755725190839694
3861319754306,2.027873489,3,-0.20709844360351562,-0.5398924743652344,-8.889670764160156,-4.3893129770992365,-0.3053435114503817,-3.16793893129771
3861339678056,2.047797239,3,-0.1927332336425781,-0.5542576843261718,-8.973467822265624,-4.458015267175573,-0.3435114503816794,-3.145038167938931
3861359819098,2.067938281,3,-0.2154781494140625,-0.5566518859863281,-8.929175091552734,-4.442748091603053,-0.29770992366412213,-3.1297709923664123
3861379771806,2.087890989,3,-0.22505495605468748,-0.5698199951171875,-8.950722906494141,-4.480916030534351,-0.29770992366412213,-3.145038167938931
3861399766025,2.107885208,3,-0.21188684692382811,-0.5063736511230469,-8.9255837890625,-4.458015267175573,-0.2824427480916031,-3.1603053435114505
3861419784567,2.12790375,3,-0.21068974609375,-0.5386953735351562,-8.919598284912109,-4.450381679389313,-0.2824427480916031,-3.1068702290076335
3861439753681,2.147872864,3,-0.19393033447265623,-0.5374982727050781,-8.927977990722656,-4.427480916030534,-0.32061068702290074,-3.1374045801526718
3861459761858,2.167881041,3,-0.201112939453125,-0.5363011718749999,-8.933963494873046,-4.442748091603053,-0.31297709923664124,-3.1297709923664123
3861479817535,2.187936718,3,-0.20829554443359374,-0.5386953735351562,-8.9255837890625,-4.450381679389313,-0.29770992366412213,-3.1374045801526718
3861499756546,2.207875729,3,-0.17477672119140625,-0.5351040710449219,-8.933963494873046,-4.427480916030534,-0.3282442748091603,-3.1908396946564888
3861519763733,2.227882916,3,-0.20350714111328125,-0.5422866760253906,-8.96987651977539,-4.427480916030534,-0.29770992366412213,-3.16793893129771
3861539755869,2.247875052,3,-0.20350714111328125,-0.5339069702148437,-8.93755479736328,-4.435114503816794,-0.2824427480916031,-3.16793893129771
3861559823473,2.267942656,3,-0.19632453613281248,-0.5566518859863281,-8.963891015625,-4.450381679389313,-0.2748091603053435,-3.1526717557251906
3861579776337,2.28789552,3,-0.20829554443359374,-0.5386953735351562,-8.919598284912109,-4.442748091603053,-0.31297709923664124,-3.183206106870229
3861599751233,2.307870416,3,-0.20829554443359374,-0.5458779785156249,-8.902838873291016,-4.473282442748092,-0.31297709923664124,-3.16793893129771
3861619740348,2.327859531,3,-0.20709844360351562,-0.5183446594238281,-8.949525805664061,-4.419847328244275,-0.366412213740458,-3.145038167938931
3861639734306,2.347853489,3,-0.22385785522460935,-0.5410895751953124,-8.927977990722656,-4.404580152671755,-0.33587786259541985,-3.1755725190839694
3861659749254,2.367868437,3,-0.17238251953125,-0.5506663818359374,-8.93755479736328,-4.412213740458015,-0.32061068702290074,-3.1603053435114505
3861679732900,2.387852083,3,-0.21308394775390624,-0.5566518859863281,-8.967482318115234,-4.419847328244275,-0.2824427480916031,-3.1526717557251906
3861699742327,2.40786151,3,-0.20231004028320312,-0.5351040710449219,-8.975862023925782,-4.396946564885496,-0.31297709923664124,-3.122137404580153
3861719736285,2.427855468,3,-0.19393033447265623,-0.5374982727050781,-8.950722906494141,-4.419847328244275,-0.3053435114503817,-3.1297709923664123
3861739737431,2.447856614,3,-0.20470424194335937,-0.5374982727050781,-8.939948999023438,-4.404580152671755,-0.2748091603053435,-3.1908396946564888
3861759693577,2.46781276,3,-0.20709844360351562,-0.5291185668945312,-8.905233074951171,-4.435114503816794,-0.2900763358778626,-3.1374045801526718
3861779746077,2.48786526,3,-0.20949264526367187,-0.5530605834960938,-8.966285217285156,-4.473282442748092,-0.3053435114503817,-3.099236641221374
3861799727431,2.507846614,3,-0.19632453613281248,-0.5434837768554687,-8.965088116455078,-4.458015267175573,-0.2595419847328244,-3.114503816793893
3861819662431,2.527781614,3,-0.20829554443359374,-0.5626373901367188,-8.951920007324219,-4.419847328244275,-0.2900763358778626,-3.1526717557251906
3861839762014,2.547881197,3,-0.22385785522460935,-0.5446808776855468,-8.955511309814453,-4.427480916030534,-0.22137404580152673,-3.122137404580153
3861859739775,2.567858958,3,-0.21787235107421873,-0.5482721801757812,-8.989030133056641,-4.435114503816794,-0.32061068702290074,-3.1526717557251906
3861879738941,2.587858124,3,-0.2059013427734375,-0.5626373901367188,-8.945934503173827,-4.419847328244275,-0.3282442748091603,-3.1526717557251906
3861899734098,2.607853281,3,-0.2214636535644531,-0.5446808776855468,-8.926780889892578,-4.427480916030534,-0.31297709923664124,-3.1755725190839694
3861919824462,2.627943645,3,-0.19871873779296872,-0.5351040710449219,-8.9255837890625,-4.3816793893129775,-0.32061068702290074,-3.1908396946564888
3861939766285,2.647885468,3,-0.20231004028320312,-0.5267243652343749,-8.97705912475586,-4.404580152671755,-0.3282442748091603,-3.1755725190839694
3861959756025,2.667875208,3,-0.18555062866210936,-0.5339069702148437,-8.967482318115234,-4.427480916030534,-0.32061068702290074,-3.122137404580153
3861979754462,2.687873645,3,-0.20949264526367187,-0.5458779785156249,-8.957905511474609,-4.404580152671755,-0.3282442748091603,-3.1603053435114505
3861999756129,2.707875312,3,-0.20470424194335937,-0.5339069702148437,-8.933963494873046,-4.465648854961832,-0.31297709923664124,-3.16793893129771
3862020071441,2.728190624,3,-0.1879448303222656,-0.5494692810058593,-8.955511309814453,-4.412213740458015,-0.32061068702290074,-3.145038167938931
3862039799098,2.747918281,3,-0.19153613281249998,-0.5303156677246094,-8.950722906494141,-4.435114503816794,-0.2824427480916031,-3.1603053435114505
3862059784983,2.767904166,3,-0.229843359375,-0.5494692810058593,-8.93755479736328,-4.396946564885496,-0.26717557251908397,-3.1603053435114505
3862079785868,2.787905051,3,-0.2059013427734375,-0.5386953735351562,-8.974664923095702,-4.3893129770992365,-0.2824427480916031,-3.114503816793893
3862099749202,2.807868385,3,-0.16160861206054686,-0.5530605834960938,-8.960299713134765,-4.427480916030534,-0.3053435114503817,-3.114503816793893
3862119752587,2.82787177,3,-0.17477672119140625,-0.5482721801757812,-8.911218579101561,-4.442748091603053,-0.3053435114503817,-3.122137404580153
3862139761025,2.847880208,3,-0.21428104858398436,-0.5458779785156249,-8.961496813964843,-4.427480916030534,-0.2748091603053435,-3.1526717557251906
3862159749358,2.867868541,3,-0.19153613281249998,-0.5351040710449219,-8.926780889892578,-4.465648854961832,-0.2824427480916031,-3.145038167938931
3862179759045,2.887878228,3,-0.1927332336425781,-0.5374982727050781,-8.984241729736327,-4.480916030534351,-0.33587786259541985,-3.114503816793893
3862199759150,2.907878333,3,-0.19871873779296872,-0.51714755859375,-8.960299713134765,-4.442748091603053,-0.3282442748091603,-3.114503816793893
3862219746025,2.927865208,3,-0.17477672119140625,-0.5374982727050781,-8.916006982421875,-4.427480916030534,-0.32061068702290074,-3.1755725190839694
3862239787014,2.947906197,3,-0.21068974609375,-0.5614402893066406,-8.948328704833983,-4.442748091603053,-0.32061068702290074,-3.145038167938931
3862259773368,2.967892551,3,-0.21428104858398436,-0.5542576843261718,-8.951920007324219,-4.396946564885496,-0.32061068702290074,-3.1374045801526718
3862279742952,2.987862135,3,-0.19033903198242186,-0.5602431884765625,-8.954314208984375,-4.435114503816794,-0.2900763358778626,-3.114503816793893
3862299760504,3.007879687,3,-0.21428104858398436,-0.5291185668945312,-8.889670764160156,-4.435114503816794,-0.2900763358778626,-3.1526717557251906
3862319753368,3.027872551,3,-0.20709844360351562,-0.5482721801757812,-8.999804040527343,-4.458015267175573,-0.32061068702290074,-3.1068702290076335
3862339754618,3.047873801,3,-0.18555062866210936,-0.5434837768554687,-8.933963494873046,-4.473282442748092,-0.29770992366412213,-3.145038167938931
3862359757535,3.067876718,3,-0.201112939453125,-0.5351040710449219,-8.93755479736328,-4.3816793893129775,-0.3053435114503817,-3.16793893129771
3862379774045,3.087893228,3,-0.19393033447265623,-0.5410895751953124,-8.942343200683593,-4.419847328244275,-0.33587786259541985,-3.1068702290076335
3862399755295,3.107874478,3,-0.19871873779296872,-0.5398924743652344,-8.965088116455078,-4.3816793893129775,-0.32061068702290074,-3.16793893129771
3862419753472,3.127872655,3,-0.20350714111328125,-0.5374982727050781,-8.923189587402343,-4.442748091603053,-0.31297709923664124,-3.099236641221374
3862439758264,3.147877447,3,-0.21428104858398436,-0.5506663818359374,-8.96269391479492,-4.450381679389313,-0.29770992366412213,-3.1297709923664123
3862459746545,3.167865728,3,-0.2214636535644531,-0.5123591552734374,-8.961496813964843,-4.412213740458015,-0.32061068702290074,-3.1526717557251906
3862479754254,3.187873437,3,-0.20470424194335937,-0.5374982727050781,-8.950722906494141,-4.442748091603053,-0.3511450381679389,-3.1755725190839694
3862499794202,3.207913385,3,-0.20350714111328125,-0.5123591552734374,-8.923189587402343,-4.442748091603053,-0.31297709923664124,-3.16793893129771
3862519779931,3.227899114,3,-0.18914193115234373,-0.5506663818359374,-8.927977990722656,-4.427480916030534,-0.3511450381679389,-3.145038167938931
3862539756962,3.247876145,3,-0.22385785522460935,-0.5506663818359374,-8.927977990722656,-4.450381679389313,-0.31297709923664124,-3.1374045801526718
3862559757379,3.267876562,3,-0.201112939453125,-0.5386953735351562,-8.945934503173827,-4.419847328244275,-0.32061068702290074,-3.1068702290076335
3862579772899,3.287892082,3,-0.20949264526367187,-0.5255272644042969,-8.917204083251953,-4.442748091603053,-0.3053435114503817,-3.122137404580153
3862599815035,3.307934218,3,-0.19393033447265623,-0.5458779785156249,-8.892064965820312,-4.412213740458015,-0.3282442748091603,-3.099236641221374
3862619768785,3.327887968,3,-0.201112939453125,-0.5446808776855468,-8.95670841064453,-4.458015267175573,-0.2900763358778626,-3.122137404580153
3862639751337,3.34787052,3,-0.22266075439453123,-0.5482721801757812,-8.943540301513671,-4.488549618320611,-0.32061068702290074,-3.145038167938931
3862659762222,3.367881405,3,-0.19512743530273435,-0.5530605834960938,-8.967482318115234,-4.465648854961832,-0.2900763358778626,-3.1603053435114505
3862679754462,3.387873645,3,-0.2214636535644531,-0.5590460876464843,-8.974664923095702,-4.435114503816794,-0.2748091603053435,-3.122137404580153
3862699761077,3.40788026,3,-0.21068974609375,-0.5255272644042969,-8.94473740234375,-4.465648854961832,-0.2900763358778626,-3.1374045801526718
3862719751337,3.42787052,3,-0.20949264526367187,-0.5434837768554687,-8.957905511474609,-4.435114503816794,-0.31297709923664124,-3.1526717557251906
3862739766545,3.447885728,3,-0.22864625854492185,-0.5422866760253906,-8.965088116455078,-4.465648854961832,-0.3053435114503817,-3.1526717557251906
3862759750712,3.467869895,3,-0.21906945190429686,-0.5458779785156249,-8.892064965820312,-4.366412213740458,-0.3053435114503817,-3.1755725190839694
3862779763472,3.487882655,3,-0.1975216369628906,-0.5722141967773438,-8.93755479736328,-4.412213740458015,-0.31297709923664124,-3.1526717557251906
3862799756493,3.507875676,3,-0.21068974609375,-0.5315127685546874,-8.960299713134765,-4.435114503816794,-0.31297709923664124,-3.1297709923664123
3862819753576,3.527872759,3,-0.1771709228515625,-0.5566518859863281,-8.948328704833983,-4.419847328244275,-0.2748091603053435,-3.122137404580153
3862839746701,3.547865884,3,-0.22266075439453123,-0.5518634826660156,-8.90643017578125,-4.465648854961832,-0.3053435114503817,-3.0916030534351147
3862859788629,3.567907812,3,-0.22385785522460935,-0.5410895751953124,-8.93755479736328,-4.412213740458015,-0.2824427480916031,-3.1297709923664123
3862881169670,3.589288853,3,-0.1975216369628906,-0.5363011718749999,-8.939948999023438,-4.419847328244275,-0.29770992366412213,-3.183206106870229
3862901411806,3.609530989,3,-0.19393033447265623,-0.5458779785156249,-8.96987651977539,-4.427480916030534,-0.3053435114503817,-3.0916030534351147
3862921398004,3.629517187,3,-0.20231004028320312,-0.5458779785156249,-8.904035974121093,-4.404580152671755,-0.3282442748091603,-3.114503816793893
3862941375920,3.649495103,3,-0.1771709228515625,-0.5422866760253906,-8.96987651977539,-4.404580152671755,-0.32061068702290074,-3.1755725190839694
3862961382170,3.669501353,3,-0.19871873779296872,-0.5339069702148437,-8.945934503173827,-4.419847328244275,-0.32061068702290074,-3.1297709923664123
3862981392274,3.689511457,3,-0.1640028137207031,-0.5530605834960938,-8.97705912475586,-4.427480916030534,-0.3435114503816794,-3.183206106870229
3863001273056,3.709392239,3,-0.2059013427734375,-0.5458779785156249,-8.93755479736328,-4.427480916030534,-0.3053435114503817,-3.1603053435114505
3863021391649,3.729510832,3,-0.19991583862304688,-0.5279214660644531,-8.959102612304687,-4.442748091603053,-0.33587786259541985,-3.145038167938931
3863041385399,3.749504582,3,-0.24660277099609373,-0.5327098693847656,-8.941146099853515,-4.442748091603053,-0.3511450381679389,-3.1603053435114505
3863061379670,3.769498853,3,-0.19991583862304688,-0.5458779785156249,-8.951920007324219,-4.396946564885496,-0.3053435114503817,-3.145038167938931
3863081409097,3.78952828,3,-0.229843359375,-0.5267243652343749,-8.96269391479492,-4.412213740458015,-0.2824427480916031,-3.1068702290076335
3863101309566,3.809428749,3,-0.21188684692382811,-0.5219359619140624,-8.919598284912109,-4.427480916030534,-0.3435114503816794,-3.1526717557251906
3863121385920,3.829505103,3,-0.22266075439453123,-0.5363011718749999,-8.96987651977539,-4.404580152671755,-0.32061068702290074,-3.122137404580153
3863141383003,3.849502186,3,-0.2059013427734375,-0.5614402893066406,-8.939948999023438,-4.450381679389313,-0.29770992366412213,-3.145038167938931
3863161392639,3.869511822,3,-0.2154781494140625,-0.5422866760253906,-8.943540301513671,-4.427480916030534,-0.33587786259541985,-3.1374045801526718
3863181385191,3.889504374,3,-0.18914193115234373,-0.5315127685546874,-8.968679418945312,-4.442748091603053,-0.32061068702290074,-3.145038167938931
3863201394305,3.909513488,3,-0.19991583862304688,-0.5602431884765625,-8.984241729736327,-4.419847328244275,-0.29770992366412213,-3.1374045801526718
3863221400555,3.929519738,3,-0.21787235107421873,-0.5374982727050781,-8.979453326416015,-4.450381679389313,-0.2748091603053435,-3.1526717557251906
3863241369983,3.949489166,3,-0.2214636535644531,-0.5614402893066406,-8.933963494873046,-4.366412213740458,-0.3053435114503817,-3.1374045801526718
3863261371701,3.969490884,3,-0.19991583862304688,-0.5734112976074218,-8.955511309814453,-4.396946564885496,-0.3435114503816794,-3.122137404580153
3863281382795,3.989501978,3,-0.20470424194335937,-0.5303156677246094,-8.93755479736328,-4.450381679389313,-0.32061068702290074,-3.1297709923664123
3863301385712,4.009504895,3,-0.21787235107421873,-0.5470750793457031,-8.94473740234375,-4.480916030534351,-0.3435114503816794,-3.1374045801526718
3863321394045,4.029513228,3,-0.21428104858398436,-0.5410895751953124,-8.93156929321289,-4.427480916030534,-0.3435114503816794,-3.16793893129771
3863341383680,4.049502863,3,-0.20470424194335937,-0.5494692810058593,-9.003395343017578,-4.458015267175573,-0.26717557251908397,-3.122137404580153
3863361409410,4.069528593,3,-0.21188684692382811,-0.5398924743652344,-8.904035974121093,-4.419847328244275,-0.24427480916030533,-3.1297709923664123
3863381413680,4.089532863,3,-0.22026655273437498,-0.5458779785156249,-8.973467822265624,-4.404580152671755,-0.32061068702290074,-3.1603053435114505
3863401379826,4.109499009,3,-0.2154781494140625,-0.5470750793457031,-8.953117108154297,-4.396946564885496,-0.31297709923664124,-3.122137404580153
3863421402274,4.129521457,3,-0.1771709228515625,-0.5363011718749999,-8.948328704833983,-4.427480916030534,-0.3053435114503817,-3.114503816793893
3863441386493,4.149505676,3,-0.21308394775390624,-0.5518634826660156,-8.93755479736328,-4.435114503816794,-0.3435114503816794,-3.114503816793893
3863461383889,4.169503072,3,-0.20829554443359374,-0.5422866760253906,-8.927977990722656,-4.465648854961832,-0.3053435114503817,-3.122137404580153
3863481421232,4.189540415,3,-0.2166752502441406,-0.5518634826660156,-8.95670841064453,-4.5038167938931295,-0.31297709923664124,-3.099236641221374
3863501366545,4.209485728,3,-0.18914193115234373,-0.5638344909667968,-8.926780889892578,-4.412213740458015,-0.29770992366412213,-3.114503816793893
3863521395295,4.229514478,3,-0.2154781494140625,-0.5363011718749999,-8.943540301513671,-4.427480916030534,-0.3053435114503817,-3.1526717557251906
3863541389618,4.249508801,3,-0.19033903198242186,-0.55545478515625,-8.930372192382812,-4.396946564885496,-0.32061068702290074,-3.1603053435114505
3863561378628,4.269497811,3,-0.21787235107421873,-0.55545478515625,-8.947131604003905,-4.3816793893129775,-0.3282442748091603,-3.145038167938931
3863581408628,4.289527811,3,-0.2154781494140625,-0.5147533569335937,-8.975862023925782,-4.442748091603053,-0.35877862595419846,-3.1297709923664123
3863601381857,4.30950104,3,-0.20829554443359374,-0.5339069702148437,-8.965088116455078,-4.435114503816794,-0.32061068702290074,-3.145038167938931
3863621279670,4.329398853,3,-0.19632453613281248,-0.5626373901367188,-8.927977990722656,-4.442748091603053,-0.2595419847328244,-3.183206106870229
3863641378003,4.349497186,3,-0.1975216369628906,-0.5398924743652344,-8.974664923095702,-4.412213740458015,-0.31297709923664124,-3.145038167938931
3863661382639,4.369501822,3,-0.2166752502441406,-0.5315127685546874,-8.929175091552734,-4.404580152671755,-0.3511450381679389,-3.1603053435114505
3863681370451,4.389489634,3,-0.21308394775390624,-0.5410895751953124,-8.950722906494141,-4.427480916030534,-0.3053435114503817,-3.114503816793893
3863701384097,4.40950328,3,-0.20470424194335937,-0.5566518859863281,-8.911218579101561,-4.404580152671755,-0.29770992366412213,-3.0916030534351147
3863721389305,4.429508488,3,-0.2166752502441406,-0.5446808776855468,-8.901641772460938,-4.412213740458015,-0.25190839694656486,-3.1068702290076335
3863741360243,4.449479426,3,-0.17118541870117188,-0.5327098693847656,-8.981847528076171,-4.3893129770992365,-0.29770992366412213,-3.145038167938931
3863761384462,4.469503645,3,-0.201112939453125,-0.5578489868164063,-8.941146099853515,-4.404580152671755,-0.2900763358778626,-3.1374045801526718
3863781405712,4.489524895,3,-0.1927332336425781,-0.5422866760253906,-8.945934503173827,-4.3816793893129775,-0.22137404580152673,-3.145038167938931
3863801382066,4.509501249,3,-0.18435352783203124,-0.5578489868164063,-8.949525805664061,-4.435114503816794,-0.31297709923664124,-3.1374045801526718
3863821381024,4.529500207,3,-0.19991583862304688,-0.5458779785156249,-8.948328704833983,-4.4961832061068705,-0.3282442748091603,-3.1374045801526718
3863841401441,4.549520624,3,-0.21188684692382811,-0.5207388610839844,-8.9255837890625,-4.450381679389313,-0.26717557251908397,-3.1297709923664123
3863861381805,4.569500988,3,-0.19393033447265623,-0.5470750793457031,-8.984241729736327,-4.396946564885496,-0.32061068702290074,-3.145038167938931
3863881382170,4.589501353,3,-0.20470424194335937,-0.5410895751953124,-8.905233074951171,-4.442748091603053,-0.31297709923664124,-3.1374045801526718
3863901384149,4.609503332,3,-0.19512743530273435,-0.5315127685546874,-8.966285217285156,-4.412213740458015,-0.33587786259541985,-3.1374045801526718
3863921377899,4.629497082,3,-0.21428104858398436,-0.5494692810058593,-8.954314208984375,-4.366412213740458,-0.29770992366412213,-3.1297709923664123
3863941401441,4.649520624,3,-0.20350714111328125,-0.5003881469726562,-8.936357696533202,-4.3816793893129775,-0.3053435114503817,-3.1526717557251906
3863961364982,4.669484165,3,-0.21308394775390624,-0.5422866760253906,-8.948328704833983,-4.435114503816794,-0.3435114503816794,-3.114503816793893
3863981367066,4.689486249,3,-0.2059013427734375,-0.5159504577636719,-8.916006982421875,-4.458015267175573,-0.32061068702290074,-3.1755725190839694
3864001303628,4.709422811,3,-0.2154781494140625,-0.5410895751953124,-8.94473740234375,-4.427480916030534,-0.3053435114503817,-3.16793893129771
3864021378211,4.729497394,3,-0.20709844360351562,-0.5183446594238281,-8.939948999023438,-4.404580152671755,-0.3282442748091603,-3.145038167938931
3864041369305,4.749488488,3,-0.21068974609375,-0.5386953735351562,-8.959102612304687,-4.412213740458015,-0.3282442748091603,-3.1603053435114505
3864061358628,4.769477811,3,-0.20949264526367187,-0.5363011718749999,-8.959102612304687,-4.465648854961832,-0.3435114503816794,-3.1603053435114505
3864081363628,4.789482811,3,-0.201112939453125,-0.5291185668945312,-8.921992486572265,-4.435114503816794,-0.31297709923664124,-3.145038167938931
3864101359722,4.809478905,3,-0.20709844360351562,-0.5434837768554687,-8.954314208984375,-4.450381679389313,-0.33587786259541985,-3.122137404580153
3864121345607,4.82946479,3,-0.22505495605468748,-0.565031591796875,-8.933963494873046,-4.435114503816794,-0.3282442748091603,-3.16793893129771
3864141366493,4.849485676,3,-0.19991583862304688,-0.5410895751953124,-8.930372192382812,-4.419847328244275,-0.2748091603053435,-3.16793893129771
3864161317066,4.869436249,3,-0.21308394775390624,-0.5339069702148437,-8.948328704833983,-4.396946564885496,-0.29770992366412213,-3.1526717557251906
3864181396961,4.889516144,3,-0.21308394775390624,-0.5434837768554687,-8.971073620605468,-4.396946564885496,-0.3053435114503817,-3.1526717557251906
3864201371597,4.90949078,3,-0.21308394775390624,-0.507570751953125,-8.923189587402343,-4.435114503816794,-0.32061068702290074,-3.1297709923664123
3864221355972,4.929475155,3,-0.22505495605468748,-0.5219359619140624,-8.979453326416015,-4.442748091603053,-0.2748091603053435,-3.145038167938931
3864241273784,4.949392967,3,-0.1867477294921875,-0.5530605834960938,-8.947131604003905,-4.450381679389313,-0.35877862595419846,-3.1526717557251906
3864261368888,4.969488071,3,-0.20231004028320312,-0.5398924743652344,-8.936357696533202,-4.458015267175573,-0.3435114503816794,-3.16793893129771
3864281406753,4.989525936,3,-0.2059013427734375,-0.5482721801757812,-8.939948999023438,-4.473282442748092,-0.29770992366412213,-3.1755725190839694
3864301315607,5.00943479,3,-0.20470424194335937,-0.5614402893066406,-8.943540301513671,-4.488549618320611,-0.3053435114503817,-3.114503816793893
3864321352326,5.029471509,3,-0.2166752502441406,-0.5410895751953124,-8.901641772460938,-4.419847328244275,-0.3053435114503817,-3.114503816793893
3864341363836,5.049483019,3,-0.2214636535644531,-0.5590460876464843,-8.936357696533202,-4.427480916030534,-0.2900763358778626,-3.1755725190839694
3864361369930,5.069489113,3,-0.17956512451171874,-0.5303156677246094,-8.926780889892578,-4.450381679389313,-0.32061068702290074,-3.1908396946564888
3864381259982,5.089379165,3,-0.20709844360351562,-0.5506663818359374,-8.902838873291016,-4.450381679389313,-0.25190839694656486,-3.1374045801526718
3864401366701,5.109485884,3,-0.19991583862304688,-0.5327098693847656,-8.933963494873046,-4.412213740458015,-0.2824427480916031,-3.1374045801526718
3864421376128,5.129495311,3,-0.19871873779296872,-0.5386953735351562,-8.949525805664061,-4.427480916030534,-0.2900763358778626,-3.183206106870229
3864441366649,5.149485832,3,-0.19512743530273435,-0.5506663818359374,-8.951920007324219,-4.442748091603053,-0.31297709923664124,-3.1603053435114505
3864461371493,5.169490676,3,-0.21068974609375,-0.5398924743652344,-8.967482318115234,-4.419847328244275,-0.2748091603053435,-3.1374045801526718
3864481405347,5.18952453,3,-0.18435352783203124,-0.5386953735351562,-8.939948999023438,-4.404580152671755,-0.2900763358778626,-3.1755725190839694
3864501443836,5.209563019,3,-0.1927332336425781,-0.5506663818359374,-8.910021478271483,-4.427480916030534,-0.33587786259541985,-3.122137404580153
3864521409097,5.22952828,3,-0.22744915771484372,-0.5434837768554687,-8.96269391479492,-4.412213740458015,-0.2900763358778626,-3.1297709923664123
3864541311545,5.249430728,3,-0.20709844360351562,-0.5374982727050781,-8.989030133056641,-4.412213740458015,-0.3053435114503817,-3.1068702290076335
3864561373940,5.269493123,3,-0.22266075439453123,-0.5518634826660156,-8.968679418945312,-4.435114503816794,-0.3053435114503817,-3.122137404580153
3864581446701,5.289565884,3,-0.1927332336425781,-0.5398924743652344,-8.961496813964843,-4.404580152671755,-0.2748091603053435,-3.122137404580153
3864601410242,5.309529425,3,-0.19991583862304688,-0.5398924743652344,-8.950722906494141,-4.412213740458015,-0.2824427480916031,-3.1755725190839694
3864621374097,5.32949328,3,-0.18555062866210936,-0.5638344909667968,-8.927977990722656,-4.435114503816794,-0.3435114503816794,-3.1374045801526718
3864641370347,5.34948953,3,-0.22385785522460935,-0.5207388610839844,-8.954314208984375,-4.465648854961832,-0.32061068702290074,-3.1297709923664123
3864661383367,5.36950255,3,-0.201112939453125,-0.5255272644042969,-8.948328704833983,-4.404580152671755,-0.31297709923664124,-3.1526717557251906
3864681366649,5.389485832,3,-0.21188684692382811,-0.5422866760253906,-8.979453326416015,-4.3893129770992365,-0.26717557251908397,-3.16793893129771
3864701312951,5.409432134,3,-0.22864625854492185,-0.5267243652343749,-8.927977990722656,-4.419847328244275,-0.33587786259541985,-3.1526717557251906
3864721373888,5.429493071,3,-0.19871873779296872,-0.5446808776855468,-8.955511309814453,-4.435114503816794,-0.32061068702290074,-3.099236641221374
3864741360242,5.449479425,3,-0.19871873779296872,-0.5578489868164063,-8.971073620605468,-4.435114503816794,-0.3282442748091603,-3.122137404580153
3864761366232,5.469485415,3,-0.20829554443359374,-0.5255272644042969,-8.93156929321289,-4.435114503816794,-0.33587786259541985,-3.114503816793893
3864781355503,5.489474686,3,-0.2059013427734375,-0.5243301635742187,-8.950722906494141,-4.427480916030534,-0.2900763358778626,-3.1297709923664123
3864801366232,5.509485415,3,-0.21428104858398436,-0.5159504577636719,-8.961496813964843,-4.458015267175573,-0.3511450381679389,-3.1374045801526718
3864821360294,5.529479477,3,-0.20709844360351562,-0.5327098693847656,-8.920795385742187,-4.435114503816794,-0.31297709923664124,-3.114503816793893
3864841387742,5.549506925,3,-0.21906945190429686,-0.5446808776855468,-8.953117108154297,-4.427480916030534,-0.24427480916030533,-3.1374045801526718
3864861379565,5.569498748,3,-0.2214636535644531,-0.5530605834960938,-8.916006982421875,-4.419847328244275,-0.31297709923664124,-3.1526717557251906
3864881315815,5.589434998,3,-0.21906945190429686,-0.5386953735351562,-8.936357696533202,-4.3816793893129775,-0.2824427480916031,-3.122137404580153
3864901403003,5.609522186,3,-0.2166752502441406,-0.5398924743652344,-8.94473740234375,-4.3893129770992365,-0.2900763358778626,-3.145038167938931
3864921372274,5.629491457,3,-0.20350714111328125,-0.5602431884765625,-8.987833032226561,-4.458015267175573,-0.3053435114503817,-3.1603053435114505
3864941362794,5.649481977,3,-0.21308394775390624,-0.5374982727050781,-8.954314208984375,-4.442748091603053,-0.32061068702290074,-3.1526717557251906
3864961361336,5.669480519,3,-0.24779987182617186,-0.5434837768554687,-8.94473740234375,-4.419847328244275,-0.31297709923664124,-3.122137404580153
3864981330503,5.689449686,3,-0.19991583862304688,-0.5374982727050781,-8.959102612304687,-4.412213740458015,-0.3053435114503817,-3.1526717557251906
3865001384409,5.709503592,3,-0.20949264526367187,-0.5422866760253906,-8.919598284912109,-4.396946564885496,-0.32061068702290074,-3.1603053435114505
3865021369826,5.729489009,3,-0.2166752502441406,-0.5183446594238281,-8.93875189819336,-4.435114503816794,-0.3282442748091603,-3.1526717557251906
3865041316961,5.749436144,3,-0.20709844360351562,-0.5363011718749999,-8.997409838867187,-4.412213740458015,-0.32061068702290074,-3.1297709923664123
3865061375190,5.769494373,3,-0.229843359375,-0.5578489868164063,-8.917204083251953,-4.465648854961832,-0.32061068702290074,-3.114503816793893
3865081353471,5.789472654,3,-0.18914193115234373,-0.5434837768554687,-8.933963494873046,-4.396946564885496,-0.3053435114503817,-3.1297709923664123
3865101373836,5.809493019,3,-0.1927332336425781,-0.5386953735351562,-8.945934503173827,-4.427480916030534,-0.32061068702290074,-3.145038167938931
3865121370815,5.829489998,3,-0.19991583862304688,-0.5506663818359374,-8.927977990722656,-4.465648854961832,-0.31297709923664124,-3.1755725190839694
3865141317690,5.849436873,3,-0.19033903198242186,-0.5542576843261718,-8.957905511474609,-4.404580152671755,-0.2824427480916031,-3.145038167938931
3865161390659,5.869509842,3,-0.20709844360351562,-0.5374982727050781,-8.920795385742187,-4.396946564885496,-0.2748091603053435,-3.0916030534351147
3865181357951,5.889477134,3,-0.19871873779296872,-0.5363011718749999,-8.913612780761719,-4.458015267175573,-0.29770992366412213,-3.1297709923664123
3865201360034,5.909479217,3,-0.22744915771484372,-0.5374982727050781,-8.945934503173827,-4.374045801526718,-0.2900763358778626,-3.16793893129771
3865221350242,5.929469425,3,-0.1867477294921875,-0.5578489868164063,-8.960299713134765,-4.427480916030534,-0.33587786259541985,-3.1297709923664123
3865241358940,5.949478123,3,-0.21428104858398436,-0.5686228942871093,-8.9255837890625,-4.435114503816794,-0.2824427480916031,-3.1068702290076335
3865261368419,5.969487602,3,-0.21068974609375,-0.5279214660644531,-8.968679418945312,-4.3893129770992365,-0.2748091603053435,-3.122137404580153
3865281318159,5.989437342,3,-0.18435352783203124,-0.5494692810058593,-8.93755479736328,-4.412213740458015,-0.35877862595419846,-3.145038167938931
3865301319878,6.009439061,3,-0.20949264526367187,-0.5482721801757812,-8.930372192382812,-4.450381679389313,-0.3053435114503817,-3.1526717557251906
3865321369565,6.029488748,3,-0.2154781494140625,-0.5530605834960938,-8.954314208984375,-4.442748091603053,-0.25190839694656486,-3.1603053435114505
3865341362898,6.049482081,3,-0.2154781494140625,-0.5734112976074218,-8.96269391479492,-4.450381679389313,-0.3511450381679389,-3.1068702290076335
3865361322586,6.069441769,3,-0.24061726684570311,-0.5542576843261718,-8.968679418945312,-4.412213740458015,-0.33587786259541985,-3.1297709923664123
3865381427534,6.089546717,3,-0.19632453613281248,-0.5398924743652344,-8.967482318115234,-4.427480916030534,-0.3282442748091603,-3.145038167938931
3865401370034,6.109489217,3,-0.2166752502441406,-0.5446808776855468,-8.927977990722656,-4.458015267175573,-0.25190839694656486,-3.1297709923664123
3865421374357,6.12949354,3,-0.19512743530273435,-0.5470750793457031,-8.929175091552734,-4.435114503816794,-0.3435114503816794,-3.1068702290076335
3865441386596,6.149505779,3,-0.20350714111328125,-0.5291185668945312,-8.978256225585938,-4.419847328244275,-0.37404580152671757,-3.122137404580153
3865461376180,6.169495363,3,-0.2059013427734375,-0.5506663818359374,-8.933963494873046,-4.450381679389313,-0.35877862595419846,-3.2213740458015265
3865481282221,6.189401404,3,-0.19512743530273435,-0.5722141967773438,-8.919598284912109,-4.442748091603053,-0.33587786259541985,-3.1068702290076335
3865501403732,6.209522915,3,-0.21428104858398436,-0.5422866760253906,-8.987833032226561,-4.442748091603053,-0.32061068702290074,-3.145038167938931
3865521360086,6.229479269,3,-0.23582886352539062,-0.5087678527832031,-8.968679418945312,-4.419847328244275,-0.25190839694656486,-3.1908396946564888
3865541364669,6.249483852,3,-0.20470424194335937,-0.5422866760253906,-8.93875189819336,-4.480916030534351,-0.3282442748091603,-3.145038167938931
3865561343211,6.269462394,3,-0.19033903198242186,-0.5398924743652344,-8.959102612304687,-4.442748091603053,-0.33587786259541985,-3.1603053435114505
3865581368992,6.289488175,3,-0.18435352783203124,-0.5243301635742187,-8.935160595703124,-4.450381679389313,-0.3511450381679389,-3.1297709923664123
3865601398367,6.30951755,3,-0.19512743530273435,-0.5374982727050781,-8.929175091552734,-4.435114503816794,-0.3435114503816794,-3.122137404580153
3865621358732,6.329477915,3,-0.20709844360351562,-0.5351040710449219,-8.966285217285156,-4.435114503816794,-0.2900763358778626,-3.1297709923664123
3865641339565,6.349458748,3,-0.18435352783203124,-0.5231330627441406,-8.966285217285156,-4.442748091603053,-0.31297709923664124,-3.1603053435114505
3865661279825,6.369399008,3,-0.20829554443359374,-0.5291185668945312,-8.957905511474609,-4.473282442748092,-0.31297709923664124,-3.16793893129771
3865681368159,6.389487342,3,-0.19153613281249998,-0.5470750793457031,-8.914809881591797,-4.3893129770992365,-0.2900763358778626,-3.114503816793893
3865701409982,6.409529165,3,-0.21308394775390624,-0.5482721801757812,-8.959102612304687,-4.427480916030534,-0.2595419847328244,-3.1755725190839694
3865721367690,6.429486873,3,-0.201112939453125,-0.5219359619140624,-8.935160595703124,-4.427480916030534,-0.31297709923664124,-3.1755725190839694
3865741362586,6.449481769,3,-0.1927332336425781,-0.5374982727050781,-8.974664923095702,-4.458015267175573,-0.31297709923664124,-3.1068702290076335
3865761359252,6.469478435,3,-0.22505495605468748,-0.5374982727050781,-8.90643017578125,-4.3816793893129775,-0.31297709923664124,-3.122137404580153
3865781386180,6.489505363,3,-0.21787235107421873,-0.5327098693847656,-8.973467822265624,-4.404580152671755,-0.33587786259541985,-3.1603053435114505
3865801396284,6.509515467,3,-0.21906945190429686,-0.5614402893066406,-8.966285217285156,-4.450381679389313,-0.33587786259541985,-3.1755725190839694
3865821382742,6.529501925,3,-0.20949264526367187,-0.5267243652343749,-8.94473740234375,-4.473282442748092,-0.31297709923664124,-3.16793893129771
3865841360554,6.549479737,3,-0.2154781494140625,-0.5422866760253906,-8.93755479736328,-4.419847328244275,-0.29770992366412213,-3.122137404580153
3865861358836,6.569478019,3,-0.1867477294921875,-0.5410895751953124,-8.93755479736328,-4.465648854961832,-0.2824427480916031,-3.16793893129771
3865881361492,6.589480675,3,-0.19871873779296872,-0.5518634826660156,-8.93875189819336,-4.419847328244275,-0.3053435114503817,-3.145038167938931
3865901406388,6.609525571,3,-0.1927332336425781,-0.5590460876464843,-8.933963494873046,-4.427480916030534,-0.32061068702290074,-3.1374045801526718
3865921369877,6.62948906,3,-0.22505495605468748,-0.5398924743652344,-8.939948999023438,-4.442748091603053,-0.31297709923664124,-3.1068702290076335
3865941353471,6.649472654,3,-0.20949264526367187,-0.5494692810058593,-8.936357696533202,-4.427480916030534,-0.32061068702290074,-3.1755725190839694
3865961677482,6.669796665,3,-0.2059013427734375,-0.49320554199218747,-8.93875189819336,-4.427480916030534,-0.31297709923664124,-3.1755725190839694
3865981642377,6.68976156,3,-0.20231004028320312,-0.5327098693847656,-8.954314208984375,-4.374045801526718,-0.3435114503816794,-3.1603053435114505
3866001440607,6.70955979,3,-0.18914193115234373,-0.5327098693847656,-8.92438668823242,-4.427480916030534,-0.31297709923664124,-3.183206106870229
3866021413263,6.729532446,3,-0.2059013427734375,-0.5590460876464843,-8.91840118408203,-4.435114503816794,-0.3282442748091603,-3.122137404580153
3866041371752,6.749490935,3,-0.1927332336425781,-0.5398924743652344,-8.939948999023438,-4.396946564885496,-0.2900763358778626,-3.1603053435114505
3866061311023,6.769430206,3,-0.20231004028320312,-0.5243301635742187,-8.910021478271483,-4.4961832061068705,-0.25190839694656486,-3.145038167938931
3866081360554,6.789479737,3,-0.20350714111328125,-0.5279214660644531,-8.97705912475586,-4.419847328244275,-0.22900763358778625,-3.1374045801526718
3866101379044,6.809498227,3,-0.18315642700195311,-0.55545478515625,-8.941146099853515,-4.419847328244275,-0.33587786259541985,-3.1755725190839694
3866121311961,6.829431144,3,-0.21188684692382811,-0.5315127685546874,-8.961496813964843,-4.442748091603053,-0.32061068702290074,-3.1908396946564888
3866141265815,6.849384998,3,-0.201112939453125,-0.5315127685546874,-8.921992486572265,-4.450381679389313,-0.31297709923664124,-3.1908396946564888
3866161360190,6.869479373,3,-0.2059013427734375,-0.5482721801757812,-8.945934503173827,-4.442748091603053,-0.29770992366412213,-3.183206106870229
3866181374044,6.889493227,3,-0.1879448303222656,-0.5410895751953124,-8.923189587402343,-4.458015267175573,-0.31297709923664124,-3.145038167938931
3866201391075,6.909510258,3,-0.1975216369628906,-0.5446808776855468,-8.96987651977539,-4.3816793893129775,-0.32061068702290074,-3.122137404580153
3866221337690,6.929456873,3,-0.1867477294921875,-0.5279214660644531,-8.948328704833983,-4.412213740458015,-0.3053435114503817,-3.1526717557251906
3866241365086,6.949484269,3,-0.20470424194335937,-0.5422866760253906,-8.984241729736327,-4.404580152671755,-0.29770992366412213,-3.1526717557251906
3866261319044,6.969438227,3,-0.22744915771484372,-0.5458779785156249,-8.954314208984375,-4.404580152671755,-0.29770992366412213,-3.1297709923664123
3866281360971,6.989480154,3,-0.19632453613281248,-0.5063736511230469,-8.923189587402343,-4.435114503816794,-0.31297709923664124,-3.122137404580153
3866301391492,7.009510675,3,-0.1927332336425781,-0.5231330627441406,-8.942343200683593,-4.450381679389313,-0.366412213740458,-3.145038167938931
3866321353002,7.029472185,3,-0.20350714111328125,-0.5482721801757812,-8.975862023925782,-4.450381679389313,-0.3053435114503817,-3.183206106870229
3866341372950,7.049492133,3,-0.19871873779296872,-0.5614402893066406,-8.954314208984375,-4.3816793893129775,-0.3969465648854962,-3.145038167938931
3866361351492,7.069470675,3,-0.2166752502441406,-0.55545478515625,-8.973467822265624,-4.3816793893129775,-0.31297709923664124,-3.16793893129771
3866381349825,7.089469008,3,-0.1867477294921875,-0.5255272644042969,-8.981847528076171,-4.450381679389313,-0.3435114503816794,-3.1755725190839694
3866401387377,7.10950656,3,-0.23702596435546874,-0.5339069702148437,-8.981847528076171,-4.458015267175573,-0.29770992366412213,-3.16793893129771
3866421311179,7.129430362,3,-0.21428104858398436,-0.5542576843261718,-8.930372192382812,-4.458015267175573,-0.32061068702290074,-3.1526717557251906
3866441382638,7.149501821,3,-0.19991583862304688,-0.5410895751953124,-8.892064965820312,-4.442748091603053,-0.29770992366412213,-3.1374045801526718
3866461238836,7.169358019,3,-0.2214636535644531,-0.5374982727050781,-8.914809881591797,-4.396946564885496,-0.29770992366412213,-3.114503816793893
3866481369096,7.189488279,3,-0.21188684692382811,-0.5374982727050781,-8.93875189819336,-4.442748091603053,-0.26717557251908397,-3.114503816793893
3866501388888,7.209508071,3,-0.22026655273437498,-0.5374982727050781,-8.904035974121093,-4.435114503816794,-0.2748091603053435,-3.122137404580153
3866521419929,7.229539112,3,-0.19153613281249998,-0.5386953735351562,-8.960299713134765,-4.396946564885496,-0.32061068702290074,-3.1374045801526718
3866541380294,7.249499477,3,-0.22385785522460935,-0.5470750793457031,-8.942343200683593,-4.473282442748092,-0.31297709923664124,-3.16793893129771
3866561311075,7.269430258,3,-0.20350714111328125,-0.5410895751953124,-8.966285217285156,-4.488549618320611,-0.2900763358778626,-3.145038167938931
3866581378419,7.289497602,3,-0.20470424194335937,-0.5518634826660156,-8.93755479736328,-4.419847328244275,-0.2748091603053435,-3.1297709923664123
3866601413315,7.309532498,3,-0.23104046020507812,-0.5351040710449219,-8.907627276611327,-4.404580152671755,-0.32061068702290074,-3.1908396946564888
3866621401283,7.329520466,3,-0.239420166015625,-0.5578489868164063,-8.913612780761719,-4.3893129770992365,-0.35877862595419846,-3.1374045801526718
3866641364513,7.349483696,3,-0.18315642700195311,-0.5147533569335937,-8.93755479736328,-4.419847328244275,-0.3435114503816794,-3.1068702290076335
3866661242065,7.369361248,3,-0.19512743530273435,-0.5578489868164063,-8.966285217285156,-4.419847328244275,-0.31297709923664124,-3.1068702290076335
3866681355971,7.389475154,3,-0.21188684692382811,-0.5315127685546874,-8.95670841064453,-4.412213740458015,-0.3435114503816794,-3.1297709923664123
3866701369773,7.409488956,3,-0.20350714111328125,-0.5315127685546874,-8.920795385742187,-4.458015267175573,-0.2824427480916031,-3.145038167938931
3866721265398,7.429384581,3,-0.20470424194335937,-0.5291185668945312,-9.035717065429687,-4.450381679389313,-0.2595419847328244,-3.1526717557251906
3866741372950,7.449492133,3,-0.20949264526367187,-0.5327098693847656,-8.992621435546875,-4.450381679389313,-0.32061068702290074,-3.1603053435114505
3866761354252,7.469473435,3,-0.19033903198242186,-0.5363011718749999,-8.961496813964843,-4.480916030534351,-0.3511450381679389,-3.122137404580153
3866781315294,7.489434477,3,-0.20231004028320312,-0.5303156677246094,-8.92438668823242,-4.442748091603053,-0.33587786259541985,-3.1374045801526718
3866801365710,7.509484893,3,-0.2214636535644531,-0.5722141967773438,-8.942343200683593,-4.435114503816794,-0.32061068702290074,-3.1374045801526718
3866821357169,7.529476352,3,-0.1975216369628906,-0.5255272644042969,-8.8872765625,-4.435114503816794,-0.31297709923664124,-3.1374045801526718
3866841364148,7.549483331,3,-0.181959326171875,-0.5303156677246094,-8.960299713134765,-4.480916030534351,-0.26717557251908397,-3.1755725190839694
3866861381960,7.569501143,3,-0.1867477294921875,-0.5374982727050781,-8.911218579101561,-4.427480916030534,-0.31297709923664124,-3.1526717557251906
3866881355346,7.589474529,3,-0.19512743530273435,-0.5398924743652344,-8.966285217285156,-4.450381679389313,-0.31297709923664124,-3.1297709923664123
3866901376231,7.609495414,3,-0.18914193115234373,-0.5267243652343749,-8.926780889892578,-4.412213740458015,-0.3053435114503817,-3.099236641221374
3866921359877,7.62947906,3,-0.19991583862304688,-0.5434837768554687,-8.971073620605468,-4.427480916030534,-0.3511450381679389,-3.1755725190839694
3866941243158,7.649362341,3,-0.20350714111328125,-0.5482721801757812,-8.890867864990234,-4.450381679389313,-0.3511450381679389,-3.1603053435114505
3866961396023,7.669515206,3,-0.201112939453125,-0.5207388610839844,-8.93755479736328,-4.480916030534351,-0.2824427480916031,-3.1603053435114505
3866981371908,7.689491091,3,-0.239420166015625,-0.5434837768554687,-8.992621435546875,-4.465648854961832,-0.32061068702290074,-3.099236641221374
3867001363575,7.709482758,3,-0.1867477294921875,-0.5518634826660156,-8.945934503173827,-4.450381679389313,-0.2824427480916031,-3.145038167938931
3867021361335,7.729480518,3,-0.20709844360351562,-0.5566518859863281,-8.955511309814453,-4.427480916030534,-0.25190839694656486,-3.099236641221374
3867041310867,7.74943005,3,-0.1879448303222656,-0.5482721801757812,-8.979453326416015,-4.427480916030534,-0.31297709923664124,-3.1374045801526718
3867061369721,7.769488904,3,-0.21787235107421873,-0.5398924743652344,-8.896853369140624,-4.458015267175573,-0.29770992366412213,-3.1374045801526718
3867081354096,7.789473279,3,-0.20470424194335937,-0.5482721801757812,-8.941146099853515,-4.473282442748092,-0.3282442748091603,-3.1603053435114505
3867101316023,7.809435206,3,-0.21906945190429686,-0.5339069702148437,-8.967482318115234,-4.488549618320611,-0.31297709923664124,-3.1526717557251906
3867121312637,7.82943182,3,-0.20231004028320312,-0.5303156677246094,-8.951920007324219,-4.442748091603053,-0.33587786259541985,-3.1526717557251906
3867141364460,7.849483643,3,-0.18315642700195311,-0.5303156677246094,-8.950722906494141,-4.404580152671755,-0.2900763358778626,-3.145038167938931
3867161288835,7.869408018,3,-0.1867477294921875,-0.5291185668945312,-8.981847528076171,-4.450381679389313,-0.3282442748091603,-3.1068702290076335
3867181383991,7.889503174,3,-0.21906945190429686,-0.5087678527832031,-8.93156929321289,-4.442748091603053,-0.32061068702290074,-3.122137404580153
3867201347429,7.909466612,3,-0.19153613281249998,-0.5219359619140624,-8.989030133056641,-4.419847328244275,-0.31297709923664124,-3.1526717557251906
3867221366648,7.929485831,3,-0.22864625854492185,-0.5374982727050781,-8.945934503173827,-4.419847328244275,-0.33587786259541985,-3.1374045801526718
3867241358939,7.949478122,3,-0.19991583862304688,-0.5686228942871093,-8.957905511474609,-4.3893129770992365,-0.33587786259541985,-3.1526717557251906
3867261317585,7.969436768,3,-0.21787235107421873,-0.5470750793457031,-8.954314208984375,-4.412213740458015,-0.2824427480916031,-3.099236641221374
3867281315294,7.989434477,3,-0.201112939453125,-0.5494692810058593,-8.908824377441405,-4.419847328244275,-0.32061068702290074,-3.1297709923664123
3867301354408,8.009473591,3,-0.20709844360351562,-0.5578489868164063,-8.921992486572265,-4.442748091603053,-0.29770992366412213,-3.1297709923664123
3867321318314,8.029437497,3,-0.229843359375,-0.5267243652343749,-8.953117108154297,-4.3893129770992365,-0.33587786259541985,-3.1297709923664123
3867341367169,8.049486352,3,-0.19393033447265623,-0.5398924743652344,-8.991424334716797,-4.419847328244275,-0.2824427480916031,-3.1068702290076335
3867361419512,8.069538695,3,-0.19512743530273435,-0.5566518859863281,-8.957905511474609,-4.465648854961832,-0.31297709923664124,-3.1297709923664123
3867381402168,8.089521351,3,-0.18914193115234373,-0.5422866760253906,-8.932766394042968,-4.427480916030534,-0.3511450381679389,-3.1297709923664123
3867401384512,8.109503695,3,-0.20949264526367187,-0.5410895751953124,-8.967482318115234,-4.427480916030534,-0.2824427480916031,-3.1374045801526718
3867421391491,8.129510674,3,-0.19871873779296872,-0.5363011718749999,-8.916006982421875,-4.427480916030534,-0.29770992366412213,-3.122137404580153
3867441390762,8.149509945,3,-0.201112939453125,-0.5422866760253906,-8.968679418945312,-4.404580152671755,-0.2900763358778626,-3.1297709923664123
3867461357012,8.169476195,3,-0.1975216369628906,-0.5853823059082031,-8.95670841064453,-4.412213740458015,-0.3282442748091603,-3.1526717557251906
3867481350346,8.189469529,3,-0.20350714111328125,-0.5458779785156249,-8.953117108154297,-4.465648854961832,-0.2748091603053435,-3.1068702290076335
3867501424043,8.209543226,3,-0.19393033447265623,-0.5434837768554687,-8.94473740234375,-4.435114503816794,-0.3282442748091603,-3.145038167938931
3867521389512,8.229508695,3,-0.201112939453125,-0.5434837768554687,-8.963891015625,-4.435114503816794,-0.31297709923664124,-3.183206106870229
3867541372793,8.249491976,3,-0.19512743530273435,-0.5602431884765625,-8.954314208984375,-4.435114503816794,-0.2595419847328244,-3.183206106870229
3867561374616,8.269493799,3,-0.21428104858398436,-0.5315127685546874,-8.927977990722656,-4.412213740458015,-0.32061068702290074,-3.145038167938931
3867581384512,8.289503695,3,-0.20829554443359374,-0.5470750793457031,-9.006986645507812,-4.427480916030534,-0.2900763358778626,-3.122137404580153
3867601385345,8.309504528,3,-0.18914193115234373,-0.5398924743652344,-8.950722906494141,-4.374045801526718,-0.33587786259541985,-3.1603053435114505
3867621383575,8.329502758,3,-0.22385785522460935,-0.5398924743652344,-8.945934503173827,-4.427480916030534,-0.3053435114503817,-3.1526717557251906
3867641389720,8.349508903,3,-0.2214636535644531,-0.5446808776855468,-8.967482318115234,-4.419847328244275,-0.32061068702290074,-3.1603053435114505
3867661388991,8.369508174,3,-0.17357962036132812,-0.5291185668945312,-8.936357696533202,-4.412213740458015,-0.3511450381679389,-3.145038167938931
3867681264408,8.389383591,3,-0.201112939453125,-0.5482721801757812,-8.93875189819336,-4.419847328244275,-0.2824427480916031,-3.16793893129771
3867701386179,8.409505362,3,-0.19991583862304688,-0.5410895751953124,-8.919598284912109,-4.450381679389313,-0.32061068702290074,-3.183206106870229
3867721399252,8.429518435,3,-0.21068974609375,-0.5255272644042969,-8.92438668823242,-4.442748091603053,-0.32061068702290074,-3.1526717557251906
3867741374304,8.449493487,3,-0.2166752502441406,-0.5363011718749999,-8.93755479736328,-4.442748091603053,-0.3282442748091603,-3.1755725190839694
3867761386804,8.469505987,3,-0.201112939453125,-0.5518634826660156,-8.93156929321289,-4.419847328244275,-0.31297709923664124,-3.122137404580153
3867781374772,8.489493955,3,-0.2262520568847656,-0.5207388610839844,-8.950722906494141,-4.473282442748092,-0.32061068702290074,-3.16793893129771
3867801378106,8.509497289,3,-0.20231004028320312,-0.5339069702148437,-8.941146099853515,-4.412213740458015,-0.3053435114503817,-3.16793893129771
3867821432012,8.529551195,3,-0.18315642700195311,-0.5327098693847656,-8.98304462890625,-4.404580152671755,-0.2824427480916031,-3.1755725190839694
3867841418783,8.549537966,3,-0.21428104858398436,-0.5339069702148437,-8.904035974121093,-4.450381679389313,-0.31297709923664124,-3.1374045801526718
3867861391960,8.569511143,3,-0.18914193115234373,-0.5363011718749999,-8.957905511474609,-4.419847328244275,-0.3053435114503817,-3.1297709923664123
3867881375241,8.589494424,3,-0.21188684692382811,-0.5111620544433594,-8.96987651977539,-4.419847328244275,-0.3282442748091603,-3.145038167938931
3867901380502,8.609499685,3,-0.20829554443359374,-0.5758054992675781,-8.90044467163086,-4.3893129770992365,-0.32061068702290074,-3.1374045801526718
3867921416283,8.629535466,3,-0.1927332336425781,-0.5470750793457031,-8.866925848388671,-4.412213740458015,-0.3282442748091603,-3.1374045801526718
3867941384147,8.64950333,3,-0.21906945190429686,-0.5494692810058593,-8.974664923095702,-4.450381679389313,-0.3511450381679389,-3.1068702290076335
3867961267220,8.669386403,3,-0.19512743530273435,-0.5590460876464843,-8.984241729736327,-4.442748091603053,-0.33587786259541985,-3.1374045801526718
3867981383158,8.689502341,3,-0.18435352783203124,-0.5315127685546874,-8.930372192382812,-4.419847328244275,-0.31297709923664124,-3.1374045801526718
3868001359147,8.70947833,3,-0.20829554443359374,-0.5470750793457031,-8.913612780761719,-4.366412213740458,-0.2824427480916031,-3.16793893129771
3868021706699,8.729825882,3,-0.20829554443359374,-0.5327098693847656,-8.957905511474609,-4.404580152671755,-0.29770992366412213,-3.1908396946564888
3868041305189,8.749424372,3,-0.21308394775390624,-0.5422866760253906,-8.910021478271483,-4.450381679389313,-0.33587786259541985,-3.1374045801526718
3868061364043,8.769483226,3,-0.1975216369628906,-0.5039794494628906,-8.954314208984375,-4.419847328244275,-0.29770992366412213,-3.1297709923664123
3868081321231,8.789440414,3,-0.20231004028320312,-0.5410895751953124,-8.942343200683593,-4.4961832061068705,-0.2824427480916031,-3.1603053435114505
3868101359304,8.809478487,3,-0.20829554443359374,-0.5805939025878906,-8.95670841064453,-4.412213740458015,-0.2748091603053435,-3.1755725190839694
3868121351283,8.829470466,3,-0.19153613281249998,-0.5351040710449219,-8.981847528076171,-4.404580152671755,-0.2900763358778626,-3.198473282442748
3868141308262,8.849427445,3,-0.1927332336425781,-0.5530605834960938,-8.955511309814453,-4.427480916030534,-0.31297709923664124,-3.114503816793893
3868161359304,8.869478487,3,-0.22266075439453123,-0.5410895751953124,-8.943540301513671,-4.442748091603053,-0.3435114503816794,-3.122137404580153
3868181350554,8.889469737,3,-0.19991583862304688,-0.5446808776855468,-8.89326206665039,-4.435114503816794,-0.3053435114503817,-3.122137404580153
3868201381804,8.909500987,3,-0.20829554443359374,-0.5518634826660156,-8.981847528076171,-4.366412213740458,-0.3053435114503817,-3.183206106870229
3868221286491,8.929405674,3,-0.1879448303222656,-0.5255272644042969,-8.955511309814453,-4.442748091603053,-0.33587786259541985,-3.1603053435114505
3868241360658,8.949479841,3,-0.201112939453125,-0.5410895751953124,-8.957905511474609,-4.450381679389313,-0.32061068702290074,-3.145038167938931
3868261361699,8.969480882,3,-0.19871873779296872,-0.5386953735351562,-8.957905511474609,-4.435114503816794,-0.3282442748091603,-3.1297709923664123
3868281317116,8.989436299,3,-0.24181436767578124,-0.5303156677246094,-8.961496813964843,-4.435114503816794,-0.33587786259541985,-3.122137404580153
3868301353001,9.009472184,3,-0.20829554443359374,-0.5303156677246094,-8.941146099853515,-4.396946564885496,-0.33587786259541985,-3.1374045801526718
3868321360606,9.029479789,3,-0.19991583862304688,-0.5363011718749999,-8.901641772460938,-4.412213740458015,-0.33587786259541985,-3.1526717557251906
3868341307897,9.04942708,3,-0.20231004028320312,-0.5363011718749999,-8.910021478271483,-4.442748091603053,-0.29770992366412213,-3.1755725190839694
3868361375658,9.069494841,3,-0.22744915771484372,-0.5518634826660156,-8.992621435546875,-4.465648854961832,-0.3816793893129771,-3.145038167938931
3868381312585,9.089431768,3,-0.22026655273437498,-0.5303156677246094,-8.949525805664061,-4.427480916030534,-0.32061068702290074,-3.114503816793893
3868401311647,9.10943083,3,-0.1927332336425781,-0.5506663818359374,-8.957905511474609,-4.412213740458015,-0.2824427480916031,-3.145038167938931
3868421354356,9.129473539,3,-0.16998831787109375,-0.5590460876464843,-8.930372192382812,-4.396946564885496,-0.2824427480916031,-3.16793893129771
3868441313210,9.149432393,3,-0.18914193115234373,-0.5267243652343749,-8.93755479736328,-4.412213740458015,-0.2900763358778626,-3.1908396946564888
3868461353314,9.169472497,3,-0.21308394775390624,-0.55545478515625,-8.950722906494141,-4.427480916030534,-0.29770992366412213,-3.145038167938931
3868481356074,9.189475257,3,-0.20350714111328125,-0.5446808776855468,-8.95670841064453,-4.427480916030534,-0.29770992366412213,-3.1374045801526718
3868501312064,9.209431247,3,-0.2154781494140625,-0.5614402893066406,-8.939948999023438,-4.442748091603053,-0.32061068702290074,-3.1526717557251906
3868521423991,9.229543174,3,-0.20231004028320312,-0.5494692810058593,-8.943540301513671,-4.343511450381679,-0.3053435114503817,-3.16793893129771
3868541378574,9.249497757,3,-0.181959326171875,-0.5386953735351562,-8.959102612304687,-4.3816793893129775,-0.33587786259541985,-3.1755725190839694
3868561370033,9.269489216,3,-0.2262520568847656,-0.5327098693847656,-8.963891015625,-4.427480916030534,-0.3282442748091603,-3.1297709923664123
3868581316543,9.289435726,3,-0.19393033447265623,-0.5195417602539062,-8.929175091552734,-4.374045801526718,-0.3435114503816794,-3.122137404580153
3868601376387,9.30949557,3,-0.21188684692382811,-0.5578489868164063,-8.916006982421875,-4.366412213740458,-0.3893129770992366,-3.16793893129771
3868621401231,9.329520414,3,-0.20949264526367187,-0.5279214660644531,-8.927977990722656,-4.450381679389313,-0.3282442748091603,-3.1374045801526718
3868641320710,9.349439893,3,-0.20350714111328125,-0.5303156677246094,-8.955511309814453,-4.488549618320611,-0.31297709923664124,-3.122137404580153
3868661323418,9.369442601,3,-0.229843359375,-0.5219359619140624,-8.971073620605468,-4.450381679389313,-0.3511450381679389,-3.1755725190839694
3868681312012,9.389431195,3,-0.19153613281249998,-0.5458779785156249,-8.961496813964843,-4.427480916030534,-0.3053435114503817,-3.1603053435114505
3868701320501,9.409439684,3,-0.22026655273437498,-0.5482721801757812,-8.929175091552734,-4.465648854961832,-0.33587786259541985,-3.1755725190839694
3868721381543,9.429500726,3,-0.18315642700195311,-0.5542576843261718,-8.8872765625,-4.3893129770992365,-0.3053435114503817,-3.2061068702290076
3868741314824,9.449434007,3,-0.1927332336425781,-0.5626373901367188,-8.91840118408203,-4.427480916030534,-0.2824427480916031,-3.1526717557251906
3868761359616,9.469478799,3,-0.22026655273437498,-0.5386953735351562,-8.929175091552734,-4.442748091603053,-0.2900763358778626,-3.1603053435114505
3868781311960,9.489431143,3,-0.19033903198242186,-0.5386953735351562,-8.967482318115234,-4.412213740458015,-0.3511450381679389,-3.1603053435114505
3868801363835,9.509483018,3,-0.22026655273437498,-0.5434837768554687,-8.94473740234375,-4.435114503816794,-0.3435114503816794,-3.099236641221374
3868821399668,9.529518851,3,-0.1927332336425781,-0.5506663818359374,-8.94473740234375,-4.465648854961832,-0.3435114503816794,-3.2061068702290076
3868841326699,9.549445882,3,-0.17836802368164062,-0.5446808776855468,-8.93755479736328,-4.450381679389313,-0.3511450381679389,-3.1374045801526718
3868861320866,9.569440049,3,-0.201112939453125,-0.5255272644042969,-8.960299713134765,-4.435114503816794,-0.32061068702290074,-3.145038167938931
3868881369303,9.589488486,3,-0.20470424194335937,-0.5159504577636719,-8.945934503173827,-4.404580152671755,-0.3511450381679389,-3.16793893129771
3868901312480,9.609431663,3,-0.19153613281249998,-0.5363011718749999,-8.932766394042968,-4.419847328244275,-0.3282442748091603,-3.198473282442748
3868921404147,9.62952333,3,-0.19871873779296872,-0.5494692810058593,-8.949525805664061,-4.458015267175573,-0.33587786259541985,-3.1297709923664123
3868941303053,9.649422236,3,-0.21906945190429686,-0.5279214660644531,-8.935160595703124,-4.419847328244275,-0.3282442748091603,-3.1297709923664123
3868961362532,9.669481715,3,-0.23223756103515625,-0.5518634826660156,-8.912415679931641,-4.3893129770992365,-0.35877862595419846,-3.114503816793893
3868981311439,9.689430622,3,-0.21308394775390624,-0.5386953735351562,-8.951920007324219,-4.412213740458015,-0.2824427480916031,-3.1297709923664123
3869001357532,9.709476715,3,-0.22026655273437498,-0.5279214660644531,-8.971073620605468,-4.442748091603053,-0.3053435114503817,-3.122137404580153
3869021358991,9.729478174,3,-0.22026655273437498,-0.5315127685546874,-8.967482318115234,-4.480916030534351,-0.31297709923664124,-3.16793893129771
3869041353730,9.749472913,3,-0.2262520568847656,-0.5470750793457031,-8.98304462890625,-4.412213740458015,-0.33587786259541985,-3.1526717557251906
3869061317376,9.769436559,3,-0.18315642700195311,-0.5602431884765625,-8.877699755859375,-4.442748091603053,-0.3282442748091603,-3.1374045801526718
3869081314564,9.789433747,3,-0.23343466186523437,-0.5374982727050781,-8.89326206665039,-4.412213740458015,-0.2900763358778626,-3.122137404580153
3869101313418,9.809432601,3,-0.21068974609375,-0.5315127685546874,-8.919598284912109,-4.427480916030534,-0.3282442748091603,-3.1068702290076335
3869121373470,9.829492653,3,-0.2154781494140625,-0.5303156677246094,-8.949525805664061,-4.465648854961832,-0.32061068702290074,-3.1526717557251906
3869141351959,9.849471142,3,-0.22505495605468748,-0.5470750793457031,-8.916006982421875,-4.435114503816794,-0.2900763358778626,-3.145038167938931
3869161365709,9.869484892,3,-0.22026655273437498,-0.5374982727050781,-8.963891015625,-4.450381679389313,-0.31297709923664124,-3.122137404580153
3869181302689,9.889421872,3,-0.19871873779296872,-0.5351040710449219,-8.904035974121093,-4.419847328244275,-0.3435114503816794,-3.1068702290076335
3869201275293,9.909394476,3,-0.20829554443359374,-0.5315127685546874,-8.97705912475586,-4.427480916030534,-0.2900763358778626,-3.1297709923664123
3869221361022,9.929480205,3,-0.20949264526367187,-0.5374982727050781,-8.999804040527343,-4.396946564885496,-0.3053435114503817,-3.1755725190839694
3869241328105,9.949447288,3,-0.1975216369628906,-0.5626373901367188,-8.965088116455078,-4.435114503816794,-0.2748091603053435,-3.1297709923664123
3869261385449,9.969504632,3,-0.19033903198242186,-0.5255272644042969,-9.0021982421875,-4.442748091603053,-0.25190839694656486,-3.099236641221374
3869281357272,9.989476455,3,-0.1927332336425781,-0.5243301635742187,-8.986635931396483,-4.412213740458015,-0.29770992366412213,-3.122137404580153
3869301312168,10.009431351,3,-0.21308394775390624,-0.5530605834960938,-8.955511309814453,-4.366412213740458,-0.35877862595419846,-3.145038167938931
3869321370970,10.029490153,3,-0.22505495605468748,-0.5578489868164063,-8.968679418945312,-4.404580152671755,-0.24427480916030533,-3.1526717557251906
3869341313470,10.049432653,3,-0.18914193115234373,-0.5374982727050781,-8.943540301513671,-4.442748091603053,-0.31297709923664124,-3.122137404580153
3869361366439,10.069485622,3,-0.1975216369628906,-0.5482721801757812,-8.939948999023438,-4.419847328244275,-0.33587786259541985,-3.145038167938931
3869381310345,10.089429528,3,-0.20949264526367187,-0.5374982727050781,-8.972270721435546,-4.442748091603053,-0.3053435114503817,-3.122137404580153
3869401411595,10.109530778,3,-0.18914193115234373,-0.565031591796875,-8.948328704833983,-4.358778625954199,-0.3282442748091603,-3.1755725190839694
3869421395136,10.129514319,3,-0.23702596435546874,-0.5386953735351562,-8.93875189819336,-4.3893129770992365,-0.3435114503816794,-3.1908396946564888
3869441367220,10.149486403,3,-0.2262520568847656,-0.5494692810058593,-8.987833032226561,-4.427480916030534,-0.2748091603053435,-3.1603053435114505
3869461366230,10.169485413,3,-0.20709844360351562,-0.5446808776855468,-8.90643017578125,-4.419847328244275,-0.33587786259541985,-3.1297709923664123
3869481314303,10.189433486,3,-0.20231004028320312,-0.5422866760253906,-8.935160595703124,-4.412213740458015,-0.3053435114503817,-3.1374045801526718
3869501240449,10.209359632,3,-0.21787235107421873,-0.5710170959472656,-8.954314208984375,-4.419847328244275,-0.32061068702290074,-3.198473282442748
3869521413314,10.229532497,3,-0.22744915771484372,-0.5398924743652344,-8.950722906494141,-4.412213740458015,-0.3282442748091603,-3.16793893129771
3869541371022,10.249490205,3,-0.20949264526367187,-0.5351040710449219,-8.961496813964843,-4.412213740458015,-0.33587786259541985,-3.145038167938931
3869561368938,10.269488121,3,-0.18435352783203124,-0.5602431884765625,-8.949525805664061,-4.396946564885496,-0.366412213740458,-3.114503816793893
3869581314303,10.289433486,3,-0.20829554443359374,-0.5494692810058593,-8.919598284912109,-4.419847328244275,-0.2824427480916031,-3.1068702290076335
3869601358157,10.30947734,3,-0.20350714111328125,-0.5386953735351562,-8.968679418945312,-4.427480916030534,-0.3435114503816794,-3.145038167938931
3869621312376,10.329431559,3,-0.2154781494140625,-0.5602431884765625,-8.949525805664061,-4.435114503816794,-0.366412213740458,-3.183206106870229
3869641352532,10.349471715,3,-0.19991583862304688,-0.5422866760253906,-8.943540301513671,-4.450381679389313,-0.26717557251908397,-3.145038167938931
3869661253470,10.369372653,3,-0.21188684692382811,-0.5351040710449219,-8.9255837890625,-4.450381679389313,-0.35877862595419846,-3.0763358778625953
3869681315345,10.389434528,3,-0.20231004028320312,-0.5410895751953124,-8.966285217285156,-4.442748091603053,-0.3435114503816794,-3.1297709923664123
3869701294303,10.409413486,3,-0.19033903198242186,-0.5386953735351562,-8.971073620605468,-4.465648854961832,-0.32061068702290074,-3.1526717557251906
3869721403105,10.429522288,3,-0.18315642700195311,-0.565031591796875,-8.986635931396483,-4.3893129770992365,-0.3053435114503817,-3.1526717557251906
3869741312688,10.449431871,3,-0.2059013427734375,-0.5530605834960938,-8.933963494873046,-4.366412213740458,-0.2824427480916031,-3.122137404580153
3869761366178,10.469485361,3,-0.20350714111328125,-0.5434837768554687,-8.939948999023438,-4.442748091603053,-0.3435114503816794,-3.1068702290076335
3869781296022,10.489415205,3,-0.201112939453125,-0.5374982727050781,-8.941146099853515,-4.419847328244275,-0.3053435114503817,-3.1297709923664123
3869801349303,10.509468486,3,-0.20949264526367187,-0.5482721801757812,-8.953117108154297,-4.488549618320611,-0.31297709923664124,-3.1755725190839694
3869821361907,10.52948109,3,-0.20231004028320312,-0.5674257934570313,-8.960299713134765,-4.435114503816794,-0.2900763358778626,-3.183206106870229
3869841367428,10.549486611,3,-0.19393033447265623,-0.5207388610839844,-8.973467822265624,-4.427480916030534,-0.32061068702290074,-3.1603053435114505
3869861305345,10.569424528,3,-0.20470424194335937,-0.5231330627441406,-8.950722906494141,-4.404580152671755,-0.29770992366412213,-3.1297709923664123
3869881317480,10.589436663,3,-0.18555062866210936,-0.5518634826660156,-8.942343200683593,-4.435114503816794,-0.31297709923664124,-3.1374045801526718
3869901365136,10.609484319,3,-0.201112939453125,-0.5506663818359374,-8.957905511474609,-4.450381679389313,-0.2748091603053435,-3.1297709923664123
3869921543418,10.629662601,3,-0.19393033447265623,-0.5195417602539062,-8.948328704833983,-4.450381679389313,-0.2900763358778626,-3.1603053435114505
3869941340709,10.649459892,3,-0.21787235107421873,-0.5422866760253906,-8.945934503173827,-4.427480916030534,-0.2824427480916031,-3.16793893129771
3869961368938,10.669488121,3,-0.20231004028320312,-0.5255272644042969,-8.936357696533202,-4.427480916030534,-0.31297709923664124,-3.1297709923664123
3869981262115,10.689381298,3,-0.20470424194335937,-0.5195417602539062,-8.930372192382812,-4.419847328244275,-0.29770992366412213,-3.114503816793893
3870001405345,10.709524528,3,-0.2059013427734375,-0.5470750793457031,-8.943540301513671,-4.396946564885496,-0.31297709923664124,-3.1297709923664123
3870021399407,10.72951859,3,-0.21787235107421873,-0.5470750793457031,-8.943540301513671,-4.396946564885496,-0.35877862595419846,-3.183206106870229
3870041394407,10.74951359,3,-0.20231004028320312,-0.5410895751953124,-8.94473740234375,-4.3816793893129775,-0.2900763358778626,-3.145038167938931
3870061384667,10.76950385,3,-0.19871873779296872,-0.5566518859863281,-8.954314208984375,-4.427480916030534,-0.32061068702290074,-3.1297709923664123
3870081386855,10.789506038,3,-0.17836802368164062,-0.5434837768554687,-8.923189587402343,-4.419847328244275,-0.3511450381679389,-3.16793893129771
3870101390136,10.809509319,3,-0.20350714111328125,-0.55545478515625,-8.935160595703124,-4.412213740458015,-0.32061068702290074,-3.145038167938931
3870121398365,10.829517548,3,-0.22505495605468748,-0.5482721801757812,-8.947131604003905,-4.435114503816794,-0.3053435114503817,-3.1297709923664123
3870141390813,10.849509996,3,-0.18076222534179687,-0.5243301635742187,-8.926780889892578,-4.396946564885496,-0.33587786259541985,-3.183206106870229
3870161397063,10.869516246,3,-0.1927332336425781,-0.5351040710449219,-8.949525805664061,-4.427480916030534,-0.3282442748091603,-3.16793893129771
3870181374355,10.889493538,3,-0.19512743530273435,-0.5291185668945312,-8.926780889892578,-4.3816793893129775,-0.31297709923664124,-3.1526717557251906
3870201402636,10.909521819,3,-0.16519991455078123,-0.5470750793457031,-8.943540301513671,-4.427480916030534,-0.32061068702290074,-3.145038167938931
3870221388417,10.9295076,3,-0.20709844360351562,-0.5470750793457031,-8.933963494873046,-4.404580152671755,-0.3053435114503817,-3.1068702290076335
3870241411907,10.94953109,3,-0.1867477294921875,-0.5422866760253906,-8.929175091552734,-4.412213740458015,-0.26717557251908397,-3.114503816793893
3870261389042,10.969508225,3,-0.19991583862304688,-0.5518634826660156,-8.971073620605468,-4.450381679389313,-0.33587786259541985,-3.1068702290076335
3870281397532,10.989516715,3,-0.21906945190429686,-0.5374982727050781,-8.942343200683593,-4.458015267175573,-0.2824427480916031,-3.1526717557251906
3870301403990,11.009523173,3,-0.22385785522460935,-0.5315127685546874,-8.933963494873046,-4.419847328244275,-0.2824427480916031,-3.1374045801526718
3870321397740,11.029516923,3,-0.21428104858398436,-0.5458779785156249,-8.923189587402343,-4.412213740458015,-0.31297709923664124,-3.122137404580153
3870341407949,11.049527132,3,-0.20709844360351562,-0.5446808776855468,-8.933963494873046,-4.419847328244275,-0.32061068702290074,-3.1526717557251906
3870361392376,11.069511559,3,-0.2166752502441406,-0.5386953735351562,-8.921992486572265,-4.3816793893129775,-0.3053435114503817,-3.122137404580153
3870381380397,11.08949958,3,-0.20470424194335937,-0.5626373901367188,-8.93156929321289,-4.419847328244275,-0.32061068702290074,-3.1374045801526718
3870401399094,11.109518277,3,-0.21906945190429686,-0.5279214660644531,-8.942343200683593,-4.442748091603053,-0.31297709923664124,-3.0763358778625953
3870421397792,11.129516975,3,-0.19153613281249998,-0.5279214660644531,-8.948328704833983,-4.419847328244275,-0.3435114503816794,-3.1297709923664123
3870441378001,11.149497184,3,-0.20949264526367187,-0.5243301635742187,-8.90643017578125,-4.412213740458015,-0.33587786259541985,-3.1374045801526718
3870461388105,11.169507288,3,-0.19033903198242186,-0.5446808776855468,-8.943540301513671,-4.458015267175573,-0.3282442748091603,-3.1374045801526718
3870481386074,11.189505257,3,-0.18315642700195311,-0.5374982727050781,-8.912415679931641,-4.3816793893129775,-0.3511450381679389,-3.1603053435114505
3870501393834,11.209513017,3,-0.2059013427734375,-0.5734112976074218,-8.971073620605468,-4.473282442748092,-0.37404580152671757,-3.1908396946564888
3870521400917,11.2295201,3,-0.22385785522460935,-0.5386953735351562,-8.901641772460938,-4.404580152671755,-0.366412213740458,-3.1603053435114505
3870541485865,11.249605048,3,-0.21188684692382811,-0.5494692810058593,-8.9255837890625,-4.458015267175573,-0.33587786259541985,-3.1374045801526718
3870561406126,11.269525309,3,-0.21068974609375,-0.5446808776855468,-8.933963494873046,-4.450381679389313,-0.3053435114503817,-3.1526717557251906
3870581403469,11.289522652,3,-0.22026655273437498,-0.5446808776855468,-8.930372192382812,-4.419847328244275,-0.2900763358778626,-3.16793893129771
3870601388521,11.309507704,3,-0.2154781494140625,-0.5398924743652344,-8.919598284912109,-4.3893129770992365,-0.31297709923664124,-3.145038167938931
3870621395136,11.329514319,3,-0.201112939453125,-0.5303156677246094,-8.913612780761719,-4.442748091603053,-0.3816793893129771,-3.145038167938931
3870641578209,11.349697392,3,-0.22744915771484372,-0.5518634826660156,-8.960299713134765,-4.412213740458015,-0.33587786259541985,-3.114503816793893
3870661395709,11.369514892,3,-0.20949264526367187,-0.55545478515625,-8.96987651977539,-4.404580152671755,-0.3282442748091603,-3.1526717557251906
3870681364303,11.389483486,3,-0.18076222534179687,-0.5722141967773438,-8.98304462890625,-4.450381679389313,-0.3282442748091603,-3.122137404580153
3870701407271,11.409526454,3,-0.1927332336425781,-0.5626373901367188,-8.953117108154297,-4.450381679389313,-0.29770992366412213,-3.1297709923664123
3870721375344,11.429494527,3,-0.19393033447265623,-0.5422866760253906,-8.959102612304687,-4.458015267175573,-0.29770992366412213,-3.1068702290076335
3870741360396,11.449479579,3,-0.20829554443359374,-0.5351040710449219,-8.935160595703124,-4.396946564885496,-0.25190839694656486,-3.16793893129771
3870761319407,11.46943859,3,-0.2059013427734375,-0.5386953735351562,-8.966285217285156,-4.419847328244275,-0.2900763358778626,-3.1603053435114505
3870781271751,11.489390934,3,-0.19033903198242186,-0.5506663818359374,-8.965088116455078,-4.404580152671755,-0.3282442748091603,-3.145038167938931
3870801366855,11.509486038,3,-0.19153613281249998,-0.5339069702148437,-8.967482318115234,-4.358778625954199,-0.3282442748091603,-3.1755725190839694
3870821308573,11.529427756,3,-0.19033903198242186,-0.5363011718749999,-8.955511309814453,-4.419847328244275,-0.3053435114503817,-3.1603053435114505
3870841379667,11.54949885,3,-0.20470424194335937,-0.5398924743652344,-8.920795385742187,-4.427480916030534,-0.3511450381679389,-3.114503816793893
3870861312740,11.569431923,3,-0.19393033447265623,-0.5494692810058593,-8.93755479736328,-4.450381679389313,-0.33587786259541985,-3.16793893129771
3870881355969,11.589475152,3,-0.201112939453125,-0.5207388610839844,-8.92438668823242,-4.412213740458015,-0.31297709923664124,-3.1755725190839694
3870901307636,11.609426819,3,-0.19393033447265623,-0.5291185668945312,-8.948328704833983,-4.412213740458015,-0.3511450381679389,-3.1526717557251906
3870921352532,11.629471715,3,-0.22385785522460935,-0.5219359619140624,-8.951920007324219,-4.442748091603053,-0.29770992366412213,-3.198473282442748
3870941403313,11.649522496,3,-0.21188684692382811,-0.5494692810058593,-8.95670841064453,-4.450381679389313,-0.2900763358778626,-3.1526717557251906
3870961357428,11.669476611,3,-0.21428104858398436,-0.5374982727050781,-8.943540301513671,-4.458015267175573,-0.3511450381679389,-3.1526717557251906
3870981875657,11.68999484,3,-0.19153613281249998,-0.5434837768554687,-8.950722906494141,-4.427480916030534,-0.3282442748091603,-3.183206106870229
3871001401386,11.709520569,3,-0.16519991455078123,-0.5482721801757812,-8.949525805664061,-4.412213740458015,-0.31297709923664124,-3.16793893129771
3871021388313,11.729507496,3,-0.1975216369628906,-0.5422866760253906,-8.972270721435546,-4.3893129770992365,-0.2900763358778626,-3.1603053435114505
3871041428625,11.749547808,3,-0.19393033447265623,-0.5518634826660156,-8.929175091552734,-4.435114503816794,-0.3053435114503817,-3.16793893129771
3871061378521,11.769497704,3,-0.19871873779296872,-0.5410895751953124,-8.972270721435546,-4.412213740458015,-0.31297709923664124,-3.145038167938931
3871081379094,11.789498277,3,-0.20829554443359374,-0.5363011718749999,-8.947131604003905,-4.3816793893129775,-0.2824427480916031,-3.145038167938931
3871101371125,11.809490308,3,-0.22026655273437498,-0.5386953735351562,-8.949525805664061,-4.419847328244275,-0.32061068702290074,-3.145038167938931
3871121384667,11.82950385,3,-0.1927332336425781,-0.5303156677246094,-8.935160595703124,-4.419847328244275,-0.37404580152671757,-3.1755725190839694
3871141435344,11.849554527,3,-0.17118541870117188,-0.5458779785156249,-8.930372192382812,-4.427480916030534,-0.3435114503816794,-3.1374045801526718
3871161403417,11.8695226,3,-0.20470424194335937,-0.5698199951171875,-8.960299713134765,-4.465648854961832,-0.3511450381679389,-3.16793893129771
3871181355448,11.889474631,3,-0.19871873779296872,-0.5470750793457031,-8.949525805664061,-4.427480916030534,-0.31297709923664124,-3.1374045801526718
3871201397375,11.909516558,3,-0.21428104858398436,-0.5339069702148437,-8.943540301513671,-4.412213740458015,-0.31297709923664124,-3.099236641221374
3871221472271,11.929591454,3,-0.21308394775390624,-0.5638344909667968,-8.911218579101561,-4.458015267175573,-0.33587786259541985,-3.1603053435114505
3871241400917,11.9495201,3,-0.17477672119140625,-0.5422866760253906,-8.954314208984375,-4.427480916030534,-0.2824427480916031,-3.145038167938931
3871261320552,11.969439735,3,-0.201112939453125,-0.5219359619140624,-8.923189587402343,-4.442748091603053,-0.2900763358778626,-3.122137404580153
3871281386386,11.989505569,3,-0.2154781494140625,-0.55545478515625,-8.921992486572265,-4.412213740458015,-0.32061068702290074,-3.122137404580153
3871301397844,12.009517027,3,-0.19153613281249998,-0.5446808776855468,-8.986635931396483,-4.3816793893129775,-0.24427480916030533,-3.145038167938931
3871321378938,12.029498121,3,-0.2166752502441406,-0.5410895751953124,-8.916006982421875,-4.3816793893129775,-0.26717557251908397,-3.122137404580153
3871341383157,12.04950234,3,-0.1975216369628906,-0.55545478515625,-8.949525805664061,-4.412213740458015,-0.33587786259541985,-3.068702290076336
3871361384042,12.069503225,3,-0.201112939453125,-0.5410895751953124,-8.93875189819336,-4.3893129770992365,-0.3511450381679389,-3.145038167938931
3871381385865,12.089505048,3,-0.20709844360351562,-0.5518634826660156,-8.950722906494141,-4.412213740458015,-0.32061068702290074,-3.1374045801526718
3871401408261,12.109527444,3,-0.201112939453125,-0.5291185668945312,-8.94473740234375,-4.3893129770992365,-0.31297709923664124,-3.122137404580153
3871421403417,12.1295226,3,-0.1975216369628906,-0.5327098693847656,-8.953117108154297,-4.396946564885496,-0.3053435114503817,-3.0916030534351147
3871441393052,12.149512235,3,-0.201112939453125,-0.5410895751953124,-8.94473740234375,-4.435114503816794,-0.3282442748091603,-3.1297709923664123
3871461380969,12.169500152,3,-0.16759411621093748,-0.5422866760253906,-8.967482318115234,-4.3893129770992365,-0.31297709923664124,-3.114503816793893
3871481384875,12.189504058,3,-0.2262520568847656,-0.5315127685546874,-8.941146099853515,-4.442748091603053,-0.2900763358778626,-3.145038167938931
3871501386750,12.209505933,3,-0.18076222534179687,-0.5422866760253906,-8.927977990722656,-4.480916030534351,-0.32061068702290074,-3.16793893129771
3871521417688,12.229536871,3,-0.21428104858398436,-0.5303156677246094,-8.951920007324219,-4.442748091603053,-0.32061068702290074,-3.1526717557251906
3871541403000,12.249522183,3,-0.1867477294921875,-0.5434837768554687,-8.945934503173827,-4.404580152671755,-0.2595419847328244,-3.183206106870229
3871561373573,12.269492756,3,-0.22505495605468748,-0.5722141967773438,-8.927977990722656,-4.419847328244275,-0.35877862595419846,-3.1297709923664123
3871581301229,12.289420412,3,-0.18435352783203124,-0.5398924743652344,-8.968679418945312,-4.3893129770992365,-0.33587786259541985,-3.122137404580153
3871601400084,12.309519267,3,-0.21188684692382811,-0.5805939025878906,-8.914809881591797,-4.442748091603053,-0.3282442748091603,-3.16793893129771
3871621373990,12.329493173,3,-0.20709844360351562,-0.5351040710449219,-8.968679418945312,-4.473282442748092,-0.29770992366412213,-3.1603053435114505
3871641403625,12.349522808,3,-0.22505495605468748,-0.5434837768554687,-8.92438668823242,-4.419847328244275,-0.3053435114503817,-3.1908396946564888
3871661612896,12.369732079,3,-0.22505495605468748,-0.5470750793457031,-8.93755479736328,-4.404580152671755,-0.3435114503816794,-3.1755725190839694
3871681306959,12.389426142,3,-0.20231004028320312,-0.5195417602539062,-8.892064965820312,-4.412213740458015,-0.3282442748091603,-3.1755725190839694
3871701373156,12.409492339,3,-0.201112939453125,-0.5398924743652344,-8.950722906494141,-4.396946564885496,-0.32061068702290074,-3.1297709923664123
3871721383156,12.429502339,3,-0.20231004028320312,-0.5267243652343749,-8.953117108154297,-4.488549618320611,-0.3282442748091603,-3.183206106870229
3871741443104,12.449562287,3,-0.1867477294921875,-0.5363011718749999,-8.917204083251953,-4.458015267175573,-0.3053435114503817,-3.16793893129771
3871761401021,12.469520204,3,-0.22026655273437498,-0.5530605834960938,-8.896853369140624,-4.427480916030534,-0.32061068702290074,-3.1374045801526718
3871781373729,12.489492912,3,-0.21308394775390624,-0.5410895751953124,-8.913612780761719,-4.458015267175573,-0.3053435114503817,-3.1297709923664123
3871801362115,12.509481298,3,-0.18914193115234373,-0.5267243652343749,-8.943540301513671,-4.473282442748092,-0.35877862595419846,-3.1526717557251906
3871821374875,12.529494058,3,-0.18076222534179687,-0.5422866760253906,-8.95670841064453,-4.412213740458015,-0.32061068702290074,-3.122137404580153
3871841433729,12.549552912,3,-0.18914193115234373,-0.5530605834960938,-8.923189587402343,-4.412213740458015,-0.2900763358778626,-3.1603053435114505
3871861398156,12.569517339,3,-0.21428104858398436,-0.5458779785156249,-8.954314208984375,-4.450381679389313,-0.2900763358778626,-3.114503816793893
3871881390761,12.589509944,3,-0.21188684692382811,-0.5374982727050781,-8.913612780761719,-4.442748091603053,-0.32061068702290074,-3.1297709923664123
3871901388886,12.609508069,3,-0.2059013427734375,-0.5243301635742187,-8.945934503173827,-4.427480916030534,-0.31297709923664124,-3.099236641221374
3871921394458,12.629513641,3,-0.19512743530273435,-0.5542576843261718,-8.920795385742187,-4.419847328244275,-0.2824427480916031,-3.1755725190839694
3871941392010,12.649511193,3,-0.1867477294921875,-0.5530605834960938,-8.96269391479492,-4.3893129770992365,-0.29770992366412213,-3.1526717557251906
3871961396229,12.669515412,3,-0.23223756103515625,-0.5183446594238281,-8.92438668823242,-4.427480916030534,-0.3282442748091603,-3.1526717557251906
3871981389354,12.689508537,3,-0.19871873779296872,-0.5805939025878906,-8.954314208984375,-4.450381679389313,-0.2748091603053435,-3.1755725190839694
3872001390240,12.709509423,3,-0.20470424194335937,-0.565031591796875,-8.948328704833983,-4.3893129770992365,-0.2824427480916031,-3.1908396946564888
3872021372167,12.72949135,3,-0.19512743530273435,-0.5351040710449219,-8.926780889892578,-4.442748091603053,-0.29770992366412213,-3.1526717557251906
3872041359198,12.749478381,3,-0.20709844360351562,-0.5255272644042969,-8.971073620605468,-4.396946564885496,-0.2748091603053435,-3.1374045801526718
3872061240240,12.769359423,3,-0.19153613281249998,-0.5422866760253906,-8.987833032226561,-4.419847328244275,-0.3053435114503817,-3.1526717557251906
3872081380552,12.789499735,3,-0.23223756103515625,-0.5422866760253906,-8.916006982421875,-4.412213740458015,-0.3053435114503817,-3.16793893129771
3872101358625,12.809477808,3,-0.21308394775390624,-0.5410895751953124,-8.9255837890625,-4.419847328244275,-0.33587786259541985,-3.1755725190839694
3872121363573,12.829482756,3,-0.1975216369628906,-0.5327098693847656,-8.948328704833983,-4.412213740458015,-0.37404580152671757,-3.1297709923664123
3872141360500,12.849479683,3,-0.20470424194335937,-0.5698199951171875,-8.93755479736328,-4.473282442748092,-0.3435114503816794,-3.16793893129771
3872161381333,12.869500516,3,-0.2166752502441406,-0.5363011718749999,-8.93156929321289,-4.427480916030534,-0.3053435114503817,-3.1526717557251906
3872181359146,12.889478329,3,-0.201112939453125,-0.5327098693847656,-8.929175091552734,-4.412213740458015,-0.2824427480916031,-3.1526717557251906
3872201361542,12.909480725,3,-0.24301146850585936,-0.5111620544433594,-8.96987651977539,-4.427480916030534,-0.29770992366412213,-3.1068702290076335
3872221317375,12.929436558,3,-0.2154781494140625,-0.5315127685546874,-8.933963494873046,-4.435114503816794,-0.32061068702290074,-3.183206106870229
3872241374510,12.949493693,3,-0.19033903198242186,-0.5578489868164063,-8.939948999023438,-4.458015267175573,-0.33587786259541985,-3.1603053435114505
3872261358052,12.969477235,3,-0.19632453613281248,-0.5279214660644531,-8.939948999023438,-4.458015267175573,-0.3435114503816794,-3.1068702290076335
3872281331125,12.989450308,3,-0.1975216369628906,-0.5566518859863281,-8.959102612304687,-4.435114503816794,-0.366412213740458,-3.122137404580153
3872301362896,13.009482079,3,-0.2059013427734375,-0.5518634826660156,-8.951920007324219,-4.419847328244275,-0.3053435114503817,-3.0916030534351147
3872321371698,13.029490881,3,-0.18555062866210936,-0.5255272644042969,-8.984241729736327,-4.404580152671755,-0.2748091603053435,-3.16793893129771
3872341367740,13.049486923,3,-0.19033903198242186,-0.5303156677246094,-8.972270721435546,-4.442748091603053,-0.3053435114503817,-3.145038167938931
3872361365917,13.0694851,3,-0.1975216369628906,-0.5410895751953124,-8.968679418945312,-4.404580152671755,-0.3053435114503817,-3.099236641221374
3872381362219,13.089481402,3,-0.22744915771484372,-0.5590460876464843,-8.9255837890625,-4.419847328244275,-0.31297709923664124,-3.122137404580153
3872401357583,13.109476766,3,-0.20470424194335937,-0.5698199951171875,-8.932766394042968,-4.412213740458015,-0.3282442748091603,-3.1526717557251906
3872421342271,13.129461454,3,-0.18914193115234373,-0.5614402893066406,-8.913612780761719,-4.435114503816794,-0.3053435114503817,-3.16793893129771
3872441366958,13.149486141,3,-0.19632453613281248,-0.5566518859863281,-8.957905511474609,-4.442748091603053,-0.2748091603053435,-3.122137404580153
3872461374667,13.16949385,3,-0.1975216369628906,-0.5386953735351562,-8.89924757080078,-4.480916030534351,-0.3053435114503817,-3.1603053435114505
3872481385864,13.189505047,3,-0.21308394775390624,-0.5542576843261718,-8.910021478271483,-4.396946564885496,-0.3053435114503817,-3.1297709923664123
3872501362375,13.209481558,3,-0.20231004028320312,-0.5494692810058593,-8.959102612304687,-4.366412213740458,-0.31297709923664124,-3.145038167938931
3872521426281,13.229545464,3,-0.19991583862304688,-0.5530605834960938,-8.921992486572265,-4.374045801526718,-0.32061068702290074,-3.1526717557251906
3872541378364,13.249497547,3,-0.22266075439453123,-0.5386953735351562,-8.941146099853515,-4.404580152671755,-0.35877862595419846,-3.145038167938931
3872561386594,13.269505777,3,-0.19393033447265623,-0.5327098693847656,-8.923189587402343,-4.465648854961832,-0.2748091603053435,-3.1755725190839694
3872581366854,13.289486037,3,-0.19632453613281248,-0.5374982727050781,-8.943540301513671,-4.458015267175573,-0.29770992366412213,-3.1526717557251906
3872601270864,13.309390047,3,-0.18914193115234373,-0.5578489868164063,-8.955511309814453,-4.442748091603053,-0.29770992366412213,-3.145038167938931
3872621382166,13.329501349,3,-0.23104046020507812,-0.5434837768554687,-8.933963494873046,-4.427480916030534,-0.31297709923664124,-3.1297709923664123
3872641418781,13.349537964,3,-0.22026655273437498,-0.5207388610839844,-8.950722906494141,-4.419847328244275,-0.3282442748091603,-3.1755725190839694
3872661387948,13.369507131,3,-0.21308394775390624,-0.5386953735351562,-8.942343200683593,-4.3893129770992365,-0.3053435114503817,-3.1603053435114505
3872681360448,13.389479631,3,-0.20231004028320312,-0.5578489868164063,-8.936357696533202,-4.419847328244275,-0.2595419847328244,-3.198473282442748
3872701372896,13.409492079,3,-0.22864625854492185,-0.5446808776855468,-8.93156929321289,-4.450381679389313,-0.2748091603053435,-3.1526717557251906
3872721381646,13.429500829,3,-0.19512743530273435,-0.5470750793457031,-8.975862023925782,-4.427480916030534,-0.2824427480916031,-3.1374045801526718
3872741366541,13.449485724,3,-0.229843359375,-0.5626373901367188,-8.892064965820312,-4.404580152671755,-0.3053435114503817,-3.145038167938931
3872761390291,13.469509474,3,-0.1867477294921875,-0.5422866760253906,-8.929175091552734,-4.3816793893129775,-0.32061068702290074,-3.1297709923664123
3872781370135,13.489489318,3,-0.1879448303222656,-0.5386953735351562,-8.935160595703124,-4.419847328244275,-0.3282442748091603,-3.1374045801526718
3872801365396,13.509484579,3,-0.19153613281249998,-0.5195417602539062,-8.95670841064453,-4.435114503816794,-0.366412213740458,-3.114503816793893
3872821363937,13.52948312,3,-0.21906945190429686,-0.5410895751953124,-8.93755479736328,-4.412213740458015,-0.3053435114503817,-3.1526717557251906
3872841407271,13.549526454,3,-0.20709844360351562,-0.5183446594238281,-8.920795385742187,-4.412213740458015,-0.3282442748091603,-3.1068702290076335
3872861394250,13.569513433,3,-0.17836802368164062,-0.5398924743652344,-8.948328704833983,-4.374045801526718,-0.31297709923664124,-3.099236641221374
3872881362635,13.589481818,3,-0.1975216369628906,-0.5434837768554687,-8.951920007324219,-4.412213740458015,-0.3282442748091603,-3.1374045801526718
3872901354510,13.609473693,3,-0.20231004028320312,-0.5422866760253906,-8.930372192382812,-4.427480916030534,-0.3511450381679389,-3.122137404580153
3872921265864,13.629385047,3,-0.21428104858398436,-0.5327098693847656,-8.957905511474609,-4.480916030534351,-0.3053435114503817,-3.1526717557251906
3872941312166,13.649431349,3,-0.19033903198242186,-0.5111620544433594,-8.960299713134765,-4.404580152671755,-0.35877862595419846,-3.1526717557251906
3872961365968,13.669485151,3,-0.20470424194335937,-0.5363011718749999,-8.968679418945312,-4.419847328244275,-0.24427480916030533,-3.1374045801526718
3872981311281,13.689430464,3,-0.21787235107421873,-0.5470750793457031,-8.910021478271483,-4.396946564885496,-0.25190839694656486,-3.145038167938931
3873001352218,13.709471401,3,-0.20709844360351562,-0.5386953735351562,-8.973467822265624,-4.412213740458015,-0.2824427480916031,-3.099236641221374
3873021352114,13.729471297,3,-0.18914193115234373,-0.5386953735351562,-8.990227233886719,-4.419847328244275,-0.29770992366412213,-3.145038167938931
3873041358052,13.749477235,3,-0.18555062866210936,-0.5351040710449219,-8.923189587402343,-4.419847328244275,-0.26717557251908397,-3.1526717557251906
3873061361802,13.769480985,3,-0.19991583862304688,-0.5303156677246094,-8.95670841064453,-4.396946564885496,-0.32061068702290074,-3.145038167938931
3873081287635,13.789406818,3,-0.19871873779296872,-0.5386953735351562,-8.984241729736327,-4.442748091603053,-0.3435114503816794,-3.145038167938931
3873101365291,13.809484474,3,-0.21787235107421873,-0.5135562561035156,-8.929175091552734,-4.450381679389313,-0.32061068702290074,-3.099236641221374
3873121366645,13.829485828,3,-0.1771709228515625,-0.5386953735351562,-8.949525805664061,-4.3816793893129775,-0.2595419847328244,-3.1526717557251906
3873141297114,13.849416297,3,-0.20231004028320312,-0.5303156677246094,-8.93875189819336,-4.435114503816794,-0.31297709923664124,-3.1526717557251906
3873161364562,13.869483745,3,-0.2262520568847656,-0.5291185668945312,-8.917204083251953,-4.3893129770992365,-0.3053435114503817,-3.1068702290076335
3873181346645,13.889465828,3,-0.2154781494140625,-0.5626373901367188,-8.917204083251953,-4.358778625954199,-0.2748091603053435,-3.114503816793893
3873201365760,13.909484943,3,-0.20829554443359374,-0.5518634826660156,-8.961496813964843,-4.374045801526718,-0.3282442748091603,-3.1526717557251906
3873221353156,13.929472339,3,-0.22266075439453123,-0.5111620544433594,-8.955511309814453,-4.404580152671755,-0.32061068702290074,-3.1374045801526718
3873241349145,13.949468328,3,-0.21308394775390624,-0.5315127685546874,-8.945934503173827,-4.404580152671755,-0.2748091603053435,-3.16793893129771
3873261313781,13.969432964,3,-0.2154781494140625,-0.5458779785156249,-8.94473740234375,-4.427480916030534,-0.2748091603053435,-3.099236641221374
3873281353312,13.989472495,3,-0.21188684692382811,-0.5446808776855468,-8.966285217285156,-4.366412213740458,-0.31297709923664124,-3.1297709923664123
3873301310604,14.009429787,3,-0.22266075439453123,-0.5434837768554687,-8.948328704833983,-4.358778625954199,-0.35877862595419846,-3.1374045801526718
3873321377739,14.029496922,3,-0.201112939453125,-0.5410895751953124,-8.948328704833983,-4.450381679389313,-0.366412213740458,-3.1908396946564888
3873341276802,14.049395985,3,-0.19393033447265623,-0.5482721801757812,-8.955511309814453,-4.404580152671755,-0.29770992366412213,-3.1374045801526718
3873361358520,14.069477703,3,-0.229843359375,-0.5722141967773438,-8.986635931396483,-4.404580152671755,-0.31297709923664124,-3.1297709923664123
3873381316802,14.089435985,3,-0.18315642700195311,-0.5315127685546874,-8.93755479736328,-4.427480916030534,-0.31297709923664124,-3.145038167938931
3873401313937,14.10943312,3,-0.21787235107421873,-0.55545478515625,-8.910021478271483,-4.396946564885496,-0.32061068702290074,-3.1603053435114505
3873421412895,14.129532078,3,-0.20350714111328125,-0.5195417602539062,-8.942343200683593,-4.435114503816794,-0.2900763358778626,-3.1374045801526718
3873441388312,14.149507495,3,-0.16759411621093748,-0.5530605834960938,-8.96269391479492,-4.435114503816794,-0.29770992366412213,-3.1297709923664123
3873461369614,14.169488797,3,-0.21308394775390624,-0.5339069702148437,-8.971073620605468,-4.435114503816794,-0.2824427480916031,-3.122137404580153
3873481310187,14.18942937,3,-0.21188684692382811,-0.5434837768554687,-8.90643017578125,-4.465648854961832,-0.29770992366412213,-3.1603053435114505
3873501352999,14.209472182,3,-0.18076222534179687,-0.5327098693847656,-8.919598284912109,-4.427480916030534,-0.3282442748091603,-3.145038167938931
3873521356697,14.22947588,3,-0.2166752502441406,-0.5458779785156249,-8.917204083251953,-4.435114503816794,-0.3435114503816794,-3.114503816793893
3873541398364,14.249517547,3,-0.1975216369628906,-0.5422866760253906,-8.957905511474609,-4.396946564885496,-0.3053435114503817,-3.1068702290076335
3873561383468,14.269502651,3,-0.17836802368164062,-0.5482721801757812,-8.941146099853515,-4.404580152671755,-0.26717557251908397,-3.1297709923664123
3873581309510,14.289428693,3,-0.22505495605468748,-0.565031591796875,-8.945934503173827,-4.374045801526718,-0.2900763358778626,-3.1297709923664123
3873601363677,14.30948286,3,-0.18914193115234373,-0.5494692810058593,-8.96269391479492,-4.442748091603053,-0.32061068702290074,-3.1374045801526718
3873621306697,14.32942588,3,-0.17597382202148437,-0.5482721801757812,-8.916006982421875,-4.5038167938931295,-0.33587786259541985,-3.1755725190839694
3873641372687,14.34949187,3,-0.17357962036132812,-0.5482721801757812,-8.93755479736328,-4.458015267175573,-0.366412213740458,-3.16793893129771
3873661354510,14.369473693,3,-0.20829554443359374,-0.5470750793457031,-8.961496813964843,-4.419847328244275,-0.2748091603053435,-3.122137404580153
3873681369145,14.389488328,3,-0.20709844360351562,-0.5183446594238281,-8.943540301513671,-4.465648854961832,-0.3053435114503817,-3.1297709923664123
3873701354926,14.409474109,3,-0.21428104858398436,-0.5231330627441406,-8.94473740234375,-4.427480916030534,-0.3282442748091603,-3.1755725190839694
3873721319406,14.429438589,3,-0.20350714111328125,-0.5506663818359374,-8.943540301513671,-4.435114503816794,-0.29770992366412213,-3.114503816793893
3873741291281,14.449410464,3,-0.19153613281249998,-0.5279214660644531,-8.998606939697265,-4.473282442748092,-0.2748091603053435,-3.1297709923664123
3873761394666,14.469513849,3,-0.20829554443359374,-0.51714755859375,-8.959102612304687,-4.458015267175573,-0.2748091603053435,-3.099236641221374
3873781314979,14.489434162,3,-0.19512743530273435,-0.5470750793457031,-8.929175091552734,-4.435114503816794,-0.2824427480916031,-3.1374045801526718
3873801321176,14.509440359,3,-0.21308394775390624,-0.5518634826660156,-8.910021478271483,-4.396946564885496,-0.2595419847328244,-3.16793893129771
3873821376385,14.529495568,3,-0.1867477294921875,-0.5374982727050781,-8.972270721435546,-4.396946564885496,-0.29770992366412213,-3.099236641221374
3873841367114,14.549486297,3,-0.20829554443359374,-0.5231330627441406,-8.919598284912109,-4.374045801526718,-0.3282442748091603,-3.16793893129771
3873861409197,14.56952838,3,-0.2154781494140625,-0.5530605834960938,-8.912415679931641,-4.427480916030534,-0.2900763358778626,-3.1374045801526718
3873881321437,14.58944062,3,-0.19991583862304688,-0.5446808776855468,-8.943540301513671,-4.458015267175573,-0.31297709923664124,-3.1068702290076335
3873901312062,14.609431245,3,-0.22505495605468748,-0.5255272644042969,-8.985438830566405,-4.427480916030534,-0.32061068702290074,-3.1374045801526718
3873921366801,14.629485984,3,-0.20709844360351562,-0.5434837768554687,-8.953117108154297,-4.435114503816794,-0.29770992366412213,-3.1908396946564888
3873941313468,14.649432651,3,-0.21906945190429686,-0.5506663818359374,-8.929175091552734,-4.419847328244275,-0.31297709923664124,-3.1603053435114505
3873961315343,14.669434526,3,-0.20949264526367187,-0.5147533569335937,-8.88607946166992,-4.442748091603053,-0.3053435114503817,-3.1374045801526718
3873981368781,14.689487964,3,-0.19033903198242186,-0.5410895751953124,-8.930372192382812,-4.450381679389313,-0.3053435114503817,-3.114503816793893
3874001341749,14.709460932,3,-0.22026655273437498,-0.5566518859863281,-8.914809881591797,-4.412213740458015,-0.3053435114503817,-3.1297709923664123
3874021631124,14.729750307,3,-0.1771709228515625,-0.5327098693847656,-8.92438668823242,-4.435114503816794,-0.3053435114503817,-3.114503816793893
3874041388364,14.749507547,3,-0.2346317626953125,-0.5506663818359374,-8.933963494873046,-4.488549618320611,-0.31297709923664124,-3.1374045801526718
3874061366228,14.769485411,3,-0.2262520568847656,-0.5602431884765625,-8.942343200683593,-4.465648854961832,-0.32061068702290074,-3.1374045801526718
3874081366228,14.789485411,3,-0.1879448303222656,-0.5410895751953124,-8.936357696533202,-4.473282442748092,-0.31297709923664124,-3.1755725190839694
3874101311697,14.80943088,3,-0.22266075439453123,-0.5255272644042969,-8.919598284912109,-4.412213740458015,-0.2900763358778626,-3.16793893129771
3874121355968,14.829475151,3,-0.21308394775390624,-0.5470750793457031,-8.943540301513671,-4.3816793893129775,-0.35877862595419846,-3.1526717557251906
3874141317947,14.84943713,3,-0.1927332336425781,-0.5303156677246094,-8.95670841064453,-4.419847328244275,-0.366412213740458,-3.145038167938931
3874161288208,14.869407391,3,-0.21068974609375,-0.5446808776855468,-8.961496813964843,-4.427480916030534,-0.26717557251908397,-3.1297709923664123
3874181364822,14.889484005,3,-0.21188684692382811,-0.5494692810058593,-8.961496813964843,-4.427480916030534,-0.29770992366412213,-3.1297709923664123
3874201269718,14.909388901,3,-0.20949264526367187,-0.5327098693847656,-8.967482318115234,-4.435114503816794,-0.2824427480916031,-3.114503816793893
3874221356697,14.92947588,3,-0.19512743530273435,-0.5494692810058593,-8.961496813964843,-4.396946564885496,-0.3435114503816794,-3.1526717557251906
3874241393260,14.949512443,3,-0.20709844360351562,-0.5698199951171875,-8.98304462890625,-4.435114503816794,-0.32061068702290074,-3.1526717557251906
3874261389562,14.969508745,3,-0.21428104858398436,-0.5494692810058593,-8.933963494873046,-4.396946564885496,-0.3282442748091603,-3.1374045801526718
3874281320447,14.98943963,3,-0.20470424194335937,-0.5351040710449219,-8.93875189819336,-4.3816793893129775,-0.3435114503816794,-3.183206106870229
3874301311749,15.009430932,3,-0.1975216369628906,-0.5327098693847656,-8.945934503173827,-4.3893129770992365,-0.3435114503816794,-3.1526717557251906
3874321317635,15.029436818,3,-0.20709844360351562,-0.55545478515625,-8.968679418945312,-4.480916030534351,-0.26717557251908397,-3.1603053435114505
3874341373885,15.049493068,3,-0.17956512451171874,-0.55545478515625,-8.945934503173827,-4.450381679389313,-0.26717557251908397,-3.16793893129771
3874361357739,15.069476922,3,-0.2059013427734375,-0.51714755859375,-8.941146099853515,-4.412213740458015,-0.35877862595419846,-3.1374045801526718
3874381360343,15.089479526,3,-0.19991583862304688,-0.5422866760253906,-8.935160595703124,-4.442748091603053,-0.32061068702290074,-3.1374045801526718
3874401341645,15.109460828,3,-0.20829554443359374,-0.5638344909667968,-8.916006982421875,-4.412213740458015,-0.2900763358778626,-3.1297709923664123
3874421308832,15.129428015,3,-0.20470424194335937,-0.5374982727050781,-8.963891015625,-4.435114503816794,-0.3053435114503817,-3.099236641221374
3874441350655,15.149469838,3,-0.2166752502441406,-0.5374982727050781,-8.939948999023438,-4.412213740458015,-0.2900763358778626,-3.099236641221374
3874461313520,15.169432703,3,-0.19991583862304688,-0.5458779785156249,-8.912415679931641,-4.427480916030534,-0.31297709923664124,-3.1068702290076335
