timestamp_ns,t_s,sensor_id,ax,ay,az,gx,gy,gz
3859475904776,0.184023959,1,0.23343466186523437,1.7202338928222656,-11.203666668701171,-0.8015267175572519,0.5725190839694656,-1.2900763358778626
3859495864567,0.20398375,1,0.2561795776367187,1.7393875061035156,-11.186907257080078,-0.816793893129771,0.5419847328244275,-1.3282442748091603
3859515853109,0.223972292,1,0.23223756103515625,1.7202338928222656,-11.162965240478515,-0.8396946564885496,0.6106870229007634,-1.3358778625954197
3859535855974,0.243975157,1,0.23223756103515625,1.734599102783203,-11.200075366210937,-0.8549618320610687,0.549618320610687,-1.366412213740458
3859555855349,0.263974532,1,0.201112939453125,1.7106570861816406,-11.17254204711914,-0.8396946564885496,0.549618320610687,-1.3053435114503817
3859575855505,0.283974688,1,0.21068974609375,1.7190367919921874,-11.200075366210937,-0.8244274809160306,0.5572519083969466,-1.3282442748091603
3859595853942,0.303973125,1,0.2166752502441406,1.7190367919921874,-11.154585534667968,-0.8091603053435115,0.5572519083969466,-1.3282442748091603
3859615854099,0.323973282,1,0.2346317626953125,1.7166425903320313,-11.182118853759764,-0.816793893129771,0.549618320610687,-1.3282442748091603
3859635854828,0.343974011,1,0.2214636535644531,1.7417817077636717,-11.176133349609374,-0.8473282442748091,0.5801526717557252,-1.282442748091603
3859655853474,0.363972657,1,0.24181436767578124,1.697488977050781,-11.213243475341796,-0.816793893129771,0.5801526717557252,-1.297709923664122
3859675855140,0.383974323,1,0.2154781494140625,1.7298106994628906,-11.18571015625,-0.8320610687022901,0.5954198473282443,-1.3206106870229009
3859695853317,0.4039725,1,0.23104046020507812,1.7238251953125,-11.215637677001952,-0.8625954198473282,0.5419847328244275,-1.3282442748091603
3859715852588,0.423971771,1,0.23104046020507812,1.7262193969726563,-11.215637677001952,-0.8625954198473282,0.5419847328244275,-1.3129770992366412
3859735853734,0.443972917,1,0.21188684692382811,1.7286135986328124,-11.19169566040039,-0.8396946564885496,0.5648854961832062,-1.3053435114503817
3859755853578,0.463972761,1,0.23104046020507812,1.7166425903320313,-11.19887826538086,-0.8549618320610687,0.5877862595419847,-1.3282442748091603
3859775851755,0.483970938,1,0.229843359375,1.7082628845214842,-11.202469567871093,-0.8625954198473282,0.5267175572519084,-1.3282442748091603
3859795854359,0.503973542,1,0.23343466186523437,1.7166425903320313,-11.183315954589844,-0.8396946564885496,0.5801526717557252,-1.3129770992366412
3859815854671,0.523973854,1,0.21906945190429686,1.734599102783203,-11.213243475341796,-0.8015267175572519,0.5572519083969466,-1.3206106870229009
3859835853265,0.543972448,1,0.2262520568847656,1.7310078002929687,-11.192892761230468,-0.8396946564885496,0.6259541984732825,-1.3206106870229009
3859855856078,0.563975261,1,0.24181436767578124,1.7298106994628906,-11.202469567871093,-0.816793893129771,0.5877862595419847,-1.3206106870229009
3859875854828,0.583974011,1,0.22505495605468748,1.7262193969726563,-11.167753643798827,-0.8396946564885496,0.5725190839694656,-1.3129770992366412
3859895852953,0.603972136,1,0.23702596435546874,1.715445489501953,-11.184513055419922,-0.8549618320610687,0.549618320610687,-1.3053435114503817
3859915857692,0.623976875,1,0.24301146850585936,1.744175909423828,-11.221623181152344,-0.8549618320610687,0.6030534351145038,-1.3282442748091603
3859935853942,0.643973125,1,0.23822306518554687,1.7310078002929687,-11.18571015625,-0.8473282442748091,0.6030534351145038,-1.3358778625954197
3859955854203,0.663973386,1,0.20350714111328125,1.7513585144042967,-11.17254204711914,-0.8473282442748091,0.5419847328244275,-1.3129770992366412
3859975852484,0.683971667,1,0.2154781494140625,1.7417817077636717,-11.177330450439452,-0.8549618320610687,0.5954198473282443,-1.3511450381679388
3859995853682,0.703972865,1,0.22026655273437498,1.7214309936523438,-11.19169566040039,-0.8778625954198473,0.6106870229007634,-1.3587786259541985
3860015855765,0.723974948,1,0.23582886352539062,1.7322049011230467,-11.218031878662108,-0.8549618320610687,0.5725190839694656,-1.3587786259541985
3860035855192,0.743974375,1,0.22505495605468748,1.707065783691406,-11.195286962890624,-0.8396946564885496,0.5572519083969466,-1.297709923664122
3860055856338,0.763975521,1,0.20350714111328125,1.7118541870117185,-11.197681164550781,-0.8778625954198473,0.5343511450381679,-1.3282442748091603
3860075854359,0.783973542,1,0.20709844360351562,1.7322049011230467,-11.204863769531249,-0.8702290076335878,0.5954198473282443,-1.3282442748091603
3860095853682,0.803972865,1,0.22266075439453123,1.725022296142578,-11.139023223876952,-0.816793893129771,0.5419847328244275,-1.3358778625954197
3860115854932,0.823974115,1,0.22385785522460935,1.7286135986328124,-11.231199987792968,-0.8015267175572519,0.5267175572519084,-1.3206106870229009
3860135852692,0.843971875,1,0.23822306518554687,1.7106570861816406,-11.15338843383789,-0.8320610687022901,0.6030534351145038,-1.3206106870229009
3860155853265,0.863972448,1,0.24301146850585936,1.7322049011230467,-11.219228979492186,-0.8244274809160306,0.5801526717557252,-1.3129770992366412
3860175853786,0.883972969,1,0.22385785522460935,1.7334020019531249,-11.192892761230468,-0.8320610687022901,0.6106870229007634,-1.3282442748091603
3860195853161,0.903972344,1,0.19871873779296872,1.753752716064453,-11.202469567871093,-0.8244274809160306,0.6259541984732825,-1.3129770992366412
3860215854046,0.923973229,1,0.21906945190429686,1.70467158203125,-11.214440576171874,-0.8702290076335878,0.6335877862595419,-1.3587786259541985
3860235855140,0.943974323,1,0.2059013427734375,1.7369933044433592,-11.225214483642578,-0.8396946564885496,0.5572519083969466,-1.3206106870229009
3860255852900,0.963972083,1,0.201112939453125,1.7034744812011717,-11.167753643798827,-0.8778625954198473,0.5725190839694656,-1.3053435114503817
3860275852223,0.983971406,1,0.22385785522460935,1.7214309936523438,-11.202469567871093,-0.8702290076335878,0.5267175572519084,-1.297709923664122
3860295853369,1.003972552,1,0.22385785522460935,1.7357962036132812,-11.182118853759764,-0.8396946564885496,0.5648854961832062,-1.3282442748091603
3860315854411,1.023973594,1,0.24181436767578124,1.7190367919921874,-11.19169566040039,-0.816793893129771,0.549618320610687,-1.3053435114503817
3860335855140,1.043974323,1,0.23104046020507812,1.7369933044433592,-11.21084927368164,-0.8473282442748091,0.5801526717557252,-1.366412213740458
3860355853682,1.063972865,1,0.2537853759765625,1.7214309936523438,-11.189301458740234,-0.8625954198473282,0.5725190839694656,-1.2900763358778626
3860375853838,1.083973021,1,0.24660277099609373,1.725022296142578,-11.207257971191405,-0.8320610687022901,0.5725190839694656,-1.3053435114503817
3860395854879,1.103974062,1,0.23582886352539062,1.7501614135742187,-11.171344946289063,-0.8625954198473282,0.5419847328244275,-1.3053435114503817
3860415854359,1.123973542,1,0.22864625854492185,1.7082628845214842,-11.183315954589844,-0.8244274809160306,0.5419847328244275,-1.3129770992366412
3860435854307,1.14397349,1,0.22266075439453123,1.7489643127441405,-11.173739147949219,-0.8473282442748091,0.549618320610687,-1.3282442748091603
3860455857796,1.163976979,1,0.2454056701660156,1.7381904052734374,-11.174936248779296,-0.8320610687022901,0.549618320610687,-1.3206106870229009
3860475855400,1.183974583,1,0.22864625854492185,1.7178396911621092,-11.189301458740234,-0.8015267175572519,0.5648854961832062,-1.3053435114503817
3860495852484,1.203971667,1,0.21787235107421873,1.7262193969726563,-11.164162341308593,-0.816793893129771,0.5648854961832062,-1.297709923664122
3860515853942,1.223973125,1,0.229843359375,1.7226280944824217,-11.197681164550781,-0.8320610687022901,0.549618320610687,-1.3206106870229009
3860535854567,1.24397375,1,0.20829554443359374,1.7381904052734374,-11.21084927368164,-0.7938931297709924,0.6106870229007634,-1.3282442748091603
3860555854463,1.263973646,1,0.23702596435546874,1.7453730102539062,-11.171344946289063,-0.8091603053435115,0.5725190839694656,-1.2900763358778626
3860575853786,1.283972969,1,0.2645592834472656,1.7357962036132812,-11.209652172851563,-0.8396946564885496,0.5801526717557252,-1.3282442748091603
3860595867640,1.303986823,1,0.20350714111328125,1.7310078002929687,-11.128249316406249,-0.816793893129771,0.5877862595419847,-1.2900763358778626
3860615856598,1.323975781,1,0.23104046020507812,1.7274164978027342,-11.179724652099608,-0.8473282442748091,0.5267175572519084,-1.3129770992366412
3860635858004,1.343977187,1,0.22026655273437498,1.7106570861816406,-11.179724652099608,-0.7938931297709924,0.6259541984732825,-1.2748091603053435
3860655855140,1.363974323,1,0.21906945190429686,1.7118541870117185,-11.171344946289063,-0.8320610687022901,0.5877862595419847,-1.3282442748091603
3860675853525,1.383972708,1,0.22385785522460935,1.705868682861328,-11.182118853759764,-0.8015267175572519,0.5190839694656488,-1.3435114503816794
3860695853421,1.403972604,1,0.22744915771484372,1.7286135986328124,-11.183315954589844,-0.8015267175572519,0.5648854961832062,-1.3053435114503817
3860715853942,1.423973125,1,0.22385785522460935,1.7453730102539062,-11.18571015625,-0.7862595419847328,0.5877862595419847,-1.3053435114503817
3860735852796,1.443971979,1,0.23104046020507812,1.7405846069335937,-11.177330450439452,-0.8244274809160306,0.6030534351145038,-1.3053435114503817
3860755853734,1.463972917,1,0.24301146850585936,1.7262193969726563,-11.219228979492186,-0.8549618320610687,0.5725190839694656,-1.3053435114503817
3860775854463,1.483973646,1,0.21906945190429686,1.7310078002929687,-11.190498559570312,-0.8320610687022901,0.5801526717557252,-1.2900763358778626
3860795853629,1.503972812,1,0.22505495605468748,1.7178396911621092,-11.231199987792968,-0.8396946564885496,0.5725190839694656,-1.3053435114503817
3860815853942,1.523973125,1,0.21068974609375,1.7417817077636717,-11.195286962890624,-0.8396946564885496,0.5572519083969466,-1.2900763358778626
3860835854671,1.543973854,1,0.22505495605468748,1.7082628845214842,-11.176133349609374,-0.816793893129771,0.6030534351145038,-1.3129770992366412
3860855853421,1.563972604,1,0.23104046020507812,1.725022296142578,-11.17852755126953,-0.8015267175572519,0.549618320610687,-1.3511450381679388
3860875853161,1.583972344,1,0.21787235107421873,1.7166425903320313,-11.19887826538086,-0.8396946564885496,0.5877862595419847,-1.3129770992366412
3860895853786,1.603972969,1,0.24779987182617186,1.7573440185546874,-11.228805786132812,-0.8015267175572519,0.5343511450381679,-1.3435114503816794
3860915853786,1.623972969,1,0.23343466186523437,1.7405846069335937,-11.209652172851563,-0.8320610687022901,0.5648854961832062,-1.3129770992366412
3860935853317,1.6439725,1,0.24181436767578124,1.7262193969726563,-11.192892761230468,-0.816793893129771,0.5801526717557252,-1.3206106870229009
3860955893890,1.664013073,1,0.21308394775390624,1.7429788085937499,-11.154585534667968,-0.8625954198473282,0.5725190839694656,-1.3129770992366412
3860975858994,1.683978177,1,0.2214636535644531,1.7489643127441405,-11.17254204711914,-0.8244274809160306,0.549618320610687,-1.3282442748091603
3860995857223,1.703976406,1,0.2214636535644531,1.7549498168945312,-11.146205828857422,-0.8396946564885496,0.5801526717557252,-1.3206106870229009
3861015856806,1.723975989,1,0.229843359375,1.7429788085937499,-11.161768139648437,-0.8396946564885496,0.6030534351145038,-1.3129770992366412
3861035855608,1.743974791,1,0.25258827514648435,1.7393875061035156,-11.171344946289063,-0.8091603053435115,0.6106870229007634,-1.2595419847328244
3861055851910,1.763971093,1,0.20949264526367187,1.7369933044433592,-11.186907257080078,-0.8091603053435115,0.5648854961832062,-1.3206106870229009
3861075854931,1.783974114,1,0.23822306518554687,1.7010802795410156,-11.182118853759764,-0.8015267175572519,0.6183206106870229,-1.3435114503816794
3861095853838,1.803973021,1,0.2454056701660156,1.7286135986328124,-11.183315954589844,-0.8549618320610687,0.5648854961832062,-1.3282442748091603
3861115853213,1.823972396,1,0.21428104858398436,1.7310078002929687,-11.215637677001952,-0.816793893129771,0.5725190839694656,-1.3053435114503817
3861135855088,1.843974271,1,0.2214636535644531,1.705868682861328,-11.19887826538086,-0.8473282442748091,0.5648854961832062,-1.297709923664122
3861155853473,1.863972656,1,0.23223756103515625,1.7453730102539062,-11.177330450439452,-0.7938931297709924,0.5725190839694656,-1.297709923664122
3861175853265,1.883972448,1,0.21188684692382811,1.7489643127441405,-11.162965240478515,-0.8549618320610687,0.5954198473282443,-1.3282442748091603
3861195853369,1.903972552,1,0.2154781494140625,1.7369933044433592,-11.21084927368164,-0.8320610687022901,0.5877862595419847,-1.3129770992366412
3861215854098,1.923973281,1,0.21428104858398436,1.753752716064453,-11.179724652099608,-0.8473282442748091,0.549618320610687,-1.3053435114503817
3861235853681,1.943972864,1,0.22505495605468748,1.7429788085937499,-11.174936248779296,-0.816793893129771,0.5267175572519084,-1.3053435114503817
3861255855244,1.963974427,1,0.23702596435546874,1.744175909423828,-11.170147845458983,-0.8549618320610687,0.5648854961832062,-1.3053435114503817
3861275854827,1.98397401,1,0.23223756103515625,1.7298106994628906,-11.19887826538086,-0.8091603053435115,0.5572519083969466,-1.3435114503816794
3861295854254,2.003973437,1,0.20949264526367187,1.7549498168945312,-11.174936248779296,-0.8396946564885496,0.5725190839694656,-1.3435114503816794
3861315853681,2.023972864,1,0.239420166015625,1.7322049011230467,-11.208455072021483,-0.8549618320610687,0.5801526717557252,-1.3129770992366412
3861335854254,2.043973437,1,0.23343466186523437,1.7310078002929687,-11.25514200439453,-0.8473282442748091,0.5801526717557252,-1.2900763358778626
3861355854827,2.06397401,1,0.20829554443359374,1.714248388671875,-11.197681164550781,-0.816793893129771,0.6030534351145038,-1.3282442748091603
3861375858994,2.083978177,1,0.22505495605468748,1.7322049011230467,-11.18571015625,-0.816793893129771,0.5954198473282443,-1.3129770992366412
3861395854983,2.103974166,1,0.22744915771484372,1.7226280944824217,-11.183315954589844,-0.8320610687022901,0.5419847328244275,-1.3282442748091603
3861415857640,2.123976823,1,0.21188684692382811,1.7106570861816406,-11.182118853759764,-0.8320610687022901,0.5877862595419847,-1.3206106870229009
3861435854306,2.143973489,1,0.2154781494140625,1.744175909423828,-11.195286962890624,-0.8320610687022901,0.6335877862595419,-1.3206106870229009
3861455853733,2.163972916,1,0.2537853759765625,1.7334020019531249,-11.202469567871093,-0.8320610687022901,0.5572519083969466,-1.3053435114503817
3861475861077,2.18398026,1,0.2262520568847656,1.7453730102539062,-11.194089862060546,-0.816793893129771,0.5648854961832062,-1.3587786259541985
3861495856233,2.203975416,1,0.22385785522460935,1.734599102783203,-11.170147845458983,-0.8320610687022901,0.6259541984732825,-1.3129770992366412
3861515851910,2.223971093,1,0.22505495605468748,1.7286135986328124,-11.176133349609374,-0.8015267175572519,0.6259541984732825,-1.3206106870229009
3861535853212,2.243972395,1,0.22864625854492185,1.7369933044433592,-11.200075366210937,-0.8244274809160306,0.5725190839694656,-1.2900763358778626
3861555857639,2.263976822,1,0.23343466186523437,1.7381904052734374,-11.189301458740234,-0.8244274809160306,0.5419847328244275,-1.297709923664122
3861575856650,2.283975833,1,0.21787235107421873,1.7190367919921874,-11.21084927368164,-0.8396946564885496,0.5801526717557252,-1.3511450381679388
3861595856494,2.303975677,1,0.22026655273437498,1.7298106994628906,-11.165359442138671,-0.8625954198473282,0.5725190839694656,-1.3511450381679388
3861615855244,2.323974427,1,0.24181436767578124,1.744175909423828,-11.19887826538086,-0.8473282442748091,0.549618320610687,-1.3053435114503817
3861635853473,2.343972656,1,0.23104046020507812,1.7573440185546874,-11.16057103881836,-0.7862595419847328,0.5419847328244275,-1.3206106870229009
3861655853264,2.363972447,1,0.24301146850585936,1.7357962036132812,-11.180921752929686,-0.8702290076335878,0.6030534351145038,-1.3129770992366412
3861675854879,2.383974062,1,0.24181436767578124,1.7310078002929687,-11.209652172851563,-0.8854961832061069,0.5954198473282443,-1.3435114503816794
3861695852796,2.403971979,1,0.24899697265624998,1.7094599853515624,-11.167753643798827,-0.8473282442748091,0.5877862595419847,-1.297709923664122
3861715853421,2.423972604,1,0.24660277099609373,1.7369933044433592,-11.164162341308593,-0.8320610687022901,0.5572519083969466,-1.3282442748091603
3861735853994,2.443973177,1,0.24181436767578124,1.7334020019531249,-11.148600030517578,-0.8244274809160306,0.6106870229007634,-1.297709923664122
3861755853681,2.463972864,1,0.2262520568847656,1.7417817077636717,-11.238382592773437,-0.816793893129771,0.6106870229007634,-1.3053435114503817
3861775854931,2.483974114,1,0.21428104858398436,1.7298106994628906,-11.204863769531249,-0.8549618320610687,0.5954198473282443,-1.3587786259541985
3861795854775,2.503973958,1,0.24660277099609373,1.7513585144042967,-11.173739147949219,-0.8396946564885496,0.5419847328244275,-1.3053435114503817
3861815852744,2.523971927,1,0.2262520568847656,1.734599102783203,-11.208455072021483,-0.8778625954198473,0.549618320610687,-1.3206106870229009
3861835856285,2.543975468,1,0.2154781494140625,1.734599102783203,-11.212046374511718,-0.8396946564885496,0.5801526717557252,-1.3282442748091603
3861855854879,2.563974062,1,0.2346317626953125,1.7178396911621092,-11.215637677001952,-0.816793893129771,0.6259541984732825,-1.3129770992366412
3861875853264,2.583972447,1,0.20949264526367187,1.7178396911621092,-11.19887826538086,-0.8549618320610687,0.549618320610687,-1.3206106870229009
3861895853577,2.60397276,1,0.2154781494140625,1.7082628845214842,-11.162965240478515,-0.8473282442748091,0.549618320610687,-1.3129770992366412
3861915854410,2.623973593,1,0.22864625854492185,1.7322049011230467,-11.201272467041015,-0.8015267175572519,0.5648854961832062,-1.3129770992366412
3861935855504,2.643974687,1,0.2346317626953125,1.7334020019531249,-11.17852755126953,-0.8702290076335878,0.5419847328244275,-1.3053435114503817
3861955856650,2.663975833,1,0.239420166015625,1.7226280944824217,-11.177330450439452,-0.8396946564885496,0.5954198473282443,-1.282442748091603
3861975853368,2.683972551,1,0.25737667846679685,1.7369933044433592,-11.208455072021483,-0.8244274809160306,0.5419847328244275,-1.3129770992366412
3861995852483,2.703971666,1,0.25139117431640623,1.7369933044433592,-11.202469567871093,-0.8854961832061069,0.5725190839694656,-1.3129770992366412
3862015886389,2.724005572,1,0.20829554443359374,1.734599102783203,-11.204863769531249,-0.8396946564885496,0.5954198473282443,-1.3206106870229009
3862035858108,2.743977291,1,0.23702596435546874,1.7190367919921874,-11.179724652099608,-0.8396946564885496,0.5725190839694656,-1.297709923664122
3862055856493,2.763975676,1,0.22266075439453123,1.7453730102539062,-11.168950744628905,-0.816793893129771,0.5725190839694656,-1.3587786259541985
3862075855868,2.783975051,1,0.201112939453125,1.7334020019531249,-11.18571015625,-0.8549618320610687,0.5725190839694656,-1.3206106870229009
3862095855191,2.803974374,1,0.22505495605468748,1.7334020019531249,-11.168950744628905,-0.8320610687022901,0.5877862595419847,-1.3358778625954197
3862115853993,2.823973176,1,0.2442085693359375,1.7190367919921874,-11.154585534667968,-0.8396946564885496,0.5038167938931297,-1.297709923664122
3862135853368,2.843972551,1,0.2537853759765625,1.7178396911621092,-11.190498559570312,-0.8625954198473282,0.5419847328244275,-1.297709923664122
3862155854150,2.863973333,1,0.23822306518554687,1.7453730102539062,-11.167753643798827,-0.8244274809160306,0.5267175572519084,-1.2900763358778626
3862175853420,2.883972603,1,0.23104046020507812,1.7417817077636717,-11.207257971191405,-0.8244274809160306,0.549618320610687,-1.3358778625954197
3862195853889,2.903973072,1,0.23582886352539062,1.7322049011230467,-11.173739147949219,-0.8320610687022901,0.5572519083969466,-1.297709923664122
3862215853473,2.923972656,1,0.23702596435546874,1.7274164978027342,-11.155782635498046,-0.8091603053435115,0.549618320610687,-1.3435114503816794
3862235854514,2.943973697,1,0.21428104858398436,1.7202338928222656,-11.203666668701171,-0.8396946564885496,0.5419847328244275,-1.297709923664122
3862255856025,2.963975208,1,0.22744915771484372,1.7405846069335937,-11.161768139648437,-0.8320610687022901,0.5648854961832062,-1.2900763358778626
3862275855504,2.983974687,1,0.22505495605468748,1.7238251953125,-11.207257971191405,-0.8625954198473282,0.5648854961832062,-1.3206106870229009
3862295853316,3.003972499,1,0.21188684692382811,1.715445489501953,-11.176133349609374,-0.816793893129771,0.5190839694656488,-1.297709923664122
3862315854045,3.023973228,1,0.22026655273437498,1.7417817077636717,-11.214440576171874,-0.8244274809160306,0.5801526717557252,-1.3053435114503817
3862335852014,3.043971197,1,0.2501940734863281,1.725022296142578,-11.179724652099608,-0.7938931297709924,0.5877862595419847,-1.3206106870229009
3862355853629,3.063972812,1,0.2166752502441406,1.7226280944824217,-11.168950744628905,-0.8931297709923665,0.6259541984732825,-1.282442748091603
3862375855816,3.083974999,1,0.2059013427734375,1.7118541870117185,-11.167753643798827,-0.8320610687022901,0.5725190839694656,-1.3282442748091603
3862395854514,3.103973697,1,0.22266075439453123,1.7405846069335937,-11.189301458740234,-0.8473282442748091,0.4961832061068702,-1.3053435114503817
3862415852952,3.123972135,1,0.22864625854492185,1.7094599853515624,-11.190498559570312,-0.8320610687022901,0.5419847328244275,-1.3053435114503817
3862435854462,3.143973645,1,0.20350714111328125,1.7010802795410156,-11.170147845458983,-0.8473282442748091,0.5343511450381679,-1.3282442748091603
3862455853785,3.163972968,1,0.23223756103515625,1.7357962036132812,-11.177330450439452,-0.8320610687022901,0.5801526717557252,-1.3282442748091603
3862475853420,3.183972603,1,0.2154781494140625,1.7501614135742187,-11.225214483642578,-0.8549618320610687,0.5801526717557252,-1.381679389312977
3862495853733,3.203972916,1,0.22864625854492185,1.7477672119140624,-11.2240173828125,-0.8625954198473282,0.5267175572519084,-1.2900763358778626
3862515858004,3.223977187,1,0.24660277099609373,1.7381904052734374,-11.194089862060546,-0.8702290076335878,0.5648854961832062,-1.297709923664122
3862535855035,3.243974218,1,0.2262520568847656,1.7214309936523438,-11.188104357910156,-0.8778625954198473,0.5954198473282443,-1.3129770992366412
3862555853368,3.263972551,1,0.23104046020507812,1.7334020019531249,-11.161768139648437,-0.8091603053435115,0.5648854961832062,-1.3129770992366412
3862575860660,3.283979843,1,0.20470424194335937,1.7202338928222656,-11.166556542968749,-0.8244274809160306,0.5572519083969466,-1.297709923664122
3862595858733,3.303977916,1,0.229843359375,1.7334020019531249,-11.182118853759764,-0.8473282442748091,0.5648854961832062,-1.297709923664122
3862615855087,3.32397427,1,0.2346317626953125,1.7334020019531249,-11.183315954589844,-0.8396946564885496,0.6259541984732825,-1.3053435114503817
3862635854827,3.34397401,1,0.22744915771484372,1.7489643127441405,-11.192892761230468,-0.8396946564885496,0.549618320610687,-1.3053435114503817
3862655853785,3.363972968,1,0.229843359375,1.7274164978027342,-11.18571015625,-0.8244274809160306,0.6106870229007634,-1.3129770992366412
3862675852691,3.383971874,1,0.21308394775390624,1.7405846069335937,-11.222820281982422,-0.8320610687022901,0.5954198473282443,-1.3129770992366412
3862695853629,3.403972812,1,0.22744915771484372,1.7202338928222656,-11.189301458740234,-0.8549618320610687,0.5572519083969466,-1.3053435114503817
3862715852327,3.42397151,1,0.23702596435546874,1.7238251953125,-11.202469567871093,-0.816793893129771,0.5648854961832062,-1.282442748091603
3862735852483,3.443971666,1,0.2597708801269531,1.7322049011230467,-11.197681164550781,-0.8091603053435115,0.5572519083969466,-1.3358778625954197
3862755852014,3.463971197,1,0.23223756103515625,1.734599102783203,-11.207257971191405,-0.8091603053435115,0.6106870229007634,-1.3206106870229009
3862775853889,3.483973072,1,0.20949264526367187,1.7214309936523438,-11.166556542968749,-0.816793893129771,0.5725190839694656,-1.3129770992366412
3862795853733,3.503972916,1,0.20949264526367187,1.725022296142578,-11.174936248779296,-0.7862595419847328,0.5877862595419847,-1.3206106870229009
3862815854618,3.523973801,1,0.2561795776367187,1.7262193969726563,-11.17254204711914,-0.7709923664122137,0.6106870229007634,-1.3435114503816794
3862835854201,3.543973384,1,0.20231004028320312,1.7166425903320313,-11.17852755126953,-0.8091603053435115,0.5343511450381679,-1.3206106870229009
3862855855139,3.563974322,1,0.23822306518554687,1.7465701110839842,-11.162965240478515,-0.816793893129771,0.5419847328244275,-1.3358778625954197
3862875928993,3.584048176,1,0.2154781494140625,1.7274164978027342,-11.197681164550781,-0.8015267175572519,0.5801526717557252,-1.3282442748091603
3862895873993,3.603993176,1,0.23343466186523437,1.7118541870117185,-11.200075366210937,-0.8778625954198473,0.5877862595419847,-1.366412213740458
3862915871493,3.623990676,1,0.19153613281249998,1.705868682861328,-11.209652172851563,-0.8473282442748091,0.6183206106870229,-1.3511450381679388
3862935868837,3.64398802,1,0.2597708801269531,1.7477672119140624,-11.192892761230468,-0.816793893129771,0.6030534351145038,-1.2900763358778626
3862955868524,3.663987707,1,0.23702596435546874,1.7190367919921874,-11.201272467041015,-0.8549618320610687,0.6259541984732825,-1.297709923664122
3862975915503,3.684034686,1,0.19871873779296872,1.7034744812011717,-11.192892761230468,-0.8015267175572519,0.549618320610687,-1.297709923664122
3862995871128,3.703990311,1,0.20350714111328125,1.725022296142578,-11.17254204711914,-0.8396946564885496,0.5801526717557252,-1.3129770992366412
3863015873160,3.723992343,1,0.24061726684570311,1.7322049011230467,-11.149797131347656,-0.8396946564885496,0.5877862595419847,-1.3206106870229009
3863035871858,3.743991041,1,0.20231004028320312,1.7334020019531249,-11.203666668701171,-0.8320610687022901,0.5572519083969466,-1.3206106870229009
3863055870451,3.763989634,1,0.23582886352539062,1.7202338928222656,-11.203666668701171,-0.8396946564885496,0.5725190839694656,-1.3511450381679388
3863075867899,3.783987082,1,0.239420166015625,1.7298106994628906,-11.192892761230468,-0.8473282442748091,0.5954198473282443,-1.3511450381679388
3863095870972,3.803990155,1,0.229843359375,1.7393875061035156,-11.202469567871093,-0.816793893129771,0.6030534351145038,-1.3511450381679388
3863115869566,3.823988749,1,0.2059013427734375,1.7094599853515624,-11.200075366210937,-0.8549618320610687,0.6030534351145038,-1.3435114503816794
3863135870451,3.843989634,1,0.21428104858398436,1.7369933044433592,-11.190498559570312,-0.7938931297709924,0.5954198473282443,-1.3053435114503817
3863155870139,3.863989322,1,0.24899697265624998,1.7310078002929687,-11.189301458740234,-0.7786259541984732,0.5648854961832062,-1.3206106870229009
3863175869149,3.883988332,1,0.22385785522460935,1.7238251953125,-11.2240173828125,-0.7862595419847328,0.549618320610687,-1.3282442748091603
3863195870087,3.90398927,1,0.23343466186523437,1.7334020019531249,-11.200075366210937,-0.816793893129771,0.5801526717557252,-1.3053435114503817
3863215870035,3.923989218,1,0.21188684692382811,1.734599102783203,-11.171344946289063,-0.8015267175572519,0.6030534351145038,-1.3206106870229009
3863235870191,3.943989374,1,0.19632453613281248,1.7238251953125,-11.170147845458983,-0.8320610687022901,0.5801526717557252,-1.3358778625954197
3863255870191,3.963989374,1,0.22385785522460935,1.7274164978027342,-11.173739147949219,-0.8244274809160306,0.5725190839694656,-1.3358778625954197
3863275869410,3.983988593,1,0.2214636535644531,1.7573440185546874,-11.184513055419922,-0.8091603053435115,0.6106870229007634,-1.3435114503816794
3863295869722,4.003988905,1,0.2561795776367187,1.7322049011230467,-11.173739147949219,-0.816793893129771,0.549618320610687,-1.3129770992366412
3863315869149,4.023988332,1,0.20709844360351562,1.7286135986328124,-11.188104357910156,-0.8244274809160306,0.5648854961832062,-1.3282442748091603
3863335870660,4.043989843,1,0.21068974609375,1.7549498168945312,-11.170147845458983,-0.8549618320610687,0.5419847328244275,-1.2900763358778626
3863355870243,4.063989426,1,0.22026655273437498,1.7106570861816406,-11.19887826538086,-0.8320610687022901,0.5954198473282443,-1.2900763358778626
3863375873993,4.083993176,1,0.21428104858398436,1.7405846069335937,-11.196484063720703,-0.7938931297709924,0.5725190839694656,-1.3282442748091603
3863395871180,4.103990363,1,0.21906945190429686,1.7238251953125,-11.195286962890624,-0.8396946564885496,0.6030534351145038,-1.3282442748091603
3863415874670,4.123993853,1,0.2501940734863281,1.7334020019531249,-11.212046374511718,-0.8320610687022901,0.6183206106870229,-1.3587786259541985
3863435869670,4.143988853,1,0.23104046020507812,1.7405846069335937,-11.21084927368164,-0.8244274809160306,0.5801526717557252,-1.3282442748091603
3863455869201,4.163988384,1,0.2166752502441406,1.7405846069335937,-11.17254204711914,-0.8091603053435115,0.5801526717557252,-1.3129770992366412
3863475877118,4.183996301,1,0.21188684692382811,1.7238251953125,-11.177330450439452,-0.816793893129771,0.5648854961832062,-1.3282442748091603
3863495871649,4.203990832,1,0.2214636535644531,1.7262193969726563,-11.162965240478515,-0.8854961832061069,0.5343511450381679,-1.3282442748091603
3863515869357,4.22398854,1,0.19632453613281248,1.7393875061035156,-11.195286962890624,-0.8091603053435115,0.549618320610687,-1.3282442748091603
3863535869774,4.243988957,1,0.23104046020507812,1.744175909423828,-11.2240173828125,-0.8396946564885496,0.6183206106870229,-1.3053435114503817
3863555869618,4.263988801,1,0.22744915771484372,1.7286135986328124,-11.252747802734374,-0.8244274809160306,0.6106870229007634,-1.3435114503816794
3863575870191,4.283989374,1,0.21068974609375,1.7465701110839842,-11.184513055419922,-0.8244274809160306,0.5725190839694656,-1.3282442748091603
3863595870243,4.303989426,1,0.24061726684570311,1.7274164978027342,-11.213243475341796,-0.816793893129771,0.5801526717557252,-1.3511450381679388
3863615867482,4.323986665,1,0.20709844360351562,1.7405846069335937,-11.232397088623046,-0.8244274809160306,0.5419847328244275,-1.3053435114503817
3863635870139,4.343989322,1,0.229843359375,1.7082628845214842,-11.203666668701171,-0.8015267175572519,0.5801526717557252,-1.297709923664122
3863655870295,4.363989478,1,0.23582886352539062,1.7322049011230467,-11.192892761230468,-0.816793893129771,0.5877862595419847,-1.3129770992366412
3863675868107,4.38398729,1,0.23822306518554687,1.7238251953125,-11.207257971191405,-0.816793893129771,0.5267175572519084,-1.3206106870229009
3863695870764,4.403989947,1,0.22864625854492185,1.744175909423828,-11.188104357910156,-0.8396946564885496,0.549618320610687,-1.297709923664122
3863715869618,4.423988801,1,0.21308394775390624,1.7322049011230467,-11.171344946289063,-0.8473282442748091,0.5954198473282443,-1.3206106870229009
3863735869878,4.443989061,1,0.22744915771484372,1.7405846069335937,-11.19887826538086,-0.8549618320610687,0.6030534351145038,-1.3740458015267176
3863755870295,4.463989478,1,0.20470424194335937,1.7393875061035156,-11.17254204711914,-0.816793893129771,0.5648854961832062,-1.3129770992366412
3863775868055,4.483987238,1,0.23822306518554687,1.7286135986328124,-11.179724652099608,-0.816793893129771,0.5725190839694656,-1.3282442748091603
3863795870607,4.50398979,1,0.22744915771484372,1.7082628845214842,-11.188104357910156,-0.8244274809160306,0.5648854961832062,-1.3511450381679388
3863815870191,4.523989374,1,0.23582886352539062,1.7405846069335937,-11.207257971191405,-0.8015267175572519,0.5648854961832062,-1.3053435114503817
3863835868784,4.543987967,1,0.2346317626953125,1.7238251953125,-11.227608685302734,-0.8244274809160306,0.549618320610687,-1.3282442748091603
3863855871128,4.563990311,1,0.2442085693359375,1.714248388671875,-11.166556542968749,-0.9007633587786259,0.5648854961832062,-1.3282442748091603
3863875868159,4.583987342,1,0.229843359375,1.6998831787109374,-11.208455072021483,-0.8473282442748091,0.5801526717557252,-1.3282442748091603
3863895870972,4.603990155,1,0.23822306518554687,1.7274164978027342,-11.208455072021483,-0.816793893129771,0.6030534351145038,-1.2900763358778626
3863915867795,4.623986978,1,0.22864625854492185,1.6998831787109374,-11.208455072021483,-0.8702290076335878,0.5725190839694656,-1.3053435114503817
3863935870711,4.643989894,1,0.23223756103515625,1.7166425903320313,-11.204863769531249,-0.8244274809160306,0.5877862595419847,-1.3129770992366412
3863955871441,4.663990624,1,0.22266075439453123,1.7465701110839842,-11.194089862060546,-0.8320610687022901,0.5648854961832062,-1.3053435114503817
3863975870295,4.683989478,1,0.21428104858398436,1.7202338928222656,-11.19887826538086,-0.8396946564885496,0.5190839694656488,-1.3053435114503817
3863995867066,4.703986249,1,0.21906945190429686,1.7393875061035156,-11.168950744628905,-0.8015267175572519,0.5572519083969466,-1.3282442748091603
3864015869878,4.723989061,1,0.26336218261718747,1.714248388671875,-11.165359442138671,-0.8015267175572519,0.5877862595419847,-1.3435114503816794
3864035869618,4.743988801,1,0.2609679809570312,1.7453730102539062,-11.207257971191405,-0.8473282442748091,0.5648854961832062,-1.3206106870229009
3864055869930,4.763989113,1,0.22744915771484372,1.7262193969726563,-11.208455072021483,-0.8473282442748091,0.549618320610687,-1.3511450381679388
3864075869930,4.783989113,1,0.23223756103515625,1.7130512878417967,-11.188104357910156,-0.8625954198473282,0.5954198473282443,-1.3206106870229009
3864095867899,4.803987082,1,0.23582886352539062,1.7393875061035156,-11.139023223876952,-0.8396946564885496,0.5877862595419847,-1.3206106870229009
3864115870816,4.823989999,1,0.239420166015625,1.7334020019531249,-11.212046374511718,-0.8244274809160306,0.5801526717557252,-1.3282442748091603
3864135870763,4.843989946,1,0.2154781494140625,1.7286135986328124,-11.206060870361327,-0.8473282442748091,0.5343511450381679,-1.3587786259541985
3864155871024,4.863990207,1,0.21068974609375,1.7310078002929687,-11.194089862060546,-0.816793893129771,0.5725190839694656,-1.3206106870229009
3864175869097,4.88398828,1,0.2454056701660156,1.7190367919921874,-11.212046374511718,-0.816793893129771,0.5725190839694656,-1.2748091603053435
3864195870920,4.903990103,1,0.23822306518554687,1.7334020019531249,-11.21683477783203,-0.8244274809160306,0.5572519083969466,-1.2748091603053435
3864215869305,4.923988488,1,0.23822306518554687,1.7417817077636717,-11.196484063720703,-0.8396946564885496,0.6183206106870229,-1.282442748091603
3864235869826,4.943989009,1,0.2442085693359375,1.7166425903320313,-11.194089862060546,-0.8396946564885496,0.5572519083969466,-1.3358778625954197
3864255869670,4.963988853,1,0.2166752502441406,1.7286135986328124,-11.192892761230468,-0.8549618320610687,0.6030534351145038,-1.3282442748091603
3864275869982,4.983989165,1,0.23343466186523437,1.7334020019531249,-11.194089862060546,-0.8473282442748091,0.5801526717557252,-1.297709923664122
3864295870972,5.003990155,1,0.22744915771484372,1.7417817077636717,-11.177330450439452,-0.8015267175572519,0.5725190839694656,-1.2748091603053435
3864315868836,5.023988019,1,0.20470424194335937,1.7381904052734374,-11.180921752929686,-0.8244274809160306,0.5725190839694656,-1.2671755725190839
3864335870086,5.043989269,1,0.2262520568847656,1.714248388671875,-11.206060870361327,-0.8549618320610687,0.5725190839694656,-1.2900763358778626
3864355870451,5.063989634,1,0.22505495605468748,1.7429788085937499,-11.222820281982422,-0.8473282442748091,0.6106870229007634,-1.3129770992366412
3864375871336,5.083990519,1,0.21906945190429686,1.7489643127441405,-11.150994232177734,-0.8473282442748091,0.5725190839694656,-1.282442748091603
3864395871336,5.103990519,1,0.2262520568847656,1.7286135986328124,-11.190498559570312,-0.8320610687022901,0.648854961832061,-1.282442748091603
3864415868524,5.123987707,1,0.22266075439453123,1.7298106994628906,-11.200075366210937,-0.8244274809160306,0.5877862595419847,-1.3053435114503817
3864435869826,5.143989009,1,0.21906945190429686,1.7405846069335937,-11.194089862060546,-0.8320610687022901,0.549618320610687,-1.297709923664122
3864455870347,5.16398953,1,0.23582886352539062,1.7381904052734374,-11.200075366210937,-0.8549618320610687,0.5419847328244275,-1.297709923664122
3864475868628,5.183987811,1,0.18076222534179687,1.7393875061035156,-11.227608685302734,-0.8549618320610687,0.5954198473282443,-1.3282442748091603
3864495871753,5.203990936,1,0.22505495605468748,1.7118541870117185,-11.180921752929686,-0.8244274809160306,0.6030534351145038,-1.2900763358778626
3864515878576,5.223997759,1,0.2346317626953125,1.7298106994628906,-11.238382592773437,-0.8396946564885496,0.6030534351145038,-1.3587786259541985
3864535872274,5.243991457,1,0.23343466186523437,1.725022296142578,-11.204863769531249,-0.8396946564885496,0.5877862595419847,-1.297709923664122
3864555869097,5.26398828,1,0.229843359375,1.7369933044433592,-11.19169566040039,-0.8396946564885496,0.5648854961832062,-1.3053435114503817
3864575875503,5.283994686,1,0.23702596435546874,1.7310078002929687,-11.192892761230468,-0.8396946564885496,0.5725190839694656,-1.3358778625954197
3864595879253,5.303998436,1,0.23104046020507812,1.714248388671875,-11.189301458740234,-0.8320610687022901,0.5648854961832062,-1.3053435114503817
3864615871232,5.323990415,1,0.23343466186523437,1.7310078002929687,-11.203666668701171,-0.8244274809160306,0.5725190839694656,-1.3206106870229009
3864635869826,5.343989009,1,0.23582886352539062,1.7465701110839842,-11.194089862060546,-0.8549618320610687,0.5725190839694656,-1.3358778625954197
3864655871701,5.363990884,1,0.22864625854492185,1.7357962036132812,-11.197681164550781,-0.8396946564885496,0.5648854961832062,-1.3206106870229009
3864675869982,5.383989165,1,0.21068974609375,1.7262193969726563,-11.184513055419922,-0.8473282442748091,0.5954198473282443,-1.3129770992366412
3864695871440,5.403990623,1,0.22864625854492185,1.7357962036132812,-11.204863769531249,-0.8091603053435115,0.5877862595419847,-1.3358778625954197
3864715869670,5.423988853,1,0.2154781494140625,1.725022296142578,-11.188104357910156,-0.816793893129771,0.549618320610687,-1.3358778625954197
3864735870555,5.443989738,1,0.23343466186523437,1.7262193969726563,-11.190498559570312,-0.8091603053435115,0.549618320610687,-1.3435114503816794
3864755870242,5.463989425,1,0.21428104858398436,1.7190367919921874,-11.201272467041015,-0.816793893129771,0.5648854961832062,-1.282442748091603
3864775870347,5.48398953,1,0.23104046020507812,1.7178396911621092,-11.197681164550781,-0.8244274809160306,0.5801526717557252,-1.3053435114503817
3864795870711,5.503989894,1,0.2262520568847656,1.7118541870117185,-11.168950744628905,-0.8396946564885496,0.5648854961832062,-1.3435114503816794
3864815869722,5.523988905,1,0.24660277099609373,1.7525556152343749,-11.234791290283203,-0.8396946564885496,0.5725190839694656,-1.3206106870229009
3864835870294,5.543989477,1,0.22744915771484372,1.725022296142578,-11.164162341308593,-0.8320610687022901,0.6030534351145038,-1.3358778625954197
3864855870190,5.563989373,1,0.24301146850585936,1.70467158203125,-11.194089862060546,-0.7938931297709924,0.5725190839694656,-1.2900763358778626
3864875870034,5.583989217,1,0.21428104858398436,1.7226280944824217,-11.201272467041015,-0.8396946564885496,0.6030534351145038,-1.282442748091603
3864895871076,5.603990259,1,0.22744915771484372,1.7357962036132812,-11.154585534667968,-0.8396946564885496,0.5648854961832062,-1.3129770992366412
3864915872222,5.623991405,1,0.2166752502441406,1.7405846069335937,-11.207257971191405,-0.7709923664122137,0.5954198473282443,-1.3129770992366412
3864935870972,5.643990155,1,0.22385785522460935,1.7429788085937499,-11.186907257080078,-0.8244274809160306,0.6259541984732825,-1.3435114503816794
3864955867899,5.663987082,1,0.22385785522460935,1.7322049011230467,-11.124658013916015,-0.8473282442748091,0.5801526717557252,-1.3129770992366412
3864975869878,5.683989061,1,0.22744915771484372,1.7334020019531249,-11.190498559570312,-0.8244274809160306,0.6259541984732825,-1.3358778625954197
3864995867794,5.703986977,1,0.22385785522460935,1.70467158203125,-11.183315954589844,-0.8244274809160306,0.5877862595419847,-1.2900763358778626
3865015870346,5.723989529,1,0.20949264526367187,1.715445489501953,-11.195286962890624,-0.8015267175572519,0.5801526717557252,-1.3282442748091603
3865035869930,5.743989113,1,0.20470424194335937,1.725022296142578,-11.180921752929686,-0.8473282442748091,0.5725190839694656,-1.2671755725190839
3865055868471,5.763987654,1,0.20470424194335937,1.7130512878417967,-11.17852755126953,-0.8091603053435115,0.549618320610687,-1.3206106870229009
3865075870346,5.783989529,1,0.23343466186523437,1.7274164978027342,-11.190498559570312,-0.8320610687022901,0.549618320610687,-1.2900763358778626
3865095870503,5.803989686,1,0.22385785522460935,1.7238251953125,-11.168950744628905,-0.8854961832061069,0.6259541984732825,-1.3282442748091603
3865115869305,5.823988488,1,0.20829554443359374,1.7417817077636717,-11.177330450439452,-0.8244274809160306,0.6183206106870229,-1.3129770992366412
3865135872690,5.843991873,1,0.2154781494140625,1.725022296142578,-11.18571015625,-0.8549618320610687,0.5954198473282443,-1.3129770992366412
3865155870451,5.863989634,1,0.22505495605468748,1.725022296142578,-11.226411584472656,-0.8015267175572519,0.5877862595419847,-1.3206106870229009
3865175871440,5.883990623,1,0.258573779296875,1.7381904052734374,-11.206060870361327,-0.7862595419847328,0.5648854961832062,-1.3206106870229009
3865195871023,5.903990206,1,0.24779987182617186,1.7322049011230467,-11.197681164550781,-0.8320610687022901,0.5801526717557252,-1.3206106870229009
3865215870711,5.923989894,1,0.22266075439453123,1.7118541870117185,-11.177330450439452,-0.8625954198473282,0.5725190839694656,-1.3587786259541985
3865235866284,5.943985467,1,0.19991583862304688,1.7190367919921874,-11.200075366210937,-0.8396946564885496,0.5419847328244275,-1.3206106870229009
3865255870503,5.963989686,1,0.22505495605468748,1.7298106994628906,-11.184513055419922,-0.816793893129771,0.5648854961832062,-1.3053435114503817
3865275869305,5.983988488,1,0.22385785522460935,1.7525556152343749,-11.203666668701171,-0.8473282442748091,0.5648854961832062,-1.282442748091603
3865295871076,6.003990259,1,0.22266075439453123,1.7202338928222656,-11.146205828857422,-0.7862595419847328,0.5725190839694656,-1.2900763358778626
3865315868992,6.023988175,1,0.19632453613281248,1.7369933044433592,-11.168950744628905,-0.8702290076335878,0.5725190839694656,-1.3053435114503817
3865335869982,6.043989165,1,0.23582886352539062,1.7310078002929687,-11.212046374511718,-0.8320610687022901,0.5725190839694656,-1.2900763358778626
3865355870503,6.063989686,1,0.22744915771484372,1.7405846069335937,-11.162965240478515,-0.8396946564885496,0.6030534351145038,-1.3358778625954197
3865375870919,6.083990102,1,0.23223756103515625,1.725022296142578,-11.21084927368164,-0.8015267175572519,0.5877862595419847,-1.3206106870229009
3865395874669,6.103993852,1,0.24779987182617186,1.7226280944824217,-11.209652172851563,-0.816793893129771,0.6030534351145038,-1.3435114503816794
3865415871753,6.123990936,1,0.22266075439453123,1.7226280944824217,-11.133037719726563,-0.8320610687022901,0.5801526717557252,-1.2900763358778626
3865435875398,6.143994581,1,0.2166752502441406,1.7357962036132812,-11.19169566040039,-0.8244274809160306,0.5725190839694656,-1.3435114503816794
3865455873315,6.163992498,1,0.23702596435546874,1.7369933044433592,-11.200075366210937,-0.8549618320610687,0.5801526717557252,-1.3282442748091603
3865475870294,6.183989477,1,0.23822306518554687,1.7381904052734374,-11.204863769531249,-0.8244274809160306,0.5725190839694656,-1.3282442748091603
3865495877325,6.203996508,1,0.2454056701660156,1.7034744812011717,-11.166556542968749,-0.8396946564885496,0.5801526717557252,-1.3206106870229009
3865515872638,6.223991821,1,0.2154781494140625,1.7322049011230467,-11.195286962890624,-0.8015267175572519,0.6030534351145038,-1.3053435114503817
3865535869669,6.243988852,1,0.2154781494140625,1.7513585144042967,-11.192892761230468,-0.8320610687022901,0.6030534351145038,-1.3358778625954197
3865555869461,6.263988644,1,0.22385785522460935,1.7417817077636717,-11.19169566040039,-0.8702290076335878,0.5725190839694656,-1.2900763358778626
3865575871180,6.283990363,1,0.21906945190429686,1.7286135986328124,-11.195286962890624,-0.8244274809160306,0.5648854961832062,-1.3282442748091603
3865595915502,6.304034685,1,0.22266075439453123,1.7513585144042967,-11.221623181152344,-0.8396946564885496,0.5801526717557252,-1.297709923664122
3865615871232,6.323990415,1,0.19393033447265623,1.744175909423828,-11.195286962890624,-0.8625954198473282,0.5648854961832062,-1.3435114503816794
3865635868732,6.343987915,1,0.24061726684570311,1.7274164978027342,-11.162965240478515,-0.8244274809160306,0.5801526717557252,-1.3282442748091603
3865655869669,6.363988852,1,0.2262520568847656,1.7226280944824217,-11.177330450439452,-0.8473282442748091,0.5877862595419847,-1.3435114503816794
3865675869513,6.383988696,1,0.23822306518554687,1.7417817077636717,-11.23000288696289,-0.8396946564885496,0.5801526717557252,-1.3053435114503817
3865695916909,6.404036092,1,0.20949264526367187,1.7334020019531249,-11.168950744628905,-0.8244274809160306,0.5572519083969466,-1.3435114503816794
3865715871232,6.423990415,1,0.21068974609375,1.7477672119140624,-11.044452258300781,-0.8702290076335878,0.5572519083969466,-1.3129770992366412
3865735870450,6.443989633,1,0.23702596435546874,1.7202338928222656,-11.213243475341796,-0.8549618320610687,0.5648854961832062,-1.3282442748091603
3865755870815,6.463989998,1,0.2214636535644531,1.7417817077636717,-11.203666668701171,-0.8473282442748091,0.6335877862595419,-1.3129770992366412
3865775870034,6.483989217,1,0.239420166015625,1.7178396911621092,-11.317391247558593,-0.8320610687022901,0.5572519083969466,-1.3435114503816794
3865795913211,6.504032394,1,0.21428104858398436,1.7357962036132812,-11.036072552490234,-0.8549618320610687,0.5801526717557252,-1.3053435114503817
3865815870502,6.523989685,1,0.22026655273437498,1.7310078002929687,-11.19887826538086,-0.8244274809160306,0.5725190839694656,-1.3511450381679388
3865835870138,6.543989321,1,0.22385785522460935,1.7298106994628906,-11.337741961669922,-0.8396946564885496,0.6030534351145038,-1.3206106870229009
3865855870398,6.563989581,1,0.21906945190429686,1.7286135986328124,-11.071985577392578,-0.8396946564885496,0.5954198473282443,-1.282442748091603
3865875869148,6.583988331,1,0.19512743530273435,1.6903063720703124,-11.317391247558593,-0.8320610687022901,0.5725190839694656,-1.3206106870229009
3865895869304,6.603988487,1,0.22744915771484372,1.7262193969726563,-11.183315954589844,-0.8244274809160306,0.6030534351145038,-1.3206106870229009
3865915870034,6.623989217,1,0.22266075439453123,1.7274164978027342,-11.21683477783203,-0.8015267175572519,0.6030534351145038,-1.3282442748091603
3865935871388,6.643990571,1,0.22266075439453123,1.725022296142578,-11.192892761230468,-0.8473282442748091,0.5343511450381679,-1.3206106870229009
3865955869929,6.663989112,1,0.21787235107421873,1.7381904052734374,-11.165359442138671,-0.816793893129771,0.5801526717557252,-1.3053435114503817
3865975894929,6.684014112,1,0.21068974609375,1.714248388671875,-11.176133349609374,-0.8244274809160306,0.5725190839694656,-1.3053435114503817
3865995870034,6.703989217,1,0.23223756103515625,1.714248388671875,-11.170147845458983,-0.8320610687022901,0.5648854961832062,-1.3053435114503817
3866015870815,6.723989998,1,0.239420166015625,1.7178396911621092,-11.243170996093749,-0.816793893129771,0.5801526717557252,-1.3129770992366412
3866035872013,6.743991196,1,0.21308394775390624,1.725022296142578,-11.179724652099608,-0.8244274809160306,0.5572519083969466,-1.2900763358778626
3866055870502,6.763989685,1,0.23702596435546874,1.7118541870117185,-11.220426080322264,-0.8396946564885496,0.6106870229007634,-1.3587786259541985
3866075869877,6.78398906,1,0.24899697265624998,1.7310078002929687,-11.203666668701171,-0.8244274809160306,0.5801526717557252,-1.3206106870229009
3866095870815,6.803989998,1,0.2166752502441406,1.7262193969726563,-11.196484063720703,-0.8244274809160306,0.5725190839694656,-1.3282442748091603
3866115871544,6.823990727,1,0.22744915771484372,1.7417817077636717,-11.235988391113281,-0.8091603053435115,0.5877862595419847,-1.3206106870229009
3866135870086,6.843989269,1,0.23582886352539062,1.7118541870117185,-11.179724652099608,-0.8091603053435115,0.5343511450381679,-1.3129770992366412
3866155869877,6.86398906,1,0.21428104858398436,1.753752716064453,-11.186907257080078,-0.816793893129771,0.5954198473282443,-1.297709923664122
3866175868263,6.883987446,1,0.23104046020507812,1.744175909423828,-11.206060870361327,-0.8396946564885496,0.6183206106870229,-1.2595419847328244
3866195870554,6.903989737,1,0.21906945190429686,1.7357962036132812,-11.177330450439452,-0.8320610687022901,0.6183206106870229,-1.3358778625954197
3866215871804,6.923990987,1,0.22864625854492185,1.7238251953125,-11.13423482055664,-0.8778625954198473,0.6030534351145038,-1.3282442748091603
3866235870138,6.943989321,1,0.21308394775390624,1.7082628845214842,-11.200075366210937,-0.816793893129771,0.5877862595419847,-1.3053435114503817
3866255871388,6.963990571,1,0.20470424194335937,1.7286135986328124,-11.231199987792968,-0.8473282442748091,0.5877862595419847,-1.297709923664122
3866275871127,6.98399031,1,0.20350714111328125,1.6998831787109374,-11.188104357910156,-0.8625954198473282,0.549618320610687,-1.3206106870229009
3866295872794,7.003991977,1,0.20709844360351562,1.7393875061035156,-11.186907257080078,-0.8549618320610687,0.6259541984732825,-1.366412213740458
3866315871596,7.023990779,1,0.229843359375,1.7286135986328124,-11.161768139648437,-0.8320610687022901,0.5801526717557252,-1.3358778625954197
3866335870502,7.043989685,1,0.2262520568847656,1.7465701110839842,-11.182118853759764,-0.7938931297709924,0.5725190839694656,-1.3282442748091603
3866355870606,7.063989789,1,0.2166752502441406,1.744175909423828,-11.194089862060546,-0.8244274809160306,0.5648854961832062,-1.3053435114503817
3866375870606,7.083989789,1,0.2346317626953125,1.7429788085937499,-11.179724652099608,-0.8396946564885496,0.5725190839694656,-1.3129770992366412
3866395869617,7.1039888,1,0.2346317626953125,1.7393875061035156,-11.177330450439452,-0.8549618320610687,0.5190839694656488,-1.3358778625954197
3866415871596,7.123990779,1,0.2442085693359375,1.7310078002929687,-11.164162341308593,-0.8702290076335878,0.5343511450381679,-1.381679389312977
3866435867950,7.143987133,1,0.20949264526367187,1.7334020019531249,-11.190498559570312,-0.816793893129771,0.5725190839694656,-1.3282442748091603
3866455870086,7.163989269,1,0.22744915771484372,1.7274164978027342,-11.19169566040039,-0.8015267175572519,0.5801526717557252,-1.3053435114503817
3866475867273,7.183986456,1,0.2561795776367187,1.7298106994628906,-11.189301458740234,-0.8015267175572519,0.6030534351145038,-1.3358778625954197
3866495870815,7.203989998,1,0.2561795776367187,1.715445489501953,-11.215637677001952,-0.8473282442748091,0.549618320610687,-1.3282442748091603
3866515871908,7.223991091,1,0.24061726684570311,1.7262193969726563,-11.174936248779296,-0.8473282442748091,0.5801526717557252,-1.3129770992366412
3866535873210,7.243992393,1,0.2166752502441406,1.7369933044433592,-11.212046374511718,-0.8625954198473282,0.5572519083969466,-1.3511450381679388
3866555871596,7.263990779,1,0.25258827514648435,1.763329522705078,-11.19169566040039,-0.8396946564885496,0.5648854961832062,-1.3206106870229009
3866575871127,7.28399031,1,0.22385785522460935,1.7369933044433592,-11.174936248779296,-0.8473282442748091,0.5572519083969466,-1.3282442748091603
3866595876440,7.303995623,1,0.23822306518554687,1.725022296142578,-11.183315954589844,-0.8320610687022901,0.5877862595419847,-1.3282442748091603
3866615879356,7.323998539,1,0.20709844360351562,1.7274164978027342,-11.174936248779296,-0.8778625954198473,0.6259541984732825,-1.3206106870229009
3866635873002,7.343992185,1,0.2346317626953125,1.7501614135742187,-11.167753643798827,-0.8091603053435115,0.5648854961832062,-1.3282442748091603
3866655869565,7.363988748,1,0.22385785522460935,1.7310078002929687,-11.221623181152344,-0.8625954198473282,0.549618320610687,-1.282442748091603
3866675893367,7.38401255,1,0.2166752502441406,1.715445489501953,-11.206060870361327,-0.8320610687022901,0.5343511450381679,-1.3282442748091603
3866695870606,7.403989789,1,0.22385785522460935,1.7429788085937499,-11.206060870361327,-0.816793893129771,0.5725190839694656,-1.3358778625954197
3866715872012,7.423991195,1,0.23822306518554687,1.7298106994628906,-11.173739147949219,-0.8702290076335878,0.6030534351145038,-1.3435114503816794
3866735869877,7.44398906,1,0.23582886352539062,1.7334020019531249,-11.17852755126953,-0.8778625954198473,0.5801526717557252,-1.3587786259541985
3866755870502,7.463989685,1,0.23223756103515625,1.744175909423828,-11.165359442138671,-0.8091603053435115,0.6030534351145038,-1.3129770992366412
3866775871283,7.483990466,1,0.23822306518554687,1.7238251953125,-11.17852755126953,-0.8015267175572519,0.5725190839694656,-1.3435114503816794
3866795870450,7.503989633,1,0.24301146850585936,1.7310078002929687,-11.171344946289063,-0.8091603053435115,0.5954198473282443,-1.297709923664122
3866815871492,7.523990675,1,0.21188684692382811,1.7298106994628906,-11.214440576171874,-0.7786259541984732,0.5190839694656488,-1.3206106870229009
3866835869929,7.543989112,1,0.22864625854492185,1.7202338928222656,-11.15338843383789,-0.8015267175572519,0.5343511450381679,-1.2900763358778626
3866855870242,7.563989425,1,0.23104046020507812,1.7357962036132812,-11.192892761230468,-0.8244274809160306,0.5419847328244275,-1.3282442748091603
3866875873262,7.583992445,1,0.20350714111328125,1.744175909423828,-11.196484063720703,-0.8625954198473282,0.5877862595419847,-1.3282442748091603
3866895871231,7.603990414,1,0.23343466186523437,1.7274164978027342,-11.156979736328124,-0.7938931297709924,0.5801526717557252,-1.3282442748091603
3866915871335,7.623990518,1,0.22864625854492185,1.7357962036132812,-11.189301458740234,-0.8091603053435115,0.4961832061068702,-1.297709923664122
3866935870867,7.64399005,1,0.22505495605468748,1.7429788085937499,-11.196484063720703,-0.8091603053435115,0.5877862595419847,-1.3435114503816794
3866955898992,7.664018175,1,0.22744915771484372,1.753752716064453,-11.171344946289063,-0.8396946564885496,0.5877862595419847,-1.3129770992366412
3866975871023,7.683990206,1,0.19512743530273435,1.705868682861328,-11.174936248779296,-0.8396946564885496,0.5954198473282443,-1.3053435114503817
3866995870814,7.703989997,1,0.23223756103515625,1.7357962036132812,-11.201272467041015,-0.816793893129771,0.5648854961832062,-1.3206106870229009
3867015871127,7.72399031,1,0.23104046020507812,1.7573440185546874,-11.215637677001952,-0.8244274809160306,0.6030534351145038,-1.3282442748091603
3867035869877,7.74398906,1,0.23822306518554687,1.7549498168945312,-11.213243475341796,-0.8091603053435115,0.5419847328244275,-1.3282442748091603
3867055869981,7.763989164,1,0.24181436767578124,1.7298106994628906,-11.18571015625,-0.8549618320610687,0.5801526717557252,-1.3053435114503817
3867075869877,7.78398906,1,0.2454056701660156,1.7322049011230467,-11.208455072021483,-0.8396946564885496,0.5648854961832062,-1.3282442748091603
3867095869096,7.803988279,1,0.21787235107421873,1.7166425903320313,-11.197681164550781,-0.816793893129771,0.6030534351145038,-1.2900763358778626
3867115869981,7.823989164,1,0.22864625854492185,1.7322049011230467,-11.168950744628905,-0.8396946564885496,0.5572519083969466,-1.3358778625954197
3867135870137,7.84398932,1,0.2537853759765625,1.714248388671875,-11.171344946289063,-0.8625954198473282,0.5419847328244275,-1.3053435114503817
3867155870554,7.863989737,1,0.2214636535644531,1.7429788085937499,-11.155782635498046,-0.8473282442748091,0.5801526717557252,-1.3129770992366412
3867175871804,7.883990987,1,0.21068974609375,1.7238251953125,-11.148600030517578,-0.8396946564885496,0.5725190839694656,-1.3435114503816794
3867195870866,7.903990049,1,0.229843359375,1.7202338928222656,-11.197681164550781,-0.8473282442748091,0.5801526717557252,-1.3206106870229009
3867215871387,7.92399057,1,0.20470424194335937,1.725022296142578,-11.156979736328124,-0.8015267175572519,0.5877862595419847,-1.3435114503816794
3867235871127,7.94399031,1,0.19871873779296872,1.7381904052734374,-11.184513055419922,-0.816793893129771,0.5572519083969466,-1.3206106870229009
3867255870710,7.963989893,1,0.24301146850585936,1.7262193969726563,-11.197681164550781,-0.816793893129771,0.5801526717557252,-1.3053435114503817
3867275870554,7.983989737,1,0.2154781494140625,1.7310078002929687,-11.19887826538086,-0.8244274809160306,0.5572519083969466,-1.282442748091603
3867295869929,8.003989112,1,0.239420166015625,1.7106570861816406,-11.173739147949219,-0.8549618320610687,0.5801526717557252,-1.2900763358778626
3867315870658,8.023989841,1,0.21787235107421873,1.7226280944824217,-11.19169566040039,-0.8473282442748091,0.5877862595419847,-1.297709923664122
3867335870033,8.043989216,1,0.21787235107421873,1.7417817077636717,-11.219228979492186,-0.8015267175572519,0.5648854961832062,-1.3129770992366412
3867355870762,8.063989945,1,0.2346317626953125,1.7453730102539062,-11.173739147949219,-0.8320610687022901,0.6030534351145038,-1.3129770992366412
3867375869825,8.083989008,1,0.2059013427734375,1.714248388671875,-11.215637677001952,-0.816793893129771,0.5954198473282443,-1.3206106870229009
3867395875502,8.103994685,1,0.21906945190429686,1.7226280944824217,-11.207257971191405,-0.8091603053435115,0.5419847328244275,-1.3282442748091603
3867415871908,8.123991091,1,0.19871873779296872,1.7429788085937499,-11.220426080322264,-0.8015267175572519,0.6030534351145038,-1.3053435114503817
3867435873471,8.143992654,1,0.2454056701660156,1.725022296142578,-11.200075366210937,-0.8320610687022901,0.5572519083969466,-1.2900763358778626
3867455869043,8.163988226,1,0.21428104858398436,1.725022296142578,-11.188104357910156,-0.8244274809160306,0.5954198473282443,-1.3206106870229009
3867475869096,8.183988279,1,0.21188684692382811,1.7381904052734374,-11.176133349609374,-0.816793893129771,0.6412213740458015,-1.2748091603053435
3867495877898,8.203997081,1,0.20829554443359374,1.7453730102539062,-11.203666668701171,-0.8015267175572519,0.5648854961832062,-1.3282442748091603
3867515873887,8.22399307,1,0.22744915771484372,1.7453730102539062,-11.19887826538086,-0.816793893129771,0.6106870229007634,-1.3129770992366412
3867535870918,8.243990101,1,0.23104046020507812,1.7429788085937499,-11.197681164550781,-0.8320610687022901,0.5114503816793893,-1.3129770992366412
3867555869929,8.263989112,1,0.21428104858398436,1.7322049011230467,-11.165359442138671,-0.8015267175572519,0.5572519083969466,-1.3053435114503817
3867575869773,8.283988956,1,0.22385785522460935,1.7310078002929687,-11.215637677001952,-0.8396946564885496,0.549618320610687,-1.2748091603053435
3867595870033,8.303989216,1,0.22864625854492185,1.7190367919921874,-11.164162341308593,-0.8320610687022901,0.5648854961832062,-1.3053435114503817
3867615869929,8.323989112,1,0.2154781494140625,1.7357962036132812,-11.189301458740234,-0.8702290076335878,0.5725190839694656,-1.3282442748091603
3867635870918,8.343990101,1,0.2454056701660156,1.7166425903320313,-11.17852755126953,-0.8396946564885496,0.5572519083969466,-1.3435114503816794
3867655869773,8.363988956,1,0.20949264526367187,1.7214309936523438,-11.21084927368164,-0.8549618320610687,0.5725190839694656,-1.282442748091603
3867675868470,8.383987653,1,0.2442085693359375,1.714248388671875,-11.202469567871093,-0.8320610687022901,0.5954198473282443,-1.282442748091603
3867695867116,8.403986299,1,0.19991583862304688,1.7501614135742187,-11.19887826538086,-0.8091603053435115,0.549618320610687,-1.2748091603053435
3867715868731,8.423987914,1,0.21188684692382811,1.7381904052734374,-11.184513055419922,-0.8015267175572519,0.6106870229007634,-1.2900763358778626
3867735870970,8.443990153,1,0.22744915771484372,1.7561469177246092,-11.195286962890624,-0.7862595419847328,0.5648854961832062,-1.2900763358778626
3867755869408,8.463988591,1,0.1879448303222656,1.715445489501953,-11.215637677001952,-0.8473282442748091,0.5725190839694656,-1.2900763358778626
3867775870606,8.483989789,1,0.2537853759765625,1.7238251953125,-11.219228979492186,-0.8015267175572519,0.5877862595419847,-1.282442748091603
3867795869929,8.503989112,1,0.22505495605468748,1.7298106994628906,-11.17254204711914,-0.8015267175572519,0.5725190839694656,-1.297709923664122
3867815916543,8.524035726,1,0.23702596435546874,1.7381904052734374,-11.19169566040039,-0.8549618320610687,0.549618320610687,-1.297709923664122
3867835870970,8.543990153,1,0.2214636535644531,1.7262193969726563,-11.18571015625,-0.8625954198473282,0.5877862595419847,-1.3206106870229009
3867855872793,8.563991976,1,0.21906945190429686,1.7369933044433592,-11.226411584472656,-0.8778625954198473,0.5954198473282443,-1.3053435114503817
3867875868887,8.58398807,1,0.23822306518554687,1.7393875061035156,-11.156979736328124,-0.8396946564885496,0.5801526717557252,-1.3358778625954197
3867895869356,8.603988539,1,0.22026655273437498,1.7310078002929687,-11.207257971191405,-0.7862595419847328,0.5725190839694656,-1.3358778625954197
3867915914564,8.624033747,1,0.23223756103515625,1.7334020019531249,-11.204863769531249,-0.8396946564885496,0.5419847328244275,-1.3358778625954197
3867935870554,8.643989737,1,0.21428104858398436,1.7226280944824217,-11.212046374511718,-0.8244274809160306,0.5725190839694656,-1.3053435114503817
3867955869668,8.663988851,1,0.22744915771484372,1.7166425903320313,-11.182118853759764,-0.8091603053435115,0.5725190839694656,-1.3129770992366412
3867975870397,8.68398958,1,0.22864625854492185,1.7214309936523438,-11.226411584472656,-0.8091603053435115,0.549618320610687,-1.3282442748091603
3867995872064,8.703991247,1,0.239420166015625,1.7465701110839842,-11.194089862060546,-0.8702290076335878,0.5572519083969466,-1.3206106870229009
3868015904043,8.724023226,1,0.20949264526367187,1.707065783691406,-11.197681164550781,-0.8778625954198473,0.5190839694656488,-1.2900763358778626
3868035875137,8.74399432,1,0.24779987182617186,1.725022296142578,-11.162965240478515,-0.8091603053435115,0.549618320610687,-1.297709923664122
3868055872064,8.763991247,1,0.23822306518554687,1.7405846069335937,-11.202469567871093,-0.8320610687022901,0.5419847328244275,-1.3129770992366412
3868075869877,8.78398906,1,0.21906945190429686,1.7238251953125,-11.212046374511718,-0.8473282442748091,0.5190839694656488,-1.297709923664122
3868095870554,8.803989737,1,0.2262520568847656,1.7202338928222656,-11.197681164550781,-0.816793893129771,0.5877862595419847,-1.2900763358778626
3868115870397,8.82398958,1,0.1879448303222656,1.7238251953125,-11.171344946289063,-0.8091603053435115,0.6030534351145038,-1.297709923664122
3868135871387,8.84399057,1,0.22505495605468748,1.7166425903320313,-11.164162341308593,-0.8473282442748091,0.5801526717557252,-1.3053435114503817
3868155869043,8.863988226,1,0.20829554443359374,1.734599102783203,-11.188104357910156,-0.7786259541984732,0.5801526717557252,-1.3587786259541985
3868175871283,8.883990466,1,0.23343466186523437,1.714248388671875,-11.174936248779296,-0.8320610687022901,0.5648854961832062,-1.3358778625954197
3868195871022,8.903990205,1,0.25737667846679685,1.7322049011230467,-11.238382592773437,-0.8244274809160306,0.5419847328244275,-1.2900763358778626
3868215870449,8.923989632,1,0.21188684692382811,1.7322049011230467,-11.207257971191405,-0.8320610687022901,0.5725190839694656,-1.3206106870229009
3868235871439,8.943990622,1,0.21308394775390624,1.7214309936523438,-11.189301458740234,-0.8244274809160306,0.5725190839694656,-1.3511450381679388
3868255871074,8.963990257,1,0.23702596435546874,1.7202338928222656,-11.179724652099608,-0.8549618320610687,0.549618320610687,-1.3282442748091603
3868275869720,8.983988903,1,0.20949264526367187,1.7118541870117185,-11.215637677001952,-0.8244274809160306,0.6106870229007634,-1.3358778625954197
3868295869981,9.003989164,1,0.21188684692382811,1.725022296142578,-11.165359442138671,-0.8473282442748091,0.6183206106870229,-1.3206106870229009
3868315869616,9.023988799,1,0.20709844360351562,1.7465701110839842,-11.21683477783203,-0.816793893129771,0.5877862595419847,-1.297709923664122
3868335871960,9.043991143,1,0.2059013427734375,1.7034744812011717,-11.231199987792968,-0.8244274809160306,0.5572519083969466,-1.3206106870229009
3868355870137,9.06398932,1,0.22385785522460935,1.7310078002929687,-11.180921752929686,-0.8396946564885496,0.5801526717557252,-1.3435114503816794
3868375869929,9.083989112,1,0.23343466186523437,1.7214309936523438,-11.206060870361327,-0.8244274809160306,0.5725190839694656,-1.3435114503816794
3868395869929,9.103989112,1,0.22864625854492185,1.7274164978027342,-11.206060870361327,-0.8702290076335878,0.5419847328244275,-1.3587786259541985
3868415871491,9.123990674,1,0.22505495605468748,1.7657237243652342,-11.186907257080078,-0.8244274809160306,0.5419847328244275,-1.3282442748091603
3868435870762,9.143989945,1,0.21906945190429686,1.725022296142578,-11.225214483642578,-0.8396946564885496,0.5648854961832062,-1.2671755725190839
3868455870137,9.16398932,1,0.21787235107421873,1.7310078002929687,-11.19169566040039,-0.8320610687022901,0.5343511450381679,-1.3435114503816794
3868475869616,9.183988799,1,0.20829554443359374,1.6998831787109374,-11.189301458740234,-0.816793893129771,0.5725190839694656,-1.3206106870229009
3868495871647,9.20399083,1,0.2765302917480469,1.7585411193847655,-11.197681164550781,-0.8549618320610687,0.6030534351145038,-1.3282442748091603
3868515871126,9.223990309,1,0.24061726684570311,1.7118541870117185,-11.171344946289063,-0.8244274809160306,0.5877862595419847,-1.3129770992366412
3868535874251,9.243993434,1,0.22266075439453123,1.7202338928222656,-11.176133349609374,-0.8091603053435115,0.6030534351145038,-1.3053435114503817
3868555871022,9.263990205,1,0.21068974609375,1.7381904052734374,-11.209652172851563,-0.8244274809160306,0.5877862595419847,-1.297709923664122
3868575871283,9.283990466,1,0.22505495605468748,1.7717092285156248,-11.190498559570312,-0.8396946564885496,0.5648854961832062,-1.3206106870229009
3868595876283,9.303995466,1,0.21188684692382811,1.744175909423828,-11.21084927368164,-0.8778625954198473,0.5725190839694656,-1.3129770992366412
3868615878053,9.323997236,1,0.21068974609375,1.7286135986328124,-11.149797131347656,-0.8702290076335878,0.5801526717557252,-1.3206106870229009
3868635872481,9.343991664,1,0.2214636535644531,1.7453730102539062,-11.19169566040039,-0.8549618320610687,0.6106870229007634,-1.3282442748091603
3868655869876,9.363989059,1,0.2454056701660156,1.7417817077636717,-11.196484063720703,-0.7938931297709924,0.6183206106870229,-1.3206106870229009
3868675870033,9.383989216,1,0.21906945190429686,1.7585411193847655,-11.149797131347656,-0.8625954198473282,0.5725190839694656,-1.3129770992366412
3868695870137,9.40398932,1,0.23223756103515625,1.734599102783203,-11.17852755126953,-0.8778625954198473,0.5954198473282443,-1.3511450381679388
3868715870137,9.42398932,1,0.21906945190429686,1.7334020019531249,-11.222820281982422,-0.8625954198473282,0.5954198473282443,-1.3129770992366412
3868735869043,9.443988226,1,0.22744915771484372,1.7226280944824217,-11.17852755126953,-0.8778625954198473,0.5725190839694656,-1.2748091603053435
3868755869564,9.463988747,1,0.23343466186523437,1.7022773803710936,-11.174936248779296,-0.8778625954198473,0.5801526717557252,-1.3282442748091603
3868775871699,9.483990882,1,0.23582886352539062,1.753752716064453,-11.168950744628905,-0.8244274809160306,0.5572519083969466,-1.3435114503816794
3868795869720,9.503988903,1,0.21906945190429686,1.7226280944824217,-11.221623181152344,-0.8244274809160306,0.5954198473282443,-1.3053435114503817
3868815871074,9.523990257,1,0.21188684692382811,1.7393875061035156,-11.204863769531249,-0.8015267175572519,0.5572519083969466,-1.2900763358778626
3868835870710,9.543989893,1,0.23702596435546874,1.7226280944824217,-11.19887826538086,-0.8702290076335878,0.5954198473282443,-1.3206106870229009
3868855871230,9.563990413,1,0.2262520568847656,1.7262193969726563,-11.195286962890624,-0.8015267175572519,0.5572519083969466,-1.3435114503816794
3868875870293,9.583989476,1,0.19871873779296872,1.7238251953125,-11.206060870361327,-0.8320610687022901,0.5648854961832062,-1.3129770992366412
3868895871960,9.603991143,1,0.20350714111328125,1.725022296142578,-11.201272467041015,-0.8473282442748091,0.5801526717557252,-1.3129770992366412
3868915869460,9.623988643,1,0.22385785522460935,1.7334020019531249,-11.183315954589844,-0.8702290076335878,0.6259541984732825,-1.297709923664122
3868935871230,9.643990413,1,0.20709844360351562,1.7166425903320313,-11.166556542968749,-0.8396946564885496,0.5648854961832062,-1.2671755725190839
3868955866699,9.663985882,1,0.21787235107421873,1.714248388671875,-11.197681164550781,-0.8396946564885496,0.5877862595419847,-1.3206106870229009
3868975871803,9.683990986,1,0.23582886352539062,1.7130512878417967,-11.18571015625,-0.8396946564885496,0.5801526717557252,-1.3358778625954197
3868995869720,9.703988903,1,0.23223756103515625,1.7381904052734374,-11.21683477783203,-0.7862595419847328,0.5572519083969466,-1.3511450381679388
3869015869564,9.723988747,1,0.22266075439453123,1.7226280944824217,-11.168950744628905,-0.8320610687022901,0.5801526717557252,-1.3587786259541985
3869035870762,9.743989945,1,0.22385785522460935,1.7214309936523438,-11.19169566040039,-0.7938931297709924,0.5648854961832062,-1.3282442748091603
3869055871491,9.763990674,1,0.22026655273437498,1.7178396911621092,-11.183315954589844,-0.8396946564885496,0.5648854961832062,-1.3053435114503817
3869075869564,9.783988747,1,0.22026655273437498,1.70467158203125,-11.19887826538086,-0.816793893129771,0.5801526717557252,-1.3740458015267176
3869095869928,9.803989111,1,0.2454056701660156,1.725022296142578,-11.166556542968749,-0.816793893129771,0.5877862595419847,-1.3206106870229009
3869115870345,9.823989528,1,0.23343466186523437,1.7202338928222656,-11.171344946289063,-0.8625954198473282,0.549618320610687,-1.297709923664122
3869135870814,9.843989997,1,0.2262520568847656,1.725022296142578,-11.207257971191405,-0.8015267175572519,0.5648854961832062,-1.297709923664122
3869155869095,9.863988278,1,0.20470424194335937,1.714248388671875,-11.173739147949219,-0.816793893129771,0.6412213740458015,-1.3129770992366412
3869175869876,9.883989059,1,0.22026655273437498,1.7310078002929687,-11.186907257080078,-0.8625954198473282,0.5954198473282443,-1.282442748091603
3869195870345,9.903989528,1,0.2346317626953125,1.7190367919921874,-11.190498559570312,-0.8396946564885496,0.5419847328244275,-1.3053435114503817
3869215867897,9.92398708,1,0.2262520568847656,1.707065783691406,-11.184513055419922,-0.8396946564885496,0.5572519083969466,-1.297709923664122
3869235872637,9.94399182,1,0.2537853759765625,1.7298106994628906,-11.190498559570312,-0.8091603053435115,0.5572519083969466,-1.2748091603053435
3869255871178,9.963990361,1,0.22026655273437498,1.7489643127441405,-11.200075366210937,-0.816793893129771,0.5343511450381679,-1.3053435114503817
3869275871022,9.983990205,1,0.19632453613281248,1.7214309936523438,-11.192892761230468,-0.816793893129771,0.5954198473282443,-1.2900763358778626
3869295870657,10.00398984,1,0.229843359375,1.7238251953125,-11.174936248779296,-0.8320610687022901,0.5572519083969466,-1.3282442748091603
3869315869668,10.023988851,1,0.23343466186523437,1.7082628845214842,-11.182118853759764,-0.8854961832061069,0.6030534351145038,-1.3358778625954197
3869335871126,10.043990309,1,0.22744915771484372,1.7214309936523438,-11.206060870361327,-0.7862595419847328,0.5419847328244275,-1.2748091603053435
3869355870397,10.06398958,1,0.22744915771484372,1.7262193969726563,-11.19169566040039,-0.8091603053435115,0.5801526717557252,-1.282442748091603
3869375870449,10.083989632,1,0.229843359375,1.707065783691406,-11.182118853759764,-0.8396946564885496,0.5954198473282443,-1.3129770992366412
3869395868834,10.103988017,1,0.22864625854492185,1.7310078002929687,-11.226411584472656,-0.8625954198473282,0.549618320610687,-1.3282442748091603
3869415873939,10.123993122,1,0.28371289672851563,1.734599102783203,-11.201272467041015,-0.8625954198473282,0.5954198473282443,-1.3129770992366412
3869435875397,10.14399458,1,0.22385785522460935,1.7298106994628906,-11.195286962890624,-0.8549618320610687,0.5877862595419847,-1.282442748091603
3869455869772,10.163988955,1,0.22505495605468748,1.7393875061035156,-11.171344946289063,-0.7938931297709924,0.5572519083969466,-1.297709923664122
3869475870970,10.183990153,1,0.20949264526367187,1.7477672119140624,-11.186907257080078,-0.8091603053435115,0.5801526717557252,-1.282442748091603
3869495870084,10.203989267,1,0.23223756103515625,1.7322049011230467,-11.220426080322264,-0.8473282442748091,0.6030534351145038,-1.2900763358778626
3869515876543,10.223995726,1,0.23702596435546874,1.7262193969726563,-11.174936248779296,-0.8091603053435115,0.5572519083969466,-1.3129770992366412
3869535869199,10.243988382,1,0.20829554443359374,1.7166425903320313,-11.188104357910156,-0.8549618320610687,0.549618320610687,-1.3282442748091603
3869555870241,10.263989424,1,0.23822306518554687,1.7262193969726563,-11.203666668701171,-0.8473282442748091,0.5725190839694656,-1.3358778625954197
3869575870032,10.283989215,1,0.2442085693359375,1.734599102783203,-11.162965240478515,-0.8320610687022901,0.5877862595419847,-1.3053435114503817
3869595869147,10.30398833,1,0.2214636535644531,1.7274164978027342,-11.184513055419922,-0.8473282442748091,0.5725190839694656,-1.3053435114503817
3869615870866,10.323990049,1,0.23104046020507812,1.7357962036132812,-11.194089862060546,-0.816793893129771,0.5572519083969466,-1.3435114503816794
3869635869928,10.343989111,1,0.21068974609375,1.7166425903320313,-11.176133349609374,-0.8244274809160306,0.5801526717557252,-1.297709923664122
3869655870084,10.363989267,1,0.2166752502441406,1.7369933044433592,-11.17254204711914,-0.8015267175572519,0.5343511450381679,-1.282442748091603
3869675868470,10.383987653,1,0.21906945190429686,1.7405846069335937,-11.200075366210937,-0.8625954198473282,0.5267175572519084,-1.3282442748091603
3869695870188,10.403989371,1,0.239420166015625,1.7118541870117185,-11.18571015625,-0.8320610687022901,0.5572519083969466,-1.3358778625954197
3869715868522,10.423987705,1,0.2262520568847656,1.744175909423828,-11.212046374511718,-0.816793893129771,0.5572519083969466,-1.3740458015267176
3869735870605,10.443989788,1,0.2346317626953125,1.7322049011230467,-11.19169566040039,-0.816793893129771,0.5419847328244275,-1.3206106870229009
3869755870032,10.463989215,1,0.2561795776367187,1.707065783691406,-11.19887826538086,-0.8473282442748091,0.549618320610687,-1.3129770992366412
3869775870605,10.483989788,1,0.23104046020507812,1.7417817077636717,-11.15338843383789,-0.8778625954198473,0.5648854961832062,-1.3206106870229009
3869795870813,10.503989996,1,0.24301146850585936,1.7322049011230467,-11.177330450439452,-0.8549618320610687,0.5801526717557252,-1.3282442748091603
3869815870345,10.523989528,1,0.2214636535644531,1.7166425903320313,-11.227608685302734,-0.8320610687022901,0.549618320610687,-1.3282442748091603
3869835872220,10.543991403,1,0.24899697265624998,1.7501614135742187,-11.16057103881836,-0.8091603053435115,0.5648854961832062,-1.282442748091603
3869855869824,10.563989007,1,0.23104046020507812,1.7393875061035156,-11.194089862060546,-0.7557251908396947,0.6183206106870229,-1.3435114503816794
3869875870761,10.583989944,1,0.22505495605468748,1.7357962036132812,-11.188104357910156,-0.816793893129771,0.5954198473282443,-1.3053435114503817
3869895869928,10.603989111,1,0.20350714111328125,1.7274164978027342,-11.194089862060546,-0.8015267175572519,0.5419847328244275,-1.3511450381679388
3869915869615,10.623988798,1,0.2154781494140625,1.7597382202148437,-11.143811627197264,-0.8015267175572519,0.549618320610687,-1.3206106870229009
3869935874303,10.643993486,1,0.22385785522460935,1.7369933044433592,-11.179724652099608,-0.8473282442748091,0.5801526717557252,-1.3435114503816794
3869955870553,10.663989736,1,0.25139117431640623,1.7334020019531249,-11.17254204711914,-0.8396946564885496,0.5801526717557252,-1.3358778625954197
3869975870501,10.683989684,1,0.24660277099609373,1.7166425903320313,-11.23718549194336,-0.8244274809160306,0.6106870229007634,-1.3129770992366412
3869995870501,10.703989684,1,0.23582886352539062,1.7130512878417967,-11.164162341308593,-0.8396946564885496,0.5343511450381679,-1.2748091603053435
3870015870345,10.723989528,1,0.21188684692382811,1.7226280944824217,-11.176133349609374,-0.8320610687022901,0.5801526717557252,-1.3053435114503817
3870035872011,10.743991194,1,0.22744915771484372,1.7214309936523438,-11.206060870361327,-0.8396946564885496,0.6030534351145038,-1.3435114503816794
3870055870397,10.76398958,1,0.229843359375,1.7393875061035156,-11.18571015625,-0.8549618320610687,0.5648854961832062,-1.3206106870229009
3870075868990,10.783988173,1,0.24181436767578124,1.7082628845214842,-11.208455072021483,-0.8091603053435115,0.5877862595419847,-1.297709923664122
3870095871022,10.803990205,1,0.21787235107421873,1.7094599853515624,-11.192892761230468,-0.8320610687022901,0.5801526717557252,-1.3282442748091603
3870115869407,10.82398859,1,0.22385785522460935,1.7178396911621092,-11.228805786132812,-0.8854961832061069,0.549618320610687,-1.297709923664122
3870135870865,10.843990048,1,0.2214636535644531,1.7178396911621092,-11.196484063720703,-0.8549618320610687,0.5877862595419847,-1.3129770992366412
3870155869095,10.863988278,1,0.22385785522460935,1.7334020019531249,-11.213243475341796,-0.8244274809160306,0.5954198473282443,-1.3129770992366412
3870175870084,10.883989267,1,0.2262520568847656,1.6998831787109374,-11.220426080322264,-0.816793893129771,0.5954198473282443,-1.3053435114503817
3870195867219,10.903986402,1,0.20949264526367187,1.7106570861816406,-11.154585534667968,-0.816793893129771,0.5725190839694656,-1.3053435114503817
3870215870292,10.923989475,1,0.23582886352539062,1.734599102783203,-11.200075366210937,-0.8091603053435115,0.6030534351145038,-1.3358778625954197
3870235871803,10.943990986,1,0.2059013427734375,1.715445489501953,-11.202469567871093,-0.8320610687022901,0.5954198473282443,-1.297709923664122
3870255871699,10.963990882,1,0.23223756103515625,1.7465701110839842,-11.19887826538086,-0.8396946564885496,0.5190839694656488,-1.3358778625954197
3870275869303,10.983988486,1,0.22266075439453123,1.7178396911621092,-11.168950744628905,-0.8015267175572519,0.5725190839694656,-1.2748091603053435
3870295870188,11.003989371,1,0.22864625854492185,1.734599102783203,-11.19887826538086,-0.8015267175572519,0.5801526717557252,-1.3053435114503817
3870315869980,11.023989163,1,0.24061726684570311,1.7286135986328124,-11.177330450439452,-0.8473282442748091,0.5648854961832062,-1.3435114503816794
3870335872272,11.043991455,1,0.24899697265624998,1.7274164978027342,-11.188104357910156,-0.8396946564885496,0.5572519083969466,-1.3129770992366412
3870355870240,11.063989423,1,0.24061726684570311,1.7429788085937499,-11.221623181152344,-0.7786259541984732,0.5572519083969466,-1.3206106870229009
3870375869980,11.083989163,1,0.2154781494140625,1.7429788085937499,-11.195286962890624,-0.7938931297709924,0.5572519083969466,-1.3282442748091603
3870395869928,11.103989111,1,0.229843359375,1.7274164978027342,-11.161768139648437,-0.8015267175572519,0.5877862595419847,-1.3206106870229009
3870415870032,11.123989215,1,0.21068974609375,1.705868682861328,-11.19169566040039,-0.8320610687022901,0.5267175572519084,-1.3206106870229009
3870435912792,11.144031975,1,0.24181436767578124,1.7106570861816406,-11.177330450439452,-0.8931297709923665,0.5648854961832062,-1.3053435114503817
3870455871490,11.163990673,1,0.23822306518554687,1.7238251953125,-11.190498559570312,-0.8625954198473282,0.5725190839694656,-1.3053435114503817
3870475869407,11.18398859,1,0.25139117431640623,1.7130512878417967,-11.19169566040039,-0.8244274809160306,0.5648854961832062,-1.2900763358778626
3870495871334,11.203990517,1,0.19991583862304688,1.7393875061035156,-11.17254204711914,-0.8320610687022901,0.5572519083969466,-1.3358778625954197
3870515870188,11.223989371,1,0.22744915771484372,1.7465701110839842,-11.201272467041015,-0.8396946564885496,0.6030534351145038,-1.3053435114503817
3870535921334,11.244040517,1,0.24181436767578124,1.7094599853515624,-11.188104357910156,-0.8320610687022901,0.6183206106870229,-1.3206106870229009
3870555872115,11.263991298,1,0.20709844360351562,1.7226280944824217,-11.183315954589844,-0.8473282442748091,0.5877862595419847,-1.3129770992366412
3870575876178,11.283995361,1,0.23343466186523437,1.7190367919921874,-11.2240173828125,-0.816793893129771,0.5190839694656488,-1.282442748091603
3870595870188,11.303989371,1,0.23343466186523437,1.7334020019531249,-11.19169566040039,-0.8015267175572519,0.5419847328244275,-1.3282442748091603
3870615870240,11.323989423,1,0.2501940734863281,1.7357962036132812,-11.212046374511718,-0.8015267175572519,0.5954198473282443,-1.3282442748091603
3870635928521,11.344047704,1,0.22864625854492185,1.753752716064453,-11.168950744628905,-0.8244274809160306,0.5877862595419847,-1.3129770992366412
3870655873678,11.363992861,1,0.22266075439453123,1.725022296142578,-11.189301458740234,-0.8473282442748091,0.5572519083969466,-1.2748091603053435
3870675870605,11.383989788,1,0.20470424194335937,1.725022296142578,-11.17852755126953,-0.8244274809160306,0.5725190839694656,-1.3053435114503817
3870695876230,11.403995413,1,0.20231004028320312,1.7190367919921874,-11.215637677001952,-0.8625954198473282,0.5572519083969466,-1.297709923664122
3870715872219,11.423991402,1,0.2059013427734375,1.7286135986328124,-11.201272467041015,-0.816793893129771,0.5725190839694656,-1.297709923664122
3870735871282,11.443990465,1,0.2346317626953125,1.734599102783203,-11.197681164550781,-0.8320610687022901,0.5801526717557252,-1.297709923664122
3870755870969,11.463990152,1,0.22026655273437498,1.7549498168945312,-11.173739147949219,-0.8549618320610687,0.5267175572519084,-1.297709923664122
3870775870605,11.483989788,1,0.23822306518554687,1.7393875061035156,-11.195286962890624,-0.816793893129771,0.549618320610687,-1.3206106870229009
3870795869980,11.503989163,1,0.20350714111328125,1.744175909423828,-11.218031878662108,-0.7786259541984732,0.549618320610687,-1.3435114503816794
3870815869876,11.523989059,1,0.20470424194335937,1.7573440185546874,-11.168950744628905,-0.7862595419847328,0.5572519083969466,-1.3053435114503817
3870835869511,11.543988694,1,0.23223756103515625,1.7310078002929687,-11.194089862060546,-0.8015267175572519,0.5801526717557252,-1.3358778625954197
3870855870813,11.563989996,1,0.24061726684570311,1.7130512878417967,-11.165359442138671,-0.8396946564885496,0.5877862595419847,-1.3282442748091603
3870875871125,11.583990308,1,0.21906945190429686,1.7465701110839842,-11.206060870361327,-0.8244274809160306,0.5877862595419847,-1.3206106870229009
3870895870344,11.603989527,1,0.24301146850585936,1.7393875061035156,-11.200075366210937,-0.8320610687022901,0.5648854961832062,-1.3129770992366412
3870915870500,11.623989683,1,0.21787235107421873,1.7465701110839842,-11.174936248779296,-0.8396946564885496,0.5801526717557252,-1.3129770992366412
3870935869355,11.643988538,1,0.20470424194335937,1.7393875061035156,-11.18571015625,-0.8244274809160306,0.5572519083969466,-1.2595419847328244
3870955871178,11.663990361,1,0.20829554443359374,1.7190367919921874,-11.18571015625,-0.8625954198473282,0.5725190839694656,-1.297709923664122
3870975909928,11.684029111,1,0.2442085693359375,1.734599102783203,-11.161768139648437,-0.8702290076335878,0.5801526717557252,-1.3358778625954197
3870995872428,11.703991611,1,0.2537853759765625,1.7274164978027342,-11.213243475341796,-0.8625954198473282,0.5801526717557252,-1.3511450381679388
3871015869094,11.723988277,1,0.24660277099609373,1.7226280944824217,-11.239579693603515,-0.8549618320610687,0.549618320610687,-1.3358778625954197
3871035871646,11.743990829,1,0.22026655273437498,1.7178396911621092,-11.188104357910156,-0.8473282442748091,0.5801526717557252,-1.3206106870229009
3871055872740,11.763991923,1,0.24301146850585936,1.7465701110839842,-11.195286962890624,-0.8473282442748091,0.5877862595419847,-1.3587786259541985
3871075870761,11.783989944,1,0.23702596435546874,1.7178396911621092,-11.186907257080078,-0.7938931297709924,0.5572519083969466,-1.282442748091603
3871095868834,11.803988017,1,0.23104046020507812,1.725022296142578,-11.218031878662108,-0.8549618320610687,0.5877862595419847,-1.3282442748091603
3871115868573,11.823987756,1,0.2346317626953125,1.7429788085937499,-11.166556542968749,-0.8549618320610687,0.5877862595419847,-1.297709923664122
3871135868417,11.8439876,1,0.24660277099609373,1.7489643127441405,-11.220426080322264,-0.8091603053435115,0.5801526717557252,-1.297709923664122
3871155871230,11.863990413,1,0.21068974609375,1.725022296142578,-11.2240173828125,-0.8015267175572519,0.5343511450381679,-1.3053435114503817
3871175869771,11.883988954,1,0.22266075439453123,1.7238251953125,-11.231199987792968,-0.8015267175572519,0.5877862595419847,-1.3129770992366412
3871195870188,11.903989371,1,0.20709844360351562,1.7262193969726563,-11.167753643798827,-0.8320610687022901,0.6183206106870229,-1.2900763358778626
3871215869407,11.92398859,1,0.22864625854492185,1.753752716064453,-11.214440576171874,-0.8396946564885496,0.6259541984732825,-1.2900763358778626
3871235870761,11.943989944,1,0.23822306518554687,1.7262193969726563,-11.201272467041015,-0.8091603053435115,0.5419847328244275,-1.3282442748091603
3871255873052,11.963992235,1,0.2346317626953125,1.7465701110839842,-11.202469567871093,-0.8549618320610687,0.5801526717557252,-1.2671755725190839
3871275873521,11.983992704,1,0.21188684692382811,1.734599102783203,-11.171344946289063,-0.8244274809160306,0.5801526717557252,-1.3511450381679388
3871295868834,12.003988017,1,0.25737667846679685,1.744175909423828,-11.17254204711914,-0.8244274809160306,0.5725190839694656,-1.3206106870229009
3871315870552,12.023989735,1,0.24779987182617186,1.734599102783203,-11.192892761230468,-0.816793893129771,0.6183206106870229,-1.366412213740458
3871335869250,12.043988433,1,0.21428104858398436,1.7298106994628906,-11.179724652099608,-0.8549618320610687,0.5648854961832062,-1.3587786259541985
3871355869459,12.063988642,1,0.2454056701660156,1.7369933044433592,-11.17852755126953,-0.8549618320610687,0.6106870229007634,-1.3206106870229009
3871375870240,12.083989423,1,0.20829554443359374,1.7393875061035156,-11.221623181152344,-0.8473282442748091,0.5648854961832062,-1.3740458015267176
3871395870865,12.103990048,1,0.19632453613281248,1.7369933044433592,-11.21084927368164,-0.7862595419847328,0.5343511450381679,-1.3435114503816794
3871415872688,12.123991871,1,0.23582886352539062,1.7477672119140624,-11.19169566040039,-0.8320610687022901,0.5572519083969466,-1.3206106870229009
3871435870969,12.143990152,1,0.20709844360351562,1.7286135986328124,-11.192892761230468,-0.816793893129771,0.5725190839694656,-1.3206106870229009
3871455872740,12.163991923,1,0.22026655273437498,1.7477672119140624,-11.17852755126953,-0.8473282442748091,0.5877862595419847,-1.3358778625954197
3871475871073,12.183990256,1,0.2346317626953125,1.7190367919921874,-11.213243475341796,-0.8396946564885496,0.5190839694656488,-1.3587786259541985
3871495869719,12.203988902,1,0.239420166015625,1.7106570861816406,-11.218031878662108,-0.8244274809160306,0.549618320610687,-1.3053435114503817
3871515877896,12.223997079,1,0.21787235107421873,1.7274164978027342,-11.202469567871093,-0.8396946564885496,0.6030534351145038,-1.297709923664122
3871535872271,12.243991454,1,0.22026655273437498,1.7334020019531249,-11.207257971191405,-0.8015267175572519,0.6183206106870229,-1.3206106870229009
3871555869511,12.263988694,1,0.22385785522460935,1.697488977050781,-11.228805786132812,-0.8244274809160306,0.5419847328244275,-1.3129770992366412
3871575869667,12.28398885,1,0.22385785522460935,1.7334020019531249,-11.209652172851563,-0.816793893129771,0.6106870229007634,-1.282442748091603
3871595869146,12.303988329,1,0.21068974609375,1.734599102783203,-11.200075366210937,-0.8320610687022901,0.5801526717557252,-1.3282442748091603
3871615869927,12.32398911,1,0.21787235107421873,1.753752716064453,-11.206060870361327,-0.8091603053435115,0.5572519083969466,-1.2748091603053435
3871635869563,12.343988746,1,0.21906945190429686,1.7501614135742187,-11.186907257080078,-0.7938931297709924,0.6106870229007634,-1.3282442748091603
3871655885344,12.364004527,1,0.19512743530273435,1.744175909423828,-11.19887826538086,-0.8091603053435115,0.5801526717557252,-1.297709923664122
3871675871073,12.383990256,1,0.1927332336425781,1.7310078002929687,-11.225214483642578,-0.8549618320610687,0.5572519083969466,-1.3053435114503817
3871695871386,12.403990569,1,0.21308394775390624,1.7298106994628906,-11.177330450439452,-0.8396946564885496,0.5648854961832062,-1.3206106870229009
3871715869823,12.423989006,1,0.23223756103515625,1.7381904052734374,-11.209652172851563,-0.8015267175572519,0.5648854961832062,-1.297709923664122
3871735867531,12.443986714,1,0.22744915771484372,1.7214309936523438,-11.200075366210937,-0.7938931297709924,0.5877862595419847,-1.3206106870229009
3871755870917,12.4639901,1,0.2501940734863281,1.7453730102539062,-11.164162341308593,-0.8320610687022901,0.5877862595419847,-1.3206106870229009
3871775871698,12.483990881,1,0.23343466186523437,1.7322049011230467,-11.207257971191405,-0.8702290076335878,0.5648854961832062,-1.3435114503816794
3871795869979,12.503989162,1,0.23822306518554687,1.7369933044433592,-11.176133349609374,-0.8015267175572519,0.5801526717557252,-1.3282442748091603
3871815870188,12.523989371,1,0.1975216369628906,1.7322049011230467,-11.226411584472656,-0.8396946564885496,0.5954198473282443,-1.3129770992366412
3871835870656,12.543989839,1,0.21428104858398436,1.7357962036132812,-11.206060870361327,-0.8320610687022901,0.5648854961832062,-1.3053435114503817
3871855873052,12.563992235,1,0.2166752502441406,1.7405846069335937,-11.214440576171874,-0.8091603053435115,0.5419847328244275,-1.3358778625954197
3871875870552,12.583989735,1,0.20709844360351562,1.7381904052734374,-11.171344946289063,-0.8549618320610687,0.6259541984732825,-1.3206106870229009
3871895870031,12.603989214,1,0.2262520568847656,1.725022296142578,-11.184513055419922,-0.7862595419847328,0.6030534351145038,-1.3511450381679388
3871915871125,12.623990308,1,0.24181436767578124,1.7202338928222656,-11.154585534667968,-0.8396946564885496,0.5725190839694656,-1.3206106870229009
3871935870656,12.643989839,1,0.24301146850585936,1.725022296142578,-11.206060870361327,-0.8320610687022901,0.5725190839694656,-1.3053435114503817
3871955870552,12.663989735,1,0.21787235107421873,1.7357962036132812,-11.189301458740234,-0.8625954198473282,0.5725190839694656,-1.3206106870229009
3871975871229,12.683990412,1,0.24061726684570311,1.7513585144042967,-11.182118853759764,-0.8473282442748091,0.6106870229007634,-1.3053435114503817
3871995869458,12.703988641,1,0.19512743530273435,1.714248388671875,-11.179724652099608,-0.8854961832061069,0.5648854961832062,-1.366412213740458
3872015872427,12.72399161,1,0.20949264526367187,1.7094599853515624,-11.194089862060546,-0.8244274809160306,0.5114503816793893,-1.2900763358778626
3872035870656,12.743989839,1,0.2262520568847656,1.7501614135742187,-11.226411584472656,-0.8091603053435115,0.549618320610687,-1.297709923664122
3872055867792,12.763986975,1,0.2346317626953125,1.7298106994628906,-11.208455072021483,-0.8320610687022901,0.549618320610687,-1.3282442748091603
3872075870552,12.783989735,1,0.2154781494140625,1.7082628845214842,-11.179724652099608,-0.8778625954198473,0.5725190839694656,-1.3206106870229009
3872095871125,12.803990308,1,0.229843359375,1.7381904052734374,-11.189301458740234,-0.8473282442748091,0.5725190839694656,-1.2748091603053435
3872115870500,12.823989683,1,0.24660277099609373,1.7274164978027342,-11.195286962890624,-0.8473282442748091,0.5954198473282443,-1.3053435114503817
3872135870448,12.843989631,1,0.23223756103515625,1.7106570861816406,-11.209652172851563,-0.816793893129771,0.5343511450381679,-1.3129770992366412
3872155872323,12.863991506,1,0.23582886352539062,1.7274164978027342,-11.21084927368164,-0.8320610687022901,0.5648854961832062,-1.2900763358778626
3872175870604,12.883989787,1,0.239420166015625,1.7094599853515624,-11.183315954589844,-0.8549618320610687,0.5877862595419847,-1.297709923664122
3872195870135,12.903989318,1,0.22385785522460935,1.7106570861816406,-11.177330450439452,-0.8549618320610687,0.5419847328244275,-1.3053435114503817
3872215870604,12.923989787,1,0.22864625854492185,1.7214309936523438,-11.207257971191405,-0.8244274809160306,0.5954198473282443,-1.3282442748091603
3872235869510,12.943988693,1,0.23822306518554687,1.7286135986328124,-11.17254204711914,-0.8244274809160306,0.5572519083969466,-1.2900763358778626
3872255872740,12.963991923,1,0.24899697265624998,1.7381904052734374,-11.189301458740234,-0.7709923664122137,0.6030534351145038,-1.2900763358778626
3872275871750,12.983990933,1,0.2609679809570312,1.7298106994628906,-11.159373937988281,-0.8320610687022901,0.5648854961832062,-1.3511450381679388
3872295872583,13.003991766,1,0.20709844360351562,1.7381904052734374,-11.182118853759764,-0.8473282442748091,0.5954198473282443,-1.297709923664122
3872315870917,13.0239901,1,0.2214636535644531,1.714248388671875,-11.204863769531249,-0.816793893129771,0.6335877862595419,-1.2900763358778626
3872335871750,13.043990933,1,0.22864625854492185,1.7022773803710936,-11.174936248779296,-0.8702290076335878,0.5267175572519084,-1.2900763358778626
3872355872687,13.06399187,1,0.22864625854492185,1.715445489501953,-11.200075366210937,-0.8091603053435115,0.5725190839694656,-1.3282442748091603
3872375870344,13.083989527,1,0.20709844360351562,1.7357962036132812,-11.176133349609374,-0.8015267175572519,0.5954198473282443,-1.297709923664122
3872395870239,13.103989422,1,0.21787235107421873,1.7190367919921874,-11.194089862060546,-0.8091603053435115,0.5572519083969466,-1.3053435114503817
3872415869927,13.12398911,1,0.23223756103515625,1.7190367919921874,-11.173739147949219,-0.8015267175572519,0.6030534351145038,-1.3740458015267176
3872435870500,13.143989683,1,0.19991583862304688,1.7429788085937499,-11.18571015625,-0.8396946564885496,0.5572519083969466,-1.3358778625954197
3872455871021,13.163990204,1,0.239420166015625,1.7298106994628906,-11.171344946289063,-0.8396946564885496,0.6030534351145038,-1.3358778625954197
3872475870708,13.183989891,1,0.22266075439453123,1.7405846069335937,-11.171344946289063,-0.8473282442748091,0.5801526717557252,-1.3129770992366412
3872495871698,13.203990881,1,0.22026655273437498,1.7369933044433592,-11.203666668701171,-0.816793893129771,0.5267175572519084,-1.3206106870229009
3872515869875,13.223989058,1,0.25258827514648435,1.7417817077636717,-11.17254204711914,-0.8244274809160306,0.549618320610687,-1.2900763358778626
3872535874719,13.243993902,1,0.239420166015625,1.7357962036132812,-11.206060870361327,-0.7786259541984732,0.5572519083969466,-1.297709923664122
3872555872948,13.263992131,1,0.2262520568847656,1.7322049011230467,-11.180921752929686,-0.8244274809160306,0.549618320610687,-1.297709923664122
3872575867323,13.283986506,1,0.23582886352539062,1.7118541870117185,-11.192892761230468,-0.8625954198473282,0.5343511450381679,-1.3129770992366412
3872595876281,13.303995464,1,0.24181436767578124,1.7190367919921874,-11.215637677001952,-0.8244274809160306,0.5801526717557252,-1.3129770992366412
3872615871489,13.323990672,1,0.22505495605468748,1.7238251953125,-11.192892761230468,-0.8396946564885496,0.5648854961832062,-1.3206106870229009
3872635878416,13.343997599,1,0.2262520568847656,1.734599102783203,-11.171344946289063,-0.8473282442748091,0.5877862595419847,-1.3206106870229009
3872655874458,13.363993641,1,0.22744915771484372,1.7106570861816406,-11.168950744628905,-0.816793893129771,0.5725190839694656,-1.3435114503816794
3872675867375,13.383986558,1,0.2262520568847656,1.725022296142578,-11.180921752929686,-0.8549618320610687,0.5954198473282443,-1.3358778625954197
3872695869927,13.40398911,1,0.21428104858398436,1.7334020019531249,-11.213243475341796,-0.8473282442748091,0.5801526717557252,-1.3129770992366412
3872715870708,13.423989891,1,0.22385785522460935,1.7369933044433592,-11.204863769531249,-0.816793893129771,0.5954198473282443,-1.297709923664122
3872735870708,13.443989891,1,0.20470424194335937,1.7429788085937499,-11.184513055419922,-0.8396946564885496,0.5572519083969466,-1.3282442748091603
3872755916177,13.46403536,1,0.2262520568847656,1.7322049011230467,-11.258733306884764,-0.8320610687022901,0.5572519083969466,-1.3206106870229009
3872775871489,13.483990672,1,0.23104046020507812,1.7429788085937499,-11.186907257080078,-0.8625954198473282,0.5190839694656488,-1.3053435114503817
3872795871021,13.503990204,1,0.24301146850585936,1.7357962036132812,-11.206060870361327,-0.8625954198473282,0.5419847328244275,-1.297709923664122
3872815870552,13.523989735,1,0.22385785522460935,1.7465701110839842,-11.212046374511718,-0.7709923664122137,0.5648854961832062,-1.3435114503816794
3872835871021,13.543990204,1,0.2346317626953125,1.7106570861816406,-11.171344946289063,-0.8473282442748091,0.5190839694656488,-1.3587786259541985
3872855908052,13.564027235,1,0.22864625854492185,1.7381904052734374,-11.195286962890624,-0.7862595419847328,0.5725190839694656,-1.3511450381679388
3872875872323,13.583991506,1,0.20470424194335937,1.7477672119140624,-11.173739147949219,-0.816793893129771,0.5877862595419847,-1.3435114503816794
3872895870291,13.603989474,1,0.22744915771484372,1.7525556152343749,-11.218031878662108,-0.8015267175572519,0.5954198473282443,-1.3511450381679388
3872915870500,13.623989683,1,0.229843359375,1.725022296142578,-11.171344946289063,-0.8320610687022901,0.6030534351145038,-1.2900763358778626
3872935870708,13.643989891,1,0.24660277099609373,1.7130512878417967,-11.226411584472656,-0.8244274809160306,0.5801526717557252,-1.3206106870229009
3872955869614,13.663988797,1,0.19393033447265623,1.734599102783203,-11.202469567871093,-0.8396946564885496,0.5419847328244275,-1.3129770992366412
3872975870343,13.683989526,1,0.22266075439453123,1.7357962036132812,-11.21683477783203,-0.816793893129771,0.5801526717557252,-1.3435114503816794
3872995869823,13.703989006,1,0.21906945190429686,1.7262193969726563,-11.152191333007812,-0.8320610687022901,0.6030534351145038,-1.3282442748091603
3873015869510,13.723988693,1,0.22266075439453123,1.7118541870117185,-11.177330450439452,-0.816793893129771,0.648854961832061,-1.3206106870229009
3873035870604,13.743989787,1,0.21068974609375,1.7298106994628906,-11.171344946289063,-0.8244274809160306,0.5419847328244275,-1.3206106870229009
3873055871593,13.763990776,1,0.2214636535644531,1.7334020019531249,-11.203666668701171,-0.816793893129771,0.6183206106870229,-1.2900763358778626
3873075870135,13.783989318,1,0.2214636535644531,1.714248388671875,-11.21084927368164,-0.8091603053435115,0.5572519083969466,-1.3358778625954197
3873095869458,13.803988641,1,0.24061726684570311,1.7405846069335937,-11.201272467041015,-0.8320610687022901,0.5801526717557252,-1.3282442748091603
3873115868625,13.823987808,1,0.21188684692382811,1.707065783691406,-11.186907257080078,-0.8625954198473282,0.5725190839694656,-1.3435114503816794
3873135870552,13.843989735,1,0.22744915771484372,1.725022296142578,-11.195286962890624,-0.8015267175572519,0.5648854961832062,-1.3129770992366412
3873155868156,13.863987339,1,0.2501940734863281,1.7274164978027342,-11.142614526367186,-0.8244274809160306,0.549618320610687,-1.282442748091603
3873175870343,13.883989526,1,0.23223756103515625,1.70467158203125,-11.225214483642578,-0.8625954198473282,0.5648854961832062,-1.3206106870229009
3873195870083,13.903989266,1,0.22385785522460935,1.7262193969726563,-11.189301458740234,-0.8625954198473282,0.6183206106870229,-1.3435114503816794
3873215870083,13.923989266,1,0.23104046020507812,1.7106570861816406,-11.162965240478515,-0.8549618320610687,0.5648854961832062,-1.3435114503816794
3873235870864,13.943990047,1,0.22744915771484372,1.734599102783203,-11.167753643798827,-0.8702290076335878,0.5801526717557252,-1.3282442748091603
3873255870083,13.963989266,1,0.23223756103515625,1.715445489501953,-11.196484063720703,-0.8549618320610687,0.5648854961832062,-1.282442748091603
3873275870239,13.983989422,1,0.23822306518554687,1.7130512878417967,-11.195286962890624,-0.8320610687022901,0.6030534351145038,-1.3358778625954197
3873295871697,14.00399088,1,0.24301146850585936,1.7310078002929687,-11.195286962890624,-0.8244274809160306,0.6030534351145038,-1.2900763358778626
3873315870760,14.023989943,1,0.22864625854492185,1.7238251953125,-11.180921752929686,-0.7480916030534351,0.5801526717557252,-1.2748091603053435
3873335871072,14.043990255,1,0.20949264526367187,1.7106570861816406,-11.197681164550781,-0.7862595419847328,0.6106870229007634,-1.297709923664122
3873355868833,14.063988016,1,0.2442085693359375,1.7262193969726563,-11.154585534667968,-0.8549618320610687,0.5038167938931297,-1.3282442748091603
3873375872166,14.083991349,1,0.24061726684570311,1.7190367919921874,-11.196484063720703,-0.8473282442748091,0.6030534351145038,-1.3129770992366412
3873395868989,14.103988172,1,0.2059013427734375,1.7214309936523438,-11.173739147949219,-0.8244274809160306,0.5801526717557252,-1.3511450381679388
3873415869302,14.123988485,1,0.24779987182617186,1.7357962036132812,-11.158176837158203,-0.8091603053435115,0.6030534351145038,-1.3511450381679388
3873435877427,14.14399661,1,0.24660277099609373,1.7357962036132812,-11.18571015625,-0.7938931297709924,0.5725190839694656,-1.3282442748091603
3873455871697,14.16399088,1,0.21308394775390624,1.70467158203125,-11.194089862060546,-0.8778625954198473,0.5801526717557252,-1.2671755725190839
3873475870656,14.183989839,1,0.22266075439453123,1.734599102783203,-11.155782635498046,-0.8244274809160306,0.5725190839694656,-1.3206106870229009
3873495868729,14.203987912,1,0.20949264526367187,1.7178396911621092,-11.196484063720703,-0.7480916030534351,0.5954198473282443,-1.297709923664122
3873515869927,14.22398911,1,0.24301146850585936,1.715445489501953,-11.189301458740234,-0.8625954198473282,0.5572519083969466,-1.3129770992366412
3873535880083,14.243999266,1,0.229843359375,1.7322049011230467,-11.188104357910156,-0.8244274809160306,0.5725190839694656,-1.3053435114503817
3873555872843,14.263992026,1,0.21188684692382811,1.7082628845214842,-11.183315954589844,-0.7709923664122137,0.6030534351145038,-1.3206106870229009
3873575871124,14.283990307,1,0.2561795776367187,1.714248388671875,-11.17852755126953,-0.8320610687022901,0.5954198473282443,-1.3435114503816794
3873595869406,14.303988589,1,0.22864625854492185,1.7310078002929687,-11.195286962890624,-0.8015267175572519,0.5648854961832062,-1.3206106870229009
3873615869458,14.323988641,1,0.22505495605468748,1.7190367919921874,-11.206060870361327,-0.7938931297709924,0.5801526717557252,-1.3282442748091603
3873635869145,14.343988328,1,0.24181436767578124,1.7286135986328124,-11.176133349609374,-0.8320610687022901,0.6030534351145038,-1.3206106870229009
3873655870812,14.363989995,1,0.2597708801269531,1.7369933044433592,-11.190498559570312,-0.8091603053435115,0.5877862595419847,-1.3129770992366412
3873675870604,14.383989787,1,0.2166752502441406,1.7334020019531249,-11.19169566040039,-0.8778625954198473,0.5801526717557252,-1.3053435114503817
3873695870656,14.403989839,1,0.20470424194335937,1.7525556152343749,-11.202469567871093,-0.8015267175572519,0.5648854961832062,-1.3511450381679388
3873715869458,14.423988641,1,0.23223756103515625,1.7357962036132812,-11.180921752929686,-0.8244274809160306,0.5343511450381679,-1.297709923664122
3873735870604,14.443989787,1,0.22505495605468748,1.7609353210449217,-11.171344946289063,-0.8549618320610687,0.5877862595419847,-1.3206106870229009
3873755869718,14.463988901,1,0.24181436767578124,1.7178396911621092,-11.183315954589844,-0.8091603053435115,0.5725190839694656,-1.3435114503816794
3873775872218,14.483991401,1,0.19871873779296872,1.7262193969726563,-11.173739147949219,-0.8625954198473282,0.6183206106870229,-1.3206106870229009
3873795869614,14.503988797,1,0.22864625854492185,1.7322049011230467,-11.214440576171874,-0.8244274809160306,0.5725190839694656,-1.3053435114503817
3873815870760,14.523989943,1,0.2262520568847656,1.7334020019531249,-11.188104357910156,-0.8549618320610687,0.6106870229007634,-1.3282442748091603
3873835873781,14.543992964,1,0.2214636535644531,1.7417817077636717,-11.167753643798827,-0.7938931297709924,0.6030534351145038,-1.3511450381679388
3873855866229,14.563985412,1,0.2166752502441406,1.7357962036132812,-11.246762298583985,-0.7862595419847328,0.6106870229007634,-1.3206106870229009
3873875871489,14.583990672,1,0.24061726684570311,1.7573440185546874,-11.195286962890624,-0.8473282442748091,0.5725190839694656,-1.3129770992366412
3873895869718,14.603988901,1,0.2346317626953125,1.7357962036132812,-11.186907257080078,-0.816793893129771,0.5648854961832062,-1.3053435114503817
3873915866541,14.623985724,1,0.23223756103515625,1.7298106994628906,-11.203666668701171,-0.816793893129771,0.5648854961832062,-1.3282442748091603
3873935871385,14.643990568,1,0.26815058593749996,1.7286135986328124,-11.176133349609374,-0.8244274809160306,0.5801526717557252,-1.3358778625954197
3873955869978,14.663989161,1,0.23223756103515625,1.715445489501953,-11.17852755126953,-0.8473282442748091,0.6106870229007634,-1.297709923664122
3873975870656,14.683989839,1,0.23582886352539062,1.734599102783203,-11.170147845458983,-0.816793893129771,0.5801526717557252,-1.3206106870229009
3873995870603,14.703989786,1,0.2442085693359375,1.7322049011230467,-11.192892761230468,-0.8244274809160306,0.5725190839694656,-1.3206106870229009
3874015888520,14.724007703,1,0.22864625854492185,1.7010802795410156,-11.2240173828125,-0.8473282442748091,0.5877862595419847,-1.282442748091603
3874035872895,14.743992078,1,0.23702596435546874,1.7322049011230467,-11.170147845458983,-0.8396946564885496,0.549618320610687,-1.282442748091603
3874055870499,14.763989682,1,0.2346317626953125,1.763329522705078,-11.203666668701171,-0.8091603053435115,0.5801526717557252,-1.3053435114503817
3874075870499,14.783989682,1,0.2262520568847656,1.705868682861328,-11.17852755126953,-0.8854961832061069,0.5572519083969466,-1.3435114503816794
3874095871072,14.803990255,1,0.22026655273437498,1.7286135986328124,-11.167753643798827,-0.8549618320610687,0.6335877862595419,-1.3053435114503817
3874115868416,14.823987599,1,0.23343466186523437,1.7477672119140624,-11.1474029296875,-0.8320610687022901,0.5725190839694656,-1.3358778625954197
3874135870864,14.843990047,1,0.2346317626953125,1.7393875061035156,-11.168950744628905,-0.8473282442748091,0.6030534351145038,-1.3358778625954197
3874155870395,14.863989578,1,0.2166752502441406,1.744175909423828,-11.164162341308593,-0.8396946564885496,0.6106870229007634,-1.366412213740458
3874175870551,14.883989734,1,0.22744915771484372,1.7238251953125,-11.171344946289063,-0.8320610687022901,0.6030534351145038,-1.3206106870229009
3874195869926,14.903989109,1,0.2154781494140625,1.7262193969726563,-11.221623181152344,-0.8854961832061069,0.6030534351145038,-1.297709923664122
3874215869093,14.923988276,1,0.23702596435546874,1.7369933044433592,-11.204863769531249,-0.8473282442748091,0.5877862595419847,-1.3587786259541985
3874235870187,14.94398937,1,0.2537853759765625,1.7334020019531249,-11.207257971191405,-0.8396946564885496,0.6030534351145038,-1.3282442748091603
3874255870655,14.963989838,1,0.22026655273437498,1.7286135986328124,-11.204863769531249,-0.8549618320610687,0.5648854961832062,-1.3282442748091603
3874275870655,14.983989838,1,0.229843359375,1.7262193969726563,-11.218031878662108,-0.8473282442748091,0.6335877862595419,-1.3511450381679388
3874295870916,15.003990099,1,0.22505495605468748,1.7262193969726563,-11.208455072021483,-0.816793893129771,0.5648854961832062,-1.366412213740458
3874315870291,15.023989474,1,0.2214636535644531,1.7214309936523438,-11.192892761230468,-0.8396946564885496,0.549618320610687,-1.282442748091603
3874335867374,15.043986557,1,0.23702596435546874,1.7262193969726563,-11.194089862060546,-0.8702290076335878,0.549618320610687,-1.3129770992366412
3874355870135,15.063989318,1,0.22026655273437498,1.7226280944824217,-11.19887826538086,-0.8396946564885496,0.6183206106870229,-1.3206106870229009
3874375871124,15.083990307,1,0.24181436767578124,1.7405846069335937,-11.215637677001952,-0.8396946564885496,0.5725190839694656,-1.3282442748091603
3874395869510,15.103988693,1,0.22385785522460935,1.7262193969726563,-11.190498559570312,-0.8015267175572519,0.5725190839694656,-1.2900763358778626
3874415869926,15.123989109,1,0.2346317626953125,1.734599102783203,-11.227608685302734,-0.8244274809160306,0.5801526717557252,-1.297709923664122
3874435869457,15.14398864,1,0.22744915771484372,1.707065783691406,-11.200075366210937,-0.8549618320610687,0.5725190839694656,-1.282442748091603
3874455869822,15.163989005,1,0.24660277099609373,1.7477672119140624,-11.154585534667968,-0.8549618320610687,0.5801526717557252,-1.3053435114503817
