timestamp_ns,t_s,sensor_id,ax,ay,az,gx,gy,gz
6190528335293,0.074772761,1,-0.6212953308105469,7.850587243652344,3.499125726318359,-0.5572519083969466,-15.396946564885496,3.2061068702290076
6190548302011,0.094739479,1,-0.4261678955078125,8.26119282836914,3.9935283691406247,2.66412213740458,6.00763358778626,-2.4732824427480917
6190568294355,0.114731823,1,-0.5243301635742187,8.534131817626953,4.261678955078125,3.6564885496183206,7.679389312977099,-4.587786259541985
6190588296074,0.134733542,1,-0.4752490295410156,7.9655089233398435,3.4919431213378904,-7.526717557251908,-6.908396946564886,-2.1068702290076335
6190608290188,0.154727656,1,-0.5063736511230469,7.711723547363281,3.7600937072753906,11.488549618320612,4.099236641221374,-0.9083969465648855
6190628290449,0.174727917,1,-1.3467384338378905,7.678204724121093,4.571728070068359,7.5038167938931295,11.305343511450381,-8.053435114503817
6190648289303,0.194726771,1,-1.6029180114746093,7.660248211669922,4.65432802734375,6.442748091603053,5.709923664122138,-9.916030534351146
6190668289928,0.214727396,1,-1.4999673400878906,7.842207537841796,3.976768957519531,-3.404580152671756,-7.564885496183206,-10.129770992366412
6190688289043,0.234726511,1,-1.2234370483398436,8.419210137939453,4.011484881591796,-3.404580152671756,2.8931297709923665,-12.748091603053435
6190708287793,0.254725261,1,-1.2988544006347655,8.444349255371094,4.734533782958984,12.564885496183207,17.46564885496183,-5.603053435114504
6190728284668,0.274722136,1,-1.4508862060546874,7.595604766845702,4.636371514892578,17.85496183206107,11.244274809160306,3.618320610687023
6190748288313,0.294725781,1,-1.659181750488281,6.90128628540039,3.8690298828125,8.106870229007633,-6.9541984732824424,4.198473282442748
6190768288730,0.314726198,1,-1.5215151550292967,7.794323504638672,3.7002386657714843,1.213740458015267,-6.595419847328245,-7.2748091603053435
6190788288366,0.334725834,1,-1.6508020446777343,8.300697155761718,3.1280244689941403,-25.99236641221374,-14.679389312977099,-8.86259541984733
6190808287793,0.354725261,1,-1.1240776794433593,8.224082702636718,3.688267657470703,0.15267175572519084,5.679389312977099,1.7328244274809161
6190828307636,0.374745104,1,-1.1552023010253905,7.886500268554687,3.907337109375,-3.099236641221374,7.870229007633588,8.091603053435115
6190848293313,0.394730781,1,-1.0821791503906248,8.379705810546875,4.594472985839843,-10.442748091603054,14.687022900763358,0.9541984732824428
6190868288626,0.414726094,1,-1.0199299072265624,8.589198455810546,5.12000025024414,-2.969465648854962,18.33587786259542,-0.04580152671755725
6190888288261,0.434725729,1,-0.9804255798339843,8.054094384765625,4.453215087890625,3.7480916030534353,2.900763358778626,8.946564885496183
6190908285761,0.454723229,1,-1.073799444580078,7.5165961120605465,3.1567548889160153,-4.938931297709924,-13.48091603053435,11.129770992366412
6190928288105,0.474725573,1,-0.689530078125,8.103175518798828,3.621230010986328,-9.893129770992367,5.977099236641221,-1.9312977099236641
6190948288990,0.494726458,1,-0.8379705810546875,9.045293872070312,4.867411975097656,-0.007633587786259542,26.99236641221374,-9.358778625954198
6190968287949,0.514725417,1,-1.1611878051757811,9.058461981201171,5.238513232421875,1.4122137404580153,23.885496183206108,-3.9618320610687023
6190988288365,0.534725833,1,-1.3682862487792968,8.398859423828124,5.0385973937988275,29.66412213740458,19.38167938931298,10.916030534351146
6191008288470,0.554725938,1,-1.0378864196777342,8.20971749267578,4.9416322265625,22.16030534351145,10.419847328244275,10.816793893129772
6191028288209,0.574725677,1,-0.8319850769042968,8.48505068359375,4.374206433105469,27.14503816793893,3.1297709923664123,1.2442748091603053
6191048288053,0.594725521,1,-0.8607154968261719,8.512584002685546,3.987542864990234,33.43511450381679,0.48854961832061067,-0.07633587786259542
6191068287688,0.614725156,1,-0.4632780212402344,7.949946612548827,2.6228479187011717,36.83206106870229,-16.0,6.519083969465649
6191088287845,0.634725313,1,-0.4369418029785156,7.208941198730468,1.4329296936035156,22.595419847328245,-28.419847328244273,5.435114503816794
6191108287740,0.654725208,1,-0.8870517150878906,7.501033801269531,1.7513585144042967,18.022900763358777,-8.82442748091603,-1.1297709923664123
6191128287688,0.674725156,1,-1.4221557861328125,7.325059979248047,2.7329811950683593,16.480916030534353,4.801526717557252,-6.32824427480916
6191148287897,0.694725365,1,-1.8435352783203125,7.128735443115234,3.2154128295898436,8.358778625954198,0.16793893129770993,-5.0534351145038165
6191168288157,0.714725625,1,-1.9943699829101562,7.011419561767577,2.7198130859375,-15.900763358778626,-16.641221374045802,-5.9541984732824424
6191188287845,0.734725313,1,-2.1164742675781247,7.3549875,2.914940521240234,-26.00763358778626,-10.106870229007633,-10.305343511450381
6191208287272,0.75472474,1,-2.527079852294922,8.169016064453125,3.7229835815429686,-29.870229007633586,6.351145038167939,-13.664122137404581
6191228288417,0.774725885,1,-2.3618799377441406,8.789114294433594,4.3634325256347655,-36.717557251908396,13.633587786259541,-9.34351145038168
6191248289303,0.794726771,1,-2.1152771667480468,8.315062365722655,4.349067315673828,-33.16793893129771,9.50381679389313,8.625954198473282
6191268287740,0.814725208,1,-1.7274164978027342,7.5465236328125,4.642357019042969,-25.297709923664122,9.954198473282442,19.045801526717558
6191288287584,0.834725052,1,-1.3251906188964844,7.350199096679687,4.6627077331542965,-28.633587786259543,1.816793893129771,16.87786259541985
6191308287740,0.854725208,1,-1.6172832214355468,7.845798840332031,4.544194750976562,-52.10687022900763,-19.587786259541986,9.145038167938932
6191328287480,0.874724948,1,0.10175357055664062,9.507374792480467,5.499481213378906,-47.29007633587786,-7.816793893129771,-2.9083969465648853
6191348287636,0.894725104,1,0.4273649963378906,9.731232647705077,5.389347937011719,-30.27480916030534,-12.01526717557252,2.0839694656488548
6191368287324,0.914724792,1,0.2442085693359375,8.765172277832031,4.660313531494141,7.519083969465649,-9.511450381679388,16.114503816793892
6191388287272,0.93472474,1,-0.16160861206054686,7.601590270996093,3.9600095458984375,20.977099236641223,-6.526717557251908,21.68702290076336
6191408286907,0.954724375,1,-0.5446808776855468,7.013813763427734,3.7241806823730466,16.251908396946565,0.10687022900763359,17.580152671755727
6191428288574,0.974726042,1,-0.6488286499023437,7.114370233154297,3.9719805541992184,19.358778625954198,9.351145038167939,9.595419847328245
6191448287844,0.994725312,1,-0.8906430175781249,7.538143927001952,3.939658831787109,5.8396946564885495,1.381679389312977,0.015267175572519083
6191468296751,1.014734219,1,-1.3814543579101561,8.051700183105469,3.8007951354980465,-16.732824427480917,-6.068702290076335,-7.9541984732824424
6191488289563,1.034727031,1,-0.7505822204589844,8.400056524658202,3.977966058349609,-5.038167938931298,3.1297709923664123,-2.427480916030534
6191508288886,1.054726354,1,-0.9756371765136718,7.943961108398437,4.241328240966797,-4.8396946564885495,4.99236641221374,5.259541984732825
6191528286282,1.07472375,1,-0.8152256652832031,7.906850982666016,4.7189714721679685,0.2824427480916031,10.458015267175572,4.00763358778626
6191548288157,1.094725625,1,-0.47165772705078124,8.00022484741211,4.244919543457031,-6.435114503816794,0.6335877862595419,1.5190839694656488
6191568288001,1.114725469,1,-0.6536170532226562,7.8900915710449215,3.925293621826172,-11.603053435114504,-4.351145038167939,0.10687022900763359
6191588288209,1.134725677,1,-0.4177881896972656,7.967903124999999,4.074931225585937,-3.1526717557251906,2.4732824427480917,-0.8473282442748091
6191608287532,1.154725,1,-0.5207388610839844,7.7596075805664055,3.9169139160156248,-9.030534351145038,-0.2748091603053435,-1.6793893129770991
6191628287636,1.174725104,1,-0.7769184387207031,7.9655089233398435,4.6651019348144525,-1.3129770992366412,7.916030534351145,-4.358778625954199
6191648289407,1.194726875,1,-0.9888052856445312,8.02416686401367,4.728548278808593,-5.488549618320611,3.8091603053435112,-4.427480916030534
6191668288365,1.214725833,1,-0.7505822204589844,7.809885815429687,4.503493322753906,-2.282442748091603,0.061068702290076333,-1.183206106870229
6191688292740,1.234730208,1,-1.0031704956054688,7.781155395507812,4.499902020263671,0.5877862595419847,0.6870229007633588,-1.0763358778625953
6191708290032,1.2547275,1,-0.824802471923828,8.103175518798828,4.538209246826171,-1.8473282442748091,1.6564885496183206,-4.984732824427481
6191728289355,1.274726823,1,-0.842758984375,8.10197841796875,4.037821099853516,-5.091603053435114,-5.648854961832061,-2.450381679389313
6191748289198,1.294726666,1,-0.86191259765625,7.690175732421874,4.228160131835938,-1.7404580152671756,-0.9770992366412213,2.114503816793893
6191768288730,1.314726198,1,-0.6248866333007812,7.710526446533203,4.538209246826171,6.687022900763359,5.412213740458015,-0.3435114503816794
6191788287063,1.334724531,1,-0.7852981445312499,7.8900915710449215,4.12401235961914,-9.442748091603054,-6.587786259541985,-4.366412213740458
6191808287323,1.354724791,1,-0.7805097412109374,8.190563879394531,4.367023828124999,-3.0916030534351147,2.1374045801526718,-6.129770992366412
6191828287844,1.374725312,1,-0.8906430175781249,7.876923461914062,4.651933825683593,1.9083969465648856,3.519083969465649,-1.6106870229007633
6191848288782,1.39472625,1,-0.97683427734375,7.582436657714843,4.404133953857421,1.6641221374045803,-0.6717557251908397,1.633587786259542
6191868288417,1.414725885,1,-0.8678981018066406,7.827842327880859,4.3251252990722655,1.0381679389312977,1.6488549618320612,-2.404580152671756
6191888287896,1.434725364,1,-0.8678981018066406,8.103175518798828,4.554968658447265,-2.427480916030534,2.801526717557252,-5.0458015267175576
6191908287011,1.454724479,1,-1.0965443603515623,7.930792999267577,4.975151049804687,8.16793893129771,5.870229007633588,-1.2671755725190839
6191928287584,1.474725052,1,-1.177947216796875,7.650671405029296,4.981136553955078,10.16030534351145,-1.183206106870229,2.3206106870229006
6191948288469,1.494725937,1,-1.1049240661621094,7.68658442993164,4.557362860107421,10.32824427480916,-7.374045801526718,1.0458015267175573
6191968285969,1.514723437,1,-0.488417138671875,7.914033587646484,3.440467785644531,1.9541984732824427,-16.435114503816795,-1.0
6191988288469,1.534725937,1,-0.7553706237792969,8.010998754882811,2.8048072448730466,-5.175572519083969,-11.969465648854962,-2.351145038167939
6192008287428,1.554724896,1,-0.8271966735839843,8.270769635009765,3.7708676147460936,1.4122137404580153,11.870229007633588,1.4809160305343512
6192028287688,1.574725156,1,-0.8990227233886718,7.934384301757812,4.526238238525391,1.0458015267175573,18.106870229007633,6.679389312977099
6192048288053,1.594725521,1,-0.35793314819335936,7.64229169921875,4.499902020263671,0.09923664122137404,7.778625954198473,8.450381679389313
6192068287063,1.614724531,1,-0.36391865234375,7.736862664794922,4.374206433105469,-4.473282442748092,-0.3053435114503817,2.8091603053435112
6192088287636,1.634725104,1,-0.49799394531249996,8.111555224609374,4.144363073730468,-10.763358778625955,-3.717557251908397,-6.183206106870229
6192108286959,1.654724427,1,-0.7505822204589844,8.13310303955078,4.012681982421875,-9.98473282442748,-2.4198473282442747,-6.458015267175573
6192128331386,1.674768854,1,-0.8774749084472656,7.842207537841796,4.346673114013671,0.6793893129770993,5.847328244274809,-1.3282442748091603
6192148294927,1.694732395,1,-0.8259995727539062,7.6087728759765625,4.631583111572265,1.5114503816793894,5.282442748091603,0.22900763358778625
6192168290240,1.714727708,1,-0.8966285217285156,7.775169891357422,4.593275885009765,-1.8549618320610688,1.5572519083969465,-3.5572519083969465
6192188295500,1.734732968,1,-0.7457938171386719,8.012195855712891,4.07971962890625,-8.419847328244275,-5.251908396946565,-6.083969465648855
6192208290084,1.754727552,1,-0.7589619262695312,8.11514652709961,3.9887399658203124,-7.847328244274809,-5.343511450381679,-3.4198473282442747
6192228289042,1.77472651,1,-0.833182177734375,7.662642413330078,4.126406561279297,-4.083969465648855,0.33587786259541985,3.9236641221374047
6192248288782,1.79472625,1,-0.814028564453125,7.697358337402343,4.710591766357422,-4.022900763358779,7.916030534351145,-0.48854961832061067
6192268288052,1.81472552,1,-0.5410895751953124,8.14028564453125,4.915296008300781,-1.8091603053435115,7.442748091603053,-5.114503816793893
6192288287584,1.834725052,1,-0.5662286926269531,8.0062103515625,4.271255761718749,-6.259541984732825,-6.267175572519084,-1.83206106870229
6192308287948,1.854725416,1,-0.6715735656738281,7.638700396728515,3.797203833007812,-7.893129770992366,-12.282442748091603,0.37404580152671757
6192328287532,1.874725,1,-0.8702923034667969,7.766790185546874,3.909731311035156,-9.755725190839694,-3.4580152671755724,-3.7022900763358777
6192348287271,1.894724739,1,-1.0797849487304687,8.021772662353515,4.754884497070313,-6.1679389312977095,10.618320610687023,-5.526717557251908
6192368287584,1.914725052,1,-1.0019733947753906,7.78235249633789,5.36899722290039,4.6106870229007635,13.694656488549619,0.3435114503816794
6192388287792,1.93472526,1,-0.9085995300292968,7.430404852294921,4.99909306640625,5.0458015267175576,-0.366412213740458,4.916030534351145
6192408287792,1.95472526,1,-0.5829881042480468,7.626729388427734,4.582501977539062,-0.2900763358778626,-7.076335877862595,-1.2061068702290076
6192428290084,1.974727552,1,-0.5566518859863281,7.933187200927734,3.8367081604003905,-6.984732824427481,-12.267175572519085,-5.061068702290076
6192448289042,1.99472651,1,-0.7445967163085937,8.12711753540039,3.921702319335937,-3.83206106870229,-3.931297709923664,-5.312977099236641
6192468289094,2.014726562,1,-0.958877764892578,8.014590057373047,4.398148449707031,1.0610687022900764,3.969465648854962,-1.5190839694656488
6192488288886,2.034726354,1,-0.8056488586425781,7.728482958984374,4.632780212402343,3.351145038167939,5.213740458015267,2.816793893129771
6192508287688,2.054725156,1,-0.9828197814941406,7.607575775146484,4.805162731933594,3.3893129770992365,3.984732824427481,1.8702290076335877
6192528294511,2.074731979,1,-0.7924807495117187,7.773972790527344,4.763264202880859,1.297709923664122,-0.7480916030534351,-1.0916030534351144
6192548290032,2.0947275,1,-0.5410895751953124,7.793126403808594,4.08570513305664,-3.7480916030534353,-9.564885496183207,-1.0
6192568288156,2.114725624,1,-0.7864952453613281,7.89727417602539,4.012681982421875,-2.6564885496183206,-4.763358778625954,-2.3740458015267176
6192588288156,2.134725624,1,-0.729034405517578,7.960720520019531,4.497507818603515,1.8549618320610688,5.32824427480916,-2.786259541984733
6192608287479,2.154724947,1,-0.6560112548828124,7.791929302978515,4.434061474609375,2.114503816793893,2.8091603053435112,0.8931297709923665
6192628288104,2.174725572,1,-0.8355763793945312,7.666233715820312,4.594472985839843,1.5190839694656488,2.183206106870229,0.40458015267175573
6192648288209,2.194725677,1,-0.8894459167480468,7.79552060546875,4.722562774658203,1.1450381679389312,2.2213740458015265,-2.6717557251908395
6192668285813,2.214723281,1,-0.4477157104492187,7.8529814453124995,4.23893403930664,-1.9083969465648856,-4.740458015267175,-2.312977099236641
6192688288573,2.234726041,1,-0.9959878906249999,7.823053924560546,4.090493536376953,-3.4580152671755724,-5.412213740458015,-2.0
6192708289511,2.254726979,1,-0.7841010437011718,8.027758166503906,4.5968671875,2.8931297709923665,5.0534351145038165,-3.4198473282442747
6192728288938,2.274726406,1,-0.5626373901367188,7.777564093017578,4.497507818603515,3.6106870229007635,0.24427480916030533,0.8854961832061069
6192748288469,2.294725937,1,-0.8762778076171874,7.653065606689452,4.161122485351562,-1.282442748091603,-5.076335877862595,-0.24427480916030533
6192768289042,2.31472651,1,-0.8259995727539062,7.977479931640625,4.469974499511719,-0.13740458015267176,1.7633587786259541,-4.625954198473282
6192788288833,2.334726301,1,-0.8607154968261719,7.957129217529296,4.347870214843749,-0.29770992366412213,-1.4122137404580153,-1.8702290076335877
6192808288156,2.354725624,1,-0.7685387329101562,7.85896694946289,4.177881896972656,-0.15267175572519084,-2.732824427480916,-0.12213740458015267
6192828287688,2.374725156,1,-0.5985504150390625,7.857769848632812,4.043806604003906,-1.7786259541984732,-1.7328244274809161,0.12213740458015267
6192848287479,2.394724947,1,-0.6117185241699218,7.945158209228516,4.472368701171875,0.6183206106870229,6.122137404580153,-1.16793893129771
6192868288365,2.414725833,1,-0.8918401184082031,7.9092451843261715,4.712985968017578,-0.11450381679389313,5.717557251908397,-0.3511450381679389
6192888287844,2.434725312,1,-0.843956085205078,7.7596075805664055,4.661510632324219,0.15267175572519084,3.068702290076336,0.9083969465648855
6192908287948,2.454725416,1,-0.7900865478515624,7.747636572265624,4.377797735595703,0.061068702290076333,-0.6564885496183206,1.5038167938931297
6192928287740,2.474725208,1,-0.6416460449218749,7.904456781005859,4.141968872070312,-2.114503816793893,-0.5419847328244275,-0.10687022900763359
6192948287740,2.494725208,1,-0.679953271484375,7.832630731201172,4.291606475830078,0.6030534351145038,3.5877862595419847,-0.549618320610687
6192968288677,2.514726145,1,-0.8200140686035156,7.8338278320312495,4.608838195800781,0.2595419847328244,4.877862595419847,-0.5038167938931297
6192988286958,2.534724426,1,-0.8164227661132812,7.803900311279296,4.57771357421875,1.5419847328244274,4.068702290076335,-0.2748091603053435
6193008288833,2.554726301,1,-0.7697358337402344,7.823053924560546,4.314351391601562,-0.7709923664122137,-1.099236641221374,0.2748091603053435
6193028287323,2.574724791,1,-0.6344634399414062,7.867346655273437,4.132392065429687,-0.916030534351145,0.6030534351145038,-1.1450381679389312
6193048288260,2.594725728,1,-0.4908113403320312,7.849390142822265,4.076128326416016,-7.702290076335878,0.1984732824427481,-2.114503816793893
6193068287479,2.614724947,1,-0.5386953735351562,7.9092451843261715,4.583699078369141,6.396946564885496,9.618320610687023,1.816793893129771
6193088287427,2.634724895,1,-1.1719617126464843,7.826645227050781,4.693832354736328,-5.801526717557252,5.740458015267175,-1.4427480916030535
6193108287792,2.65472526,1,-0.8212111694335937,7.923610394287109,4.313154290771484,-5.770992366412214,-0.6717557251908397,-2.5343511450381677
6193128287010,2.674724478,1,-0.5829881042480468,7.9283987976074215,3.9911341674804683,-4.923664122137405,-5.030534351145038,0.42748091603053434
6193148287479,2.694724947,1,-0.48722003784179685,7.818265521240234,4.2329485351562495,-1.1755725190839694,1.2061068702290076,0.5267175572519084
6193168287792,2.71472526,1,-0.7386112121582031,7.794323504638672,4.602852691650391,0.04580152671755725,4.572519083969466,-0.6793893129770993
6193188287844,2.734725312,1,-0.7852981445312499,7.726088757324218,4.650736724853515,0.7404580152671756,3.2748091603053435,-1.1297709923664123
6193208285552,2.75472302,1,-0.6823474731445313,7.692569934082031,4.416104962158203,-2.0381679389312977,-1.5801526717557253,-1.381679389312977
6193228287375,2.774724843,1,-0.7661445312499999,7.8912886718749995,4.3454760131835934,-1.7099236641221374,-0.6793893129770993,-3.198473282442748
6193248287219,2.794724687,1,-0.7697358337402344,7.989450939941406,4.240131140136718,-2.6793893129770994,-0.19083969465648856,-3.015267175572519
6193268287635,2.814725103,1,-0.6727706665039062,7.869740856933594,4.367023828124999,1.16793893129771,2.1068702290076335,-0.6946564885496184
6193288287219,2.834724687,1,-0.9050082275390624,7.682993127441406,4.387374542236328,0.6564885496183206,0.8091603053435115,0.4351145038167939
6193308288104,2.854725572,1,-0.7218518005371093,7.863755352783203,4.404133953857421,-1.9541984732824427,0.9618320610687023,-1.3358778625954197
6193328287740,2.874725208,1,-0.8403647827148437,7.930792999267577,4.299986181640625,-3.366412213740458,0.22137404580152673,-1.7404580152671756
6193348288052,2.89472552,1,-0.7134720947265625,7.924807495117187,4.180276098632812,-3.068702290076336,1.083969465648855,-0.3816793893129771
6193368288417,2.914725885,1,-0.6392518432617187,7.637503295898437,4.144363073730468,-10.465648854961833,1.2900763358778626,0.48091603053435117
6193388288365,2.934725833,1,-0.3591302490234375,7.951143713378905,5.125985754394531,9.717557251908397,16.114503816793892,1.2290076335877862
6193408287531,2.954724999,1,-1.0007762939453124,7.748833673095703,4.880580084228515,-4.526717557251908,3.2519083969465647,-0.04580152671755725
6193428287531,2.974724999,1,-0.8702923034667969,7.626729388427734,4.2880151733398435,-7.00763358778626,-7.435114503816794,-2.8396946564885495
6193448287583,2.994725051,1,-0.5470750793457031,7.911639385986327,4.134786267089844,-2.801526717557252,-7.480916030534351,-3.9160305343511452
6193468286177,3.014723645,1,-0.6488286499023437,7.988253839111327,4.2317514343261715,-4.320610687022901,-3.435114503816794,-2.6717557251908395
6193488287844,3.034725312,1,-1.0091559997558592,7.851784344482422,4.523844036865234,0.8549618320610687,3.4122137404580153,-0.8244274809160306
6193508287583,3.054725051,1,-0.737414111328125,7.747636572265624,4.936843823242187,4.519083969465649,5.732824427480916,0.7862595419847328
6193528288052,3.07472552,1,-0.679953271484375,7.545326531982422,4.431667272949219,1.8396946564885497,-3.732824427480916,2.1603053435114505
6193548287687,3.094725155,1,-0.5626373901367188,7.807491613769531,4.110844250488281,-3.7404580152671754,-6.129770992366412,-2.4656488549618323
6193568287271,3.114724739,1,-0.6344634399414062,7.9834654357910155,4.228160131835938,-3.9236641221374047,-1.183206106870229,-5.221374045801527
6193588287271,3.134724739,1,-0.7625532287597656,7.949946612548827,4.317942694091797,-1.6030534351145038,3.3282442748091605,-2.480916030534351
6193608286906,3.154724374,1,-1.0666168395996094,7.709329345703124,4.827907647705078,3.5801526717557253,8.351145038167939,0.5877862595419847
6193628287792,3.17472526,1,-0.843956085205078,7.71890615234375,4.920084411621094,5.129770992366412,5.3893129770992365,-0.3969465648854962
6193648287583,3.194725051,1,-0.689530078125,7.71890615234375,4.282029669189453,-4.099236641221374,-8.351145038167939,-1.1908396946564885
6193668287948,3.214725416,1,-0.6069301208496093,7.850587243652344,3.892971899414062,-4.748091603053435,-5.549618320610687,-3.984732824427481
6193688292479,3.234729947,1,-0.7661445312499999,8.084021905517577,4.438849877929687,-1.2290076335877862,3.3206106870229006,-4.00763358778626
6193708291021,3.254728489,1,-0.6428431457519531,7.813477117919922,4.479551306152343,1.6030534351145038,3.3053435114503817,0.29770992366412213
6193728289406,3.274726874,1,-0.7900865478515624,7.62912359008789,4.351461517333984,-0.29770992366412213,0.35877862595419846,0.6870229007633588
6193748288625,3.294726093,1,-0.7362170104980469,7.826645227050781,4.673481640625,-1.8702290076335877,5.061068702290076,-4.587786259541985
6193768287635,3.314725103,1,-0.8056488586425781,7.885303167724609,4.614823699951172,-2.16793893129771,1.5648854961832062,-3.5572519083969465
6193788291385,3.334728853,1,-0.7553706237792969,7.726088757324218,4.4184991638183595,-2.6412213740458017,-2.1755725190839694,-2.0839694656488548
6193808288104,3.354725572,1,-0.6871358764648438,7.813477117919922,4.226963031005859,-0.9465648854961832,-0.816793893129771,-2.3206106870229006
6193828287375,3.374724843,1,-0.7769184387207031,7.8912886718749995,4.5884874816894525,-1.0229007633587786,2.9236641221374047,-3.633587786259542
6193848288989,3.394726457,1,-0.9205705383300781,7.888894470214844,4.600458489990234,0.061068702290076333,2.877862595419847,-2.5419847328244276
6193868287375,3.414724843,1,-0.8511386901855468,7.784746697998046,4.666299035644531,2.618320610687023,1.900763358778626,-1.3282442748091603
6193888287479,3.434724947,1,-0.6919242797851562,7.7608046813964835,4.466383197021484,1.748091603053435,-0.3435114503816794,-1.816793893129771
6193908287843,3.454725311,1,-0.7026981872558593,7.8338278320312495,4.317942694091797,4.137404580152672,-0.4961832061068702,-4.297709923664122
6193928287375,3.474724843,1,-0.7936778503417968,8.021772662353515,4.2329485351562495,-0.6793893129770993,-2.3053435114503817,-5.5038167938931295
6193948287479,3.494724947,1,-0.9947907897949219,7.905653881835937,4.096479040527344,1.099236641221374,-1.0687022900763359,-2.4656488549618323
6193968366229,3.514803697,1,-0.709880792236328,7.8900915710449215,4.27724126586914,-0.1984732824427481,2.9770992366412212,-0.5114503816793893
6193988304666,3.534742134,1,-0.8188169677734375,7.824251025390624,4.667496136474609,4.519083969465649,10.351145038167939,0.2595419847328244
6194008302948,3.554740416,1,-1.0366893188476562,7.7608046813964835,4.934449621582031,4.648854961832061,7.908396946564886,-0.007633587786259542
6194028305187,3.574742655,1,-0.9301473449707031,7.762001782226562,4.498704919433593,0.5190839694656488,-2.114503816793893,-0.8702290076335878
6194048303573,3.594741041,1,-0.8044517578125,7.880514764404296,4.004302276611328,-3.572519083969466,-8.633587786259541,-1.900763358778626
6194068387635,3.614825103,1,-0.8176198669433593,8.0828248046875,3.902548706054687,-4.297709923664122,-4.854961832061068,-2.5267175572519083
6194088312531,3.634749999,1,-0.7589619262695312,8.057685687255859,4.340687609863281,1.2442748091603053,4.1603053435114505,-0.5954198473282443
6194108309302,3.65474677,1,-0.9756371765136718,7.799111907958984,4.695029455566406,3.9923664122137406,5.801526717557252,2.6793893129770994
6194128308468,3.674745936,1,-0.7625532287597656,7.587225061035156,4.600458489990234,2.6717557251908395,0.19083969465648856,3.564885496183206
6194148312479,3.694749947,1,-0.6811503723144531,7.754819177246094,4.599261389160156,1.984732824427481,-2.7557251908396947,-0.46564885496183206
6194168350291,3.714787759,1,-0.9301473449707031,7.976282830810546,4.1575311828613275,-5.358778625954199,-8.870229007633588,-3.0839694656488548
6194188310812,3.73474828,1,-0.48243163452148435,8.123526232910155,3.842693664550781,-1.3740458015267176,-5.015267175572519,-1.3740458015267176
6194208310656,3.754748124,1,-0.8774749084472656,7.860164050292968,4.185064501953125,0.8320610687022901,0.32061068702290074,1.6030534351145038
6194228310083,3.774747551,1,-0.8942343200683593,7.904456781005859,4.7884033203125,5.122137404580153,9.106870229007633,0.3969465648854962
6194248310604,3.794748072,1,-0.7481880187988281,7.7596075805664055,4.722562774658203,2.900763358778626,0.732824427480916,2.49618320610687
6194268311385,3.814748853,1,-0.7493851196289062,7.684190228271484,4.3430818115234375,1.1450381679389312,-6.259541984732825,1.8473282442748091
6194288310968,3.834748436,1,-0.6284779357910156,7.945158209228516,4.058171813964844,-0.3893129770992366,-5.526717557251908,-1.717557251908397
6194308309093,3.854746561,1,-0.6751648681640625,8.14028564453125,4.04739790649414,-1.1068702290076335,-2.099236641221374,-2.2290076335877864
6194328309302,3.87474677,1,-0.9457096557617187,7.8170684204101555,4.292803576660156,-2.198473282442748,1.0687022900763359,1.1526717557251909
6194348309822,3.89474729,1,-0.7912836486816406,7.856572747802734,4.617217901611328,8.564885496183207,8.145038167938932,0.5954198473282443
6194368308729,3.914746197,1,-0.7038952880859375,7.902062579345703,4.185064501953125,-1.3511450381679388,-4.137404580152672,0.5038167938931297
6194388311645,3.934749113,1,-1.0498574279785156,7.893682873535155,4.011484881591796,-6.122137404580153,-6.755725190839694,1.099236641221374
6194408311750,3.954749218,1,-0.7876923461914062,8.026561065673828,4.600458489990234,3.1297709923664123,6.396946564885496,-2.6564885496183206
6194428306489,3.974743957,1,-0.5638344909667968,7.967903124999999,4.299986181640625,-2.877862595419847,-6.404580152671755,0.8091603053435115
6194448307166,3.994744634,1,-0.5961562133789062,7.8350249328613275,4.084508032226562,1.3893129770992367,-4.938931297709924,0.8702290076335878
6194468312322,4.01474979,1,-0.5781997009277343,7.951143713378905,4.070142822265625,-1.1145038167938932,-3.0916030534351147,-0.816793893129771
6194488310500,4.034747968,1,-0.5710170959472656,8.022969763183593,4.553771557617187,1.7404580152671756,2.2748091603053435,-1.3053435114503817
6194508309250,4.054746718,1,-0.5889736083984375,7.7763669921875,4.402936853027343,2.2748091603053435,-2.2213740458015265,0.9618320610687023
6194528317895,4.074755363,1,-0.604535919189453,7.827842327880859,4.236539837646484,-0.16793893129770993,-5.442748091603053,-0.42748091603053434
6194548312322,4.09474979,1,-0.6081272216796875,8.010998754882811,4.1563340820312495,-1.5267175572519085,-3.33587786259542,-2.6946564885496183
6194568309510,4.114746978,1,-0.6787561706542968,8.050503082275391,4.113238452148437,-0.8702290076335878,-1.8396946564885497,-1.450381679389313
6194588309770,4.134747238,1,-0.5159504577636719,7.9846625366210935,4.283226770019531,2.9236641221374047,2.198473282442748,0.13740458015267176
6194608309093,4.154746561,1,-0.6691793640136718,7.866149554443359,4.548983154296875,2.8931297709923665,0.9847328244274809,0.5190839694656488
6194628310187,4.174747655,1,-0.679953271484375,7.8158713195800775,4.3801919372558595,-0.40458015267175573,-3.732824427480916,-0.4732824427480916
6194648310343,4.194747811,1,-0.709880792236328,7.9667060241699215,4.545391851806641,0.6793893129770993,-2.366412213740458,-1.8931297709923665
6194668309354,4.214746822,1,-0.6715735656738281,7.911639385986327,4.557362860107421,3.3893129770992365,-2.8625954198473282,-0.17557251908396945
6194688310031,4.234747499,1,-1.1133037719726562,7.857769848632812,4.452017987060547,6.251908396946565,-7.0458015267175576,1.251908396946565
6194708311749,4.254749217,1,-1.6891092712402342,7.687781530761718,4.423287567138671,-7.801526717557252,-11.49618320610687,1.8702290076335877
6194728311489,4.274748957,1,-0.21308394775390624,8.32463917236328,5.321113189697265,13.801526717557252,8.625954198473282,0.4580152671755725
6194748305239,4.294742707,1,0.26216508178710934,7.788338000488281,4.367023828124999,3.7938931297709924,-17.99236641221374,9.267175572519085
6194768310916,4.314748384,1,0.6787561706542968,7.3094976684570305,4.036623999023437,10.954198473282442,-11.312977099236642,7.99236641221374
6194788311489,4.334748957,1,0.5973533142089843,7.343016491699219,3.9276878234863277,8.526717557251908,-6.748091603053435,-3.099236641221374
6194808312166,4.354749634,1,-0.5183446594238281,7.669825018310546,3.584119885253906,-12.389312977099237,-17.938931297709924,-12.511450381679388
6194828311489,4.374748957,1,-0.38786066894531246,8.634688287353516,3.8893805969238278,-9.564885496183207,-5.175572519083969,-20.03053435114504
6194848309718,4.394747186,1,-0.1292868896484375,8.82263311767578,3.7792473205566406,-6.305343511450381,-7.595419847328245,-15.297709923664122
6194868309406,4.414746874,1,-0.7625532287597656,8.305485559082031,3.5805285827636717,0.5038167938931297,-7.755725190839694,-8.900763358778626
6194888311593,4.434749061,1,-0.7026981872558593,7.899668377685546,3.575740179443359,-3.6564885496183206,-4.00763358778626,-5.893129770992366
6194908308156,4.454745624,1,-0.42975919799804685,7.9655089233398435,4.3251252990722655,0.8854961832061069,10.748091603053435,-6.473282442748092
6194928311333,4.474748801,1,0.258573779296875,7.721300354003906,4.5884874816894525,0.9618320610687023,10.687022900763358,-6.778625954198473
6194948310447,4.494747915,1,0.16998831787109375,7.3849150207519525,4.763264202880859,5.717557251908397,5.824427480916031,-11.877862595419847
6194968310708,4.514748176,1,-1.0007762939453124,7.414842541503906,4.333505004882812,-5.412213740458015,-8.244274809160306,-20.870229007633586
6194988310864,4.534748332,1,-0.258573779296875,8.47786807861328,3.6475662292480466,-15.206106870229007,-11.541984732824428,-31.083969465648856
6195008311228,4.554748696,1,1.1982979309082031,8.804676605224609,2.4396914916992185,-15.488549618320612,-19.870229007633586,-35.7557251908397
6195028310499,4.574747967,1,0.5913678100585937,7.619546783447265,1.8519149841308593,-7.099236641221374,-24.66412213740458,-38.32824427480916
6195048310551,4.594748019,1,-0.12808978881835936,7.040149981689453,3.9468414367675777,6.458015267175573,6.343511450381679,-42.85496183206107
6195068309874,4.614747342,1,-3.427299676513672,7.529764221191406,7.5465236328125,4.732824427480916,27.82442748091603,-47.98473282442748
6195088349978,4.634787446,1,-2.8095956481933593,8.317456567382813,8.94473740234375,17.137404580152673,20.801526717557252,-46.38931297709924
6195108308937,4.654746405,1,-1.7238251953125,6.2213330139160155,3.840299462890625,-6.236641221374046,-79.96946564885496,-13.48091603053435
6195128308676,4.674746144,1,-2.3546973327636715,5.542576843261719,2.9089550170898435,-14.664122137404581,-53.82442748091603,-22.633587786259543
6195148309353,4.694746821,1,-3.6355952209472653,8.524555010986328,7.088034014892577,18.65648854961832,41.31297709923664,-54.9236641221374
6195168312895,4.714750363,1,-5.439626171875,9.648632690429688,7.596801867675781,-9.282442748091603,-0.1984732824427481,-34.80916030534351
6195188351593,4.734789061,1,-3.708618371582031,9.872490545654296,5.608417388916015,-1.7938931297709924,-50.847328244274806,1.6106870229007633
6195208311593,4.754749061,1,-0.22744915771484372,8.568847741699217,1.7693150268554687,12.51908396946565,-90.17557251908397,37.38931297709924
6195228310708,4.774748176,1,0.9983820922851562,7.196970190429687,-1.6340426330566404,3.8091603053435112,-97.52671755725191,44.81679389312977
6195248309770,4.794747238,1,2.070984436035156,8.129511737060547,0.28490999755859375,0.9465648854961832,-9.183206106870228,15.32824427480916
6195268309926,4.814747394,1,2.053027923583984,8.793902697753905,4.273649963378906,6.7251908396946565,57.70992366412214,-1.2900763358778626
6195288310760,4.834748228,1,2.4947581298828125,7.711723547363281,5.202600207519531,20.763358778625953,37.152671755725194,3.045801526717557
6195308309666,4.854747134,1,0.9002198242187499,6.290764862060547,3.7576995056152342,-8.320610687022901,-21.610687022900763,-0.6183206106870229
6195328309822,4.87474729,1,-1.0366893188476562,7.0473325866699215,2.923320227050781,-43.045801526717554,-25.48854961832061,-32.19083969465649
6195348308780,4.894746248,1,-1.9524714538574217,8.29351455078125,3.2034418212890623,-46.7557251908397,4.847328244274809,-42.43511450381679
6195368310083,4.914747551,1,-3.028665100097656,8.08881030883789,4.037821099853516,-34.58015267175573,27.259541984732824,-21.450381679389313
6195388309145,4.934746613,1,-2.117671368408203,7.4782888854980465,7.3466077941894525,3.4198473282442747,80.85496183206106,-0.46564885496183206
6195408310135,4.954747603,1,-3.3351229125976563,7.280767248535156,10.68651911010742,24.099236641221374,88.6030534351145,1.7633587786259541
6195428309405,4.974746873,1,-2.8335376647949215,6.362590911865234,8.667010009765624,16.87786259541985,-8.366412213740459,9.572519083969466
6195448309666,4.994747134,1,-2.3319524169921872,6.739677673339843,3.726574884033203,-26.015267175572518,-102.78625954198473,-1.6259541984732824
6195468310551,5.014748019,1,-0.9923965881347656,8.34498988647461,1.4377180969238281,-36.534351145038165,-80.19083969465649,-18.900763358778626
6195488309770,5.034747238,1,-0.9241618408203125,8.866925848388671,2.47081611328125,-5.282442748091603,-7.236641221374046,-9.755725190839694
6195508311020,5.054748488,1,-0.8930372192382812,8.213308795166014,5.531802935791015,34.45038167938932,45.98473282442748,12.427480916030534
6195528310916,5.074748384,1,-0.8511386901855468,7.104793426513671,7.359775903320312,40.3206106870229,35.6412213740458,25.15267175572519
6195548310499,5.094747967,1,-0.7649474304199219,6.645106707763672,6.398503936767578,18.763358778625953,-20.442748091603054,17.53435114503817
6195568309353,5.114746821,1,-0.5770026000976562,7.310694769287109,3.440467785644531,-11.748091603053435,-68.64885496183206,-1.900763358778626
6195588308885,5.134746353,1,-0.6416460449218749,8.099584216308592,1.301248602294922,-29.091603053435115,-63.916030534351144,-14.274809160305344
6195608310812,5.15474828,1,-0.7625532287597656,8.966285217285156,2.924517327880859,-0.24427480916030533,6.122137404580153,-13.038167938931299
6195628309509,5.174746977,1,-0.8702923034667969,8.914809881591797,6.226121417236328,37.66412213740458,51.51145038167939,0.8015267175572519
6195648310447,5.194747915,1,-0.4429273071289062,7.9655089233398435,5.44561167602539,34.038167938931295,-0.44274809160305345,16.49618320610687
6195668308832,5.2147463,1,0.12449848632812499,6.846219647216796,1.6160861206054686,-10.458015267175572,-72.90839694656489,12.969465648854962
6195688323572,5.23476104,1,1.1156979736328125,7.767987286376953,1.9764134704589842,-2.053435114503817,-21.84732824427481,-17.0
6195708316645,5.254754113,1,-0.3124433166503906,8.941146099853515,5.661089825439452,27.389312977099237,53.770992366412216,-32.98473282442748
6195728310707,5.274748175,1,-1.3335703247070312,8.219294299316406,6.762422589111328,48.38167938931298,39.32824427480916,-15.641221374045802
6195748311853,5.294749321,1,-1.8171990600585937,6.957550024414062,3.766079211425781,26.267175572519083,-30.358778625954198,-2.7022900763358777
6195768309978,5.314747446,1,-0.9097966308593749,7.636306195068359,2.5378537597656248,8.748091603053435,-20.435114503816795,-16.6793893129771
6195788310707,5.334748175,1,-0.2561795776367187,8.598775262451172,3.0142998901367184,-0.6106870229007634,3.5114503816793894,-21.099236641221374
6195808310239,5.354747707,1,-0.9026140258789062,8.432378247070313,5.201403106689453,13.106870229007633,29.732824427480917,-16.793893129770993
6195828314509,5.374751977,1,-2.1021090576171875,7.844601739501953,5.674257934570313,21.763358778625953,19.46564885496183,-10.419847328244275
6195848311489,5.394748957,1,-1.9800047729492187,7.721300354003906,4.211400720214844,3.3587786259541983,-9.587786259541986,-11.908396946564885
6195868309978,5.414747446,1,-2.009932293701172,7.894879974365234,1.7393875061035156,-13.122137404580153,-29.931297709923665,-9.038167938931299
6195888309093,5.434746561,1,-2.0458453186035155,8.772354882812499,1.9524714538574217,-6.740458015267175,3.549618320610687,-7.816793893129771
6195908355916,5.454793384,1,-1.8339584716796873,8.912415679931641,3.094505645751953,-4.091603053435114,23.83969465648855,5.7251908396946565
6195928323780,5.474761248,1,-1.284489190673828,8.287529046630858,4.4196962646484375,-6.709923664122138,28.30534351145038,20.389312977099237
6195948312947,5.494750415,1,-0.5805939025878906,7.720103253173828,5.218162518310547,-5.755725190839694,19.51145038167939,21.33587786259542
6195968309666,5.514747134,1,-0.13407529296874998,8.123526232910155,5.743689782714843,-5.770992366412214,12.473282442748092,6.351145038167939
6195988310343,5.534747811,1,-1.2952630981445312,7.862558251953125,3.736151690673828,-29.259541984732824,-30.053435114503817,2.931297709923664
6196008371020,5.554808488,1,-1.0019733947753906,8.092401611328125,3.2513258544921873,-23.885496183206108,-15.687022900763358,-4.557251908396947
6196028327426,5.574764894,1,-0.958877764892578,7.91642778930664,4.031835595703125,-1.4885496183206106,10.129770992366412,1.083969465648855
6196048315395,5.594752863,1,-1.2389993591308592,7.8350249328613275,4.935646722412109,3.427480916030534,16.442748091603054,3.2442748091603053
6196068313155,5.614750623,1,-1.6220716247558593,8.050503082275391,5.579686968994141,2.0839694656488548,11.86259541984733,-0.183206106870229
6196088311645,5.634749113,1,-1.284489190673828,8.148665350341796,4.6998178588867185,-5.374045801526718,-13.755725190839694,2.1908396946564888
6196108311072,5.65474854,1,-1.0319009155273438,8.173804467773436,3.394977954101562,-13.893129770992367,-28.923664122137403,3.3053435114503817
6196128310291,5.674747759,1,-0.6727706665039062,8.570044842529297,3.860650177001953,-9.664122137404581,-6.4961832061068705,-1.6870229007633588
6196148309353,5.694746821,1,-1.0486603271484374,8.86812294921875,5.400121844482421,1.3129770992366412,19.916030534351144,-5.862595419847328
6196168327582,5.71476505,1,-1.4030021728515625,8.795099798583983,5.966350537109375,19.572519083969464,22.30534351145038,-1.3435114503816794
6196188311384,5.734748852,1,-1.0402806213378906,9.419986431884766,4.673481640625,38.12213740458015,16.022900763358777,1.4274809160305344
6196208312426,5.754749894,1,0.18435352783203124,8.465897070312499,2.574963885498047,34.51145038167939,-0.35877862595419846,12.282442748091603
6196228311697,5.774749165,1,-0.1580173095703125,8.194155181884765,2.407369769287109,36.18320610687023,20.610687022900763,4.8396946564885495
6196248308832,5.7947463,1,-0.4261678955078125,9.373299499511718,4.973953948974609,56.12213740458015,73.94656488549619,-10.961832061068701
6196268318416,5.814755884,1,-0.82360537109375,8.807070806884765,5.870582470703124,72.21374045801527,60.152671755725194,-1.3129770992366412
6196288312113,5.834749581,1,-0.7278373046875,6.72291826171875,3.113659259033203,37.62595419847328,-19.129770992366414,15.381679389312977
6196308310811,5.854748279,1,-0.4477157104492187,5.827486840820312,1.5598223815917969,43.229007633587784,-26.770992366412212,13.297709923664122
6196328310603,5.874748071,1,-1.6903063720703124,6.344634399414062,1.9117700256347656,17.27480916030534,-13.748091603053435,-7.770992366412214
6196348309978,5.894747446,1,-2.1966800231933594,7.544129431152343,2.568978381347656,5.557251908396947,-5.7251908396946565,-20.3206106870229
6196368308936,5.914746404,1,-2.551021868896484,7.171831072998047,2.212242333984375,0.6641221374045801,-25.778625954198475,-1.3435114503816794
6196388309926,5.934747394,1,-2.4564509033203126,6.420051751708984,1.0319009155273438,-8.106870229007633,-43.267175572519086,17.81679389312977
6196408505707,5.954943175,1,-1.2904746948242187,6.760028387451172,0.7026981872558593,-29.33587786259542,-32.85496183206107,15.473282442748092
6196428319301,5.974756769,1,-2.100911956787109,8.15345375366211,2.4756045166015626,-55.85496183206107,-2.5572519083969465,3.0229007633587788
6196448314874,5.994752342,1,-1.6448165405273436,9.121908325195312,4.469974499511719,-53.717557251908396,12.641221374045802,10.16793893129771
6196468314926,6.014752394,1,-0.3938461730957031,9.119514123535156,5.147533569335937,-61.25190839694657,-3.2442748091603053,26.938931297709924
6196488310447,6.034747915,1,0.9145850341796874,9.132682232666015,5.372588525390625,-47.81679389312977,-5.251908396946565,25.603053435114504
6196508308311,6.054745779,1,0.3184288208007812,9.67137760620117,5.814318731689453,-31.519083969465647,-1.3740458015267176,6.4961832061068705
6196528322374,6.074759842,1,-0.4165910888671875,9.497797985839844,5.372588525390625,-47.63358778625954,-12.84732824427481,-5.229007633587786
6196548314197,6.094751665,1,0.14245499877929688,9.350554583740234,4.564545465087891,1.3893129770992367,0.732824427480916,6.480916030534351
6196568311072,6.11474854,1,0.9097966308593749,7.569268548583984,4.005499377441406,26.6793893129771,2.404580152671756,25.106870229007633
6196588310655,6.134748123,1,-0.10893617553710937,7.05451519165039,4.479551306152343,19.236641221374047,2.5572519083969465,11.679389312977099
6196608310707,6.154748175,1,-0.7888894470214843,8.046911779785155,4.787206219482422,-3.0839694656488548,-4.679389312977099,-12.358778625954198
6196628309613,6.174747081,1,-0.6296750366210937,9.319429962158203,4.375403533935547,-2.7938931297709924,-14.80916030534351,-17.3206106870229
6196648310759,6.194748227,1,-0.13766659545898435,9.3852705078125,3.5877111877441403,5.893129770992366,-20.35114503816794,-5.824427480916031
6196668309926,6.214747394,1,0.21188684692382811,9.27633433227539,3.612850305175781,20.435114503816795,-4.412213740458015,-0.48854961832061067
6196688334822,6.23477229,1,-0.4752490295410156,9.568426934814452,4.562151263427734,32.06106870229008,18.297709923664122,-3.7099236641221376
6196708312790,6.254750258,1,-0.8295908752441405,9.514557397460937,4.520252734375,35.396946564885496,18.625954198473284,-0.8320610687022901
6196728313780,6.274751248,1,-0.42377369384765623,8.876502655029297,3.4835634155273434,42.2442748091603,11.641221374045802,7.740458015267175
6196748310290,6.294747758,1,-0.26815058593749996,8.215702996826172,3.327940307617187,49.847328244274806,24.16030534351145,8.099236641221374
6196768311019,6.314748487,1,-0.5339069702148437,7.716511950683593,4.332307904052734,56.16793893129771,34.33587786259542,6.137404580152672
6196788310551,6.334748019,1,-0.9193734375,7.3837179199218745,3.5494039611816404,46.7557251908397,6.984732824427481,3.015267175572519
6196808311019,6.354748487,1,-0.9325415466308593,7.126341241455077,2.1021090576171875,27.0381679389313,-21.27480916030534,-1.6717557251908397
6196828312634,6.374750102,1,-0.729034405517578,6.819883428955078,0.8607154968261719,18.46564885496183,-27.900763358778626,-3.9923664122137406
6196848316488,6.394753956,1,-1.5011644409179687,6.284779357910156,0.32082302246093747,17.549618320610687,-21.099236641221374,-1.786259541984733
6196868310915,6.414748383,1,-1.2222399475097656,6.530185028076171,0.8607154968261719,3.549618320610687,-5.809160305343512,-4.916030534351145
6196888310082,6.43474755,1,-1.3958195678710936,7.212532501220703,1.4628572143554686,-21.412213740458014,-6.969465648854962,-5.190839694656488
6196908309092,6.45474656,1,-1.1252747802734375,7.711723547363281,1.5777788940429687,-35.00763358778626,-14.664122137404581,1.6870229007633588
6196928305394,6.474742862,1,0.5482721801757812,8.256404425048828,1.9895815795898437,-40.58015267175573,-11.320610687022901,8.106870229007633
6196948310811,6.494748279,1,-0.584185205078125,8.429984045410155,2.9747955627441405,-66.50381679389314,-14.679389312977099,5.290076335877862
6196968309874,6.514747342,1,0.23582886352539062,9.151835845947264,3.915716815185547,-51.01526717557252,-8.061068702290076,6.1679389312977095
6196988308676,6.534746144,1,-0.411802685546875,8.385691314697265,4.703409161376952,-65.40458015267176,-21.68702290076336,10.076335877862595
6197008309665,6.554747133,1,-0.1149216796875,7.7224974548339835,3.2788591735839843,-74.17557251908397,-38.541984732824424,5.6183206106870225
6197028351124,6.574788592,1,-0.8966285217285156,8.583212951660157,4.431667272949219,-78.23664122137404,-17.80916030534351,-6.00763358778626
6197048310186,6.594747654,1,0.09457096557617187,9.04050546875,6.069301208496094,-82.1526717557252,-6.282442748091603,-24.206106870229007
6197068311280,6.614748748,1,0.9576806640625,9.798270294189452,7.688978631591796,-86.29770992366412,10.65648854961832,-32.79389312977099
6197088310707,6.634748175,1,-0.9062053283691406,10.672153900146483,8.288726147460936,-32.80916030534351,16.541984732824428,-26.572519083969464
6197108310186,6.654747654,1,-0.5027823486328125,9.430760339355468,6.648698010253906,-20.96946564885496,-4.038167938931298,-4.6106870229007635
6197128348884,6.674786352,1,0.4321533996582031,7.196970190429687,4.885368487548828,54.916030534351144,-9.725190839694656,27.83206106870229
6197148363832,6.6948013,1,0.6536170532226562,6.430825659179687,3.5793314819335937,36.50381679389313,-10.435114503816793,15.396946564885496
6197168317373,6.714754841,1,0.28730419921875,7.167042669677734,4.107252947998047,21.206106870229007,3.5572519083969465,-10.946564885496183
6197188325394,6.734762862,1,-0.5267243652343749,8.288726147460936,5.10084663696289,19.16030534351145,16.732824427480917,-27.3206106870229
6197208315446,6.754752914,1,-1.1480196960449218,8.728062152099609,4.896142395019531,18.076335877862597,2.7099236641221376,-21.30534351145038
6197228366905,6.774804373,1,-1.1540052001953125,8.577227447509765,4.444835382080078,28.72519083969466,1.6793893129770991,-9.290076335877863
6197248310967,6.794748435,1,-0.8930372192382812,8.366537701416014,3.4668040039062498,33.56488549618321,4.679389312977099,1.83206106870229
6197268310967,6.814748435,1,-1.024718310546875,7.857769848632812,2.729389892578125,35.29007633587786,15.854961832061068,10.068702290076336
6197288309665,6.834747133,1,-0.39145197143554683,8.198943585205077,3.125630267333984,34.58015267175573,44.48854961832061,10.068702290076336
6197308306957,6.854744425,1,-0.5183446594238281,8.13310303955078,4.559757061767578,46.969465648854964,65.98473282442748,10.549618320610687
6197328310446,6.874747914,1,0.16280571289062498,7.969100225830077,5.073313317871094,57.595419847328245,59.908396946564885,9.32824427480916
6197348318259,6.894755727,1,-0.8295908752441405,7.076063006591797,3.853467572021484,35.06870229007634,11.541984732824428,3.648854961832061
6197368310186,6.914747654,1,-1.5610194824218748,6.603208178710937,1.4640543151855467,3.1526717557251906,-32.48854961832061,-3.8931297709923665
6197388311175,6.934748643,1,-1.8040309509277344,6.83783994140625,0.4955997436523437,-12.694656488549619,-25.259541984732824,-7.99236641221374
6197408310811,6.954748279,1,-1.9285294372558592,7.60398447265625,1.8183961608886718,-14.603053435114504,7.244274809160306,-3.9923664122137406
6197428311019,6.974748487,1,-1.839943975830078,7.596801867675781,3.191470812988281,-30.557251908396946,10.84732824427481,11.595419847328245
6197448311644,6.994749112,1,-1.140837091064453,7.345410693359375,3.4093431640625,-45.534351145038165,-12.564885496183207,28.244274809160306
6197468311696,7.014749164,1,0.45489831542968745,7.8924857727050775,4.31554849243164,-65.21374045801527,-18.801526717557252,23.236641221374047
6197488308936,7.034746404,1,-0.5997475158691405,8.12711753540039,5.090072729492187,-72.47328244274809,-30.702290076335878,11.274809160305344
6197508310967,7.054748435,1,0.19153613281249998,9.550470422363281,5.852625958251953,-82.38931297709924,-17.106870229007633,-7.175572519083969
6197528308936,7.074746404,1,0.507570751953125,10.242394702148436,5.88614478149414,-60.35114503816794,-18.137404580152673,-3.6564885496183206
6197548310707,7.094748175,1,1.061828436279297,10.60990465698242,6.754042883300781,-35.51145038167939,13.16030534351145,-3.2519083969465647
6197568310967,7.114748435,1,0.949300958251953,8.86094034423828,6.603208178710937,24.740458015267176,25.69465648854962,22.81679389312977
6197588311175,7.134748643,1,0.6057330200195312,6.28837066040039,4.892551092529296,43.229007633587784,-4.893129770992366,39.19083969465649
6197608308623,7.154746091,1,0.1879448303222656,6.262034442138671,4.112041351318359,25.221374045801525,-5.351145038167939,6.709923664122138
6197628309821,7.174747289,1,0.23582886352539062,8.543708624267577,3.930082025146484,-5.8396946564885495,-4.061068702290076,-28.374045801526716
6197648310186,7.194747654,1,0.4896142395019531,9.562441430664062,4.365826727294921,3.366412213740458,5.687022900763359,-27.702290076335878
6197668311332,7.2147488,1,0.2501940734863281,9.108740216064453,4.605246893310547,31.328244274809162,15.0,-11.969465648854962
6197688309925,7.234747393,1,-0.5255272644042969,8.41442173461914,5.5258174316406246,54.916030534351144,31.442748091603054,-6.679389312977099
6197708318155,7.254755623,1,-1.5574281799316405,8.400056524658202,5.911283898925781,63.12977099236641,32.9236641221374,-12.038167938931299
6197728313363,7.274750831,1,-1.388636962890625,8.443152154541016,4.9823336547851556,48.88549618320611,12.435114503816793,-12.938931297709924
6197748311123,7.294748591,1,-1.1180921752929687,8.608352069091797,3.8091748413085935,53.63358778625954,-0.32061068702290074,-4.221374045801527
6197768310498,7.314747966,1,-0.7026981872558593,7.0844427124023435,3.3028011901855465,65.21374045801527,2.687022900763359,6.3893129770992365
6197788307894,7.334745362,1,-0.6021417175292968,6.5014546081542965,1.983596075439453,53.16793893129771,-12.854961832061068,3.2442748091603053
6197808310290,7.354747758,1,-0.9325415466308593,6.72291826171875,0.24061726684570311,13.618320610687023,-33.66412213740458,-9.916030534351146
6197828311748,7.374749216,1,-1.2294225524902342,7.45075556640625,-0.011971008300781249,-5.740458015267175,-16.870229007633586,-16.450381679389313
6197848312738,7.394750206,1,-1.2725181823730467,7.818265521240234,1.4149731811523436,-8.83969465648855,10.610687022900763,-4.679389312977099
6197868314300,7.414751768,1,-1.1635820068359375,7.141903552246093,2.7844565307617186,4.015267175572519,18.908396946564885,18.984732824427482
6197888311644,7.434749112,1,-0.612915625,6.341043096923828,3.247734552001953,-15.030534351145038,-1.5801526717557253,26.770992366412212
6197908310029,7.454747497,1,-0.9516951599121093,7.605181573486328,2.867056488037109,-58.534351145038165,-27.50381679389313,6.297709923664122
6197928309561,7.474747029,1,-0.3603273498535156,9.205705383300781,3.342305517578125,-71.21374045801527,-23.106870229007633,-4.7251908396946565
6197948310550,7.494748018,1,0.3076549133300781,9.08479819946289,3.2417490478515623,-64.80916030534351,-21.984732824427482,7.00763358778626
6197968309509,7.514746977,1,-0.469263525390625,8.254010223388672,3.5302503479003904,-63.152671755725194,-19.870229007633586,19.137404580152673
6197988309665,7.534747133,1,-0.1879448303222656,8.664615808105468,5.385756634521484,-49.969465648854964,16.72519083969466,14.65648854961832
6198008308936,7.554746404,1,-0.022744915771484374,8.453926062011718,7.174225274658203,-41.0,29.366412213740457,15.992366412213741
6198028311956,7.574749424,1,0.07062894897460938,8.627505682373046,7.625532287597656,-25.328244274809162,16.48854961832061,11.076335877862595
6198048354665,7.594792133,1,0.7481880187988281,9.184157568359375,5.999869360351562,-33.35114503816794,-14.793893129770993,-0.6564885496183206
6198068311696,7.614749164,1,0.8200140686035156,9.143456140136719,4.661510632324219,-10.603053435114504,-15.427480916030534,2.5419847328244276
6198088311384,7.634748852,1,0.5231330627441406,7.9283987976074215,4.23893403930664,15.717557251908397,-1.6717557251908397,11.908396946564885
6198108307477,7.654744945,1,0.4321533996582031,7.110778930664062,4.84586416015625,29.954198473282442,15.061068702290076,10.236641221374045
6198128311592,7.67474906,1,0.22864625854492185,7.6099699768066404,5.275623358154297,23.702290076335878,9.916030534351146,-5.297709923664122
6198148354248,7.694791716,1,-0.022744915771484374,8.264784130859374,4.278438366699218,5.0534351145038165,-14.022900763358779,-15.740458015267176
6198168306748,7.714744216,1,-0.0143652099609375,8.667010009765624,3.7002386657714843,8.145038167938932,-11.603053435114504,-15.908396946564885
6198188311488,7.734748956,1,-0.24899697265624998,8.730456353759765,4.164713787841797,21.34351145038168,9.633587786259541,-10.557251908396946
6198208309977,7.754747445,1,-0.20829554443359374,8.684966522216797,5.474342095947265,40.274809160305345,31.15267175572519,-6.190839694656488
6198228309769,7.774747237,1,-0.12210428466796874,8.473079675292968,5.360617517089843,43.656488549618324,18.900763358778626,-0.9236641221374046
6198248310133,7.794747601,1,-0.037110125732421874,8.444349255371094,4.242525341796875,37.961832061068705,-0.4198473282442748,-4.091603053435114
6198268310186,7.814747654,1,0.5638344909667968,8.360552197265624,3.017891192626953,35.091603053435115,-3.595419847328244,-7.969465648854962
6198288309613,7.834747081,1,0.10175357055664062,7.819462622070312,2.337937921142578,44.083969465648856,5.480916030534351,-8.450381679389313
6198308309040,7.854746508,1,-0.7733271362304687,7.428010650634765,2.6803087585449217,40.13740458015267,17.763358778625953,-14.450381679389313
6198328309248,7.874746716,1,-1.2222399475097656,7.332242584228515,3.1376012756347653,33.7557251908397,17.862595419847327,-16.099236641221374
6198348310081,7.894747549,1,-1.1061211669921875,7.135918048095703,2.366668341064453,15.312977099236642,-8.755725190839694,-9.19083969465649
6198368311123,7.914748591,1,-1.0702081420898437,6.987477545166016,1.2737152832031249,-1.1221374045801527,-26.923664122137403,-3.0076335877862594
6198388309977,7.934747445,1,-0.9600748657226562,7.2915411560058585,0.949300958251953,-22.282442748091604,-26.793893129770993,-1.0763358778625953
6198408310081,7.954747549,1,-0.6512228515624999,7.662642413330078,1.7717092285156248,-25.893129770992367,-4.7251908396946565,2.49618320610687
6198428312165,7.974749633,1,-0.6560112548828124,7.7799582946777335,3.7696705139160156,-26.564885496183205,13.229007633587786,5.625954198473282
6198448310915,7.994748383,1,-0.5111620544433594,8.483853582763672,4.673481640625,-30.755725190839694,4.786259541984733,7.396946564885496
6198468314144,8.014751612,1,0.08738836059570312,9.08479819946289,4.431667272949219,-45.38931297709924,-11.86259541984733,4.732824427480916
6198488311488,8.034748956,1,-0.001197100830078125,9.200916979980468,4.207809417724609,-54.45038167938932,-26.045801526717558,1.9389312977099236
6198508309613,8.054747081,1,0.3854664672851562,9.481038574218749,4.432864373779297,-31.290076335877863,-6.786259541984733,1.1145038167938932
6198528308623,8.074746091,1,0.010773907470703125,8.66940421142578,4.024652990722656,-24.83206106870229,-3.5572519083969465,8.992366412213741
6198548315133,8.094752601,1,-0.16160861206054686,8.175001568603514,4.046200805664062,-24.770992366412212,6.099236641221374,10.488549618320612
6198568312321,8.114749789,1,0.10414777221679687,8.021772662353515,5.231330627441406,-21.862595419847327,21.114503816793892,9.221374045801527
6198588307529,8.134744997,1,-0.16759411621093748,7.89727417602539,6.673837127685546,4.99236641221374,26.47328244274809,10.076335877862595
6198608310602,8.15474807,1,0.15442600708007811,8.117540728759765,5.883750579833984,-5.931297709923665,-8.549618320610687,4.473282442748092
6198628309456,8.174746924,1,0.15203180541992187,8.435969549560546,3.6727053466796873,-21.450381679389313,-39.099236641221374,-4.320610687022901
6198648309925,8.194747393,1,0.22505495605468748,8.808267907714843,3.398569256591797,-12.076335877862595,-14.725190839694656,-8.687022900763358
6198668309925,8.214747393,1,0.08140285644531249,8.141482745361328,4.748898992919922,17.206106870229007,20.763358778625953,2.3740458015267176
6198688310915,8.234748383,1,0.3902548706054687,7.5345526245117185,5.635950708007812,42.0763358778626,28.557251908396946,7.732824427480916
6198708309821,8.254747289,1,-0.00239420166015625,7.564480145263672,5.228936425781249,22.076335877862597,2.2442748091603053,-4.709923664122138
6198728309300,8.274746768,1,-0.09457096557617187,8.981847528076171,4.709394665527343,6.488549618320611,-11.312977099236642,-25.404580152671755
6198748309925,8.294747393,1,0.3172317199707031,9.645041387939452,3.5482068603515624,5.435114503816794,-15.961832061068701,-25.870229007633586
6198768312060,8.314749528,1,0.06464344482421874,9.141061938476563,3.6571430358886716,32.778625954198475,7.099236641221374,-11.351145038167939
6198788308727,8.334746195,1,0.02154781494140625,8.565256439208984,4.973953948974609,59.48091603053435,36.19083969465649,-4.824427480916031
6198808307998,8.354745466,1,-0.4608838195800781,7.7979148071289055,5.6563014221191406,63.152671755725194,29.900763358778626,-3.1297709923664123
6198828310498,8.374747966,1,-0.41419688720703124,7.633911993408202,3.497928625488281,50.41984732824427,-13.259541984732824,-8.549618320610687
6198848311592,8.39474906,1,-0.5614402893066406,7.475894683837891,1.3168109130859373,26.47328244274809,-36.70229007633588,-15.946564885496183
6198868311435,8.414748903,1,-0.6524199523925781,7.586027960205078,0.7709329345703124,23.47328244274809,-18.076335877862597,-19.793893129770993
6198888314821,8.434752289,1,-1.0702081420898437,7.451952667236328,2.1918916198730467,27.374045801526716,9.366412213740459,-17.244274809160306
6198908312060,8.454749528,1,-1.1468225952148436,7.358578802490234,2.6204537170410154,18.68702290076336,2.50381679389313,-9.603053435114504
6198928310602,8.47474807,1,-1.3563152404785155,7.351396197509765,1.4808137268066406,-10.595419847328245,-26.16793893129771,-3.8396946564885495
6198948310654,8.494748122,1,-1.1755530151367186,8.078036401367187,1.0594342346191405,-31.389312977099237,-25.480916030534353,-3.5114503816793894
6198968310758,8.514748226,1,-0.7445967163085937,8.719682446289061,2.2553379638671873,-31.82442748091603,2.3587786259541983,2.2977099236641223
6198988309456,8.534746924,1,-0.31962592163085934,8.31865366821289,3.7529111022949215,-16.27480916030534,18.14503816793893,15.374045801526718
6199008309092,8.55474656,1,-0.51714755859375,7.9283987976074215,4.092887738037109,-29.480916030534353,0.22900763358778625,20.908396946564885
6199028309196,8.574746664,1,-0.7218518005371093,8.377311608886718,3.0909143432617188,-55.74045801526717,-22.778625954198475,12.106870229007633
6199048309352,8.59474682,1,-0.622492431640625,8.866925848388671,2.463633508300781,-73.82442748091603,-27.091603053435115,6.893129770992366
6199068354144,8.614791612,1,0.7529764221191406,9.289502441406249,2.958036151123047,-80.13740458015268,-8.541984732824428,15.312977099236642
6199088309873,8.634747341,1,1.2246341491699217,7.940369805908203,6.224924316406249,-22.16793893129771,57.00763358778626,27.236641221374047
6199108309925,8.654747393,1,-0.4070142822265625,7.6231380859375,8.819041815185546,7.66412213740458,63.25190839694657,19.53435114503817
6199128309925,8.674747393,1,-0.20470424194335937,9.022548956298827,7.738059765625,-28.99236641221374,0.5038167938931297,-8.557251908396946
6199148310602,8.69474807,1,0.5518634826660156,9.6917283203125,4.3813890380859375,-40.33587786259542,-54.62595419847328,-12.854961832061068
6199168310862,8.71474833,1,0.9217676391601562,9.217676391601563,2.839523168945312,-9.206106870229007,-33.93129770992366,-3.0916030534351147
6199188310706,8.734748174,1,0.4082113830566406,8.05648858642578,4.364629626464843,34.47328244274809,21.358778625954198,8.961832061068701
6199208309248,8.754746716,1,-0.20949264526367187,7.748833673095703,6.268019946289062,51.961832061068705,44.10687022900763,2.6793893129770994
6199228309873,8.774747341,1,0.09696516723632811,8.249221820068358,5.149927770996094,24.763358778625953,0.5572519083969466,-8.099236641221374
6199248308987,8.794746455,1,-0.09576806640624999,8.526949212646484,2.914940521240234,-0.45038167938931295,-31.015267175572518,-15.404580152671755
6199268308206,8.814745674,1,-0.058657940673828124,9.331400970458985,3.385401147460937,18.35114503816794,5.99236641221374,-19.99236641221374
6199288311852,8.83474932,1,0.3016694091796875,9.637858782958984,4.783614916992187,45.31297709923664,39.94656488549618,-12.17557251908397
6199308309925,8.854747393,1,-0.3136404174804687,7.977479931640625,4.857835168457031,55.86259541984733,23.770992366412212,5.00763358778626
6199328309716,8.874747184,1,-0.6787561706542968,7.643488800048828,3.5386300537109374,39.267175572519086,-6.99236641221374,-1.3740458015267176
6199348310289,8.894747757,1,-0.025139117431640625,8.173804467773436,2.6192566162109374,27.412213740458014,-8.122137404580153,-12.961832061068701
6199368310706,8.914748174,1,-0.17357962036132812,8.269572534179687,1.5490484741210937,21.14503816793893,-10.572519083969466,-12.061068702290076
6199388313102,8.93475057,1,-0.6153098266601562,7.800309008789062,2.0781670410156248,27.46564885496183,11.297709923664122,-8.916030534351146
6199408306904,8.954744372,1,-0.7661445312499999,7.323862878417969,2.3870190551757813,25.6793893129771,18.49618320610687,-4.809160305343512
6199428311123,8.974748591,1,-1.2294225524902342,6.846219647216796,2.972401361083984,24.923664122137403,16.198473282442748,-0.648854961832061
6199448308727,8.994746195,1,-0.82360537109375,7.34181939086914,2.8024130432128906,5.3893129770992365,-2.351145038167939,-4.152671755725191
6199468311018,9.014748486,1,-0.8631096984863281,7.736862664794922,1.9009961181640624,-18.0381679389313,-27.213740458015266,-4.679389312977099
6199488311018,9.034748486,1,-0.7972691528320313,8.09479581298828,1.2210428466796874,-22.99236641221374,-30.740458015267176,-0.16793893129770993
6199508309456,9.054746924,1,-0.7062894897460937,7.732074261474609,1.4018050720214843,-20.412213740458014,-16.885496183206108,12.19083969465649
6199528308623,9.074746091,1,-0.5291185668945312,6.885723974609375,2.7281927917480466,-19.412213740458014,2.0763358778625953,20.114503816793892
6199548309456,9.094746924,1,-1.006761798095703,6.975506536865234,3.778050219726562,-35.94656488549618,-1.5038167938931297,13.893129770992367
6199568309039,9.114746507,1,0.14963760375976562,8.30668265991211,3.815160345458984,-52.7557251908397,-14.396946564885496,2.6717557251908395
6199588309664,9.134747132,1,0.9253589416503906,9.471461767578125,4.064157318115234,-73.92366412213741,-28.717557251908396,-12.16030534351145
6199608308675,9.154746143,1,1.0235212097167967,10.474632263183594,4.364629626464843,-76.35114503816794,-25.267175572519083,-17.137404580152673
6199628309404,9.174746872,1,2.0745757385253905,10.43153663330078,5.02423218383789,-45.916030534351144,-2.015267175572519,-13.48091603053435
6199648308779,9.194746247,1,1.1384428894042968,9.191340173339842,4.546588952636719,-23.625954198473284,-1.2671755725190839,-2.9618320610687023
6199668311123,9.214748591,1,-0.00239420166015625,8.148665350341796,5.5270145324707025,-29.61832061068702,15.061068702290076,-11.98473282442748
6199688311383,9.234748851,1,-0.10893617553710937,8.17859287109375,7.088034014892577,26.27480916030534,44.42748091603053,-16.48854961832061
6199708315654,9.254753122,1,-0.3016694091796875,7.071274603271484,5.416881256103515,13.282442748091603,-10.038167938931299,-9.34351145038168
6199728312373,9.274749841,1,-0.17956512451171874,6.807912420654296,3.3602620300292965,0.45038167938931295,-44.213740458015266,-16.564885496183205
6199748310393,9.294747861,1,-0.10295067138671875,7.199364392089843,2.7186159851074216,-14.297709923664122,-37.06870229007634,-32.229007633587784
6199768310081,9.314747549,1,-0.9947907897949219,7.517793212890624,3.6487633300781246,-2.5572519083969465,-10.450381679389313,-32.916030534351144
6199788311122,9.33474859,1,-1.2605471740722656,7.630320690917968,5.209782812499999,0.08396946564885496,4.190839694656488,-28.52671755725191
6199808309039,9.354746507,1,-1.7022773803710936,7.301117962646484,4.92846411743164,-11.076335877862595,-13.969465648854962,-20.389312977099237
6199828309612,9.37474708,1,-1.5538368774414062,7.631517791748046,4.299986181640625,-6.755725190839694,-20.50381679389313,-19.603053435114504
6199848311956,9.394749424,1,-1.707065783691406,8.646659295654297,4.473565802001953,-36.06870229007634,-15.763358778625955,-27.786259541984734
6199868307060,9.414744528,1,-0.5051765502929687,9.297882147216797,5.127182855224609,-2.3282442748091605,11.854961832061068,-16.389312977099237
6199888311591,9.434749059,1,-0.9241618408203125,8.212111694335936,5.066130712890625,9.022900763358779,10.679389312977099,2.900763358778626
6199908313831,9.454751299,1,-1.0031704956054688,7.196970190429687,4.746504791259765,27.099236641221374,9.961832061068701,11.312977099236642
6199928311539,9.474749007,1,-1.2102689392089843,7.414842541503906,4.1946413085937495,6.068702290076335,-7.152671755725191,4.824427480916031
6199948309977,9.494747445,1,0.3268085266113281,9.003395343017578,4.587290380859375,-17.81679389312977,-3.2061068702290076,-9.389312977099237
6199968310081,9.514747549,1,1.189918225097656,8.780734588623046,3.756502404785156,-1.4198473282442747,-10.946564885496183,3.3053435114503817
6199988352477,9.534789945,1,0.39863457641601563,7.769184387207031,3.366247534179687,18.633587786259543,-6.534351145038168,10.84732824427481
6200008309508,9.554746976,1,-0.729034405517578,7.660248211669922,3.6858734558105466,-12.16030534351145,-7.099236641221374,-5.190839694656488
6200028309768,9.574747236,1,-0.9804255798339843,8.137891442871092,4.276044165039062,-18.137404580152673,-1.5038167938931297,-12.267175572519085
6200048308466,9.594745934,1,-1.590947003173828,8.37611450805664,5.160701678466797,7.526717557251908,9.488549618320612,-7.717557251908397
6200068309195,9.614746663,1,-0.7697358337402344,7.933187200927734,4.991910461425781,5.320610687022901,-5.122137404580153,0.7633587786259542
6200088308206,9.634745674,1,-0.13646949462890623,7.486668591308593,4.052186309814453,4.183206106870229,-15.778625954198473,5.488549618320611
6200108310654,9.654748122,1,0.3699041564941406,7.50821640625,3.5769372802734374,4.129770992366412,-4.5038167938931295,-0.46564885496183206
6200128309456,9.674746924,1,-0.3507505432128906,7.866149554443359,3.954024041748047,7.923664122137405,8.801526717557252,-6.923664122137405
6200148308518,9.694745986,1,-1.0235212097167967,8.002619049072266,4.3251252990722655,-1.633587786259542,7.7251908396946565,-8.145038167938932
6200168309768,9.714747236,1,-1.092953057861328,8.173804467773436,4.563348364257812,-6.404580152671755,7.0458015267175576,-4.786259541984733
6200188310758,9.734748226,1,-0.5339069702148437,8.177395770263672,4.158728283691406,-3.030534351145038,5.526717557251908,1.0763358778625953
6200208310393,9.754747861,1,-0.009576806640625,7.819462622070312,3.077746234130859,-1.3893129770992367,-0.3969465648854962,1.7709923664122138
6200228310393,9.774747861,1,-0.24181436767578124,7.93558140258789,3.1184476623535153,-12.679389312977099,4.748091603053435,-10.335877862595419
6200248308049,9.794745517,1,-0.9085995300292968,8.28633194580078,4.185064501953125,-2.5877862595419847,19.045801526717558,-15.877862595419847
6200268310133,9.814747601,1,-1.5777788940429687,8.252813122558594,5.128379956054687,-0.816793893129771,20.549618320610687,-10.961832061068701
6200288309976,9.834747444,1,-1.3850456604003905,8.020575561523437,5.220556719970703,9.755725190839694,16.85496183206107,-3.236641221374046
6200308311383,9.854748851,1,-0.7493851196289062,7.75721337890625,4.301183282470703,4.488549618320611,-0.7709923664122137,-0.44274809160305345
6200328309091,9.874746559,1,-0.8128314636230468,7.772775689697265,4.0066964782714845,7.938931297709924,-1.7404580152671756,-5.259541984732825
6200348309716,9.894747184,1,-0.9421183532714843,7.72489165649414,4.173093493652344,3.595419847328244,3.5267175572519083,-8.389312977099237
6200368307633,9.914745101,1,-0.51714755859375,7.660248211669922,4.7201685729980465,9.725190839694656,18.38167938931298,-3.122137404580153
6200388310289,9.934747757,1,-1.071405242919922,7.484274389648437,5.5270145324707025,12.954198473282442,24.099236641221374,0.9923664122137404
6200408311331,9.954748799,1,-1.006761798095703,7.879317663574218,5.590460876464843,10.946564885496183,16.50381679389313,-0.5572519083969466
6200428310862,9.97474833,1,-0.12689268798828124,7.717709051513672,3.347093920898437,-2.0916030534351147,-15.610687022900763,-0.022900763358778626
6200448308310,9.994745778,1,0.7817068420410156,8.007407452392577,2.2577321655273437,-12.801526717557252,-12.083969465648854,-11.244274809160306
6200468310758,10.014748226,1,0.001197100830078125,8.473079675292968,3.2058360229492187,3.9389312977099236,21.84732824427481,-16.328244274809162
6200488310237,10.034747705,1,-1.1911153259277343,8.014590057373047,4.236539837646484,4.412213740458015,31.519083969465647,-12.51908396946565
6200508310706,10.054748174,1,-2.152387292480469,7.884106066894531,4.3813890380859375,-8.48091603053435,17.80916030534351,-11.374045801526718
6200528308466,10.074745934,1,-1.659181750488281,8.530540515136718,4.499902020263671,-6.847328244274809,19.96946564885496,-10.694656488549619
6200548309508,10.094746976,1,-1.16837041015625,7.876923461914062,4.471171600341797,-3.236641221374046,18.50381679389313,2.854961832061069
6200568314351,10.114751819,1,-1.3311761230468748,7.216123803710937,5.002684368896484,14.603053435114504,30.0381679389313,9.083969465648854
6200588310653,10.134748121,1,-1.2342109558105467,7.710526446533203,6.3147068786621094,19.625954198473284,40.0763358778626,-2.2748091603053435
6200608311851,10.154749319,1,-0.8906430175781249,7.851784344482422,4.677072943115234,-16.33587786259542,-2.66412213740458,-7.320610687022901
6200628311018,10.174748486,1,0.13646949462890623,7.846995941162109,3.6176387084960937,-11.48091603053435,-8.893129770992367,-3.3435114503816794
6200648306383,10.194743851,1,0.30047230834960936,7.599196069335937,5.039794494628906,9.580152671755725,22.946564885496183,-3.7709923664122136
6200668310028,10.214747496,1,-0.8702923034667969,7.2903440551757805,5.86699116821289,26.358778625954198,28.603053435114504,-7.412213740458015
6200688309143,10.234746611,1,-2.0159177978515626,7.588422161865234,4.656722229003906,-0.7022900763358778,2.198473282442748,-15.618320610687023
6200708355341,10.254792809,1,-2.6946739685058594,8.503007196044921,3.4739866088867184,-19.374045801526716,-6.488549618320611,-14.16030534351145
6200728309716,10.274747184,1,-1.9045874206542968,8.961496813964843,3.7409400939941406,-5.679389312977099,9.267175572519085,-5.00763358778626
6200748309612,10.29474708,1,-2.6659435485839844,7.848193041992187,2.8850130004882812,12.648854961832061,-2.2977099236641223,12.282442748091603
6200768308153,10.314745621,1,-2.395398760986328,8.210914593505859,1.9045874206542968,7.4961832061068705,-10.213740458015268,6.786259541984733
6200788309612,10.33474708,1,-2.473210314941406,8.728062152099609,1.5586252807617187,-12.83969465648855,-1.1145038167938932,0.6106870229007634
6200808309195,10.354746663,1,-2.4133552734375,9.399635717773437,2.090138049316406,-8.061068702290076,25.931297709923665,1.633587786259542
6200828310028,10.374747496,1,-1.839943975830078,8.626308581542968,3.854664672851562,21.740458015267176,56.38167938931298,19.396946564885496
6200848308518,10.394745986,1,-1.303642803955078,6.981492041015625,5.474342095947265,33.50381679389313,49.79389312977099,37.81679389312977
6200868312841,10.414750309,1,-0.42975919799804685,6.406883642578125,5.7329158752441405,25.458015267175572,24.46564885496183,27.106870229007633
6200888311278,10.434748746,1,-0.5231330627441406,6.979097839355468,4.378994836425781,-6.374045801526718,-9.801526717557252,0.183206106870229
6200908311851,10.454749319,1,-0.8176198669433593,8.294711651611328,4.005499377441406,-10.778625954198473,-3.9389312977099236,-17.763358778625953
6200928311799,10.474749267,1,-1.8950106140136718,9.160215551757812,4.352658618164062,0.35877862595419846,10.16030534351145,-13.442748091603054
6200948310914,10.494748382,1,-2.589329095458984,8.329427575683594,4.174290594482422,3.1755725190839694,4.473282442748092,7.404580152671755
6200968308362,10.51474583,1,-2.033874310302734,8.050503082275391,3.907337109375,13.893129770992367,2.618320610687023,13.702290076335878
6200988309820,10.534747288,1,-1.3335703247070312,8.541314422607421,3.0729578308105467,9.885496183206106,-8.297709923664122,13.541984732824428
6201008308362,10.55474583,1,-1.1707646118164061,7.788338000488281,2.105700360107422,21.282442748091604,-14.076335877862595,10.007633587786259
6201028310393,10.574747861,1,-1.1264718811035155,8.17141026611328,2.059013427734375,-11.198473282442748,-11.541984732824428,-9.099236641221374
6201048308882,10.59474635,1,-1.3275848205566405,8.315062365722655,2.412158172607422,6.251908396946565,5.9541984732824424,-5.694656488549619
6201068309247,10.614746715,1,-1.687912170410156,8.301894256591796,3.393780853271484,14.977099236641221,29.99236641221374,-1.8549618320610688
6201088310341,10.634747809,1,-1.8136077575683593,8.37012900390625,4.8650177734375,26.282442748091604,47.97709923664122,-4.030534351145038
6201108311174,10.654748642,1,-1.4185644836425781,8.068459594726562,4.989516259765625,28.709923664122137,33.57251908396947,-2.5877862595419847
6201128309507,10.674746975,1,-1.4604630126953124,7.592013464355468,3.3482910217285156,13.022900763358779,-0.7557251908396947,0.4732824427480916
6201148307320,10.694744788,1,-1.5346832641601562,7.849390142822265,1.868674395751953,22.587786259541986,-4.862595419847328,-0.7862595419847328
6201168311070,10.714748538,1,-1.5095441467285156,9.247603912353515,2.7904420349121093,14.458015267175572,26.83206106870229,-14.068702290076336
6201188312059,10.734749527,1,-1.8531120849609375,9.67137760620117,3.5996821960449217,9.49618320610687,29.72519083969466,-11.877862595419847
6201208309924,10.754747392,1,-2.175132208251953,8.82981572265625,3.1974563171386716,10.770992366412214,13.01526717557252,5.259541984732825
6201228310966,10.774748434,1,-2.0362685119628905,8.423998541259765,2.7437551025390623,13.076335877862595,9.923664122137405,8.732824427480915
6201248309299,10.794746767,1,-2.057816326904297,7.793126403808594,1.4604630126953124,-29.96946564885496,-9.091603053435115,7.541984732824427
6201268310184,10.814747652,1,-0.8128314636230468,8.807070806884765,2.7557261108398436,-1.4809160305343512,38.18320610687023,-2.6030534351145036
6201288308101,10.834745569,1,-1.13006318359375,9.1554271484375,3.9887399658203124,-22.641221374045802,32.3206106870229,-5.190839694656488
6201308308674,10.854746142,1,-1.848323681640625,8.487444885253906,3.323151904296875,-11.335877862595419,10.564885496183207,4.259541984732825
6201328310445,10.874747913,1,-1.2689268798828124,8.850166436767578,3.949235638427734,-9.374045801526718,11.664122137404581,5.755725190839694
6201348310497,10.894747965,1,-0.7110778930664062,10.01015714111328,3.4823663146972654,-35.97709923664122,1.4198473282442747,-1.9465648854961832
6201368309091,10.914746559,1,-0.8212111694335937,9.724050042724608,4.183867401123047,-49.045801526717554,16.603053435114504,24.580152671755727
6201388309351,10.934746819,1,-5.213374114990234,6.517016918945312,2.3678654418945313,19.47328244274809,-19.72519083969466,100.74045801526718
6201408310809,10.954748277,1,-0.4082113830566406,6.452373474121093,2.874239093017578,-24.770992366412212,26.404580152671755,39.32824427480916
6201428311955,10.974749423,1,0.06344634399414062,6.302735870361328,3.0358477050781247,-1.6564885496183206,30.519083969465647,15.442748091603054
6201448309716,10.994747184,1,0.5781997009277343,6.981492041015625,3.867832781982422,4.564885496183206,46.412213740458014,-17.68702290076336
6201468310289,11.014747757,1,-1.4532804077148436,6.654683514404296,3.191470812988281,14.458015267175572,25.366412213740457,-31.137404580152673
6201488309924,11.034747392,1,-2.4109610717773435,7.410054138183593,2.900575311279297,18.015267175572518,28.12213740458015,-50.64885496183206
6201508309664,11.054747132,1,-2.987963671875,9.479841473388671,4.21978042602539,44.412213740458014,52.11450381679389,-66.00763358778626
6201528348986,11.074786454,1,-2.8383260681152342,11.03248125,3.6523546325683593,-54.43511450381679,-9.557251908396946,-82.06870229007633
6201548310028,11.094747496,1,-2.663549346923828,9.622296472167967,2.9556419494628905,6.374045801526718,-7.633587786259542,-28.206106870229007
6201568308622,11.11474609,1,-1.8052280517578123,8.365340600585936,2.0554221252441405,24.35114503816794,-7.625954198473282,6.3816793893129775
6201588308570,11.134746038,1,-2.270900274658203,7.83981333618164,2.261323468017578,21.580152671755727,21.015267175572518,2.595419847328244
6201608308986,11.154746454,1,-2.308010400390625,8.819041815185546,3.451241693115234,-10.977099236641221,29.793893129770993,-18.14503816793893
6201628347788,11.174785256,1,-2.5438392639160154,9.028534460449219,4.578910675048828,8.007633587786259,40.00763358778626,-10.541984732824428
6201648310861,11.194748329,1,-2.288856787109375,8.98304462890625,4.610035296630859,-5.137404580152672,9.213740458015268,1.3893129770992367
6201668311174,11.214748642,1,-1.678335363769531,7.617152581787109,3.7229835815429686,-21.717557251908396,-18.603053435114504,12.206106870229007
6201688310341,11.234747809,1,-2.5354595581054684,7.445967163085937,3.323151904296875,-16.053435114503817,-28.85496183206107,7.847328244274809
6201708308466,11.254745934,1,-3.2740707702636715,8.350975390624999,3.1783027038574216,-55.603053435114504,-39.534351145038165,-15.625954198473282
6201728328361,11.274765829,1,-5.255272644042968,8.010998754882811,2.528276953125,4.511450381679389,-35.06106870229008,-5.557251908396947
6201748316590,11.294754058,1,-1.7094599853515624,8.662221606445312,3.025073797607422,-6.923664122137405,-27.374045801526716,-16.557251908396946
6201768309403,11.314746871,1,-1.7417817077636717,7.917624890136718,2.2254104431152344,8.786259541984732,-35.282442748091604,1.6412213740458015
6201788310288,11.334747756,1,-2.711433380126953,7.809885815429687,3.029862200927734,18.49618320610687,-5.7251908396946565,-0.16030534351145037
6201808310393,11.354747861,1,-2.085349645996094,8.201337786865233,3.915716815185547,26.374045801526716,10.076335877862595,-6.916030534351145
6201828310861,11.374748329,1,-1.0761936462402344,8.48505068359375,3.209427325439453,31.610687022900763,2.213740458015267,-7.3893129770992365
6201848311122,11.39474859,1,-1.9237410339355467,8.329427575683594,3.7110125732421873,25.49618320610687,21.52671755725191,-19.893129770992367
6201868310236,11.414747704,1,-2.422932080078125,9.400832818603515,3.919308117675781,0.8625954198473282,-2.801526717557252,-24.38167938931298
6201888307684,11.434745152,1,-1.1863269226074218,9.860519537353515,4.072537023925781,4.938931297709924,5.702290076335878,-19.0381679389313
6201908310340,11.454747808,1,-3.0310593017578125,8.94473740234375,2.3523031311035156,5.793893129770993,-35.47328244274809,20.3206106870229
6201928311330,11.474748798,1,-3.5110967346191404,9.336189373779296,2.8610709838867185,12.80916030534351,-9.938931297709924,34.045801526717554
6201948310861,11.494748329,1,-3.7888241271972656,8.431181146240235,2.062604730224609,29.282442748091604,-18.65648854961832,57.67175572519084
6201968311382,11.51474885,1,-1.120486376953125,7.9104422851562495,2.3870190551757813,30.916030534351144,-2.2290076335877864,53.16030534351145
6201988308882,11.53474635,1,-1.1623849060058593,6.676231329345702,1.5466542724609373,4.213740458015267,-23.633587786259543,43.62595419847328
6202008325497,11.554762965,1,-0.8463502868652343,7.389703424072265,2.194285821533203,-9.992366412213741,5.259541984732825,9.908396946564885
6202028338101,11.574775569,1,-1.889025109863281,8.166621862792969,2.041056915283203,-9.320610687022901,6.259541984732825,0.17557251908396945
6202048319090,11.594756558,1,-0.6979097839355468,9.279925634765624,3.432088079833984,-20.870229007633586,32.32824427480916,-15.244274809160306
6202068312059,11.614749527,1,-1.5310919616699217,9.023746057128905,3.0214824951171875,-1.1450381679389312,21.16030534351145,4.137404580152672
6202088309038,11.634746506,1,-1.0091559997558592,9.300276348876952,3.2453403503417966,-4.709923664122138,18.732824427480917,6.511450381679389
6202108309976,11.654747444,1,-1.8100164550781248,8.987833032226561,2.89219560546875,6.625954198473282,14.82442748091603,17.53435114503817
6202128308726,11.674746194,1,-1.2306196533203124,8.864531646728516,3.4392706848144527,0.35877862595419846,19.938931297709924,18.244274809160306
6202148568830,11.695006298,1,-2.328361114501953,7.349001995849609,1.4173673828125,-0.9694656488549618,-14.061068702290076,32.18320610687023
6202168313934,11.714751402,1,-1.1947066284179686,8.321047869873047,2.3415292236328122,-0.40458015267175573,27.61832061068702,8.633587786259541
6202188313517,11.734750985,1,-2.825157958984375,7.8158713195800775,2.925714428710937,-5.137404580152672,26.244274809160306,2.8244274809160306
6202208315340,11.754752808,1,-1.3623007446289062,8.589198455810546,3.227383837890625,-26.72519083969466,19.49618320610687,-12.83969465648855
6202228312736,11.774750204,1,-1.6555904479980468,8.57962164916992,3.5865140869140624,27.435114503816795,39.68702290076336,5.351145038167939
6202248309611,11.794747079,1,-2.2361843505859373,7.56567724609375,2.408566870117187,-16.977099236641223,-0.8396946564885496,7.0458015267175576
6202268309872,11.81474734,1,-0.8547299926757812,7.957129217529296,3.6164416076660153,-4.900763358778626,37.343511450381676,-10.618320610687023
6202288309976,11.834747444,1,-2.404975567626953,7.6614453125,2.913743420410156,32.656488549618324,30.99236641221374,2.6717557251908395
6202308309142,11.85474661,1,-2.7952304382324216,8.717288244628906,2.221819140625,-12.648854961832061,8.801526717557252,-19.9618320610687
6202328308361,11.874745829,1,-2.347514727783203,9.727641345214844,2.50912333984375,-30.15267175572519,12.50381679389313,-31.595419847328245
6202348352788,11.894790256,1,-2.252943762207031,9.010577947998046,2.877830395507812,0.7099236641221374,19.0381679389313,-11.022900763358779
6202368309559,11.914747027,1,-1.859097589111328,8.615534674072265,4.586093280029297,9.816793893129772,25.48854961832061,-10.435114503816793
6202388311226,11.934748694,1,-1.2318167541503906,9.916783276367187,1.3754688537597655,-26.50381679389313,-27.015267175572518,-25.717557251908396
6202408309559,11.954747027,1,-1.7549498168945312,7.4411787597656245,3.459621398925781,143.84732824427482,129.17557251908397,36.31297709923664
6202428305288,11.974742756,1,-3.0837317382812497,7.568071447753906,2.3343466186523436,76.5114503816794,40.05343511450382,7.282442748091603
6202448351955,11.994789423,1,-2.042254016113281,8.497021691894531,2.521094348144531,-11.900763358778626,-3.3587786259541983,-44.0
6202468312111,12.014749579,1,-2.6192566162109374,7.727285858154296,1.6579846496582031,43.02290076335878,-7.083969465648855,-26.9618320610687
6202488308882,12.03474635,1,-1.8195932617187498,8.435969549560546,0.9911994873046874,35.66412213740458,1.7709923664122138,-43.25190839694657
6202508310809,12.054748277,1,-1.5634136840820312,8.246827618408203,-0.1484405029296875,3.3282442748091605,-29.53435114503817,-64.90076335877863
6202528309351,12.074746819,1,-3.4859576171874997,7.418433843994141,-1.8459294799804686,-37.29770992366412,-40.42748091603053,-63.88549618320611
6202548350549,12.094788017,1,-4.0066964782714845,8.514978204345702,0.02154781494140625,-8.595419847328245,35.70992366412214,-72.68702290076335
6202568315288,12.114752756,1,-5.402516046142578,10.749965454101561,2.3882161560058592,-84.37404580152672,57.778625954198475,-86.29007633587786
6202588311434,12.134748902,1,-6.36498511352539,12.735955731201171,3.7050270690917966,-49.541984732824424,61.70229007633588,-43.70229007633588
6202608309923,12.154747391,1,-3.9456443359374997,12.152967626953124,5.103240838623047,-54.20610687022901,52.31297709923664,0.061068702290076333
6202628310080,12.174747548,1,-3.716998077392578,9.41639512939453,3.766079211425781,-37.47328244274809,-7.603053435114504,58.79389312977099
6202648308309,12.194745777,1,-3.190273712158203,6.555324145507812,2.9939491760253905,-30.702290076335878,-22.931297709923665,79.3206106870229
6202668311642,12.21474911,1,-2.663549346923828,5.922057806396484,3.0980969482421874,34.80916030534351,9.114503816793894,71.09160305343511
6202688310028,12.234747496,1,-3.1854853088378903,6.199785198974609,2.4384943908691405,-16.27480916030534,-0.3282442748091603,31.641221374045802
6202708310392,12.25474786,1,-3.3542765258789062,6.752845782470703,1.3778630554199218,-14.053435114503817,1.1908396946564885,13.389312977099237
6202728308309,12.274745777,1,-2.3151930053710936,7.775169891357422,2.1547814941406247,0.6870229007633588,29.0381679389313,-6.717557251908397
6202748309403,12.294746871,1,-1.8818425048828125,8.530540515136718,3.0741549316406247,18.16030534351145,38.25954198473283,-18.0
6202768309767,12.314747235,1,-2.7820623291015623,9.185354669189453,2.8886043029785156,-5.564885496183206,7.091603053435114,-25.99236641221374
6202788309507,12.334746975,1,-3.6559459350585937,8.914809881591797,2.1320365783691404,-38.961832061068705,-27.786259541984734,-20.12213740458015
6202808309403,12.354746871,1,-3.1376012756347653,9.02733735961914,1.484405029296875,-57.05343511450382,-31.17557251908397,-14.34351145038168
6202828309559,12.374747027,1,-2.7234043884277344,8.889670764160156,0.9504980590820312,-40.61832061068702,-16.885496183206108,6.862595419847328
6202848309767,12.394747235,1,-2.0661960327148434,8.198943585205077,1.1719617126464843,-28.435114503816795,8.908396946564885,15.664122137404581
6202868309142,12.41474661,1,-1.8770541015625,8.15345375366211,2.031480108642578,-9.19083969465649,43.36641221374046,10.664122137404581
6202888310184,12.434747652,1,-3.385401147460937,7.198167291259765,2.0302830078125,7.984732824427481,47.00763358778626,16.946564885496183
6202908308257,12.454745725,1,-3.7576995056152342,7.875726361083984,3.2130186279296873,-3.2290076335877864,57.14503816793893,-3.1526717557251906
6202928310548,12.474748016,1,-4.1383775695800775,8.441955053710936,3.9791631591796874,-8.251908396946565,49.25190839694657,-4.022900763358779
6202948310392,12.49474786,1,-3.5685575744628903,8.497021691894531,4.347870214843749,-7.427480916030534,36.29770992366412,2.519083969465649
6202968313257,12.514750725,1,-2.7473464050292966,8.292317449951172,3.708618371582031,-4.870229007633588,10.83969465648855,6.534351145038168
6202988310600,12.534748068,1,-2.874239093017578,8.00022484741211,2.6013001037597654,-25.297709923664122,-11.961832061068701,0.12213740458015267
6203008308309,12.554745777,1,-2.551021868896484,8.042123376464843,2.7641058166503907,3.068702290076336,7.816793893129771,0.1984732824427481
6203028309246,12.574746714,1,-3.2740707702636715,7.684190228271484,2.5665841796874997,10.030534351145038,8.396946564885496,-2.1755725190839694
6203048308309,12.594745777,1,-3.3351229125976563,8.336610180664062,2.7629087158203123,-21.46564885496183,-10.297709923664122,-17.198473282442748
6203068310965,12.614748433,1,-3.306392492675781,9.221267694091797,2.272097375488281,-66.48091603053435,-18.85496183206107,-18.893129770992367
6203088307996,12.634745464,1,-2.81558115234375,8.929175091552734,2.4301146850585935,-39.0,-0.35877862595419846,3.8396946564885495
6203108309975,12.654747443,1,-2.6575638427734374,8.754398370361328,2.8287492614746093,-37.465648854961835,10.458015267175572,10.83206106870229
6203128305809,12.674743277,1,-3.287238879394531,8.427589843749999,3.180696905517578,-87.48091603053435,-5.351145038167939,3.732824427480916
6203148309350,12.694746818,1,-3.9528269409179684,7.659051110839843,3.9743747558593747,-72.25954198473282,0.9770992366412213,11.83206106870229
6203168310132,12.7147476,1,-3.355473626708984,7.096413720703125,4.762067102050781,-56.213740458015266,9.549618320610687,16.641221374045802
6203188309038,12.734746506,1,-3.821145849609375,7.019799267578125,4.5693338684082025,-58.770992366412216,-12.129770992366412,16.778625954198475
6203208311017,12.754748485,1,-3.768473413085937,7.45075556640625,4.620809204101562,-65.69465648854961,-11.236641221374045,20.52671755725191
6203228307215,12.774744683,1,-3.6475662292480466,7.437587457275391,4.978742352294922,-13.83206106870229,2.16793893129771,39.89312977099237
6203248310548,12.794748016,1,-2.712630480957031,8.213308795166014,6.142324359130859,-49.50381679389313,-25.580152671755727,24.396946564885496
6203268311694,12.814749162,1,-3.6739024475097652,7.356184600830078,5.15830747680664,-91.21374045801527,-81.21374045801527,27.900763358778626
6203288309819,12.834747287,1,-2.2780828796386716,7.055712292480468,4.339490509033203,-51.656488549618324,-81.51908396946565,42.3206106870229
6203308309871,12.854747339,1,-1.5873557006835937,6.019022973632812,3.5889082885742187,-38.2442748091603,-61.44274809160305,45.50381679389313
6203328307788,12.874745256,1,-1.8519149841308593,5.021837982177734,3.020285394287109,-1.9312977099236641,-29.49618320610687,51.23664122137404
6203348308986,12.894746454,1,-1.5502455749511719,5.153519073486327,3.8558617736816405,7.091603053435114,21.34351145038168,21.84732824427481
6203368347736,12.914785204,1,-2.2385785522460937,5.8610056640625,4.429273071289062,3.6106870229007635,44.18320610687023,-0.5343511450381679
6203388311694,12.934749162,1,-2.3726538452148436,7.242460021972656,5.577292767333984,31.938931297709924,67.83206106870229,-9.610687022900763
6203408310184,12.954747652,1,-2.673126153564453,7.874529260253905,6.228515618896484,17.38167938931298,52.099236641221374,-13.0
6203428310288,12.974747756,1,-2.6779145568847653,8.042123376464843,6.082469317626953,24.03053435114504,21.603053435114504,-5.793893129770993
6203448309246,12.994746714,1,-2.986766571044922,7.6099699768066404,5.708973858642578,-9.725190839694656,-11.206106870229007,-3.954198473282443
6203468350652,13.01478812,1,-2.612074011230469,7.495048297119141,5.255272644042968,-10.16030534351145,-22.18320610687023,0.22137404580152673
6203488310340,13.034747808,1,-1.6711527587890624,7.314286071777343,4.675875842285156,-22.427480916030536,-28.442748091603054,4.885496183206107
6203508310236,13.054747704,1,-1.455674609375,6.872555865478515,3.2561142578125,-26.114503816793892,-35.587786259541986,13.320610687022901
6203528308465,13.074745933,1,-1.8064251525878905,7.83981333618164,3.763685009765625,-102.65648854961832,-46.47328244274809,-34.534351145038165
6203548308673,13.094746141,1,-0.8846575134277344,7.3837179199218745,4.859032269287109,-144.78625954198472,-30.374045801526716,-34.66412213740458
6203568308100,13.114745568,1,-1.9776105712890624,5.944802722167968,4.370615130615234,-6.641221374045801,6.908396946564886,2.33587786259542
6203588309402,13.13474687,1,-1.3527239379882812,6.420051751708984,5.397727642822265,2.404580152671756,32.7557251908397,-5.145038167938932
6203608308256,13.154745724,1,-3.9815573608398434,6.007051965332031,5.906495495605468,-0.6106870229007634,26.61832061068702,-5.709923664122138
6203628310027,13.174747495,1,-1.4808137268066406,7.451952667236328,7.077260107421875,-39.465648854961835,17.374045801526716,-18.129770992366414
6203648308777,13.194746245,1,-2.6324247253417967,6.715735656738281,5.402516046142578,-34.969465648854964,-10.908396946564885,-4.3816793893129775
6203668309715,13.214747183,1,-1.889025109863281,6.999448553466796,5.353434912109375,-44.908396946564885,-2.2748091603053435,-2.4427480916030535
6203688309611,13.234747079,1,-3.296815686035156,6.386532928466797,5.218162518310547,-1.0305343511450382,17.80916030534351,20.564885496183205
6203708306017,13.254743485,1,-2.503137835693359,6.5960255737304685,6.021417175292968,19.35114503816794,40.2442748091603,29.61832061068702
6203728314038,13.274751506,1,-2.6767174560546874,5.816712933349609,5.718550665283203,-6.748091603053435,19.328244274809162,29.358778625954198
6203748311486,13.294748954,1,-2.6886884643554687,5.422866760253906,5.974730242919922,-4.3816793893129775,22.419847328244273,22.061068702290076
6203768308465,13.314745933,1,-2.6144682128906247,5.553350750732421,6.568492254638672,-3.282442748091603,25.17557251908397,-2.068702290076336
6203788310861,13.334748329,1,-2.511517541503906,5.912480999755859,6.828263134765624,-4.366412213740458,11.687022900763358,-4.969465648854962
6203808307475,13.354744943,1,-2.280477081298828,5.904101293945312,6.477512591552734,3.9160305343511452,-7.374045801526718,-6.99236641221374
6203828310288,13.374747756,1,-2.3044190979003907,6.0142345703124995,5.9974751586914055,9.198473282442748,-14.67175572519084,-10.801526717557252
6203848308933,13.394746401,1,-2.4516625,6.758831286621094,6.1650692749023435,10.916030534351146,-11.572519083969466,-8.198473282442748
6203868310027,13.414747495,1,-2.518700146484375,6.471527087402343,5.34984360961914,-19.022900763358777,-35.47328244274809,-4.412213740458015
6203888312631,13.434750099,1,-1.9596540588378906,6.245275030517578,5.220556719970703,-3.2977099236641223,-24.099236641221374,-4.1679389312977095
6203908310340,13.454747808,1,-2.2972364929199216,6.151901165771484,5.291185668945312,-5.633587786259542,-14.908396946564885,-4.66412213740458
6203928309454,13.474746922,1,-1.8602946899414061,6.393715533447265,5.947196923828125,3.8091603053435112,-3.8702290076335877,-4.305343511450381
6203948310965,13.494748433,1,-1.4628572143554686,7.043741284179687,6.341043096923828,18.641221374045802,5.9465648854961835,6.801526717557252
6203968311173,13.514748641,1,-2.0781670410156248,6.745663177490234,5.05655390625,10.816793893129772,-14.854961832061068,8.236641221374045
6203988312110,13.534749578,1,-0.9983820922851562,6.448782171630859,4.3251252990722655,19.450381679389313,-0.1450381679389313,11.129770992366412
6204008309871,13.554747339,1,-1.006761798095703,5.932831713867187,3.4153286682128905,49.14503816793893,29.641221374045802,4.122137404580153
6204028309819,13.574747287,1,-0.8726865051269531,5.079298822021484,2.370259643554687,72.96946564885496,58.656488549618324,-20.740458015267176
6204048309454,13.594746922,1,-2.3032219970703123,5.934028814697265,2.360682836914062,55.70229007633588,101.55725190839695,-37.267175572519086
6204068309558,13.614747026,1,-3.5003228271484375,7.444770062255859,3.9264907226562498,62.06870229007634,138.68702290076337,-39.79389312977099
6204088308933,13.634746401,1,-4.295197778320312,7.624335186767578,6.372167718505859,33.41984732824427,141.23664122137404,-35.38167938931298
6204108310288,13.654747756,1,-4.763264202880859,7.887697369384765,8.465897070312499,29.984732824427482,114.50381679389314,-28.778625954198475
6204128310235,13.674747703,1,-4.740519287109374,8.135497241210937,8.394071020507813,-9.801526717557252,35.57251908396947,-10.854961832061068
6204148311173,13.694748641,1,-4.297591979980469,7.7033438415527336,5.728127471923828,-20.893129770992367,-36.01526717557252,3.145038167938931
6204168308204,13.714745672,1,-4.023455889892578,7.340622290039062,2.2768857788085937,-35.465648854961835,-69.98473282442748,19.427480916030536
6204188310965,13.734748433,1,-3.9240965209960934,6.6331356994628905,1.8698714965820311,1.3129770992366412,-16.366412213740457,26.30534351145038
6204208310027,13.754747495,1,-3.556586566162109,6.598419775390624,3.6535517333984373,47.969465648854964,52.58015267175573,20.18320610687023
6204228310079,13.774747547,1,-3.985148663330078,6.470329986572265,5.067327813720703,14.557251908396946,47.02290076335878,13.801526717557252
6204248309819,13.794747287,1,-3.6092590026855467,6.5756748596191406,5.953182427978516,12.038167938931299,34.89312977099237,7.893129770992366
6204268310496,13.814747964,1,-3.6056677001953124,6.472724188232421,5.566518859863281,8.17557251908397,-28.709923664122137,-6.870229007633588
6204288349819,13.834787287,1,-3.7205893798828122,6.6702458251953125,5.069722015380859,-9.610687022900763,-40.13740458015267,-17.091603053435115
6204308311017,13.854748485,1,-3.1364041748046874,7.060500695800781,4.507084625244141,-12.992366412213741,-35.11450381679389,-13.702290076335878
6204328308569,13.874746037,1,-2.914940521240234,6.442796667480469,3.891774798583984,5.6183206106870225,-25.641221374045802,-17.770992366412212
6204348310235,13.894747703,1,-2.4911668273925778,6.206967803955078,2.96881005859375,32.900763358778626,-2.435114503816794,-31.290076335877863
6204368305964,13.914743432,1,-2.934094134521484,5.9950809570312495,2.2158336364746094,40.465648854961835,27.458015267175572,-47.282442748091604
6204388349350,13.934786818,1,-3.9528269409179684,6.414066247558593,2.0446482177734375,44.38167938931298,61.97709923664122,-62.25954198473283
6204408309142,13.95474661,1,-5.155913275146484,7.362170104980469,2.934094134521484,48.05343511450382,64.9618320610687,-66.49618320610686
6204428309558,13.974747026,1,-5.8083332275390624,8.553285430908202,3.527856146240234,44.55725190839695,55.29770992366412,-55.16030534351145
6204448308673,13.994746141,1,-5.40730444946289,9.662997900390625,3.526659045410156,32.099236641221374,42.0763358778626,-18.221374045801525
6204468310860,14.014748328,1,-5.438429071044921,9.412803826904296,2.7521348083496093,41.534351145038165,32.93129770992366,3.1526717557251906
6204488309454,14.034746922,1,-4.843469958496094,9.08479819946289,1.9572598571777342,19.396946564885496,30.748091603053435,32.41984732824427
6204508307423,14.054744891,1,-4.912901806640625,7.681796026611328,0.6739677673339843,26.46564885496183,61.17557251908397,35.13740458015267
6204528311746,14.074749214,1,-4.7764323120117185,7.428010650634765,0.6572083557128906,29.99236641221374,102.21374045801527,22.938931297709924
6204548310496,14.094747964,1,-3.24294614868164,8.17141026611328,2.4851813232421875,25.053435114503817,95.34351145038168,56.0
6204568308933,14.114746401,1,-5.572504364013671,5.796362219238281,1.695094775390625,62.229007633587784,116.73282442748092,7.099236641221374
6204588316954,14.134754422,1,-3.8235400512695312,7.174225274658203,3.047818713378906,9.702290076335878,88.16793893129771,7.5038167938931295
6204608312579,14.154750047,1,-5.377376928710937,6.640318304443359,3.1747114013671873,4.877862595419847,87.96946564885496,-3.5877862595419847
6204628311537,14.174749005,1,-4.787206219482422,7.445967163085937,4.2688615600585935,9.473282442748092,51.88549618320611,-6.396946564885496
6204648309610,14.194747078,1,-4.529829541015625,7.631517791748046,4.337096307373047,-11.282442748091603,20.00763358778626,2.1908396946564888
6204668309871,14.214747339,1,-5.091269830322266,6.794744311523437,4.127603662109375,-1.8625954198473282,-4.076335877862595,-9.679389312977099
6204688309246,14.234746714,1,-5.111620544433594,6.271611248779297,3.6559459350585937,-31.213740458015266,-29.572519083969464,-38.45038167938932
6204708310860,14.254748328,1,-5.110423443603516,6.03937368774414,3.248931652832031,-65.61068702290076,-51.969465648854964,-73.2442748091603
6204728308881,14.274746349,1,-5.589263775634765,6.880935571289062,2.959233251953125,-54.229007633587784,-53.06106870229008,-78.41984732824427
6204748310339,14.294747807,1,-4.328716601562499,7.80150610961914,2.597708801269531,-30.46564885496183,-66.1526717557252,-49.33587786259542
6204768309975,14.314747443,1,-3.919308117675781,6.5038488098144525,1.4221557861328125,-15.816793893129772,-64.70992366412214,-36.41984732824427
6204788308048,14.334745516,1,-5.045779998779296,5.5461681457519525,0.9361328491210937,-22.84732824427481,-27.931297709923665,-48.31297709923664
6204808309610,14.354747078,1,-7.539341027832031,6.240486627197265,2.2565350646972653,-38.47328244274809,34.030534351145036,-89.14503816793894
6204828309402,14.37474687,1,-6.636727001953124,10.31062944946289,6.148309863281249,8.465648854961833,-27.12213740458015,-29.251908396946565
6204848308152,14.39474562,1,-7.704540942382812,10.078391888427733,5.201403106689453,-8.0,-85.8854961832061,27.091603053435115
6204868310548,14.414748016,1,-5.7891796142578125,7.498639599609374,2.546233465576172,57.51908396946565,-73.98473282442748,61.50381679389313
6204888310287,14.434747755,1,-5.236119030761718,5.685031842041015,0.38786066894531246,32.343511450381676,-22.717557251908396,38.29007633587786
6204908310704,14.454748172,1,-3.892971899414062,5.367800122070312,0.5614402893066406,7.526717557251908,5.595419847328245,17.450381679389313
6204928308621,14.474746089,1,-4.929661218261718,5.463568188476562,1.7764976318359373,-15.511450381679388,40.25954198473283,-12.34351145038168
6204948309714,14.494747182,1,-4.177881896972656,6.180631585693359,3.9504327392578125,9.992366412213741,19.00763358778626,-11.717557251908397
6204968311016,14.514748484,1,-6.030993981933594,7.845798840332031,3.1794998046874996,-0.8320610687022901,18.259541984732824,0.25190839694656486
6204988307631,14.534745099,1,-4.862623571777344,8.828618621826172,3.190273712158203,32.68702290076336,23.68702290076336,29.977099236641223
6205008311641,14.554749109,1,-5.424063861083984,7.981071234130859,3.6858734558105466,17.84732824427481,-9.916030534351146,33.534351145038165
6205028311068,14.574748536,1,-4.337096307373047,6.063315704345703,3.8043864379882812,42.99236641221374,-12.580152671755725,25.053435114503817
6205048309558,14.594747026,1,-4.9069163024902345,5.77122310180664,2.5234885498046875,28.045801526717558,2.7404580152671754,13.34351145038168
6205068309037,14.614746505,1,-4.533420843505859,5.251681341552734,2.463633508300781,78.12213740458016,5.786259541984733,-11.511450381679388
6205088308048,14.634745516,1,-3.816357446289062,6.892906579589844,2.567781280517578,-28.34351145038168,-38.06106870229008,-49.778625954198475
6205108312006,14.654749474,1,-6.549338641357421,7.700949639892578,2.5522189697265625,-31.47328244274809,-40.32824427480916,-62.083969465648856
6205128309766,14.674747234,1,-6.086060620117187,9.668983404541015,1.656787548828125,5.67175572519084,-47.74809160305343,-19.549618320610687
6205148310756,14.694748224,1,-6.432022760009765,8.877699755859375,1.2497732666015624,28.419847328244273,-34.0,9.183206106870228
6205168308933,14.714746401,1,-5.108029241943359,7.398083129882812,1.0893617553710937,29.221374045801525,-21.053435114503817,15.816793893129772
6205188310079,14.734747547,1,-4.797980126953124,6.329072088623047,1.8052280517578123,10.427480916030534,0.9083969465648855,-2.351145038167939
6205208349506,14.754786974,1,-4.557362860107421,6.855796453857422,2.436100189208984,3.877862595419847,7.1603053435114505,-9.381679389312977
6205228309193,14.774746661,1,-5.108029241943359,7.649474304199218,2.971204260253906,0.21374045801526717,7.282442748091603,-6.6106870229007635
6205248309975,14.794747443,1,-5.193023400878906,8.265981231689453,3.31357509765625,7.526717557251908,1.4351145038167938,9.969465648854962
6205268309506,14.814746974,1,-5.515043524169921,8.321047869873047,3.7672763122558592,-2.1068702290076335,-8.16793893129771,23.572519083969464
6205288309975,14.834747443,1,-5.415684155273437,8.47786807861328,3.563769171142578,16.14503816793893,-19.80916030534351,45.42748091603053
6205308347422,14.85478489,1,-4.809951135253906,7.942764007568359,3.1112650573730467,10.641221374045802,-35.11450381679389,55.465648854961835
6205328309662,14.87474713,1,-4.074931225585937,7.455543969726562,2.318784307861328,-7.190839694656488,-53.10687022900763,53.61068702290076
6205348308672,14.89474614,1,-4.507084625244141,5.969941839599609,2.6803087585449217,-0.183206106870229,-35.70992366412214,28.244274809160306
6205368309610,14.914747078,1,-4.274847064208984,7.213729602050781,2.7712884216308593,-35.152671755725194,-48.89312977099237,8.900763358778626
6205388309141,14.934746609,1,-5.329492895507812,8.17859287109375,3.1543606872558594,-24.755725190839694,-45.0763358778626,13.198473282442748
6205408312527,14.954749995,1,-4.491522314453125,8.77834038696289,3.0597897216796874,0.8702290076335878,-41.47328244274809,32.69465648854962
6205428313047,14.974750515,1,-3.861847277832031,8.412027532958984,2.6132711120605467,-7.137404580152672,-46.900763358778626,39.93129770992366
6205448308099,14.994745567,1,-3.497928625488281,7.280767248535156,2.1691467041015624,-2.7480916030534353,-39.80152671755725,33.16793893129771
6205468310443,15.014747911,1,-3.6092590026855467,7.195773089599609,2.4947581298828125,-27.137404580152673,-34.38167938931298,18.236641221374047
6205488309245,15.034746713,1,-4.490325213623047,7.217320904541015,4.301183282470703,4.8396946564885495,-1.9618320610687023,16.15267175572519
6205508309297,15.054746765,1,-3.5410242553710933,7.829039428710937,5.0182466796875,-2.2061068702290076,-20.96946564885496,21.19083969465649
