timestamp_ns,t_s,sensor_id,ax,ay,az
4875851051575,0.064854218,1,0.2166752502441406,1.7010802795410156,-11.215637677001952
4875861014023,0.074816666,1,0.21308394775390624,1.7465701110839842,-11.155782635498046
4875871013450,0.084816093,1,0.22026655273437498,1.7681179260253905,-11.234791290283203
4875881015586,0.094818229,1,0.26815058593749996,1.7477672119140624,-11.162965240478515
4875891009805,0.104812448,1,0.2741360900878906,1.7417817077636717,-11.186907257080078
4875901030273,0.114832916,1,0.18315642700195311,1.7549498168945312,-11.166556542968749
4875911006680,0.124809323,1,0.1975216369628906,1.7082628845214842,-11.056423266601563
4875921008815,0.134811458,1,0.20231004028320312,1.7417817077636717,-11.174936248779296
4875931008503,0.144811146,1,0.24061726684570311,1.7334020019531249,-11.091139190673827
4875941007148,0.154809791,1,0.25737667846679685,1.734599102783203,-11.212046374511718
4875951008190,0.164810833,1,0.2705447875976562,1.7130512878417967,-11.142614526367186
4875961007669,0.174810312,1,0.2214636535644531,1.7238251953125,-11.143811627197264
4875971008711,0.184811354,1,0.229843359375,1.7118541870117185,-11.142614526367186
4875981006992,0.194809635,1,0.28012159423828126,1.744175909423828,-11.2240173828125
4875991006575,0.204809218,1,0.258573779296875,1.7298106994628906,-11.15338843383789
4876001007773,0.214810416,1,0.2214636535644531,1.7238251953125,-11.196484063720703
4876011056992,0.224859635,1,0.2166752502441406,1.7022773803710936,-11.183315954589844
4876021012148,0.234814791,1,0.21068974609375,1.725022296142578,-11.152191333007812
4876031008659,0.244811302,1,0.2214636535644531,1.714248388671875,-11.17852755126953
4876041007930,0.254810573,1,0.2154781494140625,1.715445489501953,-11.154585534667968
4876051007721,0.264810364,1,0.2346317626953125,1.7657237243652342,-11.19887826538086
4876061004752,0.274807395,1,0.2454056701660156,1.7130512878417967,-11.19887826538086
4876071006055,0.284808698,1,0.2597708801269531,1.7226280944824217,-11.220426080322264
4876081004492,0.294807135,1,0.20949264526367187,1.7010802795410156,-11.161768139648437
4876091005950,0.304808593,1,0.20829554443359374,1.7310078002929687,-11.165359442138671
4876101005742,0.314808385,1,0.26336218261718747,1.705868682861328,-11.200075366210937
4876111005898,0.324808541,1,0.229843359375,1.7357962036132812,-11.247959399414063
4876121004596,0.334807239,1,0.21428104858398436,1.707065783691406,-11.087547888183593
4876131006627,0.34480927,1,0.22864625854492185,1.7417817077636717,-11.207257971191405
4876141008450,0.354811093,1,0.22385785522460935,1.7334020019531249,-11.176133349609374
4876151007930,0.364810573,1,0.25737667846679685,1.7202338928222656,-11.192892761230468
4876161006419,0.374809062,1,0.18914193115234373,1.7286135986328124,-11.167753643798827
4876171002669,0.384805312,1,0.21787235107421873,1.7393875061035156,-11.206060870361327
4876181006575,0.394809218,1,0.201112939453125,1.7501614135742187,-11.186907257080078
4876191005482,0.404808125,1,0.2609679809570312,1.7262193969726563,-11.168950744628905
4876201005586,0.414808229,1,0.22505495605468748,1.70467158203125,-11.176133349609374
4876211005898,0.424808541,1,0.2214636535644531,1.7657237243652342,-11.196484063720703
4876221004752,0.434807395,1,0.23104046020507812,1.7286135986328124,-11.182118853759764
4876231005013,0.444807656,1,0.24899697265624998,1.7405846069335937,-11.190498559570312
4876241005690,0.454808333,1,0.21188684692382811,1.7465701110839842,-11.23000288696289
4876251005586,0.464808229,1,0.22266075439453123,1.744175909423828,-11.159373937988281
4876261021836,0.474824479,1,0.23582886352539062,1.725022296142578,-11.17852755126953
4876271008242,0.484810885,1,0.27892449340820313,1.7202338928222656,-11.19169566040039
4876281032513,0.494835156,1,0.20231004028320312,1.675941162109375,-11.19887826538086
4876291005690,0.504808333,1,0.28969840087890625,1.7202338928222656,-11.188104357910156
4876301005221,0.514807864,1,0.2501940734863281,1.7501614135742187,-11.179724652099608
4876311006002,0.524808645,1,0.21428104858398436,1.7202338928222656,-11.203666668701171
4876321006315,0.534808958,1,0.25737667846679685,1.7669208251953124,-11.130643518066405
4876331004127,0.54480677,1,0.2501940734863281,1.7501614135742187,-11.097124694824219
4876341006679,0.554809322,1,0.24301146850585936,1.7369933044433592,-11.215637677001952
4876351003971,0.564806614,1,0.18076222534179687,1.7693150268554687,-11.2240173828125
4876361006732,0.574809375,1,0.181959326171875,1.7322049011230467,-11.202469567871093
4876371005690,0.584808333,1,0.23223756103515625,1.70467158203125,-11.244368096923827
4876381005950,0.594808593,1,0.2442085693359375,1.70467158203125,-11.177330450439452
4876391005586,0.604808229,1,0.25139117431640623,1.7238251953125,-11.203666668701171
4876401005638,0.614808281,1,0.1975216369628906,1.715445489501953,-11.204863769531249
4876411005846,0.624808489,1,0.2741360900878906,1.7465701110839842,-11.161768139648437
4876421005950,0.634808593,1,0.21308394775390624,1.772906329345703,-11.145008728027342
4876431006263,0.644808906,1,0.19871873779296872,1.7178396911621092,-11.12226381225586
4876441006054,0.654808697,1,0.17597382202148437,1.714248388671875,-11.200075366210937
4876451005429,0.664808072,1,0.19871873779296872,1.772906329345703,-11.209652172851563
4876461004336,0.674806979,1,0.2262520568847656,1.725022296142578,-11.182118853759764
4876471007461,0.684810104,1,0.22026655273437498,1.697488977050781,-11.184513055419922
4876481006836,0.694809479,1,0.2561795776367187,1.763329522705078,-11.17852755126953
4876491005534,0.704808177,1,0.20829554443359374,1.6986860778808592,-11.166556542968749
4876501005325,0.714807968,1,0.20949264526367187,1.715445489501953,-11.15338843383789
4876511006106,0.724808749,1,0.21787235107421873,1.7597382202148437,-11.164162341308593
4876521006054,0.734808697,1,0.16879121704101563,1.7226280944824217,-11.182118853759764
4876531005429,0.744808072,1,0.2154781494140625,1.6699556579589843,-11.271901416015623
4876541006054,0.754808697,1,0.24301146850585936,1.7597382202148437,-11.19169566040039
4876551005898,0.764808541,1,0.2346317626953125,1.7310078002929687,-11.173739147949219
4876561006523,0.774809166,1,0.28969840087890625,1.7453730102539062,-11.150994232177734
4876571005534,0.784808177,1,0.2059013427734375,1.7310078002929687,-11.200075366210937
4876581006940,0.794809583,1,0.229843359375,1.7657237243652342,-11.165359442138671
4876591005950,0.804808593,1,0.19632453613281248,1.753752716064453,-11.154585534667968
4876601005638,0.814808281,1,0.21787235107421873,1.7226280944824217,-11.170147845458983
4876611005846,0.824808489,1,0.21188684692382811,1.6891092712402342,-11.146205828857422
4876621005742,0.834808385,1,0.24660277099609373,1.7334020019531249,-11.280281121826171
4876631005325,0.844807968,1,0.23343466186523437,1.7034744812011717,-11.161768139648437
4876641005481,0.854808124,1,0.23822306518554687,1.734599102783203,-11.182118853759764
4876651005638,0.864808281,1,0.2214636535644531,1.7226280944824217,-11.221623181152344
4876661005846,0.874808489,1,0.2262520568847656,1.7238251953125,-11.183315954589844
4876671005533,0.884808176,1,0.19512743530273435,1.7130512878417967,-11.227608685302734
4876681006263,0.894808906,1,0.239420166015625,1.707065783691406,-11.179724652099608
4876691006002,0.904808645,1,0.201112939453125,1.7417817077636717,-11.206060870361327
4876701005325,0.914807968,1,0.258573779296875,1.7262193969726563,-11.167753643798827
4876711006940,0.924809583,1,0.24181436767578124,1.7238251953125,-11.152191333007812
4876721005586,0.934808229,1,0.27293898925781246,1.7262193969726563,-11.142614526367186
4876731005533,0.944808176,1,0.25139117431640623,1.725022296142578,-11.218031878662108
4876741005690,0.954808333,1,0.1879448303222656,1.7106570861816406,-11.16057103881836
4876751005169,0.964807812,1,0.26216508178710934,1.7621324218749999,-11.208455072021483
4876761004961,0.974807604,1,0.2166752502441406,1.7369933044433592,-11.142614526367186
4876771005377,0.98480802,1,0.18914193115234373,1.7226280944824217,-11.25514200439453
4876781004544,0.994807187,1,0.24061726684570311,1.7525556152343749,-11.21084927368164
4876791005794,1.004808437,1,0.23104046020507812,1.696291876220703,-11.176133349609374
4876801012877,1.01481552,1,0.25737667846679685,1.66636435546875,-11.204863769531249
4876811009075,1.024811718,1,0.19153613281249998,1.707065783691406,-11.21683477783203
4876821006783,1.034809426,1,0.2597708801269531,1.7310078002929687,-11.117475408935546
4876831009856,1.044812499,1,0.21428104858398436,1.744175909423828,-11.247959399414063
4876841009179,1.054811822,1,0.23104046020507812,1.6986860778808592,-11.214440576171874
4876851005533,1.064808176,1,0.25139117431640623,1.6986860778808592,-11.212046374511718
4876861004075,1.074806718,1,0.2214636535644531,1.7238251953125,-11.209652172851563
4876871006315,1.084808958,1,0.2645592834472656,1.7118541870117185,-11.209652172851563
4876881005742,1.094808385,1,0.21068974609375,1.7513585144042967,-11.246762298583985
4876891006158,1.104808801,1,0.20709844360351562,1.715445489501953,-11.15338843383789
4876901005377,1.11480802,1,0.19512743530273435,1.7178396911621092,-11.261127508544922
4876911006263,1.124808906,1,0.24181436767578124,1.7166425903320313,-11.093533392333983
4876921006523,1.134809166,1,0.26216508178710934,1.7453730102539062,-11.166556542968749
4876931003346,1.144805989,1,0.19393033447265623,1.7717092285156248,-11.239579693603515
4876941007200,1.154809843,1,0.2597708801269531,1.7226280944824217,-11.136629022216797
4876951006419,1.164809062,1,0.2765302917480469,1.734599102783203,-11.130643518066405
4876961007148,1.174809791,1,0.1867477294921875,1.7357962036132812,-11.1474029296875
4876971007096,1.184809739,1,0.24779987182617186,1.7405846069335937,-11.152191333007812
4876981005742,1.194808385,1,0.22864625854492185,1.7298106994628906,-11.167753643798827
4876991006627,1.20480927,1,0.1975216369628906,1.7477672119140624,-11.221623181152344
4877001005794,1.214808437,1,0.19871873779296872,1.7393875061035156,-11.17852755126953
4877011006054,1.224808697,1,0.20709844360351562,1.7214309936523438,-11.202469567871093
4877021006523,1.234809166,1,0.22026655273437498,1.725022296142578,-11.184513055419922
4877031005533,1.244808176,1,0.21308394775390624,1.7334020019531249,-11.146205828857422
4877041007096,1.254809739,1,0.2657563842773437,1.7190367919921874,-11.158176837158203
4877051006627,1.26480927,1,0.24301146850585936,1.7669208251953124,-11.186907257080078
4877061005533,1.274808176,1,0.24660277099609373,1.7597382202148437,-11.219228979492186
4877071005637,1.28480828,1,0.2609679809570312,1.7369933044433592,-11.18571015625
4877081006731,1.294809374,1,0.23822306518554687,1.7226280944824217,-11.179724652099608
4877091005898,1.304808541,1,0.22505495605468748,1.7836802368164062,-11.158176837158203
4877101006262,1.314808905,1,0.23104046020507812,1.7417817077636717,-11.214440576171874
4877111006262,1.324808905,1,0.24899697265624998,1.7202338928222656,-11.139023223876952
4877121006210,1.334808853,1,0.22385785522460935,1.7381904052734374,-11.105504400634764
4877131006523,1.344809166,1,0.21787235107421873,1.7549498168945312,-11.225214483642578
4877141005273,1.354807916,1,0.22744915771484372,1.7429788085937499,-11.192892761230468
4877151004544,1.364807187,1,0.19153613281249998,1.7106570861816406,-11.142614526367186
4877161005742,1.374808385,1,0.26695348510742184,1.763329522705078,-11.220426080322264
4877171005169,1.384807812,1,0.21787235107421873,1.7310078002929687,-11.203666668701171
4877181006315,1.394808958,1,0.2741360900878906,1.7489643127441405,-11.12226381225586
4877191005637,1.40480828,1,0.26216508178710934,1.697488977050781,-11.182118853759764
4877201006054,1.414808697,1,0.15442600708007811,1.7190367919921874,-11.103110198974608
4877211119908,1.424922551,1,0.25737667846679685,1.7238251953125,-11.195286962890624
4877221008502,1.434811145,1,0.19393033447265623,1.668758557128906,-11.177330450439452
4877231005950,1.444808593,1,0.19153613281249998,1.7262193969726563,-11.17254204711914
4877241006627,1.45480927,1,0.18435352783203124,1.7178396911621092,-11.19169566040039
4877251006158,1.464808801,1,0.22026655273437498,1.7357962036132812,-11.14022032470703
4877261006262,1.474808905,1,0.14245499877929688,1.7561469177246092,-11.171344946289063
4877271005950,1.484808593,1,0.2501940734863281,1.763329522705078,-11.188104357910156
4877281007304,1.494809947,1,0.2262520568847656,1.7417817077636717,-11.206060870361327
4877291007304,1.504809947,1,0.258573779296875,1.715445489501953,-11.19887826538086
4877301005742,1.514808385,1,0.23104046020507812,1.715445489501953,-11.196484063720703
4877311006367,1.52480901,1,0.21906945190429686,1.7178396911621092,-11.179724652099608
4877321004023,1.534806666,1,0.2454056701660156,1.7214309936523438,-11.23000288696289
4877331005742,1.544808385,1,0.20949264526367187,1.66636435546875,-11.204863769531249
4877341004492,1.554807135,1,0.19632453613281248,1.7190367919921874,-11.204863769531249
4877351007929,1.564810572,1,0.22744915771484372,1.70467158203125,-11.19887826538086
4877361008398,1.574811041,1,0.19632453613281248,1.7214309936523438,-11.162965240478515
4877371006314,1.584808957,1,0.26815058593749996,1.7130512878417967,-11.150994232177734
4877381006783,1.594809426,1,0.229843359375,1.7082628845214842,-11.188104357910156
4877391003294,1.604805937,1,0.22864625854492185,1.744175909423828,-11.165359442138671
4877401006731,1.614809374,1,0.21188684692382811,1.734599102783203,-11.207257971191405
4877411005898,1.624808541,1,0.2549824768066406,1.7082628845214842,-11.184513055419922
4877421005898,1.634808541,1,0.21787235107421873,1.7812860351562498,-11.183315954589844
4877431005064,1.644807707,1,0.17597382202148437,1.7226280944824217,-11.2240173828125
4877441004231,1.654806874,1,0.24181436767578124,1.7776947326660155,-11.215637677001952
4877451005637,1.66480828,1,0.2501940734863281,1.7513585144042967,-11.165359442138671
4877461005794,1.674808437,1,0.21906945190429686,1.7106570861816406,-11.195286962890624
4877471006210,1.684808853,1,0.22385785522460935,1.7262193969726563,-11.233594189453123
4877481006731,1.694809374,1,0.2920926025390625,1.725022296142578,-11.21084927368164
4877491003450,1.704806093,1,0.2561795776367187,1.7645266235351562,-11.200075366210937
4877501006054,1.714808697,1,0.22266075439453123,1.7298106994628906,-11.235988391113281
4877511006210,1.724808853,1,0.20350714111328125,1.7609353210449217,-11.111489904785156
4877521006366,1.734809009,1,0.20231004028320312,1.7561469177246092,-11.170147845458983
4877531005377,1.74480802,1,0.1879448303222656,1.7561469177246092,-11.118672509765624
4877541006210,1.754808853,1,0.26815058593749996,1.7286135986328124,-11.21683477783203
4877551006002,1.764808645,1,0.2166752502441406,1.714248388671875,-11.253944903564452
4877561005794,1.774808437,1,0.2765302917480469,1.7166425903320313,-11.113884106445312
4877571004960,1.784807603,1,0.2166752502441406,1.7334020019531249,-11.111489904785156
4877581005846,1.794808489,1,0.20350714111328125,1.7585411193847655,-11.15338843383789
4877591004491,1.804807134,1,0.14963760375976562,1.7369933044433592,-11.19887826538086
4877601006002,1.814808645,1,0.2549824768066406,1.7513585144042967,-11.200075366210937
4877611006366,1.824809009,1,0.26216508178710934,1.7357962036132812,-11.200075366210937
4877621005689,1.834808332,1,0.22385785522460935,1.7226280944824217,-11.139023223876952
4877631004439,1.844807082,1,0.2262520568847656,1.7645266235351562,-11.14022032470703
4877641006575,1.854809218,1,0.2597708801269531,1.7034744812011717,-11.082759484863281
4877651006471,1.864809114,1,0.24899697265624998,1.7178396911621092,-11.195286962890624
4877661005637,1.87480828,1,0.23223756103515625,1.7118541870117185,-11.110292803955078
4877671005533,1.884808176,1,0.20829554443359374,1.7238251953125,-11.156979736328124
4877681005741,1.894808384,1,0.20470424194335937,1.7034744812011717,-11.226411584472656
4877691006210,1.904808853,1,0.24660277099609373,1.7381904052734374,-11.16057103881836
4877701006262,1.914808905,1,0.21308394775390624,1.7992425476074219,-11.200075366210937
4877711005637,1.92480828,1,0.20470424194335937,1.7860744384765623,-11.159373937988281
4877721005429,1.934808072,1,0.24301146850585936,1.7501614135742187,-11.154585534667968
4877731005793,1.944808436,1,0.24061726684570311,1.7226280944824217,-11.19887826538086
4877741012773,1.954815416,1,0.24660277099609373,1.7525556152343749,-11.176133349609374
4877751007877,1.96481052,1,0.2262520568847656,1.7274164978027342,-11.19169566040039
4877761006991,1.974809634,1,0.2442085693359375,1.7286135986328124,-11.156979736328124
4877771006783,1.984809426,1,0.2645592834472656,1.6927005737304686,-11.202469567871093
4877781006366,1.994809009,1,0.2454056701660156,1.7310078002929687,-11.226411584472656
4877791006523,2.004809166,1,0.22744915771484372,1.695094775390625,-11.137826123046874
4877801006523,2.014809166,1,0.26216508178710934,1.7717092285156248,-11.164162341308593
4877811006939,2.024809582,1,0.2214636535644531,1.7334020019531249,-11.196484063720703
4877821006002,2.034808645,1,0.21428104858398436,1.7214309936523438,-11.130643518066405
4877831007408,2.044810051,1,0.2454056701660156,1.7465701110839842,-11.142614526367186
4877841009700,2.054812343,1,0.2442085693359375,1.7226280944824217,-11.171344946289063
4877851011783,2.064814426,1,0.16879121704101563,1.7094599853515624,-11.17852755126953
4877861008450,2.074811093,1,0.20350714111328125,1.7274164978027342,-11.227608685302734
4877871005221,2.084807864,1,0.22266075439453123,1.7178396911621092,-11.203666668701171
4877881006887,2.09480953,1,0.23223756103515625,1.7477672119140624,-11.156979736328124
4877891006002,2.104808645,1,0.18435352783203124,1.7477672119140624,-11.165359442138671
4877901006262,2.114808905,1,0.24061726684570311,1.7118541870117185,-11.201272467041015
4877911005950,2.124808593,1,0.23822306518554687,1.7202338928222656,-11.209652172851563
4877921006262,2.134808905,1,0.2753331909179687,1.7800889343261719,-11.123460913085937
4877931005898,2.144808541,1,0.22505495605468748,1.7381904052734374,-11.117475408935546
4877941006314,2.154808957,1,0.20470424194335937,1.714248388671875,-11.201272467041015
4877951005481,2.164808124,1,0.23343466186523437,1.7274164978027342,-11.150994232177734
4877961006210,2.174808853,1,0.2154781494140625,1.7417817077636717,-11.186907257080078
4877971006262,2.184808905,1,0.24660277099609373,1.7262193969726563,-11.192892761230468
4877981005481,2.194808124,1,0.23104046020507812,1.7334020019531249,-11.171344946289063
4877991006106,2.204808749,1,0.18914193115234373,1.7525556152343749,-11.202469567871093
4878001003814,2.214806457,1,0.22505495605468748,1.7513585144042967,-11.208455072021483
4878011007564,2.224810207,1,0.1867477294921875,1.7621324218749999,-11.202469567871093
4878021006470,2.234809113,1,0.19632453613281248,1.753752716064453,-11.182118853759764
4878031006783,2.244809426,1,0.26216508178710934,1.715445489501953,-11.227608685302734
4878041007616,2.254810259,1,0.23223756103515625,1.7286135986328124,-11.174936248779296
4878051003293,2.264805936,1,0.23582886352539062,1.7453730102539062,-11.177330450439452
4878061006054,2.274808697,1,0.1975216369628906,1.7717092285156248,-11.14022032470703
4878071006054,2.284808697,1,0.1867477294921875,1.782483135986328,-11.21084927368164
4878081006627,2.29480927,1,0.20470424194335937,1.7238251953125,-11.105504400634764
4878091005898,2.304808541,1,0.23702596435546874,1.7274164978027342,-11.139023223876952
4878101004804,2.314807447,1,0.2346317626953125,1.6915034729003906,-11.14022032470703
4878111006523,2.324809166,1,0.2346317626953125,1.7310078002929687,-11.12226381225586
4878121005689,2.334808332,1,0.23343466186523437,1.7357962036132812,-11.195286962890624
4878131005272,2.344807915,1,0.2166752502441406,1.7597382202148437,-11.143811627197264
4878141004752,2.354807395,1,0.20470424194335937,1.7034744812011717,-11.165359442138671
4878151003137,2.36480578,1,0.24779987182617186,1.7489643127441405,-11.243170996093749
4878161006002,2.374808645,1,0.20709844360351562,1.7357962036132812,-11.17254204711914
4878171003450,2.384806093,1,0.229843359375,1.7274164978027342,-11.13423482055664
4878181006210,2.394808853,1,0.21308394775390624,1.7357962036132812,-11.148600030517578
4878191006418,2.404809061,1,0.19871873779296872,1.7226280944824217,-11.143811627197264
4878201005481,2.414808124,1,0.24660277099609373,1.7214309936523438,-11.19169566040039
4878211005950,2.424808593,1,0.27293898925781246,1.7118541870117185,-11.180921752929686
4878221006002,2.434808645,1,0.22864625854492185,1.7286135986328124,-11.269507214355468
4878231006106,2.444808749,1,0.181959326171875,1.7178396911621092,-11.139023223876952
4878241005585,2.454808228,1,0.17956512451171874,1.7094599853515624,-11.196484063720703
4878251004595,2.464807238,1,0.2154781494140625,1.7417817077636717,-11.16057103881836
4878261005116,2.474807759,1,0.24899697265624998,1.705868682861328,-11.136629022216797
4878271005325,2.484807968,1,0.25258827514648435,1.6986860778808592,-11.221623181152344
4878281005897,2.49480854,1,0.2454056701660156,1.6891092712402342,-11.201272467041015
4878291006054,2.504808697,1,0.19393033447265623,1.7417817077636717,-11.200075366210937
4878301005845,2.514808488,1,0.24899697265624998,1.7130512878417967,-11.170147845458983
4878311006054,2.524808697,1,0.2932897033691406,1.7106570861816406,-11.094730493164063
4878321007356,2.534809999,1,0.24061726684570311,1.725022296142578,-11.208455072021483
4878331006158,2.544808801,1,0.24301146850585936,1.7106570861816406,-11.19887826538086
4878341005637,2.55480828,1,0.1879448303222656,1.7429788085937499,-11.155782635498046
4878351006106,2.564808749,1,0.20709844360351562,1.7429788085937499,-11.188104357910156
4878361005949,2.574808592,1,0.23702596435546874,1.7645266235351562,-11.14022032470703
4878371005897,2.58480854,1,0.22266075439453123,1.725022296142578,-11.220426080322264
4878381005429,2.594808072,1,0.25139117431640623,1.744175909423828,-11.189301458740234
4878391005689,2.604808332,1,0.21068974609375,1.7681179260253905,-11.15338843383789
4878401005845,2.614808488,1,0.23223756103515625,1.6903063720703124,-11.19169566040039
4878411005220,2.624807863,1,0.20829554443359374,1.734599102783203,-11.18571015625
4878421005220,2.634807863,1,0.239420166015625,1.7489643127441405,-11.189301458740234
4878431005377,2.64480802,1,0.22385785522460935,1.705868682861328,-11.189301458740234
4878441006470,2.654809113,1,0.2059013427734375,1.7657237243652342,-11.161768139648437
4878451006887,2.66480953,1,0.2861070983886719,1.7310078002929687,-11.179724652099608
4878461005168,2.674807811,1,0.1975216369628906,1.7130512878417967,-11.148600030517578
4878471006783,2.684809426,1,0.19871873779296872,1.705868682861328,-11.192892761230468
4878481005689,2.694808332,1,0.2741360900878906,1.7429788085937499,-11.136629022216797
4878491005793,2.704808436,1,0.22864625854492185,1.7298106994628906,-11.196484063720703
4878501005220,2.714807863,1,0.20949264526367187,1.7693150268554687,-11.171344946289063
4878511005585,2.724808228,1,0.22026655273437498,1.7609353210449217,-11.18571015625
4878521005793,2.734808436,1,0.24301146850585936,1.6903063720703124,-11.176133349609374
4878531005429,2.744808072,1,0.27293898925781246,1.7322049011230467,-11.232397088623046
4878541005429,2.754808072,1,0.20949264526367187,1.7262193969726563,-11.23000288696289
4878551006106,2.764808749,1,0.15322890625,1.7681179260253905,-11.159373937988281
4878561004074,2.774806717,1,0.23822306518554687,1.7322049011230467,-11.281478222656249
4878571005533,2.784808176,1,0.181959326171875,1.763329522705078,-11.171344946289063
4878581006262,2.794808905,1,0.239420166015625,1.7274164978027342,-11.164162341308593
4878591006158,2.804808801,1,0.2454056701660156,1.7082628845214842,-11.201272467041015
4878601006522,2.814809165,1,0.22026655273437498,1.7932570434570312,-11.188104357910156
4878611006054,2.824808697,1,0.22026655273437498,1.707065783691406,-11.16057103881836
4878621163710,2.834966353,1,0.296881005859375,1.725022296142578,-11.202469567871093
4878631051783,2.844854426,1,0.181959326171875,1.6998831787109374,-11.212046374511718
4878641008293,2.854810936,1,0.22385785522460935,1.7513585144042967,-11.168950744628905
4878651003501,2.864806144,1,0.21188684692382811,1.7525556152343749,-11.21084927368164
4878661009543,2.874812186,1,0.229843359375,1.7166425903320313,-11.206060870361327
4878671008762,2.884811405,1,0.25139117431640623,1.7214309936523438,-11.142614526367186
4878681007251,2.894809894,1,0.2346317626953125,1.6747440612792968,-11.232397088623046
4878691003241,2.904805884,1,0.2154781494140625,1.7202338928222656,-11.150994232177734
4878701005741,2.914808384,1,0.16879121704101563,1.715445489501953,-11.19887826538086
4878711003033,2.924805676,1,0.2346317626953125,1.7477672119140624,-11.149797131347656
4878721006001,2.934808644,1,0.22864625854492185,1.7645266235351562,-11.18571015625
4878731005637,2.94480828,1,0.21906945190429686,1.7872715393066405,-11.195286962890624
4878741006158,2.954808801,1,0.26815058593749996,1.7298106994628906,-11.168950744628905
4878751005481,2.964808124,1,0.27293898925781246,1.7118541870117185,-11.158176837158203
4878761004960,2.974807603,1,0.2262520568847656,1.7322049011230467,-11.186907257080078
4878771005481,2.984808124,1,0.2561795776367187,1.7034744812011717,-11.180921752929686
4878781006522,2.994809165,1,0.16280571289062498,1.7848773376464844,-11.192892761230468
4878791005428,3.004808071,1,0.1975216369628906,1.7226280944824217,-11.177330450439452
4878801012251,3.014814894,1,0.2262520568847656,1.7609353210449217,-11.201272467041015
4878811005220,3.024807863,1,0.21906945190429686,1.7741034301757812,-11.19169566040039
4878821025637,3.03482828,1,0.277727392578125,1.7214309936523438,-11.18571015625
4878831010168,3.044812811,1,0.1771709228515625,1.725022296142578,-11.154585534667968
4878841007981,3.054810624,1,0.1927332336425781,1.753752716064453,-11.235988391113281
4878851007408,3.064810051,1,0.23343466186523437,1.763329522705078,-11.109095703125
4878861007095,3.074809738,1,0.27293898925781246,1.7477672119140624,-11.212046374511718
4878871006783,3.084809426,1,0.22744915771484372,1.6938976745605467,-11.228805786132812
4878881008085,3.094810728,1,0.22266075439453123,1.7166425903320313,-11.214440576171874
4878891007772,3.104810415,1,0.19033903198242186,1.715445489501953,-11.259930407714844
4878901005689,3.114808332,1,0.23223756103515625,1.7393875061035156,-11.180921752929686
4878911004335,3.124806978,1,0.16998831787109375,1.7214309936523438,-11.124658013916015
4878921007251,3.134809894,1,0.24181436767578124,1.7262193969726563,-11.208455072021483
4878931006366,3.144809009,1,0.23702596435546874,1.7477672119140624,-11.269507214355468
4878941007460,3.154810103,1,0.20231004028320312,1.715445489501953,-11.21683477783203
4878951006158,3.164808801,1,0.1867477294921875,1.7214309936523438,-11.177330450439452
4878961007460,3.174810103,1,0.22266075439453123,1.7357962036132812,-11.129446417236327
4878971005741,3.184808384,1,0.2657563842773437,1.7621324218749999,-11.131840618896483
4878981007043,3.194809686,1,0.17118541870117188,1.7381904052734374,-11.21683477783203
4878991006210,3.204808853,1,0.22026655273437498,1.7130512878417967,-11.251550701904296
4879001007095,3.214809738,1,0.22744915771484372,1.7178396911621092,-11.17254204711914
4879011006574,3.224809217,1,0.2561795776367187,1.763329522705078,-11.200075366210937
4879021006574,3.234809217,1,0.21787235107421873,1.70467158203125,-11.239579693603515
4879031006678,3.244809321,1,0.239420166015625,1.7214309936523438,-11.25514200439453
4879041079699,3.254882342,1,0.1927332336425781,1.7178396911621092,-11.145008728027342
4879051023189,3.264825832,1,0.21188684692382811,1.7118541870117185,-11.170147845458983
4879061022512,3.274825155,1,0.19871873779296872,1.7669208251953124,-11.19169566040039
4879071020533,3.284823176,1,0.20949264526367187,1.707065783691406,-11.213243475341796
4879081019751,3.294822394,1,0.2059013427734375,1.6986860778808592,-11.167753643798827
4879091020116,3.304822759,1,0.24061726684570311,1.7178396911621092,-11.218031878662108
4879101020116,3.314822759,1,0.23223756103515625,1.7501614135742187,-11.203666668701171
4879111020428,3.324823071,1,0.2442085693359375,1.734599102783203,-11.150994232177734
4879121020168,3.334822811,1,0.20350714111328125,1.7094599853515624,-11.247959399414063
4879131019335,3.344821978,1,0.25139117431640623,1.782483135986328,-11.129446417236327
4879141089491,3.354892134,1,0.21906945190429686,1.678335363769531,-11.214440576171874
4879151029335,3.364831978,1,0.17357962036132812,1.7453730102539062,-11.203666668701171
4879161028033,3.374830676,1,0.2214636535644531,1.6771382629394531,-11.273098516845703
4879171027043,3.384829686,1,0.23822306518554687,1.7501614135742187,-11.119869610595703
4879181028553,3.394831196,1,0.21188684692382811,1.7693150268554687,-11.146205828857422
4879191027772,3.404830415,1,0.239420166015625,1.7609353210449217,-11.116278308105468
4879201029908,3.414832551,1,0.24779987182617186,1.7106570861816406,-11.158176837158203
4879211029960,3.424832603,1,0.27293898925781246,1.7238251953125,-11.197681164550781
4879221026887,3.43482953,1,0.2214636535644531,1.7573440185546874,-11.139023223876952
4879231027616,3.444830259,1,0.20350714111328125,1.7405846069335937,-11.156979736328124
4879241069803,3.454872446,1,0.2214636535644531,1.7417817077636717,-11.186907257080078
4879251030012,3.464832655,1,0.22385785522460935,1.7549498168945312,-11.164162341308593
4879261026835,3.474829478,1,0.2454056701660156,1.70467158203125,-11.141417425537108
4879271027772,3.484830415,1,0.18076222534179687,1.7477672119140624,-11.180921752929686
4879281028970,3.494831613,1,0.22385785522460935,1.7130512878417967,-11.203666668701171
4879291028605,3.504831248,1,0.17597382202148437,1.7417817077636717,-11.204863769531249
4879301028241,3.514830884,1,0.21068974609375,1.705868682861328,-11.148600030517578
4879311029491,3.524832134,1,0.26695348510742184,1.7166425903320313,-11.194089862060546
4879321029960,3.534832603,1,0.23223756103515625,1.7262193969726563,-11.177330450439452
4879331030741,3.544833384,1,0.2501940734863281,1.7645266235351562,-11.208455072021483
4879341067407,3.55487005,1,0.16160861206054686,1.7477672119140624,-11.253944903564452
4879351029751,3.564832394,1,0.21428104858398436,1.7082628845214842,-11.167753643798827
4879361028814,3.574831457,1,0.20350714111328125,1.714248388671875,-11.167753643798827
4879371028501,3.584831144,1,0.22864625854492185,1.6927005737304686,-11.238382592773437
4879381027303,3.594829946,1,0.2214636535644531,1.725022296142578,-11.161768139648437
4879391027355,3.604829998,1,0.24301146850585936,1.696291876220703,-11.180921752929686
4879401028345,3.614830988,1,0.2346317626953125,1.744175909423828,-11.136629022216797
4879411028814,3.624831457,1,0.2214636535644531,1.7405846069335937,-11.148600030517578
4879421024074,3.634826717,1,0.2262520568847656,1.7226280944824217,-11.23000288696289
4879431028918,3.644831561,1,0.2059013427734375,1.7190367919921874,-11.11508120727539
4879441028866,3.654831509,1,0.19512743530273435,1.7226280944824217,-11.16057103881836
4879451029439,3.664832082,1,0.24779987182617186,1.734599102783203,-11.143811627197264
4879461027147,3.67482979,1,0.26815058593749996,1.7525556152343749,-11.195286962890624
4879471028970,3.684831613,1,0.2346317626953125,1.6998831787109374,-11.240776794433593
4879481027668,3.694830311,1,0.2454056701660156,1.7034744812011717,-11.17852755126953
4879491027980,3.704830623,1,0.24899697265624998,1.753752716064453,-11.213243475341796
4879501028657,3.7148313,1,0.2214636535644531,1.70467158203125,-11.222820281982422
4879511028241,3.724830884,1,0.25258827514648435,1.7322049011230467,-11.143811627197264
4879521028605,3.734831248,1,0.229843359375,1.7298106994628906,-11.207257971191405
4879531028709,3.744831352,1,0.22266075439453123,1.7298106994628906,-11.15338843383789
4879541029230,3.754831873,1,0.2442085693359375,1.7561469177246092,-11.259930407714844
4879551029230,3.764831873,1,0.2454056701660156,1.7238251953125,-11.228805786132812
4879561030168,3.774832811,1,0.21906945190429686,1.7274164978027342,-11.171344946289063
4879571029074,3.784831717,1,0.21428104858398436,1.678335363769531,-11.179724652099608
4879581027772,3.794830415,1,0.2609679809570312,1.7465701110839842,-11.19887826538086
4879591027616,3.804830259,1,0.21068974609375,1.7381904052734374,-11.207257971191405
4879601027355,3.814829998,1,0.21188684692382811,1.7621324218749999,-11.215637677001952
4879611027720,3.824830363,1,0.2346317626953125,1.772906329345703,-11.166556542968749
4879621027303,3.834829946,1,0.22385785522460935,1.7465701110839842,-11.129446417236327
4879631027043,3.844829686,1,0.24779987182617186,1.714248388671875,-11.164162341308593
4879641028501,3.854831144,1,0.23702596435546874,1.7214309936523438,-11.233594189453123
4879651029074,3.864831717,1,0.2537853759765625,1.7453730102539062,-11.154585534667968
4879661028814,3.874831457,1,0.22266075439453123,1.7465701110839842,-11.179724652099608
4879671027616,3.884830259,1,0.2166752502441406,1.7094599853515624,-11.171344946289063
4879681027720,3.894830363,1,0.18315642700195311,1.7453730102539062,-11.117475408935546
4879691027564,3.904830207,1,0.20709844360351562,1.6938976745605467,-11.165359442138671
4879701027928,3.914830571,1,0.21308394775390624,1.7094599853515624,-11.128249316406249
4879711028814,3.924831457,1,0.22385785522460935,1.707065783691406,-11.174936248779296
4879721027668,3.934830311,1,0.229843359375,1.7465701110839842,-11.23000288696289
4879731028136,3.944830779,1,0.20231004028320312,1.7585411193847655,-11.19169566040039
4879741036470,3.954839113,1,0.2454056701660156,1.753752716064453,-11.167753643798827
4879751032043,3.964834686,1,0.24061726684570311,1.715445489501953,-11.197681164550781
4879761028449,3.974831092,1,0.2454056701660156,1.7334020019531249,-11.201272467041015
4879771029647,3.98483229,1,0.22864625854492185,1.7429788085937499,-11.189301458740234
4879781029282,3.994831925,1,0.2214636535644531,1.763329522705078,-11.176133349609374
4879791027980,4.004830623,1,0.2059013427734375,1.7501614135742187,-11.170147845458983
4879801025793,4.014828436,1,0.21428104858398436,1.7405846069335937,-11.238382592773437
4879811029282,4.024831925,1,0.28371289672851563,1.7453730102539062,-11.179724652099608
4879821027616,4.034830259,1,0.2214636535644531,1.7286135986328124,-11.2240173828125
4879831028501,4.044831144,1,0.23702596435546874,1.7238251953125,-11.180921752929686
4879841028761,4.054831404,1,0.22266075439453123,1.7501614135742187,-11.241973895263671
4879851031314,4.064833957,1,0.19991583862304688,1.734599102783203,-11.183315954589844
4879861030220,4.074832863,1,0.24181436767578124,1.7573440185546874,-11.19169566040039
4879871027668,4.084830311,1,0.24061726684570311,1.725022296142578,-11.156979736328124
4879881028293,4.094830936,1,0.22266075439453123,1.7585411193847655,-11.176133349609374
4879891027668,4.104830311,1,0.23343466186523437,1.7238251953125,-11.19887826538086
4879901027980,4.114830623,1,0.17836802368164062,1.70467158203125,-11.196484063720703
4879911029699,4.124832342,1,0.20709844360351562,1.7477672119140624,-11.150994232177734
4879921028501,4.134831144,1,0.2454056701660156,1.6891092712402342,-11.127052215576171
4879931028657,4.1448313,1,0.258573779296875,1.734599102783203,-11.239579693603515
4879941031678,4.154834321,1,0.2609679809570312,1.7286135986328124,-11.252747802734374
4879951064595,4.164867238,1,0.1879448303222656,1.7298106994628906,-11.253944903564452
4879961027980,4.174830623,1,0.229843359375,1.715445489501953,-11.222820281982422
4879971026834,4.184829477,1,0.23223756103515625,1.7489643127441405,-11.149797131347656
4879981027772,4.194830415,1,0.24061726684570311,1.7298106994628906,-11.189301458740234
4879991027407,4.20483005,1,0.24061726684570311,1.7357962036132812,-11.161768139648437
4880001028970,4.214831613,1,0.20829554443359374,1.7226280944824217,-11.258733306884764
4880011028709,4.224831352,1,0.23582886352539062,1.7334020019531249,-11.244368096923827
4880021028605,4.234831248,1,0.2346317626953125,1.6747440612792968,-11.197681164550781
4880031029178,4.244831821,1,0.23343466186523437,1.7417817077636717,-11.24915650024414
4880041027720,4.254830363,1,0.2454056701660156,1.705868682861328,-11.179724652099608
4880051025793,4.264828436,1,0.16759411621093748,1.7393875061035156,-11.220426080322264
4880061029334,4.274831977,1,0.20949264526367187,1.7872715393066405,-11.220426080322264
4880071028136,4.284830779,1,0.19871873779296872,1.7369933044433592,-11.106701501464842
4880081028709,4.294831352,1,0.25139117431640623,1.7106570861816406,-11.177330450439452
4880091026366,4.304829009,1,0.26216508178710934,1.7465701110839842,-11.17852755126953
4880101029751,4.314832394,1,0.19393033447265623,1.7334020019531249,-11.142614526367186
4880111027772,4.324830415,1,0.22385785522460935,1.7130512878417967,-11.235988391113281
4880121027251,4.334829894,1,0.21188684692382811,1.714248388671875,-11.129446417236327
4880131027772,4.344830415,1,0.24181436767578124,1.7369933044433592,-11.143811627197264
4880141027407,4.35483005,1,0.25258827514648435,1.7094599853515624,-11.180921752929686
4880151026782,4.364829425,1,0.21906945190429686,1.7393875061035156,-11.17254204711914
4880161029699,4.374832342,1,0.20949264526367187,1.7310078002929687,-11.192892761230468
4880171027303,4.384829946,1,0.20470424194335937,1.7106570861816406,-11.179724652099608
4880181026990,4.394829633,1,0.21428104858398436,1.7238251953125,-11.159373937988281
4880191025480,4.404828123,1,0.2537853759765625,1.7298106994628906,-11.196484063720703
4880201027251,4.414829894,1,0.18914193115234373,1.7501614135742187,-11.161768139648437
4880211027147,4.42482979,1,0.2442085693359375,1.7597382202148437,-11.203666668701171
4880221024074,4.434826717,1,0.2166752502441406,1.7597382202148437,-11.23000288696289
4880231027980,4.444830623,1,0.19871873779296872,1.7202338928222656,-11.184513055419922
4880241029126,4.454831769,1,0.22744915771484372,1.7238251953125,-11.189301458740234
4880251027147,4.46482979,1,0.23702596435546874,1.678335363769531,-11.21084927368164
4880261029022,4.474831665,1,0.21428104858398436,1.7130512878417967,-11.170147845458983
4880271028397,4.48483104,1,0.20829554443359374,1.7106570861816406,-11.159373937988281
4880281029022,4.494831665,1,0.23343466186523437,1.7214309936523438,-11.1474029296875
4880291028761,4.504831404,1,0.16998831787109375,1.7238251953125,-11.177330450439452
4880301029074,4.514831717,1,0.19632453613281248,1.7214309936523438,-11.209652172851563
4880311028657,4.5248313,1,0.20949264526367187,1.7513585144042967,-11.167753643798827
4880321028240,4.534830883,1,0.22744915771484372,1.7429788085937499,-11.194089862060546
4880331028813,4.544831456,1,0.2346317626953125,1.725022296142578,-11.135431921386719
4880341029490,4.554832133,1,0.20709844360351562,1.7453730102539062,-11.17254204711914
4880351028188,4.564830831,1,0.2346317626953125,1.7022773803710936,-11.240776794433593
4880361065845,4.574868488,1,0.1879448303222656,1.7310078002929687,-11.150994232177734
4880371027876,4.584830519,1,0.2154781494140625,1.7310078002929687,-11.117475408935546
4880381027303,4.594829946,1,0.27174188842773433,1.7334020019531249,-11.119869610595703
4880391026313,4.604828956,1,0.20470424194335937,1.7741034301757812,-11.189301458740234
4880401026678,4.614829321,1,0.21428104858398436,1.7298106994628906,-11.182118853759764
4880411027199,4.624829842,1,0.239420166015625,1.6998831787109374,-11.166556542968749
4880421027511,4.634830154,1,0.21787235107421873,1.7501614135742187,-11.197681164550781
4880431027667,4.64483031,1,0.22385785522460935,1.7369933044433592,-11.18571015625
4880441027407,4.65483005,1,0.23702596435546874,1.734599102783203,-11.166556542968749
4880451028449,4.664831092,1,0.21188684692382811,1.7429788085937499,-11.176133349609374
4880461028709,4.674831352,1,0.2609679809570312,1.7178396911621092,-11.204863769531249
4880471030063,4.684832706,1,0.24301146850585936,1.7214309936523438,-11.165359442138671
4880481028449,4.694831092,1,0.16160861206054686,1.7130512878417967,-11.243170996093749
4880491026938,4.704829581,1,0.22744915771484372,1.7453730102539062,-11.18571015625
4880501027459,4.714830102,1,0.21787235107421873,1.6723498596191406,-11.183315954589844
4880511028084,4.724830727,1,0.22026655273437498,1.695094775390625,-11.170147845458983
4880521027251,4.734829894,1,0.24301146850585936,1.70467158203125,-11.330559356689452
4880531027719,4.744830362,1,0.239420166015625,1.7405846069335937,-11.060014569091797
4880541027251,4.754829894,1,0.21906945190429686,1.7549498168945312,-11.332953558349608
4880551028188,4.764830831,1,0.23104046020507812,1.7573440185546874,-11.062408770751953
4880561027719,4.774830362,1,0.20949264526367187,1.7513585144042967,-11.298237634277344
4880571028397,4.78483104,1,0.21428104858398436,1.7298106994628906,-11.05762036743164
4880581027563,4.794830206,1,0.18914193115234373,1.7513585144042967,-11.21084927368164
4880591027251,4.804829894,1,0.17836802368164062,1.7381904052734374,-11.204863769531249
4880601029074,4.814831717,1,0.26815058593749996,1.7130512878417967,-11.19887826538086
4880611028813,4.824831456,1,0.17836802368164062,1.7178396911621092,-11.241973895263671
4880621027199,4.834829842,1,0.21068974609375,1.7609353210449217,-11.323376751708985
4880631027042,4.844829685,1,0.2454056701660156,1.697488977050781,-11.040860955810546
4880641027772,4.854830415,1,0.22026655273437498,1.725022296142578,-11.273098516845703
4880651027042,4.864829685,1,0.2154781494140625,1.7190367919921874,-11.13423482055664
4880661027094,4.874829737,1,0.21906945190429686,1.7178396911621092,-11.066000073242186
4880671028084,4.884830727,1,0.20350714111328125,1.70467158203125,-11.240776794433593
4880681028553,4.894831196,1,0.23104046020507812,1.7298106994628906,-11.239579693603515
4880691027251,4.904829894,1,0.2262520568847656,1.7453730102539062,-11.23718549194336
4880701024855,4.914827498,1,0.20470424194335937,1.7202338928222656,-11.201272467041015
4880711028553,4.924831196,1,0.23343466186523437,1.7130512878417967,-11.312602844238281
4880721026730,4.934829373,1,0.316034619140625,1.7166425903320313,-11.034875451660156
4880731028136,4.944830779,1,0.2346317626953125,1.7477672119140624,-11.274295617675781
4880741027980,4.954830623,1,0.17357962036132812,1.7776947326660155,-11.206060870361327
4880751028084,4.964830727,1,0.24779987182617186,1.6998831787109374,-11.212046374511718
4880761028917,4.97483156,1,0.25258827514648435,1.7214309936523438,-11.137826123046874
4880771028501,4.984831144,1,0.239420166015625,1.7226280944824217,-11.165359442138671
4880781029334,4.994831977,1,0.28371289672851563,1.715445489501953,-11.194089862060546
4880791027355,5.004829998,1,0.2501940734863281,1.7178396911621092,-11.131840618896483
4880801054126,5.014856769,1,0.2166752502441406,1.7848773376464844,-11.228805786132812
4880811030167,5.02483281,1,0.22385785522460935,1.695094775390625,-11.213243475341796
4880821028032,5.034830675,1,0.1771709228515625,1.734599102783203,-11.206060870361327
4880831027146,5.044829789,1,0.21068974609375,1.7106570861816406,-11.154585534667968
4880841028240,5.054830883,1,0.23822306518554687,1.7322049011230467,-11.196484063720703
4880851030063,5.064832706,1,0.24779987182617186,1.7202338928222656,-11.174936248779296
4880861028501,5.074831144,1,0.23104046020507812,1.8076222534179687,-11.168950744628905
4880871033188,5.084835831,1,0.1927332336425781,1.7525556152343749,-11.156979736328124
4880881031834,5.094834477,1,0.24181436767578124,1.7477672119140624,-11.201272467041015
4880891031782,5.104834425,1,0.22744915771484372,1.7226280944824217,-11.130643518066405
4880901031782,5.114834425,1,0.2454056701660156,1.7369933044433592,-11.197681164550781
4880911031157,5.1248338,1,0.2262520568847656,1.7214309936523438,-11.196484063720703
4880921031313,5.134833956,1,0.21068974609375,1.7489643127441405,-11.177330450439452
4880931031521,5.144834164,1,0.1879448303222656,1.725022296142578,-11.213243475341796
4880941033084,5.154835727,1,0.22744915771484372,1.7369933044433592,-11.19169566040039
4880951043084,5.164845727,1,0.23822306518554687,1.7262193969726563,-11.127052215576171
4880961032251,5.174834894,1,0.24660277099609373,1.7453730102539062,-11.253944903564452
4880971032042,5.184834685,1,0.2609679809570312,1.7166425903320313,-11.145008728027342
4880981032251,5.194834894,1,0.21787235107421873,1.7501614135742187,-11.161768139648437
4880991031521,5.204834164,1,0.23702596435546874,1.7322049011230467,-11.159373937988281
4881001031886,5.214834529,1,0.24660277099609373,1.7357962036132812,-11.194089862060546
4881011031834,5.224834477,1,0.24660277099609373,1.7334020019531249,-11.142614526367186
4881021032198,5.234834841,1,0.21906945190429686,1.7788918334960937,-11.213243475341796
4881031031730,5.244834373,1,0.2932897033691406,1.7082628845214842,-11.203666668701171
4881041027042,5.254829685,1,0.21068974609375,1.7010802795410156,-11.17254204711914
4881051032615,5.264835258,1,0.22864625854492185,1.772906329345703,-11.17254204711914
4881061031573,5.274834216,1,0.258573779296875,1.8363526733398436,-11.174936248779296
4881071032094,5.284834737,1,0.17956512451171874,1.6136919189453125,-11.19887826538086
4881081032355,5.294834998,1,0.20949264526367187,1.7549498168945312,-11.220426080322264
4881091031678,5.304834321,1,0.2705447875976562,1.7788918334960937,-11.297040533447264
4881101031886,5.314834529,1,0.23822306518554687,1.7214309936523438,-11.137826123046874
4881111033084,5.324835727,1,0.201112939453125,1.7525556152343749,-11.148600030517578
4881121032146,5.334834789,1,0.17956512451171874,1.7022773803710936,-11.170147845458983
4881131031730,5.344834373,1,0.20709844360351562,1.7681179260253905,-11.125855114746093
4881141031573,5.354834216,1,0.2262520568847656,1.7118541870117185,-11.130643518066405
4881151032407,5.36483505,1,0.23702596435546874,1.7393875061035156,-11.190498559570312
4881161030792,5.374833435,1,0.23702596435546874,1.7573440185546874,-11.149797131347656
4881171047407,5.38485005,1,0.2885013000488281,1.7573440185546874,-11.15338843383789
4881181031834,5.394834477,1,0.2346317626953125,1.7262193969726563,-11.195286962890624
4881191031834,5.404834477,1,0.24301146850585936,1.7501614135742187,-11.09592759399414
4881201031261,5.414833904,1,0.22385785522460935,1.7310078002929687,-11.133037719726563
4881211031313,5.424833956,1,0.15682020874023436,1.7226280944824217,-11.256339105224608
4881221033240,5.434835883,1,0.23582886352539062,1.7178396911621092,-11.18571015625
4881231032875,5.444835518,1,0.21787235107421873,1.772906329345703,-11.166556542968749
4881241032146,5.454834789,1,0.23343466186523437,1.707065783691406,-11.174936248779296
4881251030948,5.464833591,1,0.24899697265624998,1.7262193969726563,-11.202469567871093
4881261031834,5.474834477,1,0.2214636535644531,1.7573440185546874,-11.068394274902342
4881271071313,5.484873956,1,0.24660277099609373,1.7429788085937499,-11.195286962890624
4881281032355,5.494834998,1,0.20949264526367187,1.744175909423828,-11.104307299804686
4881291026209,5.504828852,1,0.1592144104003906,1.6903063720703124,-11.192892761230468
4881301031261,5.514833904,1,0.18315642700195311,1.7477672119140624,-11.222820281982422
4881311032042,5.524834685,1,0.17836802368164062,1.7393875061035156,-11.071985577392578
4881321031469,5.534834112,1,0.23104046020507812,1.753752716064453,-11.168950744628905
4881331030896,5.544833539,1,0.239420166015625,1.753752716064453,-11.136629022216797
4881341032563,5.554835206,1,0.1592144104003906,1.7525556152343749,-11.192892761230468
4881351031678,5.564834321,1,0.20231004028320312,1.7034744812011717,-11.225214483642578
4881361031000,5.574833643,1,0.24301146850585936,1.7453730102539062,-11.174936248779296
4881371070740,5.584873383,1,0.25139117431640623,1.7118541870117185,-11.213243475341796
4881381035480,5.594838123,1,0.25139117431640623,1.7202338928222656,-11.183315954589844
4881391031938,5.604834581,1,0.19393033447265623,1.7322049011230467,-11.183315954589844
4881401031730,5.614834373,1,0.25737667846679685,1.7286135986328124,-11.200075366210937
4881411031938,5.624834581,1,0.181959326171875,1.8028338500976562,-11.213243475341796
4881421031625,5.634834268,1,0.2609679809570312,1.7022773803710936,-11.13423482055664
4881431032198,5.644834841,1,0.21906945190429686,1.7094599853515624,-11.197681164550781
4881441032407,5.65483505,1,0.2154781494140625,1.763329522705078,-11.209652172851563
4881451031677,5.66483432,1,0.19153613281249998,1.7501614135742187,-11.136629022216797
4881461031573,5.674834216,1,0.23582886352539062,1.686715069580078,-11.186907257080078
4881471026365,5.684829008,1,0.15562310791015624,1.725022296142578,-11.186907257080078
4881481033136,5.694835779,1,0.21787235107421873,1.7262193969726563,-11.204863769531249
4881491031886,5.704834529,1,0.1879448303222656,1.7238251953125,-11.19887826538086
4881501032042,5.714834685,1,0.20470424194335937,1.7274164978027342,-11.209652172851563
4881511031677,5.72483432,1,0.19153613281249998,1.7286135986328124,-11.152191333007812
4881521032198,5.734834841,1,0.22864625854492185,1.6807295654296874,-11.218031878662108
4881531031625,5.744834268,1,0.27293898925781246,1.696291876220703,-11.125855114746093
4881541030584,5.754833227,1,0.17238251953125,1.7238251953125,-11.165359442138671
4881551031886,5.764834529,1,0.19033903198242186,1.7381904052734374,-11.176133349609374
4881561032407,5.77483505,1,0.2861070983886719,1.7310078002929687,-11.15338843383789
4881571031886,5.784834529,1,0.22266075439453123,1.7034744812011717,-11.15338843383789
4881581032250,5.794834893,1,0.239420166015625,1.7022773803710936,-11.159373937988281
4881591030896,5.804833539,1,0.21308394775390624,1.7585411193847655,-11.225214483642578
4881601031261,5.814833904,1,0.24061726684570311,1.7238251953125,-11.209652172851563
4881611031417,5.82483406,1,0.23582886352539062,1.7453730102539062,-11.227608685302734
4881621031104,5.834833747,1,0.2346317626953125,1.7369933044433592,-11.221623181152344
4881631032250,5.844834893,1,0.22266075439453123,1.7190367919921874,-11.182118853759764
4881641031938,5.854834581,1,0.27174188842773433,1.7322049011230467,-11.129446417236327
4881651032198,5.864834841,1,0.20470424194335937,1.7178396911621092,-11.143811627197264
4881661032407,5.87483505,1,0.19033903198242186,1.7238251953125,-11.184513055419922
4881671032615,5.884835258,1,0.21308394775390624,1.7274164978027342,-11.146205828857422
4881681032511,5.894835154,1,0.24779987182617186,1.7238251953125,-11.257536206054686
4881691032771,5.904835414,1,0.2214636535644531,1.7118541870117185,-11.201272467041015
4881701031886,5.914834529,1,0.24061726684570311,1.707065783691406,-11.180921752929686
4881711032459,5.924835102,1,0.20350714111328125,1.7310078002929687,-11.131840618896483
4881721032146,5.934834789,1,0.23702596435546874,1.7405846069335937,-11.19887826538086
4881731028500,5.944831143,1,0.21308394775390624,1.7094599853515624,-11.252747802734374
4881741043604,5.954846247,1,0.2059013427734375,1.7094599853515624,-11.208455072021483
4881751034177,5.96483682,1,0.258573779296875,1.7549498168945312,-11.07677398071289
4881761033084,5.974835727,1,0.20470424194335937,1.7681179260253905,-11.192892761230468
4881771030688,5.984833331,1,0.18076222534179687,1.7214309936523438,-11.204863769531249
4881781031677,5.99483432,1,0.21787235107421873,1.7322049011230467,-11.158176837158203
4881791029750,6.004832393,1,0.1867477294921875,1.7393875061035156,-11.152191333007812
4881801032927,6.01483557,1,0.22864625854492185,1.7357962036132812,-11.152191333007812
4881811031886,6.024834529,1,0.22026655273437498,1.7310078002929687,-11.204863769531249
4881821032511,6.034835154,1,0.1975216369628906,1.7322049011230467,-11.221623181152344
4881831031573,6.044834216,1,0.2154781494140625,1.7501614135742187,-11.206060870361327
4881841032198,6.054834841,1,0.2346317626953125,1.7178396911621092,-11.107898602294922
4881851035011,6.064837654,1,0.25258827514648435,1.753752716064453,-11.222820281982422
4881861035531,6.074838174,1,0.19512743530273435,1.696291876220703,-11.176133349609374
4881871032563,6.084835206,1,0.20949264526367187,1.7226280944824217,-11.155782635498046
4881881070948,6.094873591,1,0.2753331909179687,1.7501614135742187,-11.165359442138671
4881891032511,6.104835154,1,0.22744915771484372,1.7669208251953124,-11.14022032470703
4881901030948,6.114833591,1,0.2549824768066406,1.7310078002929687,-11.167753643798827
4881911031729,6.124834372,1,0.27174188842773433,1.7357962036132812,-11.186907257080078
4881921030948,6.134833591,1,0.22026655273437498,1.7322049011230467,-11.208455072021483
4881931031000,6.144833643,1,0.229843359375,1.7262193969726563,-11.133037719726563
4881941031938,6.154834581,1,0.258573779296875,1.7369933044433592,-11.156979736328124
4881951027823,6.164830466,1,0.2346317626953125,1.6807295654296874,-11.152191333007812
4881961032042,6.174834685,1,0.23582886352539062,1.7609353210449217,-11.202469567871093
4881971031417,6.18483406,1,0.19632453613281248,1.744175909423828,-11.165359442138671
4881981026625,6.194829268,1,0.21428104858398436,1.7214309936523438,-11.183315954589844
4881991033552,6.204836195,1,0.23104046020507812,1.7597382202148437,-11.129446417236327
4882001031156,6.214833799,1,0.2561795776367187,1.772906329345703,-11.150994232177734
4882011060844,6.224863487,1,0.2154781494140625,1.7178396911621092,-11.176133349609374
4882021037771,6.234840414,1,0.2262520568847656,1.6938976745605467,-11.182118853759764
4882031033761,6.244836404,1,0.2166752502441406,1.7298106994628906,-11.17254204711914
4882041027354,6.254829997,1,0.20709844360351562,1.7693150268554687,-11.14022032470703
4882051033761,6.264836404,1,0.2166752502441406,1.725022296142578,-11.14022032470703
4882061032458,6.274835101,1,0.25737667846679685,1.6998831787109374,-11.168950744628905
4882071030583,6.284833226,1,0.20350714111328125,1.7334020019531249,-11.250353601074218
4882081031625,6.294834268,1,0.16759411621093748,1.7417817077636717,-11.206060870361327
4882091031521,6.304834164,1,0.19393033447265623,1.753752716064453,-11.165359442138671
4882101031521,6.314834164,1,0.22505495605468748,1.7788918334960937,-11.177330450439452
4882111031052,6.324833695,1,0.23702596435546874,1.705868682861328,-11.203666668701171
4882121032771,6.334835414,1,0.26695348510742184,1.686715069580078,-11.152191333007812
4882131031365,6.344834008,1,0.25737667846679685,1.697488977050781,-11.10191309814453
4882141031313,6.354833956,1,0.229843359375,1.7082628845214842,-11.189301458740234
4882151031521,6.364834164,1,0.23223756103515625,1.7322049011230467,-11.218031878662108
4882161031833,6.374834476,1,0.22026655273437498,1.715445489501953,-11.155782635498046
4882171030896,6.384833539,1,0.21787235107421873,1.8076222534179687,-11.184513055419922
4882181031573,6.394834216,1,0.21068974609375,1.734599102783203,-11.227608685302734
4882191031886,6.404834529,1,0.2657563842773437,1.7166425903320313,-11.139023223876952
4882201031573,6.414834216,1,0.25139117431640623,1.7788918334960937,-11.19887826538086
4882211031469,6.424834112,1,0.1867477294921875,1.7286135986328124,-11.189301458740234
4882221032354,6.434834997,1,0.277727392578125,1.7693150268554687,-11.162965240478515
4882231030479,6.444833122,1,0.18555062866210936,1.7453730102539062,-11.159373937988281
4882241030636,6.454833279,1,0.22385785522460935,1.7477672119140624,-11.222820281982422
4882251032302,6.464834945,1,0.22385785522460935,1.7106570861816406,-11.158176837158203
4882261030167,6.47483281,1,0.2346317626953125,1.7848773376464844,-11.197681164550781
4882271026625,6.484829268,1,0.2561795776367187,1.6771382629394531,-11.17254204711914
4882281026104,6.494828747,1,0.24301146850585936,1.7369933044433592,-11.252747802734374
4882291047823,6.504850466,1,0.2657563842773437,1.7106570861816406,-11.17852755126953
4882301032146,6.514834789,1,0.2166752502441406,1.7489643127441405,-11.125855114746093
4882311030479,6.524833122,1,0.25139117431640623,1.7525556152343749,-11.246762298583985
4882321031313,6.534833956,1,0.26815058593749996,1.7489643127441405,-11.133037719726563
4882331031469,6.544834112,1,0.18555062866210936,1.7262193969726563,-11.186907257080078
4882341031052,6.554833695,1,0.23702596435546874,1.7573440185546874,-11.245565197753905
4882351031313,6.564833956,1,0.21068974609375,1.7657237243652342,-11.188104357910156
4882361031156,6.574833799,1,0.24899697265624998,1.7417817077636717,-11.215637677001952
4882371031677,6.58483432,1,0.23702596435546874,1.7166425903320313,-11.227608685302734
4882381033500,6.594836143,1,0.17597382202148437,1.7393875061035156,-11.226411584472656
4882391070063,6.604872706,1,0.2262520568847656,1.6986860778808592,-11.197681164550781
4882401032771,6.614835414,1,0.2262520568847656,1.8088193542480469,-11.131840618896483
4882411031521,6.624834164,1,0.21428104858398436,1.7190367919921874,-11.139023223876952
4882421031000,6.634833643,1,0.2214636535644531,1.715445489501953,-11.159373937988281
4882431031938,6.644834581,1,0.22505495605468748,1.6819266662597656,-11.201272467041015
4882441031938,6.654834581,1,0.17836802368164062,1.6986860778808592,-11.19887826538086
4882451031573,6.664834216,1,0.20350714111328125,1.7310078002929687,-11.155782635498046
4882461030844,6.674833487,1,0.23822306518554687,1.695094775390625,-11.168950744628905
4882471032563,6.684835206,1,0.2645592834472656,1.6915034729003906,-11.145008728027342
4882481030740,6.694833383,1,0.2657563842773437,1.7010802795410156,-11.200075366210937
4882491031104,6.704833747,1,0.1927332336425781,1.7429788085937499,-11.135431921386719
4882501033760,6.714836403,1,0.19632453613281248,1.7238251953125,-11.154585534667968
4882511031729,6.724834372,1,0.22744915771484372,1.753752716064453,-11.225214483642578
4882521031260,6.734833903,1,0.22744915771484372,1.7381904052734374,-11.133037719726563
4882531026677,6.74482932,1,0.26695348510742184,1.7010802795410156,-11.156979736328124
4882541031312,6.754833955,1,0.2214636535644531,1.7130512878417967,-11.202469567871093
4882551031625,6.764834268,1,0.2346317626953125,1.7369933044433592,-11.180921752929686
4882561031000,6.774833643,1,0.24779987182617186,1.7357962036132812,-11.133037719726563
4882571031833,6.784834476,1,0.23582886352539062,1.6675614562988281,-11.176133349609374
4882581032042,6.794834685,1,0.25737667846679685,1.7334020019531249,-11.213243475341796
4882591031052,6.804833695,1,0.21787235107421873,1.7238251953125,-11.277886920166015
4882601032667,6.81483531,1,0.21428104858398436,1.7681179260253905,-11.152191333007812
4882611032406,6.824835049,1,0.2262520568847656,1.734599102783203,-11.117475408935546
4882621031625,6.834834268,1,0.21188684692382811,1.7705121276855467,-11.176133349609374
4882631031573,6.844834216,1,0.23582886352539062,1.7776947326660155,-11.192892761230468
4882641030323,6.854832966,1,0.201112939453125,1.7322049011230467,-11.233594189453123
4882651030375,6.864833018,1,0.19632453613281248,1.7489643127441405,-11.208455072021483
4882661031260,6.874833903,1,0.18555062866210936,1.744175909423828,-11.215637677001952
4882671030323,6.884832966,1,0.22266075439453123,1.7369933044433592,-11.183315954589844
4882681030687,6.89483333,1,0.22266075439453123,1.7513585144042967,-11.228805786132812
4882691030740,6.904833383,1,0.24899697265624998,1.7597382202148437,-11.15338843383789
4882701031000,6.914833643,1,0.21906945190429686,1.7274164978027342,-11.170147845458983
4882711031573,6.924834216,1,0.20829554443359374,1.7393875061035156,-11.184513055419922
4882721030375,6.934833018,1,0.20350714111328125,1.7573440185546874,-11.176133349609374
4882731031208,6.944833851,1,0.229843359375,1.734599102783203,-11.149797131347656
4882741030896,6.954833539,1,0.23702596435546874,1.7022773803710936,-11.161768139648437
4882751025583,6.964828226,1,0.2059013427734375,1.7130512878417967,-11.214440576171874
4882761030114,6.974832757,1,0.24301146850585936,1.7022773803710936,-11.171344946289063
4882771031000,6.984833643,1,0.2166752502441406,1.7094599853515624,-11.161768139648437
4882781029594,6.994832237,1,0.2166752502441406,1.7238251953125,-11.150994232177734
4882791031104,7.004833747,1,0.22744915771484372,1.7166425903320313,-11.124658013916015
4882801038396,7.014841039,1,0.22266075439453123,1.6986860778808592,-11.16057103881836
4882811034698,7.024837341,1,0.23822306518554687,1.725022296142578,-11.155782635498046
4882821031781,7.034834424,1,0.2549824768066406,1.7645266235351562,-11.231199987792968
4882831030844,7.044833487,1,0.24061726684570311,1.695094775390625,-11.207257971191405
4882841031260,7.054833903,1,0.19393033447265623,1.7334020019531249,-11.19887826538086
4882851031417,7.06483406,1,0.2765302917480469,1.6998831787109374,-11.194089862060546
4882861031469,7.074834112,1,0.17118541870117188,1.7082628845214842,-11.148600030517578
4882871031937,7.08483458,1,0.20709844360351562,1.725022296142578,-11.213243475341796
4882881033969,7.094836612,1,0.19033903198242186,1.7573440185546874,-11.247959399414063
4882891032146,7.104834789,1,0.2885013000488281,1.7202338928222656,-11.17254204711914
4882901050114,7.114852757,1,0.22385785522460935,1.7334020019531249,-11.195286962890624
4882911033552,7.124836195,1,0.2059013427734375,1.7597382202148437,-11.162965240478515
4882921031937,7.13483458,1,0.239420166015625,1.7609353210449217,-11.145008728027342
4882931031677,7.14483432,1,0.26216508178710934,1.7310078002929687,-11.281478222656249
4882941030479,7.154833122,1,0.239420166015625,1.7130512878417967,-11.142614526367186
4882951031625,7.164834268,1,0.2501940734863281,1.6903063720703124,-11.184513055419922
4882961031989,7.174834632,1,0.18315642700195311,1.7764976318359373,-11.171344946289063
4882971032250,7.184834893,1,0.2454056701660156,1.7681179260253905,-11.150994232177734
4882981034489,7.194837132,1,0.2346317626953125,1.753752716064453,-11.206060870361327
4882991031156,7.204833799,1,0.21787235107421873,1.70467158203125,-11.184513055419922
4883001032146,7.214834789,1,0.19153613281249998,1.7106570861816406,-11.183315954589844
4883011031364,7.224834007,1,0.21906945190429686,1.7274164978027342,-11.164162341308593
4883021032614,7.234835257,1,0.20470424194335937,1.7357962036132812,-11.177330450439452
4883031030687,7.24483333,1,0.22744915771484372,1.7501614135742187,-11.17852755126953
4883041032875,7.254835518,1,0.2059013427734375,1.7369933044433592,-11.165359442138671
4883051033031,7.264835674,1,0.18914193115234373,1.7405846069335937,-11.100715997314452
4883061032354,7.274834997,1,0.23702596435546874,1.7405846069335937,-11.18571015625
4883071031364,7.284834007,1,0.2154781494140625,1.7669208251953124,-11.203666668701171
4883081032250,7.294834893,1,0.24779987182617186,1.705868682861328,-11.189301458740234
4883091031156,7.304833799,1,0.22505495605468748,1.7214309936523438,-11.19887826538086
4883101032094,7.314834737,1,0.24660277099609373,1.7465701110839842,-11.159373937988281
4883111031885,7.324834528,1,0.23822306518554687,1.7549498168945312,-11.168950744628905
4883121031729,7.334834372,1,0.22266075439453123,1.6998831787109374,-11.192892761230468
4883131031364,7.344834007,1,0.20949264526367187,1.7034744812011717,-11.173739147949219
4883141030948,7.354833591,1,0.2346317626953125,1.7393875061035156,-11.201272467041015
4883151030739,7.364833382,1,0.2537853759765625,1.7369933044433592,-11.206060870361327
4883161030739,7.374833382,1,0.21188684692382811,1.7214309936523438,-11.161768139648437
4883171030791,7.384833434,1,0.25737667846679685,1.7262193969726563,-11.094730493164063
4883181032666,7.394835309,1,0.20709844360351562,1.7417817077636717,-11.139023223876952
4883191031260,7.404833903,1,0.23223756103515625,1.714248388671875,-11.154585534667968
4883201031364,7.414834007,1,0.25258827514648435,1.6927005737304686,-11.234791290283203
4883211030427,7.42483307,1,0.2059013427734375,1.7741034301757812,-11.170147845458983
4883221031885,7.434834528,1,0.21906945190429686,1.695094775390625,-11.235988391113281
4883231031104,7.444833747,1,0.2346317626953125,1.7202338928222656,-11.179724652099608
4883241032718,7.454835361,1,0.20829554443359374,1.7705121276855467,-11.184513055419922
4883251031521,7.464834164,1,0.2214636535644531,1.7106570861816406,-11.180921752929686
4883261026000,7.474828643,1,0.2657563842773437,1.707065783691406,-11.128249316406249
4883271031833,7.484834476,1,0.23104046020507812,1.715445489501953,-11.164162341308593
4883281032406,7.494835049,1,0.2346317626953125,1.7369933044433592,-11.18571015625
4883291032041,7.504834684,1,0.2059013427734375,1.7322049011230467,-11.136629022216797
4883301034750,7.514837393,1,0.21068974609375,1.7405846069335937,-11.19169566040039
4883311032979,7.524835622,1,0.19632453613281248,1.7429788085937499,-11.186907257080078
4883321032146,7.534834789,1,0.22026655273437498,1.7334020019531249,-11.189301458740234
4883331031833,7.544834476,1,0.2154781494140625,1.7106570861816406,-11.174936248779296
4883341032093,7.554834736,1,0.24779987182617186,1.7298106994628906,-11.182118853759764
4883351031677,7.56483432,1,0.18914193115234373,1.7393875061035156,-11.196484063720703
4883361031677,7.57483432,1,0.2454056701660156,1.7226280944824217,-11.1474029296875
4883371031833,7.584834476,1,0.23822306518554687,1.7166425903320313,-11.19169566040039
4883381031520,7.594834163,1,0.26695348510742184,1.7621324218749999,-11.202469567871093
4883391030895,7.604833538,1,0.23702596435546874,1.7417817077636717,-11.182118853759764
4883401031989,7.614834632,1,0.22505495605468748,1.7274164978027342,-11.23000288696289
4883411047614,7.624850257,1,0.21787235107421873,1.6986860778808592,-11.221623181152344
4883421028864,7.634831507,1,0.24301146850585936,1.7310078002929687,-11.183315954589844
4883431031208,7.644833851,1,0.20470424194335937,1.7022773803710936,-11.19887826538086
4883441031208,7.654833851,1,0.26216508178710934,1.7477672119140624,-11.241973895263671
4883451031573,7.664834216,1,0.20231004028320312,1.7585411193847655,-11.21084927368164
4883461030635,7.674833278,1,0.2262520568847656,1.7238251953125,-11.192892761230468
4883471032718,7.684835361,1,0.23104046020507812,1.7082628845214842,-11.186907257080078
4883481032979,7.694835622,1,0.21787235107421873,1.7585411193847655,-11.171344946289063
4883491031833,7.704834476,1,0.17597382202148437,1.7322049011230467,-11.159373937988281
4883501031364,7.714834007,1,0.24779987182617186,1.7417817077636717,-11.168950744628905
4883511069593,7.724872236,1,0.20709844360351562,1.7190367919921874,-11.180921752929686
4883521027458,7.734830101,1,0.28012159423828126,1.707065783691406,-11.16057103881836
4883531030739,7.744833382,1,0.24181436767578124,1.7381904052734374,-11.192892761230468
4883541031052,7.754833695,1,0.23702596435546874,1.7645266235351562,-11.240776794433593
4883551031312,7.764833955,1,0.22385785522460935,1.707065783691406,-11.141417425537108
4883561031625,7.774834268,1,0.22505495605468748,1.6903063720703124,-11.166556542968749
4883571031156,7.784833799,1,0.2154781494140625,1.6986860778808592,-11.136629022216797
4883581031104,7.794833747,1,0.24181436767578124,1.7477672119140624,-11.174936248779296
4883591031156,7.804833799,1,0.24779987182617186,1.7082628845214842,-11.192892761230468
4883601032145,7.814834788,1,0.21787235107421873,1.7274164978027342,-11.21084927368164
4883611030166,7.824832809,1,0.22266075439453123,1.7238251953125,-11.195286962890624
4883621031416,7.834834059,1,0.20829554443359374,1.7513585144042967,-11.127052215576171
4883631258604,7.845061247,1,0.239420166015625,1.7166425903320313,-11.221623181152344
4883641096781,7.854899424,1,0.20829554443359374,1.7693150268554687,-11.257536206054686
4883651030531,7.864833174,1,0.1879448303222656,1.734599102783203,-11.231199987792968
4883661027614,7.874830257,1,0.16041151123046873,1.7226280944824217,-11.245565197753905
4883671026468,7.884829111,1,0.26216508178710934,1.697488977050781,-11.133037719726563
4883681029593,7.894832236,1,0.22864625854492185,1.7405846069335937,-11.17852755126953
4883691028812,7.904831455,1,0.21428104858398436,1.705868682861328,-11.21683477783203
4883701027562,7.914830205,1,0.2657563842773437,1.7106570861816406,-11.109095703125
4883711027979,7.924830622,1,0.2501940734863281,1.7417817077636717,-11.200075366210937
4883721029437,7.93483208,1,0.23822306518554687,1.7489643127441405,-11.180921752929686
4883731028604,7.944831247,1,0.2537853759765625,1.7417817077636717,-11.176133349609374
4883741034750,7.954837393,1,0.2262520568847656,1.7453730102539062,-11.170147845458983
4883751030479,7.964833122,1,0.20829554443359374,1.7094599853515624,-11.19887826538086
4883761028031,7.974830674,1,0.20709844360351562,1.7190367919921874,-11.188104357910156
4883771024906,7.984827549,1,0.19632453613281248,1.6891092712402342,-11.174936248779296
4883781029229,7.994831872,1,0.24061726684570311,1.7393875061035156,-11.129446417236327
4883791027770,8.004830413,1,0.26815058593749996,1.7238251953125,-11.167753643798827
4883801028135,8.014830778,1,0.2214636535644531,1.7226280944824217,-11.197681164550781
4883811027249,8.024829892,1,0.1975216369628906,1.7214309936523438,-11.240776794433593
4883821028760,8.034831403,1,0.2346317626953125,1.7561469177246092,-11.155782635498046
4883831028343,8.044830986,1,0.19512743530273435,1.7357962036132812,-11.166556542968749
4883841028031,8.054830674,1,0.20709844360351562,1.763329522705078,-11.192892761230468
4883851027562,8.064830205,1,0.17477672119140625,1.7417817077636717,-11.164162341308593
4883861029489,8.074832132,1,0.23343466186523437,1.7549498168945312,-11.253944903564452
4883871029645,8.084832288,1,0.2561795776367187,1.7465701110839842,-11.146205828857422
4883881030322,8.094832965,1,0.21308394775390624,1.7381904052734374,-11.18571015625
4883891028864,8.104831507,1,0.239420166015625,1.7274164978027342,-11.161768139648437
4883901026572,8.114829215,1,0.23582886352539062,1.7094599853515624,-11.225214483642578
4883911027979,8.124830622,1,0.2059013427734375,1.7417817077636717,-11.167753643798827
4883921027406,8.134830049,1,0.2501940734863281,1.7298106994628906,-11.1474029296875
4883931033083,8.144835726,1,0.2346317626953125,1.744175909423828,-11.219228979492186
4883941028083,8.154830726,1,0.21068974609375,1.7357962036132812,-11.203666668701171
4883951030322,8.164832965,1,0.23223756103515625,1.7573440185546874,-11.170147845458983
4883961027354,8.174829997,1,0.2454056701660156,1.782483135986328,-11.127052215576171
4883971027510,8.184830153,1,0.21308394775390624,1.714248388671875,-11.171344946289063
4883981029072,8.194831715,1,0.21787235107421873,1.7669208251953124,-11.188104357910156
4883991027718,8.204830361,1,0.23822306518554687,1.7010802795410156,-11.192892761230468
4884001029437,8.21483208,1,0.24779987182617186,1.7501614135742187,-11.209652172851563
4884011028916,8.224831559,1,0.22505495605468748,1.7214309936523438,-11.190498559570312
4884021031052,8.234833695,1,0.2346317626953125,1.7094599853515624,-11.139023223876952
4884031026156,8.244828799,1,0.20949264526367187,1.763329522705078,-11.170147845458983
4884041029333,8.254831976,1,0.26216508178710934,1.7357962036132812,-11.17852755126953
4884051028135,8.264830778,1,0.27892449340820313,1.7465701110839842,-11.194089862060546
4884061026937,8.27482958,1,0.23702596435546874,1.7381904052734374,-11.232397088623046
4884071027197,8.28482984,1,0.2442085693359375,1.7657237243652342,-11.127052215576171
4884081029385,8.294832028,1,0.2561795776367187,1.70467158203125,-11.214440576171874
4884091027926,8.304830569,1,0.24181436767578124,1.7489643127441405,-11.165359442138671
4884101027093,8.314829736,1,0.23223756103515625,1.7310078002929687,-11.182118853759764
4884111026885,8.324829528,1,0.23702596435546874,1.7274164978027342,-11.213243475341796
4884121028656,8.334831299,1,0.229843359375,1.7417817077636717,-11.197681164550781
4884131028760,8.344831403,1,0.22385785522460935,1.753752716064453,-11.19887826538086
4884141027874,8.354830517,1,0.2214636535644531,1.7369933044433592,-11.25514200439453
4884151029489,8.364832132,1,0.229843359375,1.725022296142578,-11.2240173828125
4884161026885,8.374829528,1,0.1975216369628906,1.686715069580078,-11.174936248779296
4884171026781,8.384829424,1,0.23104046020507812,1.7357962036132812,-11.2240173828125
4884181027093,8.394829736,1,0.1867477294921875,1.7465701110839842,-11.145008728027342
4884191027301,8.404829944,1,0.23582886352539062,1.7286135986328124,-11.2240173828125
4884201026885,8.414829528,1,0.21188684692382811,1.7477672119140624,-11.174936248779296
4884211027666,8.424830309,1,0.1975216369628906,1.7669208251953124,-11.17852755126953
4884221028083,8.434830726,1,0.21188684692382811,1.7513585144042967,-11.159373937988281
4884231028083,8.444830726,1,0.23104046020507812,1.7561469177246092,-11.21084927368164
4884241027041,8.454829684,1,0.26695348510742184,1.7082628845214842,-11.183315954589844
4884251029072,8.464831715,1,0.258573779296875,1.7022773803710936,-11.194089862060546
4884261027666,8.474830309,1,0.22505495605468748,1.7657237243652342,-11.143811627197264
4884271028447,8.48483109,1,0.26216508178710934,1.7334020019531249,-11.204863769531249
4884281028239,8.494830882,1,0.22744915771484372,1.7298106994628906,-11.196484063720703
4884291028656,8.504831299,1,0.25139117431640623,1.6927005737304686,-11.116278308105468
4884301027614,8.514830257,1,0.23223756103515625,1.7956512451171873,-11.127052215576171
4884311027093,8.524829736,1,0.2597708801269531,1.7214309936523438,-11.18571015625
4884321029385,8.534832028,1,0.2549824768066406,1.714248388671875,-11.218031878662108
4884331028708,8.544831351,1,0.2214636535644531,1.705868682861328,-11.1474029296875
4884341027406,8.554830049,1,0.2262520568847656,1.7417817077636717,-11.238382592773437
4884351028812,8.564831455,1,0.2561795776367187,1.7178396911621092,-11.227608685302734
4884361028135,8.574830778,1,0.25139117431640623,1.7094599853515624,-11.252747802734374
4884371027770,8.584830413,1,0.2501940734863281,1.7465701110839842,-11.203666668701171
4884381028603,8.594831246,1,0.2454056701660156,1.7657237243652342,-11.170147845458983
4884391027614,8.604830257,1,0.17238251953125,1.7453730102539062,-11.19887826538086
4884401027041,8.614829684,1,0.24301146850585936,1.7573440185546874,-11.14022032470703
4884411026312,8.624828955,1,0.2561795776367187,1.7405846069335937,-11.196484063720703
4884421068187,8.63487083,1,0.2932897033691406,1.7130512878417967,-11.238382592773437
4884431027458,8.644830101,1,0.18914193115234373,1.68551796875,-11.233594189453123
4884441027145,8.654829788,1,0.23343466186523437,1.7381904052734374,-11.105504400634764
4884451031989,8.664834632,1,0.18076222534179687,1.6927005737304686,-11.215637677001952
4884461030478,8.674833121,1,0.21068974609375,1.7310078002929687,-11.116278308105468
4884471029749,8.684832392,1,0.2454056701660156,1.7609353210449217,-11.220426080322264
4884481027249,8.694829892,1,0.2561795776367187,1.6735469604492186,-11.299434735107422
4884491027197,8.70482984,1,0.17238251953125,1.7549498168945312,-11.125855114746093
4884501027353,8.714829996,1,0.2561795776367187,1.7549498168945312,-11.183315954589844
4884511027822,8.724830465,1,0.24181436767578124,1.7166425903320313,-11.164162341308593
4884521072614,8.734875257,1,0.2454056701660156,1.715445489501953,-11.200075366210937
4884531029280,8.744831923,1,0.2262520568847656,1.7322049011230467,-11.200075366210937
4884541025426,8.754828069,1,0.1867477294921875,1.7190367919921874,-11.166556542968749
4884551027718,8.764830361,1,0.19033903198242186,1.7214309936523438,-11.150994232177734
4884561026572,8.774829215,1,0.22864625854492185,1.696291876220703,-11.195286962890624
4884571026937,8.78482958,1,0.25139117431640623,1.6915034729003906,-11.238382592773437
4884581028135,8.794830778,1,0.2765302917480469,1.7381904052734374,-11.167753643798827
4884591028343,8.804830986,1,0.22864625854492185,1.7381904052734374,-11.1474029296875
4884601027770,8.814830413,1,0.21428104858398436,1.7717092285156248,-11.202469567871093
4884611027301,8.824829944,1,0.24061726684570311,1.7597382202148437,-11.262324609375
4884621069958,8.834872601,1,0.20709844360351562,1.7417817077636717,-11.189301458740234
4884631028655,8.844831298,1,0.25737667846679685,1.696291876220703,-11.21683477783203
4884641028135,8.854830778,1,0.24660277099609373,1.7453730102539062,-11.139023223876952
4884651027041,8.864829684,1,0.24899697265624998,1.7082628845214842,-11.17852755126953
4884661026937,8.87482958,1,0.20231004028320312,1.7202338928222656,-11.250353601074218
4884671026780,8.884829423,1,0.26216508178710934,1.7214309936523438,-11.139023223876952
4884681027093,8.894829736,1,0.2705447875976562,1.7681179260253905,-11.142614526367186
4884691027249,8.904829892,1,0.2561795776367187,1.7022773803710936,-11.177330450439452
4884701027770,8.914830413,1,0.21787235107421873,1.70467158203125,-11.137826123046874
4884711027405,8.924830048,1,0.20350714111328125,1.7190367919921874,-11.220426080322264
4884721066468,8.934869111,1,0.2549824768066406,1.7298106994628906,-11.207257971191405
4884731028395,8.944831038,1,0.20231004028320312,1.7429788085937499,-11.189301458740234
4884741026780,8.954829423,1,0.2753331909179687,1.7094599853515624,-11.141417425537108
4884751028395,8.964831038,1,0.22385785522460935,1.772906329345703,-11.208455072021483
4884761025635,8.974828278,1,0.24301146850585936,1.7262193969726563,-11.143811627197264
4884771028760,8.984831403,1,0.229843359375,1.7034744812011717,-11.166556542968749
4884781027718,8.994830361,1,0.23223756103515625,1.7477672119140624,-11.136629022216797
4884791027353,9.004829996,1,0.2166752502441406,1.744175909423828,-11.219228979492186
4884801027926,9.014830569,1,0.28730419921875,1.6998831787109374,-11.179724652099608
4884811037301,9.024839944,1,0.21308394775390624,1.7501614135742187,-11.16057103881836
4884821073916,9.034876559,1,0.2154781494140625,1.7010802795410156,-11.19169566040039
4884831028343,9.044830986,1,0.201112939453125,1.7226280944824217,-11.208455072021483
4884841027197,9.05482984,1,0.18076222534179687,1.7010802795410156,-11.173739147949219
4884851027718,9.064830361,1,0.21308394775390624,1.7453730102539062,-11.188104357910156
4884861026416,9.074829059,1,0.2609679809570312,1.6915034729003906,-11.251550701904296
4884871027353,9.084829996,1,0.2442085693359375,1.7621324218749999,-11.19169566040039
4884881028447,9.09483109,1,0.21906945190429686,1.7094599853515624,-11.21084927368164
4884891029697,9.10483234,1,0.2059013427734375,1.7166425903320313,-11.201272467041015
4884901029593,9.114832236,1,0.20829554443359374,1.734599102783203,-11.176133349609374
4884911026884,9.124829527,1,0.24899697265624998,1.6843208679199217,-11.190498559570312
4884921029020,9.134831663,1,0.22026655273437498,1.7274164978027342,-11.128249316406249
4884931029489,9.144832132,1,0.27293898925781246,1.7226280944824217,-11.161768139648437
4884941027926,9.154830569,1,0.18315642700195311,1.763329522705078,-11.233594189453123
4884951027562,9.164830205,1,0.2537853759765625,1.7022773803710936,-11.240776794433593
4884961028082,9.174830725,1,0.21068974609375,1.7022773803710936,-11.212046374511718
4884971027093,9.184829736,1,0.2454056701660156,1.7525556152343749,-11.220426080322264
4884981028707,9.19483135,1,0.23104046020507812,1.7501614135742187,-11.256339105224608
4884991026832,9.204829475,1,0.1975216369628906,1.7669208251953124,-11.204863769531249
4885001027770,9.214830413,1,0.22864625854492185,1.7381904052734374,-11.17254204711914
4885011025218,9.224827861,1,0.2549824768066406,1.7334020019531249,-11.156979736328124
4885021025791,9.234828434,1,0.2059013427734375,1.686715069580078,-11.176133349609374
4885031029749,9.244832392,1,0.2166752502441406,1.7357962036132812,-11.167753643798827
4885041028447,9.25483109,1,0.22266075439453123,1.734599102783203,-11.162965240478515
4885051028239,9.264830882,1,0.21188684692382811,1.725022296142578,-11.167753643798827
4885061029489,9.274832132,1,0.24061726684570311,1.7477672119140624,-11.21084927368164
4885071028239,9.284830882,1,0.2561795776367187,1.7238251953125,-11.219228979492186
4885081028134,9.294830777,1,0.18435352783203124,1.697488977050781,-11.150994232177734
4885091026832,9.304829475,1,0.2609679809570312,1.734599102783203,-11.159373937988281
4885101027145,9.314829788,1,0.19871873779296872,1.7800889343261719,-11.121066711425781
4885111026520,9.324829163,1,0.20949264526367187,1.744175909423828,-11.154585534667968
4885121026832,9.334829475,1,0.19991583862304688,1.734599102783203,-11.173739147949219
4885131029176,9.344831819,1,0.19153613281249998,1.7082628845214842,-11.166556542968749
4885141028343,9.354830986,1,0.24301146850585936,1.7190367919921874,-11.149797131347656
4885151028655,9.364831298,1,0.23223756103515625,1.7178396911621092,-11.143811627197264
4885161026155,9.374828798,1,0.19632453613281248,1.7453730102539062,-11.125855114746093
4885171026572,9.384829215,1,0.258573779296875,1.7573440185546874,-11.207257971191405
4885181028030,9.394830673,1,0.24301146850585936,1.7669208251953124,-11.239579693603515
4885191027093,9.404829736,1,0.19632453613281248,1.7310078002929687,-11.214440576171874
4885201026728,9.414829371,1,0.22026655273437498,1.7286135986328124,-11.200075366210937
4885211026780,9.424829423,1,0.24899697265624998,1.7226280944824217,-11.170147845458983
4885221027614,9.434830257,1,0.229843359375,1.734599102783203,-11.17852755126953
4885231027509,9.444830152,1,0.20350714111328125,1.696291876220703,-11.145008728027342
4885241028759,9.454831402,1,0.17956512451171874,1.7298106994628906,-11.117475408935546
4885251027822,9.464830465,1,0.22266075439453123,1.7226280944824217,-11.195286962890624
4885261028395,9.474831038,1,0.23582886352539062,1.7226280944824217,-11.183315954589844
4885271028082,9.484830725,1,0.20350714111328125,1.7262193969726563,-11.186907257080078
4885281027561,9.494830204,1,0.2154781494140625,1.7525556152343749,-11.231199987792968
4885291027614,9.504830257,1,0.20350714111328125,1.7334020019531249,-11.246762298583985
4885301027978,9.514830621,1,0.25737667846679685,1.7525556152343749,-11.105504400634764
4885311025374,9.524828017,1,0.2166752502441406,1.7669208251953124,-11.174936248779296
4885321027926,9.534830569,1,0.26815058593749996,1.68551796875,-11.226411584472656
4885331029228,9.544831871,1,0.24301146850585936,1.7465701110839842,-11.154585534667968
4885341024645,9.554827288,1,0.2561795776367187,1.7369933044433592,-11.18571015625
4885351028499,9.564831142,1,0.23343466186523437,1.7022773803710936,-11.180921752929686
4885361027874,9.574830517,1,0.16879121704101563,1.7322049011230467,-11.196484063720703
4885371026468,9.584829111,1,0.2346317626953125,1.7393875061035156,-11.1474029296875
4885381027770,9.594830413,1,0.23223756103515625,1.753752716064453,-11.150994232177734
4885391027145,9.604829788,1,0.19393033447265623,1.744175909423828,-11.13423482055664
4885401027561,9.614830204,1,0.20949264526367187,1.7262193969726563,-11.207257971191405
4885411027145,9.624829788,1,0.22266075439453123,1.7274164978027342,-11.15338843383789
4885421027822,9.634830465,1,0.24061726684570311,1.7381904052734374,-11.17852755126953
4885431069957,9.6448726,1,0.2609679809570312,1.7717092285156248,-11.220426080322264
4885441028395,9.654831038,1,0.19033903198242186,1.7106570861816406,-11.188104357910156
4885451028030,9.664830673,1,0.21308394775390624,1.7118541870117185,-11.164162341308593
4885461027874,9.674830517,1,0.2454056701660156,1.714248388671875,-11.166556542968749
4885471029332,9.684831975,1,0.24779987182617186,1.7022773803710936,-11.197681164550781
4885481027509,9.694830152,1,0.18315642700195311,1.7788918334960937,-11.207257971191405
4885491026780,9.704829423,1,0.20949264526367187,1.7238251953125,-11.207257971191405
4885501026363,9.714829006,1,0.2262520568847656,1.7860744384765623,-11.24915650024414
4885511027978,9.724830621,1,0.2442085693359375,1.7238251953125,-11.17254204711914
4885521028082,9.734830725,1,0.2765302917480469,1.744175909423828,-11.11508120727539
4885531027926,9.744830569,1,0.1927332336425781,1.734599102783203,-11.195286962890624
4885541028134,9.754830777,1,0.20470424194335937,1.7429788085937499,-11.15338843383789
4885551028707,9.76483135,1,0.201112939453125,1.7286135986328124,-11.15338843383789
4885561027145,9.774829788,1,0.20231004028320312,1.7334020019531249,-11.184513055419922
4885571029228,9.784831871,1,0.15083470458984374,1.7298106994628906,-11.227608685302734
4885581027457,9.7948301,1,0.25737667846679685,1.7597382202148437,-11.173739147949219
4885591027665,9.804830308,1,0.22505495605468748,1.7417817077636717,-11.195286962890624
4885601027145,9.814829788,1,0.21188684692382811,1.7417817077636717,-11.176133349609374
4885611027145,9.824829788,1,0.22266075439453123,1.7381904052734374,-11.183315954589844
4885621027613,9.834830256,1,0.24660277099609373,1.7405846069335937,-11.183315954589844
4885631026572,9.844829215,1,0.20709844360351562,1.7166425903320313,-11.164162341308593
4885641026832,9.854829475,1,0.22744915771484372,1.7082628845214842,-11.18571015625
4885651027770,9.864830413,1,0.2645592834472656,1.70467158203125,-11.142614526367186
4885661026936,9.874829579,1,0.24181436767578124,1.744175909423828,-11.141417425537108
4885671028395,9.884831038,1,0.24181436767578124,1.7262193969726563,-11.209652172851563
4885681027978,9.894830621,1,0.24779987182617186,1.70467158203125,-11.156979736328124
4885691028290,9.904830933,1,0.18555062866210936,1.7393875061035156,-11.257536206054686
4885701028290,9.914830933,1,0.21906945190429686,1.686715069580078,-11.195286962890624
4885711026572,9.924829215,1,0.21906945190429686,1.7214309936523438,-11.204863769531249
4885721028655,9.934831298,1,0.20949264526367187,1.7429788085937499,-11.106701501464842
4885731027405,9.944830048,1,0.19632453613281248,1.7405846069335937,-11.154585534667968
4885741028759,9.954831402,1,0.2154781494140625,1.7645266235351562,-11.143811627197264
4885751038290,9.964840933,1,0.2214636535644531,1.7106570861816406,-11.164162341308593
4885761031988,9.974834631,1,0.21068974609375,1.7741034301757812,-11.21084927368164
4885771028707,9.98483135,1,0.18914193115234373,1.7238251953125,-11.188104357910156
4885781027405,9.994830048,1,0.2501940734863281,1.7381904052734374,-11.133037719726563
4885791027770,10.004830413,1,0.23702596435546874,1.7693150268554687,-11.180921752929686
4885801028915,10.014831558,1,0.239420166015625,1.714248388671875,-11.1474029296875
4885811027301,10.024829944,1,0.23582886352539062,1.7262193969726563,-11.179724652099608
4885821025322,10.034827965,1,0.24181436767578124,1.7609353210449217,-11.189301458740234
4885831028811,10.044831454,1,0.20350714111328125,1.7429788085937499,-11.150994232177734
4885841028030,10.054830673,1,0.19871873779296872,1.7357962036132812,-11.145008728027342
4885851029280,10.064831923,1,0.22026655273437498,1.7118541870117185,-11.131840618896483
4885861030895,10.074833538,1,0.22505495605468748,1.7573440185546874,-11.104307299804686
4885871029228,10.084831871,1,0.23104046020507812,1.7657237243652342,-11.19887826538086
4885881028342,10.094830985,1,0.23223756103515625,1.714248388671875,-11.165359442138671
4885891027665,10.104830308,1,0.22744915771484372,1.6986860778808592,-11.159373937988281
4885901028603,10.114831246,1,0.20829554443359374,1.7202338928222656,-11.142614526367186
4885911028186,10.124830829,1,0.2813186950683594,1.7226280944824217,-11.271901416015623
4885921028082,10.134830725,1,0.20709844360351562,1.7788918334960937,-11.17852755126953
4885931026467,10.14482911,1,0.22026655273437498,1.7417817077636717,-11.235988391113281
4885941030061,10.154832704,1,0.23343466186523437,1.6843208679199217,-11.149797131347656
4885951029592,10.164832235,1,0.25737667846679685,1.7178396911621092,-11.162965240478515
4885961027353,10.174829996,1,0.19991583862304688,1.7298106994628906,-11.165359442138671
4885971028811,10.184831454,1,0.24779987182617186,1.7429788085937499,-11.213243475341796
4885981027249,10.194829892,1,0.21906945190429686,1.7106570861816406,-11.21084927368164
4885991027665,10.204830308,1,0.26695348510742184,1.6938976745605467,-11.204863769531249
4886001223082,10.215025725,1,0.19632453613281248,1.7022773803710936,-11.161768139648437
4886011022457,10.2248251,1,0.16160861206054686,1.7609353210449217,-11.24915650024414
4886021030217,10.23483286,1,0.2346317626953125,1.7381904052734374,-11.203666668701171
4886031028603,10.244831246,1,0.21068974609375,1.725022296142578,-11.189301458740234
4886041032769,10.254835412,1,0.20949264526367187,1.7681179260253905,-11.19887826538086
4886051031884,10.264834527,1,0.2154781494140625,1.7621324218749999,-11.131840618896483
4886061033603,10.274836246,1,0.2549824768066406,1.7190367919921874,-11.137826123046874
4886071031624,10.284834267,1,0.24899697265624998,1.7621324218749999,-11.194089862060546
4886081030634,10.294833277,1,0.2262520568847656,1.7334020019531249,-11.243170996093749
4886091031624,10.304834267,1,0.2346317626953125,1.7693150268554687,-11.203666668701171
4886101027978,10.314830621,1,0.20949264526367187,1.7298106994628906,-11.219228979492186
4886111030374,10.324833017,1,0.23104046020507812,1.7322049011230467,-11.125855114746093
4886121030634,10.334833277,1,0.229843359375,1.7369933044433592,-11.206060870361327
4886131030165,10.344832808,1,0.20709844360351562,1.6986860778808592,-11.164162341308593
4886141030686,10.354833329,1,0.2753331909179687,1.7429788085937499,-11.204863769531249
4886151031363,10.364834006,1,0.25139117431640623,1.744175909423828,-11.222820281982422
4886161031051,10.374833694,1,0.1592144104003906,1.7094599853515624,-11.192892761230468
4886171030009,10.384832652,1,0.24899697265624998,1.7238251953125,-11.15338843383789
4886181030478,10.394833121,1,0.2980781066894531,1.6831237670898436,-11.161768139648437
4886191030842,10.404833485,1,0.2549824768066406,1.7788918334960937,-11.133037719726563
4886201030217,10.41483286,1,0.2154781494140625,1.7118541870117185,-11.158176837158203
4886211030009,10.424832652,1,0.22385785522460935,1.7585411193847655,-11.23718549194336
4886221029696,10.434832339,1,0.2262520568847656,1.7274164978027342,-11.166556542968749
4886231030478,10.444833121,1,0.19632453613281248,1.7705121276855467,-11.125855114746093
4886241030738,10.454833381,1,0.22744915771484372,1.7453730102539062,-11.1474029296875
4886251026155,10.464828798,1,0.25139117431640623,1.7573440185546874,-11.194089862060546
4886261030321,10.474832964,1,0.2657563842773437,1.7298106994628906,-11.200075366210937
4886271029332,10.484831975,1,0.28371289672851563,1.7178396911621092,-11.241973895263671
4886281029957,10.4948326,1,0.23702596435546874,1.7393875061035156,-11.159373937988281
4886291030894,10.504833537,1,0.2154781494140625,1.668758557128906,-11.16057103881836
4886301031103,10.514833746,1,0.21188684692382811,1.7082628845214842,-11.159373937988281
4886311030999,10.524833642,1,0.1771709228515625,1.7274164978027342,-11.183315954589844
4886321031103,10.534833746,1,0.22505495605468748,1.714248388671875,-11.240776794433593
4886331029905,10.544832548,1,0.25139117431640623,1.7453730102539062,-11.201272467041015
4886341050946,10.554853589,1,0.22266075439453123,1.7753005310058592,-11.168950744628905
4886351032457,10.5648351,1,0.2059013427734375,1.7226280944824217,-11.099518896484375
4886361032040,10.574834683,1,0.2214636535644531,1.7393875061035156,-11.218031878662108
4886371029853,10.584832496,1,0.229843359375,1.7238251953125,-11.135431921386719
4886381032821,10.594835464,1,0.22266075439453123,1.715445489501953,-11.18571015625
4886391030946,10.604833589,1,0.239420166015625,1.7357962036132812,-11.171344946289063
4886401031207,10.61483385,1,0.19153613281249998,1.7310078002929687,-11.271901416015623
4886411030582,10.624833225,1,0.2753331909179687,1.7381904052734374,-11.139023223876952
4886421031624,10.634834267,1,0.22864625854492185,1.7166425903320313,-11.174936248779296
4886431030321,10.644832964,1,0.2454056701660156,1.695094775390625,-11.204863769531249
4886441030530,10.654833173,1,0.19153613281249998,1.753752716064453,-11.156979736328124
4886451032196,10.664834839,1,0.2549824768066406,1.7202338928222656,-11.194089862060546
4886461031415,10.674834058,1,0.20709844360351562,1.714248388671875,-11.103110198974608
4886471031467,10.68483411,1,0.20470424194335937,1.7130512878417967,-11.267113012695312
4886481030321,10.694832964,1,0.2693476867675781,1.7561469177246092,-11.12226381225586
4886491030894,10.704833537,1,0.1879448303222656,1.7357962036132812,-11.173739147949219
4886501031884,10.714834527,1,0.2442085693359375,1.7657237243652342,-11.245565197753905
4886511031259,10.724833902,1,0.19512743530273435,1.675941162109375,-11.170147845458983
4886521030061,10.734832704,1,0.20350714111328125,1.697488977050781,-11.155782635498046
4886531030582,10.744833225,1,0.1867477294921875,1.7118541870117185,-11.184513055419922
4886541030113,10.754832756,1,0.22505495605468748,1.725022296142578,-11.209652172851563
4886551031363,10.764834006,1,0.2059013427734375,1.7573440185546874,-11.149797131347656
4886561030634,10.774833277,1,0.21188684692382811,1.7525556152343749,-11.182118853759764
4886571030738,10.784833381,1,0.20829554443359374,1.7872715393066405,-11.202469567871093
4886581030738,10.794833381,1,0.22026655273437498,1.7106570861816406,-11.159373937988281
4886591025478,10.804828121,1,0.2166752502441406,1.725022296142578,-11.194089862060546
4886601030842,10.814833485,1,0.2346317626953125,1.7262193969726563,-11.227608685302734
4886611031051,10.824833694,1,0.20949264526367187,1.7010802795410156,-11.167753643798827
4886621030998,10.834833641,1,0.22864625854492185,1.725022296142578,-11.200075366210937
4886631030061,10.844832704,1,0.20829554443359374,1.695094775390625,-11.190498559570312
4886641030373,10.854833016,1,0.21906945190429686,1.6998831787109374,-11.18571015625
4886651032665,10.864835308,1,0.23104046020507812,1.7178396911621092,-11.196484063720703
4886661030738,10.874833381,1,0.23223756103515625,1.6938976745605467,-11.195286962890624
4886671030894,10.884833537,1,0.20350714111328125,1.744175909423828,-11.23000288696289
4886681030946,10.894833589,1,0.2609679809570312,1.7238251953125,-11.19169566040039
4886691030686,10.904833329,1,0.22864625854492185,1.7190367919921874,-11.128249316406249
4886701029905,10.914832548,1,0.22266075439453123,1.7262193969726563,-11.136629022216797
4886711029800,10.924832443,1,0.2549824768066406,1.7286135986328124,-11.137826123046874
4886721030530,10.934833173,1,0.26216508178710934,1.7334020019531249,-11.127052215576171
4886731030478,10.944833121,1,0.23223756103515625,1.7286135986328124,-11.214440576171874
4886741029592,10.954832235,1,0.2154781494140625,1.7082628845214842,-11.184513055419922
4886751030009,10.964832652,1,0.17357962036132812,1.7274164978027342,-11.206060870361327
4886761031311,10.974833954,1,0.1927332336425781,1.7944541442871094,-11.207257971191405
4886771030217,10.98483286,1,0.2813186950683594,1.7453730102539062,-11.194089862060546
4886781030425,10.994833068,1,0.24899697265624998,1.705868682861328,-11.176133349609374
4886791029853,11.004832496,1,0.19512743530273435,1.7322049011230467,-11.186907257080078
4886801058603,11.014861246,1,0.20350714111328125,1.7166425903320313,-11.202469567871093
4886811039748,11.024842391,1,0.229843359375,1.7405846069335937,-11.182118853759764
4886821031103,11.034833746,1,0.22505495605468748,1.7226280944824217,-11.168950744628905
4886831030217,11.04483286,1,0.21906945190429686,1.7561469177246092,-11.194089862060546
4886841030321,11.054832964,1,0.25737667846679685,1.7501614135742187,-11.088744989013671
4886851030998,11.064833641,1,0.21906945190429686,1.7010802795410156,-11.13423482055664
4886861033290,11.074835933,1,0.23582886352539062,1.7226280944824217,-11.195286962890624
4886871031050,11.084833693,1,0.23822306518554687,1.7800889343261719,-11.167753643798827
4886881031207,11.09483385,1,0.22505495605468748,1.7118541870117185,-11.174936248779296
4886891031467,11.10483411,1,0.2214636535644531,1.7262193969726563,-11.238382592773437
4886901031259,11.114833902,1,0.26815058593749996,1.7393875061035156,-11.232397088623046
4886911029384,11.124832027,1,0.24779987182617186,1.7549498168945312,-11.17852755126953
4886921031571,11.134834214,1,0.24660277099609373,1.7190367919921874,-11.145008728027342
4886931031259,11.144833902,1,0.24301146850585936,1.7238251953125,-11.152191333007812
4886941031155,11.154833798,1,0.20350714111328125,1.7082628845214842,-11.220426080322264
4886951031363,11.164834006,1,0.21428104858398436,1.7417817077636717,-11.089942089843749
4886961030946,11.174833589,1,0.23582886352539062,1.697488977050781,-11.103110198974608
4886971031571,11.184834214,1,0.22744915771484372,1.7417817077636717,-11.105504400634764
4886981030425,11.194833068,1,0.23822306518554687,1.7561469177246092,-11.228805786132812
4886991030894,11.204833537,1,0.22744915771484372,1.7310078002929687,-11.137826123046874
4887001032457,11.2148351,1,0.2454056701660156,1.7645266235351562,-11.099518896484375
4887011029748,11.224832391,1,0.24779987182617186,1.6986860778808592,-11.257536206054686
4887021031050,11.234833693,1,0.23104046020507812,1.8004396484374998,-11.21084927368164
4887031030530,11.244833173,1,0.229843359375,1.7417817077636717,-11.159373937988281
4887041031155,11.254833798,1,0.2166752502441406,1.7681179260253905,-11.14022032470703
4887051048290,11.264850933,1,0.23702596435546874,1.7681179260253905,-11.18571015625
4887061032457,11.2748351,1,0.18435352783203124,1.7166425903320313,-11.087547888183593
4887071026311,11.284828954,1,0.21428104858398436,1.7130512878417967,-11.19887826538086
4887081031415,11.294834058,1,0.22026655273437498,1.7106570861816406,-11.1474029296875
4887091030269,11.304832912,1,0.23223756103515625,1.7501614135742187,-11.228805786132812
4887101025269,11.314827912,1,0.2166752502441406,1.725022296142578,-11.244368096923827
4887111030790,11.324833433,1,0.23104046020507812,1.7393875061035156,-11.204863769531249
4887121030634,11.334833277,1,0.20709844360351562,1.7489643127441405,-11.225214483642578
4887131030582,11.344833225,1,0.17956512451171874,1.7872715393066405,-11.180921752929686
4887141030529,11.354833172,1,0.23343466186523437,1.7513585144042967,-11.176133349609374
4887151030061,11.364832704,1,0.25258827514648435,1.7274164978027342,-11.195286962890624
4887161031675,11.374834318,1,0.2537853759765625,1.7453730102539062,-11.182118853759764
4887171030946,11.384833589,1,0.16160861206054686,1.7034744812011717,-11.12226381225586
4887181030738,11.394833381,1,0.19991583862304688,1.7166425903320313,-11.19169566040039
4887191030634,11.404833277,1,0.229843359375,1.7393875061035156,-11.176133349609374
4887201031311,11.414833954,1,0.21188684692382811,1.715445489501953,-11.21683477783203
4887211030373,11.424833016,1,0.22266075439453123,1.7800889343261719,-11.137826123046874
4887221030998,11.434833641,1,0.23104046020507812,1.7465701110839842,-11.233594189453123
4887231031519,11.444834162,1,0.18914193115234373,1.7202338928222656,-11.197681164550781
4887241024019,11.454826662,1,0.239420166015625,1.7525556152343749,-11.174936248779296
4887251030061,11.464832704,1,0.22026655273437498,1.7405846069335937,-11.245565197753905
4887261031311,11.474833954,1,0.19033903198242186,1.7812860351562498,-11.14022032470703
4887271031363,11.484834006,1,0.20350714111328125,1.7166425903320313,-11.212046374511718
4887281030634,11.494833277,1,0.23702596435546874,1.7106570861816406,-11.197681164550781
4887291031832,11.504834475,1,0.23822306518554687,1.7190367919921874,-11.221623181152344
4887301030061,11.514832704,1,0.2154781494140625,1.7166425903320313,-11.189301458740234
4887311030477,11.52483312,1,0.23223756103515625,1.7334020019531249,-11.180921752929686
4887321031415,11.534834058,1,0.2549824768066406,1.7405846069335937,-11.19887826538086
4887331030581,11.544833224,1,0.2166752502441406,1.7226280944824217,-11.212046374511718
4887341030790,11.554833433,1,0.23223756103515625,1.7417817077636717,-11.179724652099608
4887351031311,11.564833954,1,0.21188684692382811,1.753752716064453,-11.232397088623046
4887361030998,11.574833641,1,0.18435352783203124,1.705868682861328,-11.150994232177734
4887371032092,11.584834735,1,0.21068974609375,1.6891092712402342,-11.156979736328124
4887381031519,11.594834162,1,0.18315642700195311,1.7106570861816406,-11.186907257080078
4887391026988,11.604829631,1,0.23343466186523437,1.7034744812011717,-11.19887826538086
4887401031623,11.614834266,1,0.23582886352539062,1.725022296142578,-11.158176837158203
4887411030321,11.624832964,1,0.20949264526367187,1.7465701110839842,-11.14022032470703
4887421030686,11.634833329,1,0.22864625854492185,1.7262193969726563,-11.182118853759764
4887431030529,11.644833172,1,0.24181436767578124,1.792059942626953,-11.241973895263671
4887441030269,11.654832912,1,0.1867477294921875,1.697488977050781,-11.201272467041015
4887451029956,11.664832599,1,0.2741360900878906,1.7645266235351562,-11.222820281982422
4887461030269,11.674832912,1,0.21068974609375,1.6903063720703124,-11.182118853759764
4887471032613,11.684835256,1,0.20829554443359374,1.7262193969726563,-11.173739147949219
4887481031988,11.694834631,1,0.239420166015625,1.7357962036132812,-11.215637677001952
4887491025165,11.704827808,1,0.19632453613281248,1.725022296142578,-11.240776794433593
4887501031102,11.714833745,1,0.19153613281249998,1.7298106994628906,-11.247959399414063
4887511031050,11.724833693,1,0.24181436767578124,1.744175909423828,-11.180921752929686
4887521030425,11.734833068,1,0.2561795776367187,1.705868682861328,-11.165359442138671
4887531031727,11.74483437,1,0.19632453613281248,1.7621324218749999,-11.201272467041015
4887541031050,11.754833693,1,0.2442085693359375,1.715445489501953,-11.161768139648437
4887551031363,11.764834006,1,0.2765302917480469,1.70467158203125,-11.150994232177734
4887561030165,11.774832808,1,0.19991583862304688,1.707065783691406,-11.203666668701171
4887571030842,11.784833485,1,0.2705447875976562,1.705868682861328,-11.246762298583985
4887581031623,11.794834266,1,0.20949264526367187,1.7214309936523438,-11.1474029296875
4887591030790,11.804833433,1,0.201112939453125,1.7693150268554687,-11.186907257080078
4887601031050,11.814833693,1,0.23582886352539062,1.7238251953125,-11.206060870361327
4887611030008,11.824832651,1,0.20470424194335937,1.7310078002929687,-11.23000288696289
4887621033186,11.834835829,1,0.20350714111328125,1.7369933044433592,-11.2240173828125
4887631032144,11.844834787,1,0.16998831787109375,1.7549498168945312,-11.156979736328124
4887641030686,11.854833329,1,0.22505495605468748,1.7369933044433592,-11.142614526367186
4887651030894,11.864833537,1,0.2501940734863281,1.7226280944824217,-11.176133349609374
4887661048915,11.874851558,1,0.201112939453125,1.7334020019531249,-11.209652172851563
4887671032300,11.884834943,1,0.23104046020507812,1.7453730102539062,-11.204863769531249
4887681031258,11.894833901,1,0.258573779296875,1.7573440185546874,-11.215637677001952
4887691031102,11.904833745,1,0.24061726684570311,1.7022773803710936,-11.19169566040039
4887701031571,11.914834214,1,0.2549824768066406,1.7393875061035156,-11.170147845458983
4887711031831,11.924834474,1,0.3016694091796875,1.7166425903320313,-11.155782635498046
4887721031623,11.934834266,1,0.20350714111328125,1.7298106994628906,-11.173739147949219
4887731041675,11.944844318,1,0.20829554443359374,1.744175909423828,-11.167753643798827
4887741031467,11.95483411,1,0.27892449340820313,1.7501614135742187,-11.173739147949219
4887751032092,11.964834735,1,0.2825157958984375,1.7178396911621092,-11.150994232177734
4887761030946,11.974833589,1,0.18914193115234373,1.7525556152343749,-11.232397088623046
4887771033133,11.984835776,1,0.25139117431640623,1.763329522705078,-11.19887826538086
4887781030738,11.994833381,1,0.24301146850585936,1.7669208251953124,-11.154585534667968
4887791031467,12.00483411,1,0.19153613281249998,1.7477672119140624,-11.179724652099608
4887801030738,12.014833381,1,0.2059013427734375,1.687912170410156,-11.165359442138671
4887811030738,12.024833381,1,0.28012159423828126,1.7322049011230467,-11.16057103881836
4887821031571,12.034834214,1,0.26695348510742184,1.7298106994628906,-11.190498559570312
4887831031623,12.044834266,1,0.26695348510742184,1.7226280944824217,-11.190498559570312
4887841029852,12.054832495,1,0.2166752502441406,1.7190367919921874,-11.188104357910156
4887851031258,12.064833901,1,0.20231004028320312,1.695094775390625,-11.148600030517578
4887861038654,12.074841297,1,0.19512743530273435,1.7405846069335937,-11.203666668701171
4887871027404,12.084830047,1,0.19871873779296872,1.7274164978027342,-11.137826123046874
4887881031727,12.09483437,1,0.2454056701660156,1.687912170410156,-11.174936248779296
4887891031310,12.104833953,1,0.22744915771484372,1.7848773376464844,-11.15338843383789
4887901031102,12.114833745,1,0.2645592834472656,1.7561469177246092,-11.148600030517578
4887911032144,12.124834787,1,0.19991583862304688,1.7369933044433592,-11.197681164550781
4887921034800,12.134837443,1,0.21787235107421873,1.7357962036132812,-11.259930407714844
4887931032040,12.144834683,1,0.24779987182617186,1.7322049011230467,-11.170147845458983
4887941030581,12.154833224,1,0.22505495605468748,1.7549498168945312,-11.166556542968749
4887951031988,12.164834631,1,0.2501940734863281,1.753752716064453,-11.200075366210937
4887961031050,12.174833693,1,0.19512743530273435,1.7214309936523438,-11.159373937988281
4887971031571,12.184834214,1,0.2609679809570312,1.7597382202148437,-11.173739147949219
4887981031727,12.19483437,1,0.17597382202148437,1.70467158203125,-11.21084927368164
4887991030477,12.20483312,1,0.24181436767578124,1.7393875061035156,-11.207257971191405
4888001031883,12.214834526,1,0.25258827514648435,1.7262193969726563,-11.243170996093749
4888011059383,12.224862026,1,0.21906945190429686,1.6795324645996093,-11.207257971191405
4888021047612,12.234850255,1,0.23223756103515625,1.7130512878417967,-11.196484063720703
4888031032925,12.244835568,1,0.17357962036132812,1.7274164978027342,-11.18571015625
4888041026675,12.254829318,1,0.19153613281249998,1.7621324218749999,-11.16057103881836
4888051031935,12.264834578,1,0.24899697265624998,1.7800889343261719,-11.154585534667968
4888061028342,12.274830985,1,0.21428104858398436,1.7357962036132812,-11.18571015625
4888071032612,12.284835255,1,0.20231004028320312,1.7609353210449217,-11.143811627197264
4888081031779,12.294834422,1,0.20470424194335937,1.7094599853515624,-11.21084927368164
4888091032612,12.304835255,1,0.2537853759765625,1.7274164978027342,-11.206060870361327
4888101034123,12.314836766,1,0.21188684692382811,1.7274164978027342,-11.177330450439452
4888111031935,12.324834578,1,0.28730419921875,1.7513585144042967,-11.194089862060546
4888121032196,12.334834839,1,0.24061726684570311,1.7417817077636717,-11.16057103881836
4888131029279,12.344831922,1,0.23223756103515625,1.725022296142578,-11.183315954589844
4888141032456,12.354835099,1,0.16879121704101563,1.7513585144042967,-11.174936248779296
4888151031415,12.364834058,1,0.16519991455078123,1.7357962036132812,-11.202469567871093
4888161031050,12.374833693,1,0.21308394775390624,1.70467158203125,-11.192892761230468
4888171031519,12.384834162,1,0.19871873779296872,1.7393875061035156,-11.17254204711914
4888181031675,12.394834318,1,0.2059013427734375,1.7130512878417967,-11.118672509765624
4888191031675,12.404834318,1,0.2705447875976562,1.7334020019531249,-11.136629022216797
4888201030529,12.414833172,1,0.24301146850585936,1.7393875061035156,-11.220426080322264
4888211029748,12.424832391,1,0.258573779296875,1.7334020019531249,-11.188104357910156
4888221030894,12.434833537,1,0.22385785522460935,1.734599102783203,-11.234791290283203
4888231031102,12.444833745,1,0.201112939453125,1.6831237670898436,-11.171344946289063
4888241032456,12.454835099,1,0.2561795776367187,1.7274164978027342,-11.18571015625
4888251032144,12.464834787,1,0.22266075439453123,1.7238251953125,-11.161768139648437
4888261030685,12.474833328,1,0.23104046020507812,1.7082628845214842,-11.166556542968749
4888271048706,12.484851349,1,0.18315642700195311,1.7848773376464844,-11.168950744628905
4888281031779,12.494834422,1,0.2549824768066406,1.7214309936523438,-11.195286962890624
4888291031310,12.504833953,1,0.2214636535644531,1.7477672119140624,-11.152191333007812
4888301032508,12.514835151,1,0.20829554443359374,1.7369933044433592,-11.184513055419922
4888311032144,12.524834787,1,0.21188684692382811,1.715445489501953,-11.184513055419922
4888321031779,12.534834422,1,0.1975216369628906,1.7022773803710936,-11.158176837158203
4888331030425,12.544833068,1,0.22744915771484372,1.7190367919921874,-11.208455072021483
4888341031206,12.554833849,1,0.18315642700195311,1.7357962036132812,-11.201272467041015
4888351030633,12.564833276,1,0.20709844360351562,1.7010802795410156,-11.194089862060546
4888361030321,12.574832964,1,0.24660277099609373,1.734599102783203,-11.152191333007812
4888371069071,12.584871714,1,0.2561795776367187,1.7417817077636717,-11.258733306884764
4888381026310,12.594828953,1,0.22744915771484372,1.734599102783203,-11.203666668701171
4888391032196,12.604834839,1,0.19153613281249998,1.7082628845214842,-11.208455072021483
4888401031310,12.614833953,1,0.22864625854492185,1.687912170410156,-11.190498559570312
4888411030216,12.624832859,1,0.2693476867675781,1.7082628845214842,-11.161768139648437
4888421032456,12.634835099,1,0.24301146850585936,1.734599102783203,-11.209652172851563
4888431030269,12.644832912,1,0.26695348510742184,1.7381904052734374,-11.113884106445312
4888441031675,12.654834318,1,0.23582886352539062,1.7226280944824217,-11.170147845458983
4888451030737,12.66483338,1,0.2549824768066406,1.678335363769531,-11.148600030517578
4888461030164,12.674832807,1,0.23104046020507812,1.7573440185546874,-11.133037719726563
4888471070946,12.684873589,1,0.23223756103515625,1.7501614135742187,-11.171344946289063
4888481027039,12.694829682,1,0.23343466186523437,1.7106570861816406,-11.130643518066405
4888491031414,12.704834057,1,0.24660277099609373,1.7178396911621092,-11.154585534667968
4888501030529,12.714833172,1,0.19393033447265623,1.725022296142578,-11.26831011352539
4888511030581,12.724833224,1,0.2442085693359375,1.7788918334960937,-11.150994232177734
4888521031414,12.734834057,1,0.18555062866210936,1.7597382202148437,-11.213243475341796
4888531030789,12.744833432,1,0.2609679809570312,1.734599102783203,-11.113884106445312
4888541030998,12.754833641,1,0.22744915771484372,1.714248388671875,-11.161768139648437
4888551032300,12.764834943,1,0.2705447875976562,1.7812860351562498,-11.21683477783203
4888561030581,12.774833224,1,0.15442600708007811,1.7274164978027342,-11.219228979492186
4888571031414,12.784834057,1,0.2537853759765625,1.7178396911621092,-11.184513055419922
4888581032664,12.794835307,1,0.2645592834472656,1.7477672119140624,-11.184513055419922
4888591031258,12.804833901,1,0.2214636535644531,1.7118541870117185,-11.243170996093749
4888601032091,12.814834734,1,0.22744915771484372,1.7465701110839842,-11.204863769531249
4888611032560,12.824835203,1,0.22744915771484372,1.7190367919921874,-11.128249316406249
4888621031883,12.834834526,1,0.19512743530273435,1.763329522705078,-11.148600030517578
4888631030112,12.844832755,1,0.2166752502441406,1.7214309936523438,-11.137826123046874
4888641029227,12.85483187,1,0.22266075439453123,1.6915034729003906,-11.183315954589844
4888651098446,12.864901089,1,0.258573779296875,1.7118541870117185,-11.170147845458983
4888661034071,12.874836714,1,0.21308394775390624,1.714248388671875,-11.092336291503905
4888671023081,12.884825724,1,0.2442085693359375,1.7262193969726563,-11.179724652099608
4888681029279,12.894831922,1,0.24660277099609373,1.7322049011230467,-11.219228979492186
4888691031050,12.904833693,1,0.2705447875976562,1.7118541870117185,-11.188104357910156
4888701030477,12.91483312,1,0.26216508178710934,1.715445489501953,-11.186907257080078
4888711032196,12.924834839,1,0.24779987182617186,1.7262193969726563,-11.168950744628905
4888721031623,12.934834266,1,0.2693476867675781,1.7645266235351562,-11.182118853759764
4888731029435,12.944832078,1,0.2346317626953125,1.7190367919921874,-11.222820281982422
4888741031258,12.954833901,1,0.22505495605468748,1.744175909423828,-11.192892761230468
4888751030529,12.964833172,1,0.201112939453125,1.7094599853515624,-11.17852755126953
4888761031466,12.974834109,1,0.2454056701660156,1.7357962036132812,-11.246762298583985
4888771031154,12.984833797,1,0.27174188842773433,1.7130512878417967,-11.213243475341796
4888781030946,12.994833589,1,0.2454056701660156,1.7405846069335937,-11.204863769531249
4888791031518,13.004834161,1,0.23343466186523437,1.7298106994628906,-11.186907257080078
4888801042977,13.01484562,1,0.24061726684570311,1.7872715393066405,-11.166556542968749
4888811032456,13.024835099,1,0.20350714111328125,1.7393875061035156,-11.150994232177734
4888821032300,13.034834943,1,0.20470424194335937,1.7429788085937499,-11.227608685302734
4888831030685,13.044833328,1,0.18555062866210936,1.7034744812011717,-11.17852755126953
4888841032039,13.054834682,1,0.23104046020507812,1.734599102783203,-11.173739147949219
4888851030633,13.064833276,1,0.20709844360351562,1.7214309936523438,-11.141417425537108
4888861031623,13.074834266,1,0.23702596435546874,1.7298106994628906,-11.130643518066405
4888871030425,13.084833068,1,0.229843359375,1.7489643127441405,-11.158176837158203
4888881050320,13.094852963,1,0.201112939453125,1.7286135986328124,-11.155782635498046
4888891031362,13.104834005,1,0.17118541870117188,1.7118541870117185,-11.142614526367186
4888901034123,13.114836766,1,0.17357962036132812,1.6807295654296874,-11.209652172851563
4888911031050,13.124833693,1,0.23822306518554687,1.7597382202148437,-11.206060870361327
4888921030581,13.134833224,1,0.23343466186523437,1.6927005737304686,-11.180921752929686
4888931031102,13.144833745,1,0.21188684692382811,1.7190367919921874,-11.174936248779296
4888941031675,13.154834318,1,0.16998831787109375,1.7513585144042967,-11.173739147949219
4888951031570,13.164834213,1,0.21188684692382811,1.7405846069335937,-11.167753643798827
4888961030373,13.174833016,1,0.24899697265624998,1.7190367919921874,-11.141417425537108
4888971031623,13.184834266,1,0.26336218261718747,1.7106570861816406,-11.128249316406249
4888981029591,13.194832234,1,0.24301146850585936,1.695094775390625,-11.131840618896483
4888991032404,13.204835047,1,0.19512743530273435,1.715445489501953,-11.183315954589844
4889001031414,13.214834057,1,0.2166752502441406,1.7298106994628906,-11.154585534667968
4889011031310,13.224833953,1,0.22864625854492185,1.707065783691406,-11.19887826538086
4889021031414,13.234834057,1,0.2166752502441406,1.705868682861328,-11.173739147949219
4889031031518,13.244834161,1,0.2561795776367187,1.744175909423828,-11.149797131347656
4889041030841,13.254833484,1,0.20470424194335937,1.7609353210449217,-11.186907257080078
4889051031466,13.264834109,1,0.21428104858398436,1.7202338928222656,-11.180921752929686
4889061031362,13.274834005,1,0.20949264526367187,1.7034744812011717,-11.192892761230468
4889071031831,13.284834474,1,0.2549824768066406,1.7369933044433592,-11.127052215576171
4889081031362,13.294834005,1,0.21428104858398436,1.734599102783203,-11.184513055419922
4889091032612,13.304835255,1,0.22026655273437498,1.7429788085937499,-11.166556542968749
4889101030737,13.31483338,1,0.22505495605468748,1.7357962036132812,-11.18571015625
4889111029904,13.324832547,1,0.23223756103515625,1.7417817077636717,-11.238382592773437
4889121030633,13.334833276,1,0.20350714111328125,1.7561469177246092,-11.180921752929686
4889131033289,13.344835932,1,0.2442085693359375,1.6998831787109374,-11.227608685302734
4889141031570,13.354834213,1,0.2549824768066406,1.7286135986328124,-11.156979736328124
4889151027195,13.364829838,1,0.23702596435546874,1.7178396911621092,-11.196484063720703
4889161032143,13.374834786,1,0.2166752502441406,1.6843208679199217,-11.215637677001952
4889171031675,13.384834318,1,0.1975216369628906,1.7501614135742187,-11.148600030517578
4889181031779,13.394834422,1,0.19393033447265623,1.714248388671875,-11.220426080322264
4889191033706,13.404836349,1,0.19512743530273435,1.753752716064453,-11.159373937988281
4889201031622,13.414834265,1,0.19512743530273435,1.7393875061035156,-11.209652172851563
4889211032404,13.424835047,1,0.2262520568847656,1.7621324218749999,-11.240776794433593
4889221032091,13.434834734,1,0.2693476867675781,1.7465701110839842,-11.142614526367186
4889231029591,13.444832234,1,0.24301146850585936,1.7693150268554687,-11.247959399414063
4889241032091,13.454834734,1,0.22266075439453123,1.7286135986328124,-11.061211669921875
4889251030997,13.46483364,1,0.23822306518554687,1.7106570861816406,-11.197681164550781
4889261031414,13.474834057,1,0.22864625854492185,1.6986860778808592,-11.086350787353515
4889271031362,13.484834005,1,0.25737667846679685,1.763329522705078,-11.182118853759764
4889281030008,13.494832651,1,0.15322890625,1.7214309936523438,-11.214440576171874
4889291031466,13.504834109,1,0.229843359375,1.7118541870117185,-11.285069525146485
4889301031674,13.514834317,1,0.181959326171875,1.7202338928222656,-11.143811627197264
4889311032039,13.524834682,1,0.22744915771484372,1.7262193969726563,-11.042058056640624
4889321031622,13.534834265,1,0.23702596435546874,1.7178396911621092,-11.28746372680664
4889331031258,13.544833901,1,0.2561795776367187,1.7202338928222656,-11.071985577392578
4889341031622,13.554834265,1,0.2537853759765625,1.7082628845214842,-11.323376751708985
4889351031206,13.564833849,1,0.18435352783203124,1.7525556152343749,-11.046846459960937
4889361031414,13.574834057,1,0.2166752502441406,1.6891092712402342,-11.332953558349608
4889371031883,13.584834526,1,0.22744915771484372,1.7465701110839842,-11.036072552490234
4889381031206,13.594833849,1,0.22026655273437498,1.7190367919921874,-11.204863769531249
4889391030893,13.604833536,1,0.2154781494140625,1.70467158203125,-11.228805786132812
4889401031466,13.614834109,1,0.2537853759765625,1.7369933044433592,-11.329362255859374
4889411030529,13.624833172,1,0.20949264526367187,1.7238251953125,-11.04564935913086
4889421031466,13.634834109,1,0.19632453613281248,1.7226280944824217,-11.261127508544922
4889431030893,13.644833536,1,0.24181436767578124,1.7034744812011717,-11.207257971191405
4889441030060,13.654832703,1,0.20709844360351562,1.7022773803710936,-11.318588348388671
4889451031154,13.664833797,1,0.15083470458984374,1.6807295654296874,-11.062408770751953
4889461031310,13.674833953,1,0.2825157958984375,1.7381904052734374,-11.222820281982422
4889471032299,13.684834942,1,0.2346317626953125,1.753752716064453,-11.195286962890624
4889481032508,13.694835151,1,0.1867477294921875,1.7262193969726563,-11.323376751708985
4889491030633,13.704833276,1,0.239420166015625,1.7764976318359373,-11.220426080322264
4889501029383,13.714832026,1,0.2262520568847656,1.725022296142578,-11.203666668701171
4889511031154,13.724833797,1,0.239420166015625,1.7405846069335937,-11.142614526367186
4889521031674,13.734834317,1,0.23223756103515625,1.7298106994628906,-11.183315954589844
4889531031258,13.744833901,1,0.24899697265624998,1.7357962036132812,-11.17852755126953
4889541031726,13.754834369,1,0.2861070983886719,1.7836802368164062,-11.202469567871093
4889551030893,13.764833536,1,0.25258827514648435,1.7561469177246092,-11.212046374511718
4889561030581,13.774833224,1,0.26695348510742184,1.6627730529785156,-11.246762298583985
4889571032560,13.784835203,1,0.229843359375,1.7010802795410156,-11.196484063720703
4889581031831,13.794834474,1,0.23223756103515625,1.7489643127441405,-11.186907257080078
4889591049018,13.804851661,1,0.25139117431640623,1.7214309936523438,-11.24915650024414
4889601032872,13.814835515,1,0.23223756103515625,1.7573440185546874,-11.081562384033202
4889611031674,13.824834317,1,0.258573779296875,1.7022773803710936,-11.14022032470703
4889621031362,13.834834005,1,0.24181436767578124,1.7262193969726563,-11.19169566040039
4889631032143,13.844834786,1,0.23582886352539062,1.6927005737304686,-11.234791290283203
4889641031466,13.854834109,1,0.2442085693359375,1.7118541870117185,-11.088744989013671
4889651031518,13.864834161,1,0.23223756103515625,1.7489643127441405,-11.232397088623046
4889661026049,13.874828692,1,0.239420166015625,1.6938976745605467,-11.183315954589844
4889671032820,13.884835463,1,0.20231004028320312,1.696291876220703,-11.231199987792968
4889681030789,13.894833432,1,0.26216508178710934,1.7764976318359373,-11.213243475341796
4889691031518,13.904834161,1,0.22744915771484372,1.7094599853515624,-11.232397088623046
4889701032560,13.914835203,1,0.2442085693359375,1.7609353210449217,-11.204863769531249
4889711031049,13.924833692,1,0.2166752502441406,1.697488977050781,-11.225214483642578
4889721026831,13.934829474,1,0.23582886352539062,1.7166425903320313,-11.200075366210937
4889731045476,13.944848119,1,0.21787235107421873,1.7477672119140624,-11.200075366210937
4889741033133,13.954835776,1,0.19632453613281248,1.7214309936523438,-11.221623181152344
4889751031987,13.96483463,1,0.23582886352539062,1.7178396911621092,-11.195286962890624
