timestamp_ns,t_s,sensor_id,ax,ay,az,gx,gy,gz
5258186559919,0.188285468,3,-0.24301146850585936,-0.5243301635742187,-9.005789544677734,-5.564885496183206,-0.366412213740458,-3.9618320610687023
5258206240544,0.207966093,3,-0.201112939453125,-0.5638344909667968,-9.0021982421875,-4.396946564885496,-0.3053435114503817,-3.1374045801526718
5258226225492,0.227951041,3,-0.20470424194335937,-0.5386953735351562,-8.932766394042968,-4.412213740458015,-0.3511450381679389,-3.1297709923664123
5258246175023,0.247900572,3,-0.18315642700195311,-0.5135562561035156,-8.947131604003905,-4.435114503816794,-0.2900763358778626,-3.1526717557251906
5258266179919,0.267905468,3,-0.22505495605468748,-0.5638344909667968,-8.914809881591797,-4.419847328244275,-0.25190839694656486,-3.122137404580153
5258286114763,0.287840312,3,-0.18555062866210936,-0.48123453369140623,-8.981847528076171,-4.419847328244275,-0.32061068702290074,-3.16793893129771
5258306154086,0.307879635,3,-0.2059013427734375,-0.5422866760253906,-8.90643017578125,-4.419847328244275,-0.2900763358778626,-3.1908396946564888
5258326175284,0.327900833,3,-0.21308394775390624,-0.5339069702148437,-8.972270721435546,-4.442748091603053,-0.2748091603053435,-3.145038167938931
5258346148513,0.347874062,3,-0.21428104858398436,-0.5614402893066406,-8.91840118408203,-4.442748091603053,-0.2748091603053435,-3.1374045801526718
5258366148148,0.367873697,3,-0.18435352783203124,-0.5829881042480468,-8.978256225585938,-4.442748091603053,-0.2595419847328244,-3.1526717557251906
5258386173252,0.387898801,3,-0.16639701538085935,-0.565031591796875,-8.98304462890625,-4.419847328244275,-0.2900763358778626,-3.16793893129771
5258406135284,0.407860833,3,-0.17357962036132812,-0.5386953735351562,-8.989030133056641,-4.374045801526718,-0.29770992366412213,-3.16793893129771
5258426148669,0.427874218,3,-0.239420166015625,-0.4704606262207031,-8.949525805664061,-4.427480916030534,-0.33587786259541985,-3.1374045801526718
5258446163044,0.447888593,3,-0.2214636535644531,-0.5291185668945312,-8.935160595703124,-4.458015267175573,-0.33587786259541985,-3.1068702290076335
5258466196065,0.467921614,3,-0.20709844360351562,-0.5602431884765625,-8.94473740234375,-4.488549618320611,-0.31297709923664124,-3.122137404580153
5258486145492,0.487871041,3,-0.15562310791015624,-0.5327098693847656,-8.90044467163086,-4.465648854961832,-0.366412213740458,-3.183206106870229
5258506170909,0.507896458,3,-0.15682020874023436,-0.5422866760253906,-8.948328704833983,-4.412213740458015,-0.29770992366412213,-3.1374045801526718
5258526154659,0.527880208,3,-0.20829554443359374,-0.5722141967773438,-9.024943157958983,-4.412213740458015,-0.21374045801526717,-3.1068702290076335
5258546171377,0.547896926,3,-0.19033903198242186,-0.55545478515625,-8.948328704833983,-4.3816793893129775,-0.2748091603053435,-3.1374045801526718
5258566176846,0.567902395,3,-0.19632453613281248,-0.5267243652343749,-8.941146099853515,-4.412213740458015,-0.3435114503816794,-3.2061068702290076
5258586139034,0.587864583,3,-0.18315642700195311,-0.5303156677246094,-8.961496813964843,-4.450381679389313,-0.26717557251908397,-3.1068702290076335
5258606136169,0.607861718,3,-0.19871873779296872,-0.5997475158691405,-8.902838873291016,-4.427480916030534,-0.33587786259541985,-3.1374045801526718
5258626161221,0.62788677,3,-0.19393033447265623,-0.5183446594238281,-8.942343200683593,-4.442748091603053,-0.24427480916030533,-3.183206106870229
5258646132315,0.647857864,3,-0.19153613281249998,-0.5626373901367188,-8.904035974121093,-4.404580152671755,-0.31297709923664124,-3.1297709923664123
5258666150179,0.667875728,3,-0.19153613281249998,-0.5279214660644531,-8.907627276611327,-4.396946564885496,-0.3053435114503817,-3.122137404580153
5258686168252,0.687893801,3,-0.16041151123046873,-0.5566518859863281,-8.985438830566405,-4.374045801526718,-0.2900763358778626,-3.1603053435114505
5258706212940,0.707938489,3,-0.21188684692382811,-0.5207388610839844,-8.966285217285156,-4.351145038167939,-0.35877862595419846,-3.114503816793893
5258726156742,0.727882291,3,-0.2501940734863281,-0.55545478515625,-8.961496813964843,-4.396946564885496,-0.25190839694656486,-3.122137404580153
5258746116429,0.747841978,3,-0.17836802368164062,-0.5195417602539062,-8.91840118408203,-4.419847328244275,-0.26717557251908397,-3.2061068702290076
5258766133773,0.767859322,3,-0.23343466186523437,-0.5339069702148437,-8.94473740234375,-4.396946564885496,-0.2900763358778626,-3.1297709923664123
5258786173461,0.78789901,3,-0.2166752502441406,-0.5063736511230469,-8.978256225585938,-4.435114503816794,-0.35877862595419846,-3.114503816793893
5258806136898,0.807862447,3,-0.17118541870117188,-0.5482721801757812,-8.921992486572265,-4.4961832061068705,-0.2900763358778626,-3.16793893129771
5258826183721,0.82790927,3,-0.20470424194335937,-0.5039794494628906,-8.948328704833983,-4.427480916030534,-0.2824427480916031,-3.145038167938931
5258846132471,0.84785802,3,-0.25737667846679685,-0.5494692810058593,-8.96987651977539,-4.435114503816794,-0.2748091603053435,-3.1297709923664123
5258866175284,0.867900833,3,-0.1388636962890625,-0.5279214660644531,-8.838195428466797,-4.458015267175573,-0.2824427480916031,-3.1068702290076335
5258886164815,0.887890364,3,-0.2166752502441406,-0.5446808776855468,-8.911218579101561,-4.435114503816794,-0.32061068702290074,-3.1603053435114505
5258906138200,0.907863749,3,-0.201112939453125,-0.5363011718749999,-8.954314208984375,-4.427480916030534,-0.2900763358778626,-3.1526717557251906
5258926167992,0.927893541,3,-0.21906945190429686,-0.5530605834960938,-8.947131604003905,-4.435114503816794,-0.2824427480916031,-3.145038167938931
5258946137523,0.947863072,3,-0.22505495605468748,-0.55545478515625,-8.949525805664061,-4.419847328244275,-0.2748091603053435,-3.145038167938931
5258966141638,0.967867187,3,-0.17238251953125,-0.5698199951171875,-8.947131604003905,-4.473282442748092,-0.24427480916030533,-3.0916030534351147
5258986136690,0.987862239,3,-0.17597382202148437,-0.5722141967773438,-8.939948999023438,-4.442748091603053,-0.31297709923664124,-3.1603053435114505
5259006132263,1.007857812,3,-0.16759411621093748,-0.5734112976074218,-8.93755479736328,-4.3893129770992365,-0.3053435114503817,-3.145038167938931
5259026178148,1.027903697,3,-0.18315642700195311,-0.5566518859863281,-8.967482318115234,-4.3816793893129775,-0.2748091603053435,-3.1526717557251906
5259046179658,1.047905207,3,-0.19512743530273435,-0.5015852478027344,-8.986635931396483,-4.412213740458015,-0.29770992366412213,-3.145038167938931
5259066168200,1.067893749,3,-0.18555062866210936,-0.47644613037109373,-8.877699755859375,-4.450381679389313,-0.3282442748091603,-3.122137404580153
5259086207523,1.087933072,3,-0.20350714111328125,-0.5386953735351562,-8.927977990722656,-4.450381679389313,-0.29770992366412213,-3.114503816793893
5259106192367,1.107917916,3,-0.16280571289062498,-0.5698199951171875,-8.97705912475586,-4.396946564885496,-0.2748091603053435,-3.145038167938931
5259126178617,1.127904166,3,-0.14963760375976562,-0.5698199951171875,-8.954314208984375,-4.419847328244275,-0.26717557251908397,-3.183206106870229
5259146166221,1.14789177,3,-0.20949264526367187,-0.5590460876464843,-8.97705912475586,-4.412213740458015,-0.2748091603053435,-3.1297709923664123
5259166194658,1.167920207,3,-0.20949264526367187,-0.565031591796875,-8.955511309814453,-4.3893129770992365,-0.2595419847328244,-3.1068702290076335
5259186170492,1.187896041,3,-0.22864625854492185,-0.565031591796875,-8.997409838867187,-4.412213740458015,-0.2748091603053435,-3.145038167938931
5259206174867,1.207900416,3,-0.2059013427734375,-0.51714755859375,-8.914809881591797,-4.396946564885496,-0.33587786259541985,-3.1297709923664123
5259226197627,1.227923176,3,-0.18555062866210936,-0.5315127685546874,-8.936357696533202,-4.458015267175573,-0.3053435114503817,-3.1755725190839694
5259246216013,1.247941562,3,-0.18315642700195311,-0.5446808776855468,-8.979453326416015,-4.3893129770992365,-0.29770992366412213,-3.122137404580153
5259266186638,1.267912187,3,-0.1975216369628906,-0.5219359619140624,-8.889670764160156,-4.458015267175573,-0.31297709923664124,-3.16793893129771
5259286184919,1.287910468,3,-0.2346317626953125,-0.5243301635742187,-9.036914166259765,-4.427480916030534,-0.3053435114503817,-3.099236641221374
5259306304242,1.308029791,3,-0.24181436767578124,-0.5458779785156249,-8.984241729736327,-4.3816793893129775,-0.33587786259541985,-3.099236641221374
5259326156429,1.327881978,3,-0.17956512451171874,-0.5207388610839844,-8.973467822265624,-4.358778625954199,-0.3053435114503817,-3.114503816793893
5259346211377,1.347936926,3,-0.19393033447265623,-0.5386953735351562,-8.989030133056641,-4.488549618320611,-0.29770992366412213,-3.16793893129771
5259366184658,1.367910207,3,-0.17238251953125,-0.5422866760253906,-8.997409838867187,-4.33587786259542,-0.29770992366412213,-3.1068702290076335
5259386183773,1.387909322,3,-0.15562310791015624,-0.5578489868164063,-9.011775048828124,-4.374045801526718,-0.29770992366412213,-3.16793893129771
5259406193252,1.407918801,3,-0.18435352783203124,-0.5482721801757812,-8.989030133056641,-4.3893129770992365,-0.29770992366412213,-3.183206106870229
5259426174502,1.427900051,3,-0.2214636535644531,-0.5434837768554687,-8.984241729736327,-4.442748091603053,-0.2900763358778626,-3.1526717557251906
5259446175023,1.447900572,3,-0.1867477294921875,-0.5458779785156249,-8.980650427246093,-4.404580152671755,-0.33587786259541985,-3.1603053435114505
5259466188096,1.467913645,3,-0.17357962036132812,-0.5446808776855468,-8.926780889892578,-4.419847328244275,-0.3282442748091603,-3.2061068702290076
5259486118669,1.487844218,3,-0.21308394775390624,-0.565031591796875,-8.984241729736327,-4.419847328244275,-0.2366412213740458,-3.16793893129771
5259506256012,1.507981561,3,-0.20709844360351562,-0.5291185668945312,-8.912415679931641,-4.412213740458015,-0.29770992366412213,-3.114503816793893
5259526507106,1.528232655,3,-0.20470424194335937,-0.5279214660644531,-8.883685260009765,-4.374045801526718,-0.2824427480916031,-3.114503816793893
5259546221377,1.547946926,3,-0.2454056701660156,-0.5746083984375,-8.98304462890625,-4.419847328244275,-0.26717557251908397,-3.1297709923664123
5259566182575,1.567908124,3,-0.22026655273437498,-0.5303156677246094,-8.911218579101561,-4.427480916030534,-0.29770992366412213,-3.145038167938931
5259586182731,1.58790828,3,-0.16280571289062498,-0.5147533569335937,-9.030928662109375,-4.450381679389313,-0.32061068702290074,-3.198473282442748
5259606172158,1.607897707,3,-0.1640028137207031,-0.5398924743652344,-8.955511309814453,-4.442748091603053,-0.2824427480916031,-3.145038167938931
5259626143096,1.627868645,3,-0.20709844360351562,-0.5590460876464843,-8.96269391479492,-4.374045801526718,-0.3282442748091603,-3.198473282442748
5259646188617,1.647914166,3,-0.20829554443359374,-0.5638344909667968,-8.942343200683593,-4.419847328244275,-0.3053435114503817,-3.122137404580153
5259666126950,1.667852499,3,-0.19393033447265623,-0.5219359619140624,-8.959102612304687,-4.458015267175573,-0.29770992366412213,-3.213740458015267
5259686173200,1.687898749,3,-0.22385785522460935,-0.5506663818359374,-9.003395343017578,-4.442748091603053,-0.2366412213740458,-3.145038167938931
5259706166429,1.707891978,3,-0.19033903198242186,-0.5446808776855468,-8.908824377441405,-4.480916030534351,-0.3053435114503817,-3.145038167938931
5259726165127,1.727890676,3,-0.17956512451171874,-0.5590460876464843,-8.84777223510742,-4.435114503816794,-0.2900763358778626,-3.0916030534351147
5259746148356,1.747873905,3,-0.17836802368164062,-0.5853823059082031,-9.014169250488282,-4.427480916030534,-0.26717557251908397,-3.1068702290076335
5259766187835,1.767913384,3,-0.2059013427734375,-0.5255272644042969,-8.971073620605468,-4.374045801526718,-0.37404580152671757,-3.1374045801526718
5259786126950,1.787852499,3,-0.22385785522460935,-0.5291185668945312,-8.947131604003905,-4.3816793893129775,-0.29770992366412213,-3.16793893129771
5259806138356,1.807863905,3,-0.20829554443359374,-0.5829881042480468,-8.935160595703124,-4.351145038167939,-0.2748091603053435,-3.1755725190839694
5259826156064,1.827881613,3,-0.1927332336425781,-0.5315127685546874,-8.949525805664061,-4.450381679389313,-0.2824427480916031,-3.183206106870229
5259846169137,1.847894686,3,-0.21308394775390624,-0.5422866760253906,-8.966285217285156,-4.442748091603053,-0.32061068702290074,-3.145038167938931
5259866177158,1.867902707,3,-0.17357962036132812,-0.584185205078125,-8.896853369140624,-4.3893129770992365,-0.2824427480916031,-3.145038167938931
5259886189919,1.887915468,3,-0.20709844360351562,-0.5327098693847656,-8.961496813964843,-4.458015267175573,-0.3282442748091603,-3.1374045801526718
5259906162991,1.90788854,3,-0.1927332336425781,-0.49320554199218747,-8.948328704833983,-4.3893129770992365,-0.366412213740458,-3.16793893129771
5259926174554,1.927900103,3,-0.17477672119140625,-0.5686228942871093,-8.890867864990234,-4.404580152671755,-0.3053435114503817,-3.0610687022900764
5259946180075,1.947905624,3,-0.17238251953125,-0.5578489868164063,-8.965088116455078,-4.427480916030534,-0.3435114503816794,-3.145038167938931
5259966166012,1.967891561,3,-0.24061726684570311,-0.5614402893066406,-8.943540301513671,-4.396946564885496,-0.26717557251908397,-3.1526717557251906
5259986282418,1.988007967,3,-0.21787235107421873,-0.5434837768554687,-8.883685260009765,-4.465648854961832,-0.33587786259541985,-3.145038167938931
5260006449241,2.00817479,3,-0.21188684692382811,-0.5590460876464843,-8.954314208984375,-4.435114503816794,-0.3435114503816794,-3.1068702290076335
5260026259866,2.027985415,3,-0.21308394775390624,-0.55545478515625,-9.028534460449219,-4.419847328244275,-0.24427480916030533,-3.145038167938931
5260046193721,2.04791927,3,-0.2166752502441406,-0.5925649108886718,-8.973467822265624,-4.442748091603053,-0.2824427480916031,-3.1526717557251906
5260066236377,2.067961926,3,-0.15682020874023436,-0.59376201171875,-8.888473663330078,-4.435114503816794,-0.2824427480916031,-3.1603053435114505
5260086178981,2.08790453,3,-0.2262520568847656,-0.5015852478027344,-8.947131604003905,-4.374045801526718,-0.32061068702290074,-3.122137404580153
5260106182210,2.107907759,3,-0.20231004028320312,-0.5494692810058593,-8.896853369140624,-4.404580152671755,-0.32061068702290074,-3.122137404580153
5260126134293,2.127859842,3,-0.2214636535644531,-0.5291185668945312,-8.932766394042968,-4.3816793893129775,-0.3282442748091603,-3.1755725190839694
5260146166689,2.147892238,3,-0.20949264526367187,-0.507570751953125,-8.912415679931641,-4.404580152671755,-0.3053435114503817,-3.1755725190839694
5260166148877,2.167874426,3,-0.16519991455078123,-0.5243301635742187,-8.939948999023438,-4.450381679389313,-0.3435114503816794,-3.145038167938931
5260186199918,2.187925467,3,-0.21068974609375,-0.5482721801757812,-8.971073620605468,-4.419847328244275,-0.2748091603053435,-3.1755725190839694
5260206169970,2.207895519,3,-0.21068974609375,-0.5638344909667968,-9.0021982421875,-4.419847328244275,-0.32061068702290074,-3.1603053435114505
5260226175700,2.227901249,3,-0.20709844360351562,-0.5770026000976562,-8.920795385742187,-4.396946564885496,-0.3053435114503817,-3.198473282442748
5260246170387,2.247895936,3,-0.1771709228515625,-0.565031591796875,-8.889670764160156,-4.412213740458015,-0.33587786259541985,-3.1297709923664123
5260266194814,2.267920363,3,-0.20949264526367187,-0.5530605834960938,-9.0021982421875,-4.435114503816794,-0.2824427480916031,-3.1755725190839694
5260286147210,2.287872759,3,-0.1975216369628906,-0.5279214660644531,-8.948328704833983,-4.435114503816794,-0.2824427480916031,-3.1374045801526718
5260306160804,2.307886353,3,-0.23223756103515625,-0.565031591796875,-8.930372192382812,-4.458015267175573,-0.2824427480916031,-3.1908396946564888
5260326113825,2.327839374,3,-0.17357962036132812,-0.5877765075683593,-8.949525805664061,-4.427480916030534,-0.3053435114503817,-3.1374045801526718
5260346103929,2.347829478,3,-0.18315642700195311,-0.6141127258300781,-8.984241729736327,-4.450381679389313,-0.29770992366412213,-3.1374045801526718
5260366192575,2.367918124,3,-0.19033903198242186,-0.5781997009277343,-8.943540301513671,-4.396946564885496,-0.2824427480916031,-3.16793893129771
5260386161689,2.387887238,3,-0.18315642700195311,-0.5339069702148437,-8.92438668823242,-4.442748091603053,-0.32061068702290074,-3.1526717557251906
5260406148512,2.407874061,3,-0.16998831787109375,-0.5482721801757812,-8.892064965820312,-4.419847328244275,-0.2824427480916031,-3.183206106870229
5260426156845,2.427882394,3,-0.229843359375,-0.49679684448242184,-8.993818536376953,-4.427480916030534,-0.31297709923664124,-3.183206106870229
5260446173460,2.447899009,3,-0.21068974609375,-0.5662286926269531,-8.93156929321289,-4.419847328244275,-0.32061068702290074,-3.145038167938931
5260466185543,2.467911092,3,-0.2346317626953125,-0.5267243652343749,-8.951920007324219,-4.412213740458015,-0.29770992366412213,-3.1526717557251906
5260486181220,2.487906769,3,-0.2214636535644531,-0.5506663818359374,-9.011775048828124,-4.366412213740458,-0.2824427480916031,-3.1374045801526718
5260506135595,2.507861144,3,-0.19632453613281248,-0.5183446594238281,-9.035717065429687,-4.374045801526718,-0.29770992366412213,-3.145038167938931
5260526147418,2.527872967,3,-0.20470424194335937,-0.565031591796875,-8.955511309814453,-4.427480916030534,-0.29770992366412213,-3.1526717557251906
5260546157054,2.547882603,3,-0.19512743530273435,-0.5207388610839844,-8.992621435546875,-4.442748091603053,-0.32061068702290074,-3.1755725190839694
5260566166585,2.567892134,3,-0.20350714111328125,-0.5231330627441406,-8.890867864990234,-4.450381679389313,-0.33587786259541985,-3.1526717557251906
5260586129502,2.587855051,3,-0.19512743530273435,-0.5446808776855468,-9.029731561279297,-4.442748091603053,-0.29770992366412213,-3.1374045801526718
5260606117262,2.607842811,3,-0.2166752502441406,-0.55545478515625,-8.921992486572265,-4.3816793893129775,-0.32061068702290074,-3.1908396946564888
5260626152210,2.627877759,3,-0.20949264526367187,-0.5758054992675781,-8.852560638427734,-4.458015267175573,-0.2900763358778626,-3.1374045801526718
5260646180022,2.647905571,3,-0.16759411621093748,-0.5458779785156249,-8.936357696533202,-4.412213740458015,-0.2900763358778626,-3.1297709923664123
5260666161220,2.667886769,3,-0.18555062866210936,-0.5614402893066406,-8.961496813964843,-4.473282442748092,-0.2900763358778626,-3.145038167938931
5260686171429,2.687896978,3,-0.23223756103515625,-0.5147533569335937,-8.93755479736328,-4.473282442748092,-0.3282442748091603,-3.1603053435114505
5260706177106,2.707902655,3,-0.20470424194335937,-0.5470750793457031,-8.888473663330078,-4.435114503816794,-0.21374045801526717,-3.1526717557251906
5260726174137,2.727899686,3,-0.15562310791015624,-0.5470750793457031,-8.908824377441405,-4.427480916030534,-0.29770992366412213,-3.145038167938931
5260746170387,2.747895936,3,-0.23104046020507812,-0.5219359619140624,-8.942343200683593,-4.404580152671755,-0.2900763358778626,-3.1374045801526718
5260766177731,2.76790328,3,-0.20350714111328125,-0.5530605834960938,-8.929175091552734,-4.412213740458015,-0.3282442748091603,-3.1297709923664123
5260786162366,2.787887915,3,-0.19632453613281248,-0.5195417602539062,-8.90643017578125,-4.442748091603053,-0.29770992366412213,-3.1755725190839694
5260806138616,2.807864165,3,-0.20949264526367187,-0.5027823486328125,-8.93875189819336,-4.419847328244275,-0.32061068702290074,-3.1526717557251906
5260826105804,2.827831353,3,-0.14245499877929688,-0.5686228942871093,-8.919598284912109,-4.450381679389313,-0.33587786259541985,-3.183206106870229
5260846204345,2.847929894,3,-0.16160861206054686,-0.5793968017578125,-8.959102612304687,-4.366412213740458,-0.2900763358778626,-3.1908396946564888
5260866165804,2.867891353,3,-0.19393033447265623,-0.5111620544433594,-8.998606939697265,-4.374045801526718,-0.3053435114503817,-3.122137404580153
5260886180699,2.887906248,3,-0.2454056701660156,-0.5602431884765625,-8.921992486572265,-4.435114503816794,-0.2824427480916031,-3.145038167938931
5260906134397,2.907859946,3,-0.16519991455078123,-0.5099649536132812,-9.026140258789061,-4.3893129770992365,-0.2900763358778626,-3.183206106870229
5260926159866,2.927885415,3,-0.1879448303222656,-0.5279214660644531,-8.965088116455078,-4.435114503816794,-0.3053435114503817,-3.122137404580153
5260946146481,2.94787203,3,-0.2346317626953125,-0.5327098693847656,-8.97705912475586,-4.473282442748092,-0.32061068702290074,-3.1908396946564888
5260966171168,2.967896717,3,-0.1927332336425781,-0.5746083984375,-8.920795385742187,-4.465648854961832,-0.3053435114503817,-3.1374045801526718
5260986171012,2.987896561,3,-0.15442600708007811,-0.5710170959472656,-8.953117108154297,-4.427480916030534,-0.3053435114503817,-3.1297709923664123
5261006173304,3.007898853,3,-0.1927332336425781,-0.5099649536132812,-8.901641772460938,-4.3893129770992365,-0.2900763358778626,-3.1374045801526718
5261026191168,3.027916717,3,-0.1879448303222656,-0.5698199951171875,-8.966285217285156,-4.3816793893129775,-0.3053435114503817,-3.1755725190839694
5261046181376,3.047906925,3,-0.16879121704101563,-0.5339069702148437,-8.923189587402343,-4.442748091603053,-0.2900763358778626,-3.1374045801526718
5261066191845,3.067917394,3,-0.20829554443359374,-0.5243301635742187,-8.881291058349609,-4.473282442748092,-0.3053435114503817,-3.16793893129771
5261086169345,3.087894894,3,-0.1580173095703125,-0.5398924743652344,-8.912415679931641,-4.435114503816794,-0.25190839694656486,-3.145038167938931
5261106175647,3.107901196,3,-0.201112939453125,-0.5458779785156249,-8.941146099853515,-4.404580152671755,-0.3435114503816794,-3.1755725190839694
5261126196845,3.127922394,3,-0.17477672119140625,-0.5781997009277343,-8.90643017578125,-4.419847328244275,-0.2748091603053435,-3.099236641221374
5261146140387,3.147865936,3,-0.1292868896484375,-0.5458779785156249,-8.926780889892578,-4.396946564885496,-0.3435114503816794,-3.183206106870229
5261166188564,3.167914113,3,-0.16879121704101563,-0.5566518859863281,-8.92438668823242,-4.412213740458015,-0.25190839694656486,-3.1755725190839694
5261186184449,3.187909998,3,-0.229843359375,-0.55545478515625,-8.945934503173827,-4.480916030534351,-0.32061068702290074,-3.1526717557251906
5261206241585,3.207967134,3,-0.20829554443359374,-0.5279214660644531,-8.882488159179687,-4.419847328244275,-0.2900763358778626,-3.1755725190839694
5261226137001,3.22786255,3,-0.14963760375976562,-0.565031591796875,-9.032125762939453,-4.427480916030534,-0.32061068702290074,-3.1374045801526718
5261246196481,3.24792203,3,-0.1927332336425781,-0.5518634826660156,-8.961496813964843,-4.427480916030534,-0.29770992366412213,-3.1603053435114505
5261266191897,3.267917446,3,-0.16879121704101563,-0.5051765502929687,-8.98304462890625,-4.358778625954199,-0.24427480916030533,-3.099236641221374
5261286201533,3.287927082,3,-0.22385785522460935,-0.5315127685546874,-8.998606939697265,-4.458015267175573,-0.29770992366412213,-3.1374045801526718
5261306214710,3.307940259,3,-0.17477672119140625,-0.4836287353515625,-8.957905511474609,-4.3816793893129775,-0.31297709923664124,-3.145038167938931
5261326190960,3.327916509,3,-0.201112939453125,-0.49200844116210934,-8.973467822265624,-4.358778625954199,-0.2366412213740458,-3.1526717557251906
5261346128095,3.347853644,3,-0.1927332336425781,-0.55545478515625,-8.959102612304687,-4.442748091603053,-0.29770992366412213,-3.114503816793893
5261366192366,3.367917915,3,-0.20231004028320312,-0.5003881469726562,-8.945934503173827,-4.435114503816794,-0.3282442748091603,-3.16793893129771
5261386198564,3.387924113,3,-0.20829554443359374,-0.55545478515625,-8.985438830566405,-4.427480916030534,-0.3053435114503817,-3.1374045801526718
5261406171585,3.407897134,3,-0.19512743530273435,-0.5267243652343749,-8.908824377441405,-4.419847328244275,-0.32061068702290074,-3.16793893129771
5261426188876,3.427914425,3,-0.19033903198242186,-0.5303156677246094,-8.992621435546875,-4.374045801526718,-0.32061068702290074,-3.1755725190839694
5261446190803,3.447916352,3,-0.229843359375,-0.5422866760253906,-8.93875189819336,-4.419847328244275,-0.3282442748091603,-3.114503816793893
5261466182262,3.467907811,3,-0.23702596435546874,-0.5183446594238281,-8.990227233886719,-4.396946564885496,-0.3053435114503817,-3.145038167938931
5261486196116,3.487921665,3,-0.19871873779296872,-0.55545478515625,-8.980650427246093,-4.351145038167939,-0.3053435114503817,-3.1297709923664123
5261506190387,3.507915936,3,-0.20350714111328125,-0.5446808776855468,-8.972270721435546,-4.358778625954199,-0.31297709923664124,-3.1526717557251906
5261526181324,3.527906873,3,-0.22385785522460935,-0.5255272644042969,-8.90044467163086,-4.427480916030534,-0.3053435114503817,-3.1526717557251906
5261546190647,3.547916196,3,-0.21068974609375,-0.5614402893066406,-8.984241729736327,-4.3893129770992365,-0.2900763358778626,-3.1603053435114505
5261566191949,3.567917498,3,-0.20470424194335937,-0.5339069702148437,-9.00818374633789,-4.435114503816794,-0.26717557251908397,-3.145038167938931
5261587622991,3.58934854,3,-0.17118541870117188,-0.5746083984375,-9.009380847167968,-4.412213740458015,-0.33587786259541985,-3.1526717557251906
5261607743668,3.609469217,3,-0.17477672119140625,-0.5482721801757812,-8.923189587402343,-4.427480916030534,-0.3053435114503817,-3.145038167938931
5261627682366,3.629407915,3,-0.2154781494140625,-0.5279214660644531,-8.984241729736327,-4.3816793893129775,-0.25190839694656486,-3.1755725190839694
5261647752678,3.649478227,3,-0.22026655273437498,-0.5410895751953124,-9.006986645507812,-4.404580152671755,-0.29770992366412213,-3.1603053435114505
5261667736845,3.669462394,3,-0.18555062866210936,-0.5279214660644531,-8.875305554199219,-4.442748091603053,-0.3282442748091603,-3.1526717557251906
5261687802730,3.689528279,3,-0.229843359375,-0.5662286926269531,-8.948328704833983,-4.366412213740458,-0.3053435114503817,-3.122137404580153
5261707755647,3.709481196,3,-0.21428104858398436,-0.5590460876464843,-8.991424334716797,-4.412213740458015,-0.26717557251908397,-3.183206106870229
5261727758147,3.729483696,3,-0.20470424194335937,-0.5506663818359374,-8.943540301513671,-4.412213740458015,-0.3053435114503817,-3.183206106870229
5261747742522,3.749468071,3,-0.1867477294921875,-0.5542576843261718,-8.914809881591797,-4.427480916030534,-0.31297709923664124,-3.1297709923664123
5261767742939,3.769468488,3,-0.24660277099609373,-0.5518634826660156,-8.910021478271483,-4.450381679389313,-0.33587786259541985,-3.1603053435114505
5261787725595,3.789451144,3,-0.22864625854492185,-0.5482721801757812,-8.966285217285156,-4.427480916030534,-0.2824427480916031,-3.1908396946564888
5261807783251,3.8095088,3,-0.20829554443359374,-0.5159504577636719,-8.919598284912109,-4.450381679389313,-0.3053435114503817,-3.1603053435114505
5261827743251,3.8294688,3,-0.19991583862304688,-0.5422866760253906,-8.908824377441405,-4.3816793893129775,-0.3053435114503817,-3.145038167938931
5261847759032,3.849484581,3,-0.201112939453125,-0.51714755859375,-8.986635931396483,-4.427480916030534,-0.2900763358778626,-3.1603053435114505
5261867785282,3.869510831,3,-0.2262520568847656,-0.5518634826660156,-8.9255837890625,-4.5038167938931295,-0.26717557251908397,-3.1526717557251906
5261887761012,3.889486561,3,-0.16879121704101563,-0.565031591796875,-8.95670841064453,-4.419847328244275,-0.2824427480916031,-3.145038167938931
5261907748355,3.909473904,3,-0.20829554443359374,-0.5506663818359374,-8.858546142578124,-4.396946564885496,-0.3282442748091603,-3.16793893129771
5261927744501,3.92947005,3,-0.17357962036132812,-0.5386953735351562,-8.923189587402343,-4.442748091603053,-0.25190839694656486,-3.1526717557251906
5261947756428,3.949481977,3,-0.23104046020507812,-0.5494692810058593,-8.955511309814453,-4.3893129770992365,-0.25190839694656486,-3.1908396946564888
5261967730230,3.969455779,3,-0.21787235107421873,-0.5374982727050781,-9.012972149658202,-4.396946564885496,-0.33587786259541985,-3.16793893129771
5261987811584,3.989537133,3,-0.15083470458984374,-0.5159504577636719,-8.967482318115234,-4.419847328244275,-0.2748091603053435,-3.1526717557251906
5262007784189,4.009509738,3,-0.20709844360351562,-0.5386953735351562,-8.905233074951171,-4.404580152671755,-0.26717557251908397,-3.1755725190839694
5262027783199,4.029508748,3,-0.19632453613281248,-0.5255272644042969,-8.999804040527343,-4.412213740458015,-0.32061068702290074,-3.1755725190839694
5262047756116,4.049481665,3,-0.22385785522460935,-0.5267243652343749,-8.920795385742187,-4.366412213740458,-0.3511450381679389,-3.1374045801526718
5262067803147,4.069528696,3,-0.16998831787109375,-0.5482721801757812,-8.92438668823242,-4.396946564885496,-0.3435114503816794,-3.1374045801526718
5262087820491,4.08954604,3,-0.201112939453125,-0.5386953735351562,-8.97705912475586,-4.374045801526718,-0.35877862595419846,-3.145038167938931
5262107769918,4.109495467,3,-0.21188684692382811,-0.5195417602539062,-9.029731561279297,-4.3893129770992365,-0.3282442748091603,-3.1374045801526718
5262127769397,4.129494946,3,-0.22505495605468748,-0.5351040710449219,-9.009380847167968,-4.419847328244275,-0.29770992366412213,-3.1526717557251906
5262147741741,4.14946729,3,-0.22744915771484372,-0.55545478515625,-8.91840118408203,-4.435114503816794,-0.3511450381679389,-3.183206106870229
5262167749605,4.169475154,3,-0.18315642700195311,-0.5817910034179687,-8.972270721435546,-4.419847328244275,-0.3511450381679389,-3.16793893129771
5262187892001,4.18961755,3,-0.18315642700195311,-0.507570751953125,-8.92438668823242,-4.3816793893129775,-0.3053435114503817,-3.145038167938931
5262207749188,4.209474737,3,-0.16519991455078123,-0.5638344909667968,-9.006986645507812,-4.419847328244275,-0.2824427480916031,-3.16793893129771
5262227746428,4.229471977,3,-0.19632453613281248,-0.5374982727050781,-8.853757739257812,-4.419847328244275,-0.33587786259541985,-3.145038167938931
5262247748511,4.24947406,3,-0.19153613281249998,-0.55545478515625,-8.917204083251953,-4.435114503816794,-0.19083969465648856,-3.1755725190839694
5262267773251,4.2694988,3,-0.19033903198242186,-0.5578489868164063,-9.048885174560546,-4.404580152671755,-0.35877862595419846,-3.2061068702290076
5262287804397,4.289529946,3,-0.19871873779296872,-0.5542576843261718,-8.926780889892578,-4.412213740458015,-0.2748091603053435,-3.1755725190839694
5262307739084,4.309464633,3,-0.1879448303222656,-0.5279214660644531,-8.96987651977539,-4.396946564885496,-0.3435114503816794,-3.1526717557251906
5262327745438,4.329470987,3,-0.23104046020507812,-0.5291185668945312,-9.030928662109375,-4.419847328244275,-0.2366412213740458,-3.122137404580153
5262347776063,4.349501612,3,-0.1927332336425781,-0.5590460876464843,-8.907627276611327,-4.419847328244275,-0.32061068702290074,-3.145038167938931
5262367746428,4.369471977,3,-0.20231004028320312,-0.51714755859375,-8.914809881591797,-4.412213740458015,-0.29770992366412213,-3.1908396946564888
5262387743772,4.389469321,3,-0.17956512451171874,-0.5518634826660156,-8.93156929321289,-4.404580152671755,-0.32061068702290074,-3.099236641221374
5262407754240,4.409479789,3,-0.22385785522460935,-0.5446808776855468,-8.92438668823242,-4.450381679389313,-0.33587786259541985,-3.183206106870229
5262427769293,4.429494842,3,-0.23104046020507812,-0.5770026000976562,-8.968679418945312,-4.458015267175573,-0.31297709923664124,-3.1526717557251906
5262447737001,4.44946255,3,-0.17357962036132812,-0.5386953735351562,-8.916006982421875,-4.419847328244275,-0.26717557251908397,-3.16793893129771
5262467747001,4.46947255,3,-0.2214636535644531,-0.5686228942871093,-8.92438668823242,-4.3893129770992365,-0.2900763358778626,-3.1068702290076335
5262487737261,4.48946281,3,-0.16759411621093748,-0.5434837768554687,-8.98304462890625,-4.427480916030534,-0.3435114503816794,-3.1603053435114505
5262507776845,4.509502394,3,-0.1927332336425781,-0.5422866760253906,-8.96269391479492,-4.366412213740458,-0.33587786259541985,-3.16793893129771
5262527736845,4.529462394,3,-0.23822306518554687,-0.5566518859863281,-8.954314208984375,-4.412213740458015,-0.3053435114503817,-3.1297709923664123
5262547757105,4.549482654,3,-0.19632453613281248,-0.5638344909667968,-8.912415679931641,-4.450381679389313,-0.3282442748091603,-3.122137404580153
5262567738876,4.569464425,3,-0.1771709228515625,-0.5482721801757812,-9.005789544677734,-4.412213740458015,-0.2748091603053435,-3.1374045801526718
5262587772313,4.589497862,3,-0.24660277099609373,-0.5410895751953124,-8.910021478271483,-4.458015267175573,-0.33587786259541985,-3.145038167938931
5262607739449,4.609464998,3,-0.19871873779296872,-0.5398924743652344,-8.998606939697265,-4.465648854961832,-0.32061068702290074,-3.16793893129771
5262627742261,4.62946781,3,-0.21188684692382811,-0.5422866760253906,-8.951920007324219,-4.427480916030534,-0.33587786259541985,-3.099236641221374
5262647735907,4.649461456,3,-0.21428104858398436,-0.5374982727050781,-8.932766394042968,-4.3893129770992365,-0.25190839694656486,-3.122137404580153
5262667781688,4.669507237,3,-0.17836802368164062,-0.5710170959472656,-8.957905511474609,-4.435114503816794,-0.2748091603053435,-3.114503816793893
5262687744449,4.689469998,3,-0.239420166015625,-0.5327098693847656,-9.029731561279297,-4.427480916030534,-0.29770992366412213,-3.1297709923664123
5262707747938,4.709473487,3,-0.1975216369628906,-0.5710170959472656,-8.957905511474609,-4.435114503816794,-0.2900763358778626,-3.1297709923664123
5262727753095,4.729478644,3,-0.13407529296874998,-0.5363011718749999,-8.965088116455078,-4.427480916030534,-0.29770992366412213,-3.1603053435114505
5262747777209,4.749502758,3,-0.1975216369628906,-0.5183446594238281,-8.914809881591797,-4.412213740458015,-0.25190839694656486,-3.1603053435114505
5262767724449,4.769449998,3,-0.1867477294921875,-0.5303156677246094,-8.898050469970702,-4.419847328244275,-0.2824427480916031,-3.1374045801526718
5262787780490,4.789506039,3,-0.21068974609375,-0.5374982727050781,-8.980650427246093,-4.396946564885496,-0.32061068702290074,-3.1603053435114505
5262807735022,4.809460571,3,-0.1879448303222656,-0.5542576843261718,-8.943540301513671,-4.435114503816794,-0.29770992366412213,-3.16793893129771
5262827771272,4.829496821,3,-0.19871873779296872,-0.4860229370117187,-8.984241729736327,-4.419847328244275,-0.2824427480916031,-3.1374045801526718
5262847740647,4.849466196,3,-0.229843359375,-0.5578489868164063,-8.997409838867187,-4.404580152671755,-0.29770992366412213,-3.1603053435114505
5262867739969,4.869465518,3,-0.2214636535644531,-0.5374982727050781,-8.94473740234375,-4.458015267175573,-0.2900763358778626,-3.1755725190839694
5262887768876,4.889494425,3,-0.20829554443359374,-0.6021417175292968,-9.0021982421875,-4.435114503816794,-0.29770992366412213,-3.114503816793893
5262907703928,4.909429477,3,-0.1975216369628906,-0.5614402893066406,-8.992621435546875,-4.450381679389313,-0.24427480916030533,-3.122137404580153
5262927753667,4.929479216,3,-0.229843359375,-0.5770026000976562,-8.971073620605468,-4.358778625954199,-0.33587786259541985,-3.2213740458015265
5262947742053,4.949467602,3,-0.1867477294921875,-0.5351040710449219,-8.93156929321289,-4.396946564885496,-0.2900763358778626,-3.145038167938931
5262967742834,4.969468383,3,-0.2154781494140625,-0.5363011718749999,-8.989030133056641,-4.404580152671755,-0.32061068702290074,-3.122137404580153
5262987770126,4.989495675,3,-0.277727392578125,-0.5147533569335937,-8.996212738037109,-4.358778625954199,-0.32061068702290074,-3.122137404580153
5263007752053,5.009477602,3,-0.19871873779296872,-0.5602431884765625,-8.942343200683593,-4.374045801526718,-0.3282442748091603,-3.1603053435114505
5263027744449,5.029469998,3,-0.23582886352539062,-0.5626373901367188,-8.974664923095702,-4.458015267175573,-0.31297709923664124,-3.1755725190839694
5263047739396,5.049464945,3,-0.19393033447265623,-0.5722141967773438,-8.916006982421875,-4.374045801526718,-0.3511450381679389,-3.1755725190839694
5263067759813,5.069485362,3,-0.20350714111328125,-0.5578489868164063,-8.999804040527343,-4.458015267175573,-0.32061068702290074,-3.16793893129771
5263087727209,5.089452758,3,-0.21308394775390624,-0.5231330627441406,-8.955511309814453,-4.427480916030534,-0.35877862595419846,-3.1603053435114505
5263107721376,5.109446925,3,-0.18076222534179687,-0.5674257934570313,-8.898050469970702,-4.419847328244275,-0.31297709923664124,-3.1755725190839694
5263127724969,5.129450518,3,-0.17357962036132812,-0.5279214660644531,-8.991424334716797,-4.374045801526718,-0.33587786259541985,-3.2061068702290076
5263147735803,5.149461352,3,-0.20350714111328125,-0.5422866760253906,-8.929175091552734,-4.465648854961832,-0.29770992366412213,-3.145038167938931
5263167729449,5.169454998,3,-0.19153613281249998,-0.5602431884765625,-8.89924757080078,-4.442748091603053,-0.3435114503816794,-3.145038167938931
5263187724709,5.189450258,3,-0.22026655273437498,-0.5339069702148437,-8.97705912475586,-4.427480916030534,-0.31297709923664124,-3.2061068702290076
5263207892730,5.209618279,3,-0.1867477294921875,-0.5722141967773438,-8.882488159179687,-4.465648854961832,-0.2824427480916031,-3.1526717557251906
5263227829292,5.229554841,3,-0.2154781494140625,-0.5099649536132812,-8.942343200683593,-4.465648854961832,-0.32061068702290074,-3.1374045801526718
5263247718094,5.249443643,3,-0.18914193115234373,-0.5758054992675781,-8.950722906494141,-4.374045801526718,-0.33587786259541985,-3.145038167938931
5263267733615,5.269459164,3,-0.18914193115234373,-0.4800374328613281,-8.91840118408203,-4.3893129770992365,-0.3282442748091603,-3.198473282442748
5263287733303,5.289458852,3,-0.17477672119140625,-0.5865794067382812,-8.966285217285156,-4.396946564885496,-0.29770992366412213,-3.122137404580153
5263307805698,5.309531247,3,-0.17836802368164062,-0.5901707092285156,-8.961496813964843,-4.465648854961832,-0.2824427480916031,-3.1908396946564888
5263327973251,5.3296988,3,-0.17477672119140625,-0.5626373901367188,-8.971073620605468,-4.396946564885496,-0.2748091603053435,-3.1908396946564888
5263347761532,5.349487081,3,-0.21308394775390624,-0.49320554199218747,-8.896853369140624,-4.442748091603053,-0.2748091603053435,-3.1297709923664123
5263367767209,5.369492758,3,-0.16879121704101563,-0.5446808776855468,-8.954314208984375,-4.419847328244275,-0.2900763358778626,-3.145038167938931
5263387779136,5.389504685,3,-0.19033903198242186,-0.5351040710449219,-8.96269391479492,-4.427480916030534,-0.31297709923664124,-3.1526717557251906
5263407746584,5.409472133,3,-0.22505495605468748,-0.5243301635742187,-9.083601098632812,-4.442748091603053,-0.29770992366412213,-3.1374045801526718
5263427750073,5.429475622,3,-0.13766659545898435,-0.5039794494628906,-9.024943157958983,-4.404580152671755,-0.3282442748091603,-3.1526717557251906
5263447749813,5.449475362,3,-0.1867477294921875,-0.5578489868164063,-9.01536635131836,-4.412213740458015,-0.25190839694656486,-3.213740458015267
5263467790438,5.469515987,3,-0.23702596435546874,-0.55545478515625,-8.98304462890625,-4.427480916030534,-0.22900763358778625,-3.1526717557251906
5263487745178,5.489470727,3,-0.19153613281249998,-0.5351040710449219,-8.950722906494141,-4.427480916030534,-0.29770992366412213,-3.1603053435114505
5263507747053,5.509472602,3,-0.21428104858398436,-0.5674257934570313,-8.942343200683593,-4.458015267175573,-0.26717557251908397,-3.1603053435114505
5263527746428,5.529471977,3,-0.26695348510742184,-0.5051765502929687,-8.959102612304687,-4.412213740458015,-0.31297709923664124,-3.1755725190839694
5263547772625,5.549498174,3,-0.14963760375976562,-0.5626373901367188,-8.883685260009765,-4.473282442748092,-0.3511450381679389,-3.145038167938931
5263567740230,5.569465779,3,-0.1867477294921875,-0.5363011718749999,-8.920795385742187,-4.412213740458015,-0.3893129770992366,-3.16793893129771
5263587741688,5.589467237,3,-0.19393033447265623,-0.5758054992675781,-8.93875189819336,-4.412213740458015,-0.26717557251908397,-3.1908396946564888
5263607755021,5.60948057,3,-0.18076222534179687,-0.5374982727050781,-8.998606939697265,-4.366412213740458,-0.25190839694656486,-3.1526717557251906
5263627779813,5.629505362,3,-0.17477672119140625,-0.5374982727050781,-8.971073620605468,-4.427480916030534,-0.3053435114503817,-3.1297709923664123
5263647752573,5.649478122,3,-0.2214636535644531,-0.5243301635742187,-8.93156929321289,-4.435114503816794,-0.3511450381679389,-3.114503816793893
5263667748407,5.669473956,3,-0.24181436767578124,-0.5279214660644531,-8.856151940917968,-4.3816793893129775,-0.3435114503816794,-3.1374045801526718
5263687749865,5.689475414,3,-0.19871873779296872,-0.5470750793457031,-8.90643017578125,-4.450381679389313,-0.2748091603053435,-3.1374045801526718
5263707787730,5.709513279,3,-0.2561795776367187,-0.51714755859375,-8.953117108154297,-4.435114503816794,-0.25190839694656486,-3.1526717557251906
5263727741427,5.729466976,3,-0.2059013427734375,-0.565031591796875,-8.978256225585938,-4.396946564885496,-0.3282442748091603,-3.145038167938931
5263747750542,5.749476091,3,-0.15442600708007811,-0.5781997009277343,-8.86812294921875,-4.3893129770992365,-0.29770992366412213,-3.1908396946564888
5263767740334,5.769465883,3,-0.20949264526367187,-0.5003881469726562,-8.936357696533202,-4.3893129770992365,-0.32061068702290074,-3.122137404580153
5263787778302,5.789503851,3,-0.1927332336425781,-0.5267243652343749,-8.966285217285156,-4.366412213740458,-0.32061068702290074,-3.1603053435114505
5263807761584,5.809487133,3,-0.18555062866210936,-0.5578489868164063,-8.955511309814453,-4.412213740458015,-0.2900763358778626,-3.1068702290076335
5263827757157,5.829482706,3,-0.2214636535644531,-0.5566518859863281,-8.932766394042968,-4.442748091603053,-0.31297709923664124,-3.1755725190839694
5263847740334,5.849465883,3,-0.20470424194335937,-0.5267243652343749,-8.930372192382812,-4.404580152671755,-0.29770992366412213,-3.183206106870229
5263867773250,5.869498799,3,-0.24779987182617186,-0.5327098693847656,-8.96269391479492,-4.358778625954199,-0.3282442748091603,-3.1526717557251906
5263887745855,5.889471404,3,-0.19991583862304688,-0.5255272644042969,-8.985438830566405,-4.404580152671755,-0.2748091603053435,-3.1755725190839694
5263907778459,5.909504008,3,-0.19393033447265623,-0.5542576843261718,-8.949525805664061,-4.404580152671755,-0.35877862595419846,-3.1526717557251906
5263927747625,5.929473174,3,-0.19991583862304688,-0.55545478515625,-8.968679418945312,-4.374045801526718,-0.31297709923664124,-3.1603053435114505
5263947769292,5.949494841,3,-0.20709844360351562,-0.5363011718749999,-8.926780889892578,-4.435114503816794,-0.3053435114503817,-3.1374045801526718
5263967764240,5.969489789,3,-0.181959326171875,-0.5410895751953124,-8.90044467163086,-4.396946564885496,-0.2824427480916031,-3.1755725190839694
5263987746792,5.989472341,3,-0.21188684692382811,-0.5494692810058593,-8.926780889892578,-4.3893129770992365,-0.2595419847328244,-3.122137404580153
5264007749865,6.009475414,3,-0.181959326171875,-0.5662286926269531,-8.953117108154297,-4.419847328244275,-0.29770992366412213,-3.1526717557251906
5264027774552,6.029500101,3,-0.1867477294921875,-0.5470750793457031,-8.936357696533202,-4.396946564885496,-0.31297709923664124,-3.1374045801526718
5264047746584,6.049472133,3,-0.2154781494140625,-0.5315127685546874,-8.993818536376953,-4.419847328244275,-0.2824427480916031,-3.1526717557251906
5264067749969,6.069475518,3,-0.19512743530273435,-0.584185205078125,-8.996212738037109,-4.435114503816794,-0.2900763358778626,-3.1297709923664123
5264087805229,6.089530778,3,-0.20709844360351562,-0.5374982727050781,-8.978256225585938,-4.396946564885496,-0.31297709923664124,-3.1603053435114505
5264107850646,6.109576195,3,-0.21428104858398436,-0.5267243652343749,-8.968679418945312,-4.419847328244275,-0.2366412213740458,-3.1526717557251906
5264127772834,6.129498383,3,-0.1771709228515625,-0.5602431884765625,-8.957905511474609,-4.396946564885496,-0.2748091603053435,-3.1374045801526718
5264147746531,6.14947208,3,-0.20709844360351562,-0.5805939025878906,-8.941146099853515,-4.427480916030534,-0.3053435114503817,-3.1755725190839694
5264167754136,6.169479685,3,-0.22385785522460935,-0.5267243652343749,-8.961496813964843,-4.419847328244275,-0.24427480916030533,-3.145038167938931
5264187756427,6.189481976,3,-0.23343466186523437,-0.5219359619140624,-8.936357696533202,-4.435114503816794,-0.35877862595419846,-3.16793893129771
5264207762104,6.209487653,3,-0.1975216369628906,-0.5374982727050781,-8.965088116455078,-4.3893129770992365,-0.32061068702290074,-3.145038167938931
5264227746688,6.229472237,3,-0.20350714111328125,-0.5482721801757812,-8.975862023925782,-4.450381679389313,-0.3053435114503817,-3.16793893129771
5264247755021,6.24948057,3,-0.22864625854492185,-0.5398924743652344,-8.967482318115234,-4.412213740458015,-0.32061068702290074,-3.1068702290076335
5264267774188,6.269499737,3,-0.21188684692382811,-0.5351040710449219,-9.016563452148437,-4.450381679389313,-0.1984732824427481,-3.183206106870229
5264287756219,6.289481768,3,-0.239420166015625,-0.5363011718749999,-8.949525805664061,-4.412213740458015,-0.24427480916030533,-3.145038167938931
5264307801375,6.309526924,3,-0.18315642700195311,-0.5722141967773438,-9.010577947998046,-4.442748091603053,-0.2900763358778626,-3.099236641221374
5264327752365,6.329477914,3,-0.1592144104003906,-0.55545478515625,-8.955511309814453,-4.419847328244275,-0.2366412213740458,-3.198473282442748
5264347768979,6.349494528,3,-0.20829554443359374,-0.5506663818359374,-8.972270721435546,-4.366412213740458,-0.2900763358778626,-3.1755725190839694
5264367767677,6.369493226,3,-0.17238251953125,-0.5374982727050781,-8.859743243408202,-4.404580152671755,-0.25190839694656486,-3.1526717557251906
5264387752729,6.389478278,3,-0.21787235107421873,-0.5422866760253906,-8.921992486572265,-4.3816793893129775,-0.2748091603053435,-3.1297709923664123
5264407811271,6.40953682,3,-0.24181436767578124,-0.5518634826660156,-8.999804040527343,-4.3816793893129775,-0.2900763358778626,-3.099236641221374
5264427762990,6.429488539,3,-0.19632453613281248,-0.5279214660644531,-8.96987651977539,-4.419847328244275,-0.2900763358778626,-3.1374045801526718
5264447750594,6.449476143,3,-0.16759411621093748,-0.5159504577636719,-8.957905511474609,-4.396946564885496,-0.24427480916030533,-3.1374045801526718
5264467752833,6.469478382,3,-0.20709844360351562,-0.5518634826660156,-8.95670841064453,-4.442748091603053,-0.2595419847328244,-3.145038167938931
5264487746792,6.489472341,3,-0.16879121704101563,-0.5458779785156249,-8.859743243408202,-4.435114503816794,-0.3053435114503817,-3.198473282442748
5264507823875,6.509549424,3,-0.20949264526367187,-0.5494692810058593,-8.888473663330078,-4.358778625954199,-0.3053435114503817,-3.16793893129771
5264528156740,6.529882289,3,-0.19033903198242186,-0.5339069702148437,-8.923189587402343,-4.396946564885496,-0.33587786259541985,-3.145038167938931
5264547796063,6.549521612,3,-0.21068974609375,-0.5542576843261718,-8.943540301513671,-4.3893129770992365,-0.32061068702290074,-3.0916030534351147
5264567781844,6.569507393,3,-0.1975216369628906,-0.5327098693847656,-8.989030133056641,-4.465648854961832,-0.31297709923664124,-3.1374045801526718
5264587747000,6.589472549,3,-0.24660277099609373,-0.5482721801757812,-8.972270721435546,-4.396946564885496,-0.29770992366412213,-3.1374045801526718
5264608066635,6.609792184,3,-0.22385785522460935,-0.5255272644042969,-8.929175091552734,-4.404580152671755,-0.29770992366412213,-3.1374045801526718
5264628108094,6.629833643,3,-0.18315642700195311,-0.5291185668945312,-8.959102612304687,-4.427480916030534,-0.29770992366412213,-3.1374045801526718
5264647739031,6.64946458,3,-0.2059013427734375,-0.5781997009277343,-8.883685260009765,-4.412213740458015,-0.25190839694656486,-3.145038167938931
5264667754552,6.669480101,3,-0.17597382202148437,-0.5123591552734374,-8.935160595703124,-4.4961832061068705,-0.2824427480916031,-3.1297709923664123
5264687722990,6.689448539,3,-0.16160861206054686,-0.5207388610839844,-8.949525805664061,-4.404580152671755,-0.2900763358778626,-3.1374045801526718
5264707734031,6.70945958,3,-0.16759411621093748,-0.5327098693847656,-8.898050469970702,-4.404580152671755,-0.2366412213740458,-3.1526717557251906
5264727733823,6.729459372,3,-0.16160861206054686,-0.5267243652343749,-9.003395343017578,-4.435114503816794,-0.3511450381679389,-3.1908396946564888
5264747764656,6.749490205,3,-0.19512743530273435,-0.51714755859375,-8.93156929321289,-4.435114503816794,-0.2595419847328244,-3.16793893129771
5264767709240,6.769434789,3,-0.201112939453125,-0.5410895751953124,-9.011775048828124,-4.450381679389313,-0.2900763358778626,-3.1374045801526718
5264787719396,6.789444945,3,-0.2262520568847656,-0.584185205078125,-8.898050469970702,-4.427480916030534,-0.35877862595419846,-3.1374045801526718
5264807783146,6.809508695,3,-0.1592144104003906,-0.5291185668945312,-8.951920007324219,-4.412213740458015,-0.33587786259541985,-3.1374045801526718
5264827773198,6.829498747,3,-0.2346317626953125,-0.5494692810058593,-8.86812294921875,-4.427480916030534,-0.33587786259541985,-3.1908396946564888
5264847731167,6.849456716,3,-0.23223756103515625,-0.5494692810058593,-8.95670841064453,-4.412213740458015,-0.3053435114503817,-3.1374045801526718
5264867734031,6.86945958,3,-0.21787235107421873,-0.5099649536132812,-8.984241729736327,-4.396946564885496,-0.3282442748091603,-3.1755725190839694
5264887741583,6.889467132,3,-0.18076222534179687,-0.5291185668945312,-8.954314208984375,-4.427480916030534,-0.32061068702290074,-3.16793893129771
5264907781635,6.909507184,3,-0.23223756103515625,-0.49320554199218747,-8.90643017578125,-4.419847328244275,-0.2824427480916031,-3.1374045801526718
5264927761531,6.92948708,3,-0.2741360900878906,-0.5398924743652344,-8.953117108154297,-4.480916030534351,-0.26717557251908397,-3.1755725190839694
5264947766115,6.949491664,3,-0.18435352783203124,-0.5638344909667968,-8.97705912475586,-4.465648854961832,-0.3511450381679389,-3.16793893129771
5264967743979,6.969469528,3,-0.1867477294921875,-0.49200844116210934,-8.89924757080078,-4.396946564885496,-0.2595419847328244,-3.1297709923664123
5264987749656,6.989475205,3,-0.17597382202148437,-0.5243301635742187,-8.933963494873046,-4.480916030534351,-0.26717557251908397,-3.1297709923664123
5265007773719,7.009499268,3,-0.20709844360351562,-0.5374982727050781,-8.936357696533202,-4.450381679389313,-0.24427480916030533,-3.1374045801526718
5265027732989,7.029458538,3,-0.20829554443359374,-0.5027823486328125,-8.996212738037109,-4.427480916030534,-0.2824427480916031,-3.1526717557251906
5265047716792,7.049442341,3,-0.2154781494140625,-0.5279214660644531,-8.919598284912109,-4.412213740458015,-0.32061068702290074,-3.145038167938931
5265067797833,7.069523382,3,-0.1975216369628906,-0.5147533569335937,-9.003395343017578,-4.412213740458015,-0.3282442748091603,-3.145038167938931
5265087764864,7.089490413,3,-0.20350714111328125,-0.6153098266601562,-8.981847528076171,-4.3816793893129775,-0.32061068702290074,-3.1603053435114505
5265107793979,7.109519528,3,-0.20949264526367187,-0.5686228942871093,-8.948328704833983,-4.450381679389313,-0.32061068702290074,-3.1755725190839694
5265127758146,7.129483695,3,-0.2346317626953125,-0.5039794494628906,-8.877699755859375,-4.458015267175573,-0.2900763358778626,-3.1526717557251906
5265147767208,7.149492757,3,-0.17238251953125,-0.5506663818359374,-8.865728747558594,-4.3893129770992365,-0.3282442748091603,-3.16793893129771
5265167754344,7.169479893,3,-0.21787235107421873,-0.55545478515625,-9.01536635131836,-4.419847328244275,-0.2595419847328244,-3.114503816793893
5265187742156,7.189467705,3,-0.17836802368164062,-0.5398924743652344,-8.92438668823242,-4.442748091603053,-0.25190839694656486,-3.1297709923664123
5265207755542,7.209481091,3,-0.16998831787109375,-0.5710170959472656,-8.932766394042968,-4.3816793893129775,-0.2900763358778626,-3.1297709923664123
5265227845385,7.229570934,3,-0.2214636535644531,-0.5602431884765625,-8.95670841064453,-4.465648854961832,-0.3053435114503817,-3.1755725190839694
5265247798041,7.24952359,3,-0.16639701538085935,-0.5781997009277343,-8.927977990722656,-4.374045801526718,-0.26717557251908397,-3.114503816793893
5265267755541,7.26948109,3,-0.2154781494140625,-0.5099649536132812,-8.892064965820312,-4.404580152671755,-0.2900763358778626,-3.145038167938931
5265287775333,7.289500882,3,-0.1771709228515625,-0.5398924743652344,-8.89924757080078,-4.404580152671755,-0.3053435114503817,-3.1526717557251906
5265307839448,7.309564997,3,-0.17836802368164062,-0.5638344909667968,-8.957905511474609,-4.427480916030534,-0.3511450381679389,-3.099236641221374
5265327761427,7.329486976,3,-0.2262520568847656,-0.5111620544433594,-8.94473740234375,-4.412213740458015,-0.29770992366412213,-3.1755725190839694
5265347751687,7.349477236,3,-0.22026655273437498,-0.6236895324707031,-8.929175091552734,-4.396946564885496,-0.2824427480916031,-3.16793893129771
5265367756531,7.36948208,3,-0.20949264526367187,-0.5351040710449219,-8.98304462890625,-4.396946564885496,-0.3435114503816794,-3.1297709923664123
5265387772364,7.389497913,3,-0.21787235107421873,-0.5686228942871093,-9.045293872070312,-4.480916030534351,-0.32061068702290074,-3.1603053435114505
5265407751479,7.409477028,3,-0.2262520568847656,-0.5446808776855468,-8.961496813964843,-4.396946564885496,-0.2824427480916031,-3.114503816793893
5265427744187,7.429469736,3,-0.18315642700195311,-0.5614402893066406,-8.901641772460938,-4.442748091603053,-0.33587786259541985,-3.1603053435114505
5265447751010,7.449476559,3,-0.2214636535644531,-0.5123591552734374,-8.93755479736328,-4.412213740458015,-0.2900763358778626,-3.1297709923664123
5265467681896,7.469407445,3,-0.18435352783203124,-0.5566518859863281,-8.972270721435546,-4.427480916030534,-0.2824427480916031,-3.16793893129771
5265487758666,7.489484215,3,-0.16879121704101563,-0.5482721801757812,-9.004592443847656,-4.473282442748092,-0.26717557251908397,-3.1603053435114505
5265507744656,7.509470205,3,-0.23343466186523437,-0.5590460876464843,-8.895656268310546,-4.396946564885496,-0.2595419847328244,-3.1526717557251906
5265527754187,7.529479736,3,-0.16639701538085935,-0.5159504577636719,-8.971073620605468,-4.419847328244275,-0.366412213740458,-3.1603053435114505
5265547761375,7.549486924,3,-0.1927332336425781,-0.5602431884765625,-8.930372192382812,-4.404580152671755,-0.2748091603053435,-3.114503816793893
5265567750541,7.56947609,3,-0.19632453613281248,-0.4848258361816406,-8.884882360839843,-4.366412213740458,-0.2824427480916031,-3.16793893129771
5265587743146,7.589468695,3,-0.17836802368164062,-0.5686228942871093,-8.89924757080078,-4.374045801526718,-0.32061068702290074,-3.1526717557251906
5265607735333,7.609460882,3,-0.2262520568847656,-0.5422866760253906,-8.93156929321289,-4.412213740458015,-0.3282442748091603,-3.1755725190839694
5265627772260,7.629497809,3,-0.1879448303222656,-0.5327098693847656,-8.954314208984375,-4.442748091603053,-0.3282442748091603,-3.145038167938931
5265647736323,7.649461872,3,-0.16759411621093748,-0.5458779785156249,-8.967482318115234,-4.442748091603053,-0.3053435114503817,-3.1603053435114505
5265667731895,7.669457444,3,-0.2214636535644531,-0.5255272644042969,-8.942343200683593,-4.419847328244275,-0.33587786259541985,-3.1526717557251906
5265687745385,7.689470934,3,-0.1975216369628906,-0.5422866760253906,-8.961496813964843,-4.435114503816794,-0.3435114503816794,-3.145038167938931
5265707766479,7.709492028,3,-0.1640028137207031,-0.5470750793457031,-8.975862023925782,-4.412213740458015,-0.2824427480916031,-3.183206106870229
5265727756114,7.729481663,3,-0.2154781494140625,-0.5386953735351562,-8.948328704833983,-4.450381679389313,-0.33587786259541985,-3.183206106870229
5265747744864,7.749470413,3,-0.19991583862304688,-0.5410895751953124,-8.949525805664061,-4.450381679389313,-0.366412213740458,-3.1297709923664123
5265767757208,7.769482757,3,-0.1975216369628906,-0.6009446166992187,-8.975862023925782,-4.412213740458015,-0.31297709923664124,-3.16793893129771
5265787770593,7.789496142,3,-0.22266075439453123,-0.5506663818359374,-8.939948999023438,-4.450381679389313,-0.26717557251908397,-3.16793893129771
5265807759864,7.809485413,3,-0.2166752502441406,-0.5590460876464843,-8.910021478271483,-4.396946564885496,-0.26717557251908397,-3.1374045801526718
5265827743302,7.829468851,3,-0.19393033447265623,-0.507570751953125,-8.97705912475586,-4.442748091603053,-0.2900763358778626,-3.1374045801526718
5265847746531,7.84947208,3,-0.18435352783203124,-0.5698199951171875,-8.913612780761719,-4.427480916030534,-0.32061068702290074,-3.145038167938931
5265867778666,7.869504215,3,-0.17238251953125,-0.5422866760253906,-8.926780889892578,-4.473282442748092,-0.22137404580152673,-3.16793893129771
5265887748250,7.889473799,3,-0.23582886352539062,-0.5123591552734374,-8.951920007324219,-4.419847328244275,-0.3511450381679389,-3.145038167938931
5265907733666,7.909459215,3,-0.24301146850585936,-0.5434837768554687,-8.953117108154297,-4.419847328244275,-0.2748091603053435,-3.1755725190839694
5265927735333,7.929460882,3,-0.1592144104003906,-0.5770026000976562,-8.966285217285156,-4.442748091603053,-0.29770992366412213,-3.1374045801526718
5265947692989,7.949418538,3,-0.20470424194335937,-0.507570751953125,-8.93755479736328,-4.450381679389313,-0.31297709923664124,-3.1526717557251906
5265967730697,7.969456246,3,-0.24301146850585936,-0.5446808776855468,-8.973467822265624,-4.435114503816794,-0.2748091603053435,-3.198473282442748
5265987735281,7.98946083,3,-0.21068974609375,-0.5817910034179687,-8.933963494873046,-4.404580152671755,-0.26717557251908397,-3.1603053435114505
5266007915697,8.009641246,3,-0.1867477294921875,-0.5530605834960938,-8.895656268310546,-4.435114503816794,-0.31297709923664124,-3.122137404580153
5266027951010,8.029676559,3,-0.22026655273437498,-0.5817910034179687,-8.921992486572265,-4.404580152671755,-0.3435114503816794,-3.1908396946564888
5266047765750,8.049491299,3,-0.18076222534179687,-0.5710170959472656,-8.93875189819336,-4.3893129770992365,-0.3511450381679389,-3.1526717557251906
5266067708562,8.069434111,3,-0.23223756103515625,-0.5219359619140624,-8.93156929321289,-4.412213740458015,-0.366412213740458,-3.1603053435114505
5266087805281,8.08953083,3,-0.19871873779296872,-0.5578489868164063,-8.98304462890625,-4.442748091603053,-0.3053435114503817,-3.183206106870229
5266107755333,8.109480882,3,-0.20709844360351562,-0.5291185668945312,-8.971073620605468,-4.442748091603053,-0.29770992366412213,-3.1526717557251906
5266127726843,8.129452392,3,-0.18435352783203124,-0.5147533569335937,-8.967482318115234,-4.412213740458015,-0.29770992366412213,-3.1526717557251906
5266147735333,8.149460882,3,-0.20231004028320312,-0.5291185668945312,-9.011775048828124,-4.458015267175573,-0.3511450381679389,-3.1755725190839694
5266167712937,8.169438486,3,-0.20470424194335937,-0.5063736511230469,-8.881291058349609,-4.396946564885496,-0.3282442748091603,-3.1603053435114505
5266187757364,8.189482913,3,-0.20470424194335937,-0.5327098693847656,-9.028534460449219,-4.366412213740458,-0.32061068702290074,-3.1526717557251906
5266207787208,8.209512757,3,-0.239420166015625,-0.5363011718749999,-8.960299713134765,-4.458015267175573,-0.29770992366412213,-3.145038167938931
5266227723510,8.229449059,3,-0.21308394775390624,-0.5734112976074218,-8.881291058349609,-4.458015267175573,-0.35877862595419846,-3.1755725190839694
5266247734135,8.249459684,3,-0.19512743530273435,-0.5231330627441406,-8.917204083251953,-4.427480916030534,-0.3053435114503817,-3.1908396946564888
5266267657572,8.269383121,3,-0.24779987182617186,-0.5865794067382812,-8.889670764160156,-4.419847328244275,-0.3053435114503817,-3.1908396946564888
5266287718406,8.289443955,3,-0.20470424194335937,-0.5051765502929687,-8.935160595703124,-4.374045801526718,-0.31297709923664124,-3.1908396946564888
5266307716374,8.309441923,3,-0.16160861206054686,-0.5470750793457031,-8.967482318115234,-4.3816793893129775,-0.3435114503816794,-3.099236641221374
5266327734031,8.32945958,3,-0.2166752502441406,-0.5458779785156249,-8.972270721435546,-4.366412213740458,-0.3053435114503817,-3.1526717557251906
5266347744499,8.349470048,3,-0.20350714111328125,-0.5770026000976562,-8.904035974121093,-4.442748091603053,-0.32061068702290074,-3.1526717557251906
5266367735072,8.369460621,3,-0.19153613281249998,-0.5398924743652344,-8.93875189819336,-4.435114503816794,-0.26717557251908397,-3.1603053435114505
5266387724968,8.389450517,3,-0.1867477294921875,-0.5985504150390625,-8.999804040527343,-4.396946564885496,-0.25190839694656486,-3.099236641221374
5266407731479,8.409457028,3,-0.16759411621093748,-0.565031591796875,-8.96987651977539,-4.427480916030534,-0.31297709923664124,-3.16793893129771
5266427787572,8.429513121,3,-0.19033903198242186,-0.5255272644042969,-8.902838873291016,-4.3893129770992365,-0.31297709923664124,-3.183206106870229
5266447729499,8.449455048,3,-0.22266075439453123,-0.5087678527832031,-8.985438830566405,-4.396946564885496,-0.2900763358778626,-3.122137404580153
5266467720645,8.469446194,3,-0.1975216369628906,-0.5566518859863281,-9.022548956298827,-4.3893129770992365,-0.3282442748091603,-3.145038167938931
5266487716635,8.489442184,3,-0.21308394775390624,-0.5255272644042969,-9.03332286376953,-4.450381679389313,-0.31297709923664124,-3.198473282442748
5266507744031,8.50946958,3,-0.1975216369628906,-0.5183446594238281,-8.968679418945312,-4.488549618320611,-0.2824427480916031,-3.1526717557251906
5266527786010,8.529511559,3,-0.1879448303222656,-0.5410895751953124,-8.939948999023438,-4.404580152671755,-0.2900763358778626,-3.1603053435114505
5266547719447,8.549444996,3,-0.19871873779296872,-0.5590460876464843,-8.933963494873046,-4.396946564885496,-0.24427480916030533,-3.1755725190839694
5266567718510,8.569444059,3,-0.1975216369628906,-0.5446808776855468,-8.933963494873046,-4.3893129770992365,-0.3282442748091603,-3.183206106870229
5266587731947,8.589457496,3,-0.17357962036132812,-0.5327098693847656,-8.86812294921875,-4.480916030534351,-0.3053435114503817,-3.122137404580153
5266607711374,8.609436923,3,-0.20350714111328125,-0.5267243652343749,-8.905233074951171,-4.450381679389313,-0.2824427480916031,-3.1755725190839694
5266627732208,8.629457757,3,-0.18435352783203124,-0.5506663818359374,-8.878896856689453,-4.3893129770992365,-0.29770992366412213,-3.1374045801526718
5266647714551,8.6494401,3,-0.18076222534179687,-0.5255272644042969,-8.947131604003905,-4.435114503816794,-0.2824427480916031,-3.1297709923664123
5266667730906,8.669456455,3,-0.22744915771484372,-0.5051765502929687,-8.965088116455078,-4.480916030534351,-0.3053435114503817,-3.16793893129771
5266687731010,8.689456559,3,-0.21428104858398436,-0.5255272644042969,-8.898050469970702,-4.412213740458015,-0.31297709923664124,-3.045801526717557
5266707726791,8.70945234,3,-0.18555062866210936,-0.5686228942871093,-8.926780889892578,-4.3816793893129775,-0.24427480916030533,-3.16793893129771
5266727784083,8.729509632,3,-0.18435352783203124,-0.5374982727050781,-8.990227233886719,-4.374045801526718,-0.31297709923664124,-3.1603053435114505
5266747672260,8.749397809,3,-0.1867477294921875,-0.5626373901367188,-8.876502655029297,-4.412213740458015,-0.2824427480916031,-3.183206106870229
5266767728614,8.769454163,3,-0.19512743530273435,-0.51714755859375,-8.93755479736328,-4.3893129770992365,-0.31297709923664124,-3.1603053435114505
5266787703197,8.789428746,3,-0.18555062866210936,-0.5374982727050781,-8.935160595703124,-4.450381679389313,-0.3511450381679389,-3.1603053435114505
5266807727103,8.809452652,3,-0.20350714111328125,-0.5470750793457031,-8.972270721435546,-4.435114503816794,-0.29770992366412213,-3.1526717557251906
5266827798510,8.829524059,3,-0.17477672119140625,-0.5542576843261718,-8.955511309814453,-4.374045801526718,-0.2900763358778626,-3.099236641221374
5266847727937,8.849453486,3,-0.19871873779296872,-0.5339069702148437,-8.935160595703124,-4.358778625954199,-0.3511450381679389,-3.16793893129771
5266867705072,8.869430621,3,-0.19991583862304688,-0.5710170959472656,-8.905233074951171,-4.374045801526718,-0.3053435114503817,-3.1908396946564888
5266887723093,8.889448642,3,-0.22266075439453123,-0.47764323120117186,-8.961496813964843,-4.3816793893129775,-0.3053435114503817,-3.1297709923664123
5266907739135,8.909464684,3,-0.15562310791015624,-0.5339069702148437,-8.966285217285156,-4.427480916030534,-0.2595419847328244,-3.1603053435114505
5266927764239,8.929489788,3,-0.20470424194335937,-0.5889736083984375,-8.993818536376953,-4.404580152671755,-0.2748091603053435,-3.1297709923664123
5266947737103,8.949462652,3,-0.21787235107421873,-0.5602431884765625,-8.965088116455078,-4.450381679389313,-0.25190839694656486,-3.099236641221374
5266967710489,8.969436038,3,-0.16280571289062498,-0.5291185668945312,-8.979453326416015,-4.442748091603053,-0.31297709923664124,-3.1297709923664123
5266987751010,8.989476559,3,-0.1879448303222656,-0.5279214660644531,-8.89924757080078,-4.450381679389313,-0.31297709923664124,-3.1755725190839694
5267007730020,9.009455569,3,-0.1975216369628906,-0.5422866760253906,-8.960299713134765,-4.366412213740458,-0.2900763358778626,-3.1374045801526718
5267027725957,9.029451506,3,-0.18315642700195311,-0.5386953735351562,-8.953117108154297,-4.427480916030534,-0.3435114503816794,-3.1755725190839694
5267047723145,9.049448694,3,-0.21308394775390624,-0.5710170959472656,-8.96987651977539,-4.3816793893129775,-0.2900763358778626,-3.1526717557251906
5267067663249,9.069388798,3,-0.2214636535644531,-0.5458779785156249,-8.91840118408203,-4.404580152671755,-0.29770992366412213,-3.1297709923664123
5267087751687,9.089477236,3,-0.18555062866210936,-0.5410895751953124,-8.95670841064453,-4.435114503816794,-0.33587786259541985,-3.122137404580153
5267107721947,9.109447496,3,-0.16998831787109375,-0.5039794494628906,-8.999804040527343,-4.435114503816794,-0.2748091603053435,-3.1755725190839694
5267127745280,9.129470829,3,-0.21787235107421873,-0.5458779785156249,-8.981847528076171,-4.450381679389313,-0.31297709923664124,-3.1755725190839694
5267147760176,9.149485725,3,-0.20829554443359374,-0.5674257934570313,-8.927977990722656,-4.442748091603053,-0.25190839694656486,-3.1526717557251906
5267167741687,9.169467236,3,-0.21906945190429686,-0.51714755859375,-8.93156929321289,-4.419847328244275,-0.24427480916030533,-3.1603053435114505
5267187741114,9.189466663,3,-0.21906945190429686,-0.5590460876464843,-8.980650427246093,-4.412213740458015,-0.3053435114503817,-3.1526717557251906
5267207728197,9.209453746,3,-0.17956512451171874,-0.5722141967773438,-8.93875189819336,-4.450381679389313,-0.26717557251908397,-3.183206106870229
5267227810124,9.229535673,3,-0.22026655273437498,-0.5099649536132812,-8.90643017578125,-4.404580152671755,-0.29770992366412213,-3.213740458015267
5267247762884,9.249488433,3,-0.24181436767578124,-0.5482721801757812,-8.984241729736327,-4.450381679389313,-0.3435114503816794,-3.1526717557251906
5267267735437,9.269460986,3,-0.2765302917480469,-0.5482721801757812,-8.902838873291016,-4.3893129770992365,-0.2595419847328244,-3.1603053435114505
5267287740853,9.289466402,3,-0.229843359375,-0.5195417602539062,-9.014169250488282,-4.435114503816794,-0.26717557251908397,-3.114503816793893
5267307780020,9.309505569,3,-0.22266075439453123,-0.5530605834960938,-8.923189587402343,-4.412213740458015,-0.2595419847328244,-3.1755725190839694
5267327860020,9.329585569,3,-0.19991583862304688,-0.5339069702148437,-9.062053283691405,-4.3893129770992365,-0.37404580152671757,-3.1526717557251906
5267347744759,9.349470308,3,-0.2442085693359375,-0.5674257934570313,-8.936357696533202,-4.465648854961832,-0.2824427480916031,-3.1068702290076335
5267367741582,9.369467131,3,-0.16998831787109375,-0.5925649108886718,-8.914809881591797,-4.396946564885496,-0.31297709923664124,-3.1526717557251906
5267387754030,9.389479579,3,-0.19991583862304688,-0.51714755859375,-8.980650427246093,-4.450381679389313,-0.32061068702290074,-3.145038167938931
5267407750020,9.409475569,3,-0.1927332336425781,-0.5662286926269531,-8.967482318115234,-4.450381679389313,-0.29770992366412213,-3.1526717557251906
5267427790749,9.429516298,3,-0.1927332336425781,-0.507570751953125,-8.963891015625,-4.419847328244275,-0.37404580152671757,-3.198473282442748
5267447755020,9.449480569,3,-0.1867477294921875,-0.5111620544433594,-8.913612780761719,-4.442748091603053,-0.3282442748091603,-3.1297709923664123
5267467754186,9.469479735,3,-0.19991583862304688,-0.4860229370117187,-8.978256225585938,-4.3893129770992365,-0.3282442748091603,-3.1374045801526718
5267487730957,9.489456506,3,-0.21787235107421873,-0.5351040710449219,-9.009380847167968,-4.435114503816794,-0.24427480916030533,-3.145038167938931
5267507736791,9.50946234,3,-0.16041151123046873,-0.5267243652343749,-8.987833032226561,-4.442748091603053,-0.2748091603053435,-3.1068702290076335
5267527797624,9.529523173,3,-0.24899697265624998,-0.5506663818359374,-8.957905511474609,-4.3816793893129775,-0.3511450381679389,-3.145038167938931
5267547770384,9.549495933,3,-0.19153613281249998,-0.5446808776855468,-8.968679418945312,-4.419847328244275,-0.29770992366412213,-3.1374045801526718
5267567745124,9.569470673,3,-0.19512743530273435,-0.5111620544433594,-8.97705912475586,-4.419847328244275,-0.2824427480916031,-3.16793893129771
5267587764239,9.589489788,3,-0.23702596435546874,-0.5590460876464843,-8.967482318115234,-4.419847328244275,-0.29770992366412213,-3.1603053435114505
5267607730697,9.609456246,3,-0.17238251953125,-0.5159504577636719,-8.951920007324219,-4.3893129770992365,-0.3282442748091603,-3.1603053435114505
5267627809759,9.629535308,3,-0.23223756103515625,-0.5446808776855468,-8.99501563720703,-4.412213740458015,-0.3282442748091603,-3.1526717557251906
5267647736843,9.649462392,3,-0.16280571289062498,-0.5482721801757812,-8.96987651977539,-4.396946564885496,-0.3435114503816794,-3.16793893129771
5267667741843,9.669467392,3,-0.20949264526367187,-0.5351040710449219,-8.974664923095702,-4.3893129770992365,-0.2595419847328244,-3.1374045801526718
5267687743457,9.689469006,3,-0.1867477294921875,-0.5183446594238281,-8.95670841064453,-4.458015267175573,-0.33587786259541985,-3.1526717557251906
5267707773666,9.709499215,3,-0.19033903198242186,-0.5351040710449219,-8.990227233886719,-4.412213740458015,-0.2824427480916031,-3.1526717557251906
5267727747363,9.729472912,3,-0.23822306518554687,-0.5087678527832031,-8.987833032226561,-4.3816793893129775,-0.31297709923664124,-3.1526717557251906
5267747739603,9.749465152,3,-0.19512743530273435,-0.5817910034179687,-8.96269391479492,-4.3893129770992365,-0.3282442748091603,-3.1374045801526718
5267767733978,9.769459527,3,-0.23343466186523437,-0.5135562561035156,-8.949525805664061,-4.427480916030534,-0.2748091603053435,-3.1603053435114505
5267787774030,9.789499579,3,-0.22505495605468748,-0.5710170959472656,-8.941146099853515,-4.3816793893129775,-0.2824427480916031,-3.122137404580153
5267807725697,9.809451246,3,-0.16998831787109375,-0.5422866760253906,-8.916006982421875,-4.450381679389313,-0.3282442748091603,-3.099236641221374
5267827742259,9.829467808,3,-0.21906945190429686,-0.5494692810058593,-9.003395343017578,-4.427480916030534,-0.2900763358778626,-3.183206106870229
5267847731634,9.849457183,3,-0.23343466186523437,-0.5027823486328125,-8.993818536376953,-4.450381679389313,-0.24427480916030533,-3.122137404580153
5267867779863,9.869505412,3,-0.23343466186523437,-0.5410895751953124,-8.967482318115234,-4.419847328244275,-0.25190839694656486,-3.16793893129771
5267887725801,9.88945135,3,-0.18435352783203124,-0.55545478515625,-8.902838873291016,-4.419847328244275,-0.2824427480916031,-3.114503816793893
5267907742311,9.90946786,3,-0.20829554443359374,-0.5746083984375,-8.94473740234375,-4.3893129770992365,-0.31297709923664124,-3.1297709923664123
5267927729707,9.929455256,3,-0.19871873779296872,-0.5315127685546874,-8.968679418945312,-4.396946564885496,-0.3053435114503817,-3.145038167938931
5267947772676,9.949498225,3,-0.2262520568847656,-0.5590460876464843,-8.930372192382812,-4.351145038167939,-0.29770992366412213,-3.1068702290076335
5267967740957,9.969466506,3,-0.19632453613281248,-0.507570751953125,-8.968679418945312,-4.419847328244275,-0.32061068702290074,-3.099236641221374
5267987747676,9.989473225,3,-0.20231004028320312,-0.55545478515625,-8.87410845336914,-4.396946564885496,-0.2824427480916031,-3.16793893129771
5268007756270,10.009481819,3,-0.16519991455078123,-0.5614402893066406,-8.959102612304687,-4.435114503816794,-0.33587786259541985,-3.1297709923664123
5268027694082,10.029419631,3,-0.24899697265624998,-0.5207388610839844,-8.913612780761719,-4.450381679389313,-0.29770992366412213,-3.198473282442748
5268047737311,10.04946286,3,-0.19033903198242186,-0.5913678100585937,-9.011775048828124,-4.435114503816794,-0.2595419847328244,-3.122137404580153
5268067740280,10.069465829,3,-0.19991583862304688,-0.5398924743652344,-8.90643017578125,-4.419847328244275,-0.2900763358778626,-3.1908396946564888
5268087722155,10.089447704,3,-0.21068974609375,-0.5698199951171875,-8.954314208984375,-4.3816793893129775,-0.29770992366412213,-3.1374045801526718
5268107837520,10.109563069,3,-0.14963760375976562,-0.5243301635742187,-8.93156929321289,-4.404580152671755,-0.3282442748091603,-3.1603053435114505
5268127751061,10.12947661,3,-0.19991583862304688,-0.4944026428222656,-8.973467822265624,-4.3893129770992365,-0.2595419847328244,-3.1297709923664123
5268147760384,10.149485933,3,-0.19393033447265623,-0.5698199951171875,-8.953117108154297,-4.3893129770992365,-0.33587786259541985,-3.114503816793893
5268167730697,10.169456246,3,-0.201112939453125,-0.5207388610839844,-8.908824377441405,-4.374045801526718,-0.3053435114503817,-3.1526717557251906
5268187776634,10.189502183,3,-0.201112939453125,-0.5805939025878906,-9.010577947998046,-4.435114503816794,-0.26717557251908397,-3.1755725190839694
5268207791947,10.209517496,3,-0.19991583862304688,-0.5398924743652344,-8.88009395751953,-4.404580152671755,-0.3053435114503817,-3.1374045801526718
5268227736113,10.229461662,3,-0.18555062866210936,-0.48243163452148435,-8.95670841064453,-4.450381679389313,-0.31297709923664124,-3.1374045801526718
5268247738978,10.249464527,3,-0.21308394775390624,-0.5482721801757812,-8.882488159179687,-4.435114503816794,-0.3053435114503817,-3.2061068702290076
5268267754759,10.269480308,3,-0.1927332336425781,-0.59376201171875,-8.9255837890625,-4.3893129770992365,-0.3053435114503817,-3.1297709923664123
5268287745957,10.289471506,3,-0.1975216369628906,-0.5135562561035156,-8.996212738037109,-4.412213740458015,-0.26717557251908397,-3.1526717557251906
5268307739655,10.309465204,3,-0.16519991455078123,-0.5087678527832031,-8.942343200683593,-4.435114503816794,-0.31297709923664124,-3.16793893129771
5268327751426,10.329476975,3,-0.1879448303222656,-0.5351040710449219,-8.91840118408203,-4.442748091603053,-0.29770992366412213,-3.16793893129771
5268347776530,10.349502079,3,-0.1388636962890625,-0.5662286926269531,-8.945934503173827,-4.404580152671755,-0.24427480916030533,-3.114503816793893
5268367740905,10.369466454,3,-0.2645592834472656,-0.5327098693847656,-8.953117108154297,-4.473282442748092,-0.29770992366412213,-3.1603053435114505
5268387733144,10.389458693,3,-0.16879121704101563,-0.507570751953125,-9.018957653808593,-4.419847328244275,-0.3053435114503817,-3.1603053435114505
5268407736790,10.409462339,3,-0.21308394775390624,-0.5231330627441406,-9.066841687011719,-4.450381679389313,-0.29770992366412213,-3.0916030534351147
5268427764915,10.429490464,3,-0.2501940734863281,-0.5482721801757812,-8.929175091552734,-4.412213740458015,-0.32061068702290074,-3.16793893129771
5268447749603,10.449475152,3,-0.18555062866210936,-0.5698199951171875,-8.965088116455078,-4.412213740458015,-0.24427480916030533,-3.1755725190839694
5268467740436,10.469465985,3,-0.22744915771484372,-0.5410895751953124,-8.94473740234375,-4.419847328244275,-0.37404580152671757,-3.1755725190839694
5268487735436,10.489460985,3,-0.21068974609375,-0.5746083984375,-8.935160595703124,-4.427480916030534,-0.29770992366412213,-3.1068702290076335
5268507756842,10.509482391,3,-0.22744915771484372,-0.5865794067382812,-8.966285217285156,-4.435114503816794,-0.3435114503816794,-3.1755725190839694
5268527734290,10.529459839,3,-0.21068974609375,-0.4908113403320312,-9.003395343017578,-4.412213740458015,-0.3282442748091603,-3.1297709923664123
5268547755071,10.54948062,3,-0.18076222534179687,-0.5351040710449219,-8.981847528076171,-4.3893129770992365,-0.24427480916030533,-3.122137404580153
5268567730332,10.569455881,3,-0.20949264526367187,-0.5255272644042969,-8.987833032226561,-4.427480916030534,-0.2748091603053435,-3.1526717557251906
5268587759915,10.589485464,3,-0.21787235107421873,-0.5602431884765625,-8.947131604003905,-4.427480916030534,-0.2824427480916031,-3.122137404580153
5268607736738,10.609462287,3,-0.19991583862304688,-0.5506663818359374,-8.963891015625,-4.374045801526718,-0.29770992366412213,-3.183206106870229
5268627739446,10.629464995,3,-0.14245499877929688,-0.5363011718749999,-8.93875189819336,-4.435114503816794,-0.3435114503816794,-3.122137404580153
5268647798405,10.649523954,3,-0.2501940734863281,-0.5530605834960938,-8.954314208984375,-4.435114503816794,-0.2900763358778626,-3.1755725190839694
5268667771269,10.669496818,3,-0.1867477294921875,-0.5482721801757812,-8.947131604003905,-4.396946564885496,-0.2748091603053435,-3.1908396946564888
5268687736009,10.689461558,3,-0.2166752502441406,-0.5207388610839844,-8.984241729736327,-4.396946564885496,-0.3435114503816794,-3.1603053435114505
5268707742155,10.709467704,3,-0.23223756103515625,-0.5315127685546874,-9.005789544677734,-4.404580152671755,-0.26717557251908397,-3.1526717557251906
5268727731530,10.729457079,3,-0.23343466186523437,-0.5303156677246094,-8.913612780761719,-4.404580152671755,-0.33587786259541985,-3.1603053435114505
5268747819967,10.749545516,3,-0.20350714111328125,-0.6117185241699218,-8.902838873291016,-4.435114503816794,-0.3893129770992366,-3.1374045801526718
5268767735748,10.769461297,3,-0.19632453613281248,-0.5123591552734374,-8.898050469970702,-4.480916030534351,-0.3435114503816794,-3.122137404580153
5268787733665,10.789459214,3,-0.25737667846679685,-0.5482721801757812,-8.941146099853515,-4.419847328244275,-0.2748091603053435,-3.1603053435114505
5268807754811,10.80948036,3,-0.2346317626953125,-0.5518634826660156,-8.93755479736328,-4.419847328244275,-0.26717557251908397,-3.122137404580153
5268827765488,10.829491037,3,-0.22744915771484372,-0.5315127685546874,-8.951920007324219,-4.442748091603053,-0.2595419847328244,-3.183206106870229
5268847787259,10.849512808,3,-0.21188684692382811,-0.5003881469726562,-8.892064965820312,-4.374045801526718,-0.3053435114503817,-3.1297709923664123
5268867739707,10.869465256,3,-0.22026655273437498,-0.5434837768554687,-8.966285217285156,-4.343511450381679,-0.2748091603053435,-3.145038167938931
5268887726894,10.889452443,3,-0.2154781494140625,-0.5422866760253906,-8.93156929321289,-4.404580152671755,-0.29770992366412213,-3.1374045801526718
5268907749342,10.909474891,3,-0.1975216369628906,-0.5339069702148437,-8.92438668823242,-4.3893129770992365,-0.31297709923664124,-3.145038167938931
5268927743821,10.92946937,3,-0.13646949462890623,-0.5398924743652344,-8.943540301513671,-4.404580152671755,-0.25190839694656486,-3.1068702290076335
5268947735123,10.949460672,3,-0.1867477294921875,-0.4584896179199218,-8.866925848388671,-4.412213740458015,-0.2824427480916031,-3.1755725190839694
5268967909342,10.969634891,3,-0.16759411621093748,-0.5351040710449219,-8.89924757080078,-4.427480916030534,-0.31297709923664124,-3.16793893129771
5268987768144,10.989493693,3,-0.21428104858398436,-0.5159504577636719,-8.94473740234375,-4.366412213740458,-0.3053435114503817,-3.1297709923664123
5269007737103,11.009462652,3,-0.21188684692382811,-0.5482721801757812,-8.89924757080078,-4.3816793893129775,-0.3435114503816794,-3.1908396946564888
5269027750957,11.029476506,3,-0.17118541870117188,-0.5602431884765625,-8.929175091552734,-4.3893129770992365,-0.26717557251908397,-3.1526717557251906
5269047787728,11.049513277,3,-0.18435352783203124,-0.5638344909667968,-8.93755479736328,-4.412213740458015,-0.3282442748091603,-3.1374045801526718
5269067743978,11.069469527,3,-0.19991583862304688,-0.5853823059082031,-8.957905511474609,-4.450381679389313,-0.31297709923664124,-3.122137404580153
5269087759863,11.089485412,3,-0.1927332336425781,-0.5734112976074218,-9.038111267089842,-4.435114503816794,-0.29770992366412213,-3.1603053435114505
5269107725123,11.109450672,3,-0.20350714111328125,-0.5351040710449219,-8.971073620605468,-4.419847328244275,-0.32061068702290074,-3.213740458015267
5269127737675,11.129463224,3,-0.229843359375,-0.5770026000976562,-8.951920007324219,-4.412213740458015,-0.3282442748091603,-3.122137404580153
5269147786790,11.149512339,3,-0.20350714111328125,-0.5231330627441406,-8.954314208984375,-4.412213740458015,-0.2748091603053435,-3.1297709923664123
5269167735175,11.169460724,3,-0.21188684692382811,-0.5087678527832031,-8.954314208984375,-4.435114503816794,-0.26717557251908397,-3.1297709923664123
5269187715019,11.189440568,3,-0.20470424194335937,-0.5566518859863281,-9.029731561279297,-4.435114503816794,-0.2900763358778626,-3.1526717557251906
5269207729134,11.209454683,3,-0.23343466186523437,-0.5470750793457031,-8.991424334716797,-4.419847328244275,-0.3282442748091603,-3.145038167938931
5269227809238,11.229534787,3,-0.2214636535644531,-0.5339069702148437,-8.945934503173827,-4.3893129770992365,-0.2824427480916031,-3.145038167938931
5269247813717,11.249539266,3,-0.19991583862304688,-0.5566518859863281,-8.96269391479492,-4.435114503816794,-0.32061068702290074,-3.1526717557251906
5269267724967,11.269450516,3,-0.1879448303222656,-0.48243163452148435,-8.864531646728516,-4.427480916030534,-0.35877862595419846,-3.1297709923664123
5269287723769,11.289449318,3,-0.16879121704101563,-0.5123591552734374,-8.966285217285156,-4.404580152671755,-0.2900763358778626,-3.1526717557251906
5269307694394,11.309419943,3,-0.17477672119140625,-0.55545478515625,-8.953117108154297,-4.465648854961832,-0.31297709923664124,-3.122137404580153
5269327800175,11.329525724,3,-0.17357962036132812,-0.5506663818359374,-8.953117108154297,-4.435114503816794,-0.3435114503816794,-3.1755725190839694
5269347794082,11.349519631,3,-0.18555062866210936,-0.5219359619140624,-8.990227233886719,-4.450381679389313,-0.2824427480916031,-3.1526717557251906
5269367733977,11.369459526,3,-0.239420166015625,-0.49320554199218747,-8.955511309814453,-4.412213740458015,-0.2900763358778626,-3.1297709923664123
5269387738300,11.389463849,3,-0.18315642700195311,-0.5722141967773438,-8.975862023925782,-4.3893129770992365,-0.3053435114503817,-3.1297709923664123
5269407734394,11.409459943,3,-0.239420166015625,-0.5602431884765625,-8.927977990722656,-4.404580152671755,-0.2824427480916031,-3.114503816793893
5269427729811,11.42945536,3,-0.20350714111328125,-0.5207388610839844,-8.902838873291016,-4.480916030534351,-0.3511450381679389,-3.145038167938931
5269447730540,11.449456089,3,-0.20829554443359374,-0.5698199951171875,-8.919598284912109,-4.442748091603053,-0.2824427480916031,-3.1374045801526718
5269467675800,11.469401349,3,-0.1975216369628906,-0.5255272644042969,-8.967482318115234,-4.412213740458015,-0.33587786259541985,-3.1603053435114505
5269487735957,11.489461506,3,-0.1879448303222656,-0.5614402893066406,-8.953117108154297,-4.3893129770992365,-0.33587786259541985,-3.114503816793893
5269507715748,11.509441297,3,-0.18076222534179687,-0.5315127685546874,-8.921992486572265,-4.396946564885496,-0.3053435114503817,-3.1526717557251906
5269527775019,11.529500568,3,-0.2166752502441406,-0.51714755859375,-8.942343200683593,-4.465648854961832,-0.2824427480916031,-3.1374045801526718
5269548329290,11.550054839,3,-0.17597382202148437,-0.5410895751953124,-9.00100114135742,-4.442748091603053,-0.2748091603053435,-3.1603053435114505
5269567797675,11.569523224,3,-0.21906945190429686,-0.5123591552734374,-9.014169250488282,-4.427480916030534,-0.32061068702290074,-3.1526717557251906
5269587730071,11.58945562,3,-0.20470424194335937,-0.5267243652343749,-8.85495484008789,-4.480916030534351,-0.29770992366412213,-3.1526717557251906
5269607747831,11.60947338,3,-0.2501940734863281,-0.51714755859375,-8.929175091552734,-4.427480916030534,-0.31297709923664124,-3.1526717557251906
5269627758717,11.629484266,3,-0.1867477294921875,-0.5530605834960938,-8.961496813964843,-4.412213740458015,-0.3282442748091603,-3.1603053435114505
5269647796425,11.649521974,3,-0.2154781494140625,-0.5434837768554687,-8.933963494873046,-4.419847328244275,-0.26717557251908397,-3.16793893129771
5269667742831,11.66946838,3,-0.17238251953125,-0.5410895751953124,-8.985438830566405,-4.396946564885496,-0.2595419847328244,-3.1755725190839694
5269687760019,11.689485568,3,-0.24181436767578124,-0.5518634826660156,-8.921992486572265,-4.396946564885496,-0.22900763358778625,-3.1526717557251906
5269707753040,11.709478589,3,-0.24061726684570311,-0.5291185668945312,-8.95670841064453,-4.396946564885496,-0.26717557251908397,-3.2213740458015265
5269727726581,11.72945213,3,-0.17836802368164062,-0.5530605834960938,-8.90643017578125,-4.374045801526718,-0.2366412213740458,-3.1297709923664123
5269747786217,11.749511766,3,-0.23343466186523437,-0.5219359619140624,-8.953117108154297,-4.435114503816794,-0.3511450381679389,-3.1526717557251906
5269767738717,11.769464266,3,-0.24061726684570311,-0.5398924743652344,-8.980650427246093,-4.458015267175573,-0.25190839694656486,-3.122137404580153
5269787746373,11.789471922,3,-0.20350714111328125,-0.5506663818359374,-8.90643017578125,-4.404580152671755,-0.2900763358778626,-3.145038167938931
5269807737519,11.809463068,3,-0.201112939453125,-0.5781997009277343,-8.90643017578125,-4.427480916030534,-0.2748091603053435,-3.1908396946564888
5269827733508,11.829459057,3,-0.2166752502441406,-0.5674257934570313,-8.857349041748046,-4.404580152671755,-0.31297709923664124,-3.1374045801526718
5269847795852,11.849521401,3,-0.22744915771484372,-0.5231330627441406,-8.9255837890625,-4.442748091603053,-0.32061068702290074,-3.1755725190839694
5269867762571,11.86948812,3,-0.20709844360351562,-0.5398924743652344,-8.93875189819336,-4.3816793893129775,-0.31297709923664124,-3.1297709923664123
5269887729133,11.889454682,3,-0.18914193115234373,-0.5590460876464843,-8.948328704833983,-4.396946564885496,-0.31297709923664124,-3.183206106870229
5269907749811,11.90947536,3,-0.21787235107421873,-0.5027823486328125,-8.933963494873046,-4.419847328244275,-0.29770992366412213,-3.1526717557251906
5269927743300,11.929468849,3,-0.2346317626953125,-0.5363011718749999,-8.93156929321289,-4.427480916030534,-0.3282442748091603,-3.1755725190839694
5269947739446,11.949464995,3,-0.2262520568847656,-0.49679684448242184,-9.006986645507812,-4.458015267175573,-0.2900763358778626,-3.1297709923664123
5269967741842,11.969467391,3,-0.19393033447265623,-0.5183446594238281,-8.930372192382812,-4.458015267175573,-0.3053435114503817,-3.1374045801526718
5269987724029,11.989449578,3,-0.19991583862304688,-0.51714755859375,-8.913612780761719,-4.419847328244275,-0.31297709923664124,-3.0916030534351147
5270007782311,12.00950786,3,-0.2214636535644531,-0.5602431884765625,-8.949525805664061,-4.427480916030534,-0.29770992366412213,-3.1526717557251906
5270027770071,12.02949562,3,-0.22505495605468748,-0.55545478515625,-8.966285217285156,-4.419847328244275,-0.26717557251908397,-3.122137404580153
5270047763717,12.049489266,3,-0.22505495605468748,-0.5458779785156249,-8.945934503173827,-4.442748091603053,-0.2366412213740458,-3.1526717557251906
5270067751269,12.069476818,3,-0.21308394775390624,-0.5602431884765625,-8.896853369140624,-4.404580152671755,-0.32061068702290074,-3.1297709923664123
5270087765956,12.089491505,3,-0.22505495605468748,-0.5817910034179687,-8.971073620605468,-4.442748091603053,-0.3435114503816794,-3.145038167938931
5270107744238,12.109469787,3,-0.23104046020507812,-0.5410895751953124,-8.989030133056641,-4.427480916030534,-0.3511450381679389,-3.114503816793893
5270127811633,12.129537182,3,-0.17956512451171874,-0.5039794494628906,-8.953117108154297,-4.396946564885496,-0.3053435114503817,-3.114503816793893
5270147755071,12.14948062,3,-0.21906945190429686,-0.5566518859863281,-8.93755479736328,-4.366412213740458,-0.2900763358778626,-3.1374045801526718
5270167781060,12.169506609,3,-0.19033903198242186,-0.5758054992675781,-8.912415679931641,-4.458015267175573,-0.31297709923664124,-3.1755725190839694
5270187742727,12.189468276,3,-0.15083470458984374,-0.5674257934570313,-8.921992486572265,-4.366412213740458,-0.3053435114503817,-3.183206106870229
5270207735852,12.209461401,3,-0.20829554443359374,-0.51714755859375,-9.024943157958983,-4.435114503816794,-0.2366412213740458,-3.198473282442748
5270227787988,12.229513537,3,-0.1879448303222656,-0.5291185668945312,-8.89924757080078,-4.404580152671755,-0.3282442748091603,-3.183206106870229
5270247773092,12.249498641,3,-0.1879448303222656,-0.5614402893066406,-8.930372192382812,-4.404580152671755,-0.2595419847328244,-3.1297709923664123
5270267754862,12.269480411,3,-0.19393033447265623,-0.5578489868164063,-8.96987651977539,-4.465648854961832,-0.2748091603053435,-3.16793893129771
5270287727519,12.289453068,3,-0.1484405029296875,-0.5638344909667968,-8.971073620605468,-4.473282442748092,-0.31297709923664124,-3.1374045801526718
5270307743769,12.309469318,3,-0.19871873779296872,-0.5602431884765625,-8.936357696533202,-4.442748091603053,-0.3053435114503817,-3.1603053435114505
5270327738769,12.329464318,3,-0.17477672119140625,-0.5027823486328125,-8.93875189819336,-4.450381679389313,-0.33587786259541985,-3.1526717557251906
5270347751581,12.34947713,3,-0.13646949462890623,-0.5410895751953124,-8.917204083251953,-4.3893129770992365,-0.3282442748091603,-3.122137404580153
5270367745123,12.369470672,3,-0.22505495605468748,-0.4800374328613281,-8.889670764160156,-4.458015267175573,-0.29770992366412213,-3.198473282442748
5270387748196,12.389473745,3,-0.18315642700195311,-0.5363011718749999,-8.870517150878905,-4.458015267175573,-0.2900763358778626,-3.1297709923664123
5270407746373,12.409471922,3,-0.2166752502441406,-0.5398924743652344,-8.96987651977539,-4.351145038167939,-0.33587786259541985,-3.1297709923664123
5270427757883,12.429483432,3,-0.17238251953125,-0.5734112976074218,-8.896853369140624,-4.450381679389313,-0.29770992366412213,-3.145038167938931
5270447744498,12.449470047,3,-0.19512743530273435,-0.5087678527832031,-8.932766394042968,-4.427480916030534,-0.2824427480916031,-3.114503816793893
5270467751269,12.469476818,3,-0.19153613281249998,-0.5674257934570313,-9.023746057128905,-4.374045801526718,-0.29770992366412213,-3.114503816793893
5270487752154,12.489477703,3,-0.18315642700195311,-0.5758054992675781,-8.865728747558594,-4.435114503816794,-0.24427480916030533,-3.1603053435114505
5270507748925,12.509474474,3,-0.23822306518554687,-0.5351040710449219,-8.953117108154297,-4.427480916030534,-0.25190839694656486,-3.122137404580153
5270527732623,12.529458172,3,-0.19512743530273435,-0.5530605834960938,-8.911218579101561,-4.458015267175573,-0.32061068702290074,-3.145038167938931
5270547734081,12.54945963,3,-0.16280571289062498,-0.5662286926269531,-8.951920007324219,-4.427480916030534,-0.32061068702290074,-3.1755725190839694
5270567735019,12.569460568,3,-0.24660277099609373,-0.5422866760253906,-8.932766394042968,-4.458015267175573,-0.2748091603053435,-3.2061068702290076
5270587684810,12.589410359,3,-0.16280571289062498,-0.5099649536132812,-8.999804040527343,-4.3893129770992365,-0.32061068702290074,-3.16793893129771
5270607731373,12.609456922,3,-0.2262520568847656,-0.5542576843261718,-8.965088116455078,-4.419847328244275,-0.2900763358778626,-3.2213740458015265
5270627737050,12.629462599,3,-0.20231004028320312,-0.5303156677246094,-8.93156929321289,-4.450381679389313,-0.32061068702290074,-3.145038167938931
5270647730227,12.649455776,3,-0.2442085693359375,-0.5746083984375,-8.930372192382812,-4.450381679389313,-0.2900763358778626,-3.145038167938931
5270667758873,12.669484422,3,-0.23104046020507812,-0.5363011718749999,-8.908824377441405,-4.465648854961832,-0.3282442748091603,-3.1603053435114505
5270687728769,12.689454318,3,-0.1927332336425781,-0.5422866760253906,-9.009380847167968,-4.412213740458015,-0.3053435114503817,-3.1603053435114505
5270707747362,12.709472911,3,-0.21308394775390624,-0.5267243652343749,-8.9255837890625,-4.427480916030534,-0.2824427480916031,-3.183206106870229
5270727752935,12.729478484,3,-0.23104046020507812,-0.4908113403320312,-8.973467822265624,-4.435114503816794,-0.31297709923664124,-3.16793893129771
5270747745487,12.749471036,3,-0.18914193115234373,-0.5590460876464843,-8.88607946166992,-4.488549618320611,-0.29770992366412213,-3.2213740458015265
5270767745852,12.769471401,3,-0.1927332336425781,-0.5626373901367188,-8.86812294921875,-4.396946564885496,-0.2900763358778626,-3.1908396946564888
5270787759706,12.789485255,3,-0.19871873779296872,-0.5566518859863281,-8.916006982421875,-4.419847328244275,-0.32061068702290074,-3.145038167938931
5270807759133,12.809484682,3,-0.2154781494140625,-0.5506663818359374,-8.95670841064453,-4.358778625954199,-0.2748091603053435,-3.1297709923664123
5270827762935,12.829488484,3,-0.18914193115234373,-0.5494692810058593,-8.955511309814453,-4.419847328244275,-0.37404580152671757,-3.1297709923664123
5270847758612,12.849484161,3,-0.19871873779296872,-0.5363011718749999,-8.961496813964843,-4.480916030534351,-0.3282442748091603,-3.099236641221374
5270867753248,12.869478797,3,-0.1292868896484375,-0.5159504577636719,-8.959102612304687,-4.404580152671755,-0.29770992366412213,-3.114503816793893
5270887757623,12.889483172,3,-0.2645592834472656,-0.5458779785156249,-8.98304462890625,-4.442748091603053,-0.3053435114503817,-3.122137404580153
5270907703612,12.909429161,3,-0.1352723937988281,-0.51714755859375,-8.984241729736327,-4.473282442748092,-0.2900763358778626,-3.122137404580153
5270927755331,12.92948088,3,-0.23223756103515625,-0.5494692810058593,-8.927977990722656,-4.435114503816794,-0.25190839694656486,-3.122137404580153
5270947749237,12.949474786,3,-0.22266075439453123,-0.5530605834960938,-8.947131604003905,-4.404580152671755,-0.2824427480916031,-3.099236641221374
5270967757779,12.969483328,3,-0.20470424194335937,-0.5494692810058593,-8.957905511474609,-4.396946564885496,-0.2748091603053435,-3.1908396946564888
5270987772675,12.989498224,3,-0.19393033447265623,-0.5195417602539062,-8.929175091552734,-4.419847328244275,-0.2900763358778626,-3.114503816793893
5271007753143,13.009478692,3,-0.19393033447265623,-0.5422866760253906,-8.96269391479492,-4.427480916030534,-0.2900763358778626,-3.1374045801526718
5271027749029,13.029474578,3,-0.24061726684570311,-0.5506663818359374,-8.905233074951171,-4.3816793893129775,-0.22900763358778625,-3.1603053435114505
5271047757727,13.049483276,3,-0.19991583862304688,-0.5410895751953124,-8.939948999023438,-4.412213740458015,-0.2900763358778626,-3.1374045801526718
5271067712987,13.069438536,3,-0.1879448303222656,-0.6272808349609375,-8.972270721435546,-4.442748091603053,-0.31297709923664124,-3.145038167938931
5271087753560,13.089479109,3,-0.2693476867675781,-0.5434837768554687,-8.98304462890625,-4.488549618320611,-0.26717557251908397,-3.1297709923664123
5271107766737,13.109492286,3,-0.1927332336425781,-0.5734112976074218,-9.011775048828124,-4.419847328244275,-0.29770992366412213,-3.16793893129771
5271127746268,13.129471817,3,-0.22864625854492185,-0.55545478515625,-8.966285217285156,-4.442748091603053,-0.3282442748091603,-3.1068702290076335
5271147785487,13.149511036,3,-0.17956512451171874,-0.5638344909667968,-8.93875189819336,-4.450381679389313,-0.35877862595419846,-3.16793893129771
5271167749914,13.169475463,3,-0.21428104858398436,-0.5746083984375,-8.917204083251953,-4.465648854961832,-0.32061068702290074,-3.198473282442748
5271187749341,13.18947489,3,-0.24181436767578124,-0.565031591796875,-8.97705912475586,-4.458015267175573,-0.33587786259541985,-3.145038167938931
5271207758716,13.209484265,3,-0.19512743530273435,-0.5386953735351562,-8.91840118408203,-4.450381679389313,-0.3511450381679389,-3.183206106870229
5271227762831,13.22948838,3,-0.17238251953125,-0.5566518859863281,-8.942343200683593,-4.419847328244275,-0.2748091603053435,-3.16793893129771
5271247800800,13.249526349,3,-0.20949264526367187,-0.5410895751953124,-8.908824377441405,-4.404580152671755,-0.31297709923664124,-3.1374045801526718
5271267762102,13.269487651,3,-0.2059013427734375,-0.5506663818359374,-8.905233074951171,-4.404580152671755,-0.29770992366412213,-3.145038167938931
5271287762362,13.289487911,3,-0.2262520568847656,-0.5267243652343749,-9.014169250488282,-4.3816793893129775,-0.2595419847328244,-3.1374045801526718
5271307786581,13.30951213,3,-0.24061726684570311,-0.49679684448242184,-8.912415679931641,-4.442748091603053,-0.29770992366412213,-3.1374045801526718
5271327753612,13.329479161,3,-0.20949264526367187,-0.5231330627441406,-8.990227233886719,-4.419847328244275,-0.26717557251908397,-3.114503816793893
5271347841893,13.349567442,3,-0.19871873779296872,-0.5865794067382812,-8.967482318115234,-4.427480916030534,-0.2824427480916031,-3.1908396946564888
5271367764550,13.369490099,3,-0.1640028137207031,-0.5781997009277343,-8.894459167480468,-4.404580152671755,-0.2900763358778626,-3.1297709923664123
5271387693925,13.389419474,3,-0.1975216369628906,-0.5518634826660156,-8.892064965820312,-4.435114503816794,-0.3053435114503817,-3.1374045801526718
5271407754758,13.409480307,3,-0.20709844360351562,-0.5542576843261718,-8.98304462890625,-4.396946564885496,-0.29770992366412213,-3.145038167938931
5271427748820,13.429474369,3,-0.19153613281249998,-0.5159504577636719,-8.972270721435546,-4.412213740458015,-0.29770992366412213,-3.1068702290076335
5271447751841,13.44947739,3,-0.2059013427734375,-0.5410895751953124,-8.975862023925782,-4.404580152671755,-0.22137404580152673,-3.099236641221374
5271467822831,13.46954838,3,-0.22864625854492185,-0.5279214660644531,-8.954314208984375,-4.412213740458015,-0.3053435114503817,-3.145038167938931
5271487754341,13.48947989,3,-0.239420166015625,-0.5135562561035156,-8.945934503173827,-4.458015267175573,-0.2748091603053435,-3.1908396946564888
5271507737831,13.50946338,3,-0.1867477294921875,-0.5135562561035156,-8.955511309814453,-4.465648854961832,-0.31297709923664124,-3.1526717557251906
5271527773768,13.529499317,3,-0.17956512451171874,-0.5410895751953124,-8.917204083251953,-4.465648854961832,-0.3053435114503817,-3.145038167938931
5271547757206,13.549482755,3,-0.2059013427734375,-0.5087678527832031,-8.920795385742187,-4.358778625954199,-0.2748091603053435,-3.1755725190839694
5271567801633,13.569527182,3,-0.1640028137207031,-0.5781997009277343,-8.949525805664061,-4.450381679389313,-0.3282442748091603,-3.114503816793893
5271587747779,13.589473328,3,-0.17836802368164062,-0.507570751953125,-8.913612780761719,-4.465648854961832,-0.2748091603053435,-3.1603053435114505
5271607739237,13.609464786,3,-0.22266075439453123,-0.5099649536132812,-8.905233074951171,-4.435114503816794,-0.2900763358778626,-3.1526717557251906
5271627761945,13.629487494,3,-0.18315642700195311,-0.5386953735351562,-8.89326206665039,-4.450381679389313,-0.31297709923664124,-3.1297709923664123
5271647761893,13.649487442,3,-0.201112939453125,-0.5303156677246094,-8.921992486572265,-4.412213740458015,-0.2900763358778626,-3.1603053435114505
5271667804081,13.66952963,3,-0.17597382202148437,-0.5351040710449219,-8.904035974121093,-4.404580152671755,-0.2824427480916031,-3.183206106870229
5271687766997,13.689492546,3,-0.21428104858398436,-0.5578489868164063,-8.973467822265624,-4.458015267175573,-0.31297709923664124,-3.16793893129771
5271707753508,13.709479057,3,-0.229843359375,-0.5398924743652344,-8.986635931396483,-4.473282442748092,-0.29770992366412213,-3.099236641221374
5271727749185,13.729474734,3,-0.24061726684570311,-0.5434837768554687,-8.973467822265624,-4.465648854961832,-0.2824427480916031,-3.1603053435114505
5271747751789,13.749477338,3,-0.21188684692382811,-0.5123591552734374,-8.959102612304687,-4.488549618320611,-0.32061068702290074,-3.1603053435114505
5271767823039,13.769548588,3,-0.23702596435546874,-0.5303156677246094,-8.877699755859375,-4.435114503816794,-0.3053435114503817,-3.0916030534351147
5271787746789,13.789472338,3,-0.21428104858398436,-0.5578489868164063,-8.936357696533202,-4.358778625954199,-0.2748091603053435,-3.1068702290076335
5271807756268,13.809481817,3,-0.17357962036132812,-0.5363011718749999,-8.950722906494141,-4.427480916030534,-0.31297709923664124,-3.1526717557251906
5271827752518,13.829478067,3,-0.22864625854492185,-0.5386953735351562,-8.939948999023438,-4.435114503816794,-0.26717557251908397,-3.0916030534351147
5271847751685,13.849477234,3,-0.2214636535644531,-0.5039794494628906,-8.954314208984375,-4.412213740458015,-0.2748091603053435,-3.1297709923664123
5271867759341,13.86948489,3,-0.19512743530273435,-0.5219359619140624,-8.971073620605468,-4.427480916030534,-0.3053435114503817,-3.1603053435114505
5271887745799,13.889471348,3,-0.20350714111328125,-0.55545478515625,-8.945934503173827,-4.435114503816794,-0.3282442748091603,-3.1603053435114505
5271907760070,13.909485619,3,-0.20231004028320312,-0.5015852478027344,-8.953117108154297,-4.450381679389313,-0.2748091603053435,-3.198473282442748
5271927776372,13.929501921,3,-0.1975216369628906,-0.507570751953125,-8.929175091552734,-4.427480916030534,-0.25190839694656486,-3.198473282442748
5271947763247,13.949488796,3,-0.16519991455078123,-0.5339069702148437,-9.00100114135742,-4.404580152671755,-0.3053435114503817,-3.145038167938931
5271967768820,13.969494369,3,-0.17477672119140625,-0.5255272644042969,-8.916006982421875,-4.427480916030534,-0.3282442748091603,-3.1755725190839694
5271987748247,13.989473796,3,-0.18435352783203124,-0.5638344909667968,-8.980650427246093,-4.450381679389313,-0.29770992366412213,-3.16793893129771
5272007906164,14.009631713,3,-0.18076222534179687,-0.5602431884765625,-8.942343200683593,-4.412213740458015,-0.26717557251908397,-3.1374045801526718
5272027900018,14.029625567,3,-0.23582886352539062,-0.5351040710449219,-9.018957653808593,-4.412213740458015,-0.3053435114503817,-3.1068702290076335
5272047799081,14.04952463,3,-0.239420166015625,-0.5315127685546874,-8.957905511474609,-4.458015267175573,-0.3282442748091603,-3.1755725190839694
5272067802153,14.069527702,3,-0.19033903198242186,-0.5698199951171875,-8.985438830566405,-4.5038167938931295,-0.32061068702290074,-3.122137404580153
5272087760018,14.089485567,3,-0.23223756103515625,-0.5542576843261718,-8.953117108154297,-4.450381679389313,-0.3435114503816794,-3.1526717557251906
5272107789862,14.109515411,3,-0.24899697265624998,-0.5279214660644531,-9.012972149658202,-4.442748091603053,-0.2824427480916031,-3.1603053435114505
5272127843664,14.129569213,3,-0.20350714111328125,-0.5602431884765625,-8.972270721435546,-4.442748091603053,-0.2748091603053435,-3.16793893129771
5272147809028,14.149534577,3,-0.24301146850585936,-0.5410895751953124,-8.973467822265624,-4.450381679389313,-0.33587786259541985,-3.145038167938931
5272167778664,14.169504213,3,-0.17956512451171874,-0.5339069702148437,-8.945934503173827,-4.374045801526718,-0.31297709923664124,-3.183206106870229
5272187775122,14.189500671,3,-0.20949264526367187,-0.5530605834960938,-8.926780889892578,-4.435114503816794,-0.3053435114503817,-3.1526717557251906
5272207759653,14.209485202,3,-0.23343466186523437,-0.5770026000976562,-9.009380847167968,-4.458015267175573,-0.3053435114503817,-3.122137404580153
5272227828820,14.229554369,3,-0.20709844360351562,-0.5219359619140624,-8.90044467163086,-4.442748091603053,-0.31297709923664124,-3.1908396946564888
5272247778351,14.2495039,3,-0.1771709228515625,-0.5363011718749999,-9.00818374633789,-4.412213740458015,-0.2748091603053435,-3.1603053435114505
5272267764653,14.269490202,3,-0.23582886352539062,-0.5386953735351562,-8.996212738037109,-4.427480916030534,-0.29770992366412213,-3.1603053435114505
5272287759237,14.289484786,3,-0.22385785522460935,-0.4800374328613281,-8.93875189819336,-4.404580152671755,-0.2748091603053435,-3.183206106870229
5272307752466,14.309478015,3,-0.24061726684570311,-0.5530605834960938,-8.926780889892578,-4.465648854961832,-0.31297709923664124,-3.1374045801526718
5272327759653,14.329485202,3,-0.20350714111328125,-0.5734112976074218,-8.975862023925782,-4.4961832061068705,-0.35877862595419846,-3.1068702290076335
5272347750903,14.349476452,3,-0.23104046020507812,-0.5386953735351562,-8.957905511474609,-4.427480916030534,-0.2824427480916031,-3.2213740458015265
5272367809133,14.369534682,3,-0.18076222534179687,-0.5602431884765625,-9.017760552978515,-4.442748091603053,-0.2748091603053435,-3.1755725190839694
5272387732935,14.389458484,3,-0.239420166015625,-0.5374982727050781,-8.907627276611327,-4.458015267175573,-0.33587786259541985,-3.1526717557251906
5272407762153,14.409487702,3,-0.18435352783203124,-0.5315127685546874,-8.954314208984375,-4.419847328244275,-0.29770992366412213,-3.183206106870229
5272427777049,14.429502598,3,-0.17477672119140625,-0.5303156677246094,-8.926780889892578,-4.473282442748092,-0.3511450381679389,-3.2061068702290076
5272447770539,14.449496088,3,-0.16879121704101563,-0.5123591552734374,-8.919598284912109,-4.435114503816794,-0.2900763358778626,-3.183206106870229
5272467815122,14.469540671,3,-0.19871873779296872,-0.5805939025878906,-8.963891015625,-4.412213740458015,-0.3053435114503817,-3.145038167938931
5272487773768,14.489499317,3,-0.1592144104003906,-0.5566518859863281,-8.948328704833983,-4.351145038167939,-0.2900763358778626,-3.145038167938931
5272507766320,14.509491869,3,-0.22385785522460935,-0.5410895751953124,-9.011775048828124,-4.450381679389313,-0.3053435114503817,-3.1755725190839694
5272527747830,14.529473379,3,-0.2346317626953125,-0.5638344909667968,-8.914809881591797,-4.396946564885496,-0.32061068702290074,-3.0916030534351147
5272547745695,14.549471244,3,-0.19512743530273435,-0.5901707092285156,-8.955511309814453,-4.442748091603053,-0.29770992366412213,-3.1297709923664123
5272567763768,14.569489317,3,-0.1867477294921875,-0.5494692810058593,-8.902838873291016,-4.404580152671755,-0.3053435114503817,-3.122137404580153
5272587773820,14.589499369,3,-0.20350714111328125,-0.5231330627441406,-8.94473740234375,-4.458015267175573,-0.35877862595419846,-3.122137404580153
5272607771216,14.609496765,3,-0.17836802368164062,-0.5422866760253906,-8.920795385742187,-4.435114503816794,-0.3053435114503817,-3.213740458015267
5272627769080,14.629494629,3,-0.2262520568847656,-0.5781997009277343,-8.971073620605468,-4.435114503816794,-0.366412213740458,-3.1755725190839694
5272647790799,14.649516348,3,-0.21906945190429686,-0.55545478515625,-8.950722906494141,-4.412213740458015,-0.32061068702290074,-3.145038167938931
5272667762934,14.669488483,3,-0.13766659545898435,-0.5578489868164063,-8.984241729736327,-4.3893129770992365,-0.3053435114503817,-3.1374045801526718
5272687757830,14.689483379,3,-0.24061726684570311,-0.5638344909667968,-8.96987651977539,-4.458015267175573,-0.2900763358778626,-3.1526717557251906
5272707752309,14.709477858,3,-0.21068974609375,-0.4740519287109375,-8.913612780761719,-4.442748091603053,-0.2748091603053435,-3.122137404580153
5272727764237,14.729489786,3,-0.1867477294921875,-0.5698199951171875,-9.014169250488282,-4.435114503816794,-0.31297709923664124,-3.1297709923664123
5272747770278,14.749495827,3,-0.15442600708007811,-0.5398924743652344,-8.87410845336914,-4.404580152671755,-0.24427480916030533,-3.145038167938931
5272767751893,14.769477442,3,-0.2154781494140625,-0.5422866760253906,-8.963891015625,-4.419847328244275,-0.3282442748091603,-3.1603053435114505
5272787756528,14.789482077,3,-0.22266075439453123,-0.5710170959472656,-8.95670841064453,-4.404580152671755,-0.3282442748091603,-3.145038167938931
5272807757101,14.80948265,3,-0.21068974609375,-0.5770026000976562,-8.883685260009765,-4.435114503816794,-0.32061068702290074,-3.122137404580153
5272827749966,14.829475515,3,-0.18076222534179687,-0.5111620544433594,-8.90643017578125,-4.419847328244275,-0.29770992366412213,-3.145038167938931
5272847755539,14.849481088,3,-0.20231004028320312,-0.5853823059082031,-8.974664923095702,-4.3816793893129775,-0.3511450381679389,-3.1908396946564888
5272867749653,14.869475202,3,-0.1867477294921875,-0.5183446594238281,-8.971073620605468,-4.374045801526718,-0.2595419847328244,-3.16793893129771
5272887767466,14.889493015,3,-0.19393033447265623,-0.5614402893066406,-8.974664923095702,-4.3816793893129775,-0.31297709923664124,-3.16793893129771
5272907779549,14.909505098,3,-0.19033903198242186,-0.5578489868164063,-8.853757739257812,-4.419847328244275,-0.32061068702290074,-3.1297709923664123
5272927733820,14.929459369,3,-0.22266075439453123,-0.584185205078125,-8.939948999023438,-4.3816793893129775,-0.2824427480916031,-3.16793893129771
5272947754236,14.949479785,3,-0.1975216369628906,-0.5494692810058593,-8.945934503173827,-4.435114503816794,-0.26717557251908397,-3.114503816793893
5272967752570,14.969478119,3,-0.19033903198242186,-0.5195417602539062,-9.003395343017578,-4.465648854961832,-0.2748091603053435,-3.1297709923664123
5272987752986,14.989478535,3,-0.21188684692382811,-0.5267243652343749,-9.010577947998046,-4.465648854961832,-0.3893129770992366,-3.183206106870229
5273007743455,15.009469004,3,-0.22385785522460935,-0.6105214233398437,-8.968679418945312,-4.396946564885496,-0.2900763358778626,-3.1755725190839694
5273027738247,15.029463796,3,-0.19033903198242186,-0.5482721801757812,-8.979453326416015,-4.458015267175573,-0.2595419847328244,-3.145038167938931
5273047755434,15.049480983,3,-0.21428104858398436,-0.4704606262207031,-8.926780889892578,-4.396946564885496,-0.2900763358778626,-3.16793893129771
5273067758455,15.069484004,3,-0.19871873779296872,-0.5398924743652344,-8.974664923095702,-4.435114503816794,-0.2595419847328244,-3.099236641221374
5273087739497,15.089465046,3,-0.20470424194335937,-0.5566518859863281,-8.986635931396483,-4.412213740458015,-0.2748091603053435,-3.145038167938931
5273107740070,15.109465619,3,-0.16639701538085935,-0.5566518859863281,-8.865728747558594,-4.419847328244275,-0.3053435114503817,-3.1526717557251906
5273127772309,15.129497858,3,-0.2346317626953125,-0.5363011718749999,-8.846575134277343,-4.412213740458015,-0.3511450381679389,-3.1603053435114505
5273147705382,15.149430931,3,-0.16160861206054686,-0.5267243652343749,-8.945934503173827,-4.419847328244275,-0.31297709923664124,-3.1603053435114505
5273167762986,15.169488535,3,-0.2059013427734375,-0.5231330627441406,-8.948328704833983,-4.450381679389313,-0.3435114503816794,-3.145038167938931
