timestamp_ns,t_s,sensor_id,ax,ay,az,gx,gy,gz
5258182300388,0.184025937,1,0.19393033447265623,1.715445489501953,-11.136629022216797,-0.816793893129771,0.6030534351145038,-1.3206106870229009
5258202262680,0.203988229,1,0.22385785522460935,1.7166425903320313,-11.257536206054686,-0.8244274809160306,0.549618320610687,-1.3129770992366412
5258222249867,0.223975416,1,0.2262520568847656,1.7513585144042967,-11.166556542968749,-0.8015267175572519,0.5877862595419847,-1.3358778625954197
5258242252940,0.243978489,1,0.20709844360351562,1.7489643127441405,-11.180921752929686,-0.816793893129771,0.5877862595419847,-1.2900763358778626
5258262251221,0.26397677,1,0.22744915771484372,1.6807295654296874,-11.196484063720703,-0.7938931297709924,0.6183206106870229,-1.3129770992366412
5258282251742,0.283977291,1,0.25139117431640623,1.715445489501953,-11.258733306884764,-0.8015267175572519,0.5801526717557252,-1.3282442748091603
5258302249242,0.303974791,1,0.2214636535644531,1.7178396911621092,-11.192892761230468,-0.7480916030534351,0.4961832061068702,-1.381679389312977
5258322251898,0.323977447,1,0.201112939453125,1.7453730102539062,-11.158176837158203,-0.8015267175572519,0.6106870229007634,-1.3435114503816794
5258342250961,0.34397651,1,0.2154781494140625,1.7369933044433592,-11.071985577392578,-0.8091603053435115,0.5648854961832062,-1.3358778625954197
5258362251846,0.363977395,1,0.25737667846679685,1.763329522705078,-11.189301458740234,-0.8396946564885496,0.5954198473282443,-1.3053435114503817
5258382251325,0.383976874,1,0.1975216369628906,1.7477672119140624,-11.215637677001952,-0.8015267175572519,0.5419847328244275,-1.3206106870229009
5258402251169,0.403976718,1,0.20829554443359374,1.70467158203125,-11.177330450439452,-0.8244274809160306,0.6030534351145038,-1.3053435114503817
5258422250232,0.423975781,1,0.2346317626953125,1.7621324218749999,-11.164162341308593,-0.8091603053435115,0.5801526717557252,-1.3435114503816794
5258442251117,0.443976666,1,0.18076222534179687,1.7298106994628906,-11.129446417236327,-0.8396946564885496,0.5877862595419847,-1.297709923664122
5258462251013,0.463976562,1,0.21787235107421873,1.68551796875,-11.167753643798827,-0.816793893129771,0.5267175572519084,-1.3129770992366412
5258482251482,0.483977031,1,0.20709844360351562,1.7573440185546874,-11.162965240478515,-0.7938931297709924,0.5877862595419847,-1.3358778625954197
5258502251325,0.503976874,1,0.2537853759765625,1.7609353210449217,-11.19887826538086,-0.8320610687022901,0.5877862595419847,-1.3511450381679388
5258522253617,0.523979166,1,0.2166752502441406,1.7597382202148437,-11.16057103881836,-0.8244274809160306,0.5572519083969466,-1.3511450381679388
5258542251169,0.543976718,1,0.2861070983886719,1.7393875061035156,-11.173739147949219,-0.8549618320610687,0.5572519083969466,-1.366412213740458
5258562250752,0.563976301,1,0.181959326171875,1.7357962036132812,-11.183315954589844,-0.8549618320610687,0.5801526717557252,-1.3282442748091603
5258582252211,0.58397776,1,0.24061726684570311,1.715445489501953,-11.188104357910156,-0.816793893129771,0.5725190839694656,-1.3129770992366412
5258602250544,0.603976093,1,0.229843359375,1.7310078002929687,-11.215637677001952,-0.7786259541984732,0.5343511450381679,-1.3587786259541985
5258622250752,0.623976301,1,0.2214636535644531,1.7118541870117185,-11.184513055419922,-0.8091603053435115,0.5954198473282443,-1.3587786259541985
5258642251846,0.643977395,1,0.2262520568847656,1.7238251953125,-11.167753643798827,-0.8396946564885496,0.5648854961832062,-1.366412213740458
5258662249971,0.66397552,1,0.20709844360351562,1.6843208679199217,-11.231199987792968,-0.8244274809160306,0.6030534351145038,-1.3358778625954197
5258682250961,0.68397651,1,0.24660277099609373,1.7214309936523438,-11.177330450439452,-0.8549618320610687,0.6335877862595419,-1.3587786259541985
5258702251273,0.703976822,1,0.2501940734863281,1.7561469177246092,-11.208455072021483,-0.7862595419847328,0.5572519083969466,-1.3511450381679388
5258722251690,0.723977239,1,0.24181436767578124,1.7238251953125,-11.196484063720703,-0.8473282442748091,0.5343511450381679,-1.3511450381679388
5258742250700,0.743976249,1,0.22505495605468748,1.7573440185546874,-11.244368096923827,-0.8244274809160306,0.5648854961832062,-1.3435114503816794
5258762252263,0.763977812,1,0.18435352783203124,1.7082628845214842,-11.130643518066405,-0.8473282442748091,0.5954198473282443,-1.3358778625954197
5258782249971,0.78397552,1,0.229843359375,1.7453730102539062,-11.171344946289063,-0.7709923664122137,0.6335877862595419,-1.3358778625954197
5258802251846,0.803977395,1,0.22505495605468748,1.7549498168945312,-11.174936248779296,-0.7938931297709924,0.5572519083969466,-1.3129770992366412
5258822252627,0.823978176,1,0.2346317626953125,1.7561469177246092,-11.168950744628905,-0.7633587786259542,0.5801526717557252,-1.3511450381679388
5258842251846,0.843977395,1,0.22266075439453123,1.744175909423828,-11.21084927368164,-0.7938931297709924,0.5801526717557252,-1.3358778625954197
5258862251481,0.86397703,1,0.24301146850585936,1.7034744812011717,-11.141417425537108,-0.816793893129771,0.5954198473282443,-1.3129770992366412
5258882250388,0.883975937,1,0.23822306518554687,1.7274164978027342,-11.267113012695312,-0.8625954198473282,0.5801526717557252,-1.3206106870229009
5258902251065,0.903976614,1,0.23822306518554687,1.7262193969726563,-11.23718549194336,-0.8625954198473282,0.5267175572519084,-1.3129770992366412
5258922250492,0.923976041,1,0.20949264526367187,1.7034744812011717,-11.16057103881836,-0.8091603053435115,0.5801526717557252,-1.3129770992366412
5258942251169,0.943976718,1,0.1867477294921875,1.7561469177246092,-11.232397088623046,-0.8091603053435115,0.5725190839694656,-1.3511450381679388
5258962250127,0.963975676,1,0.2214636535644531,1.7477672119140624,-11.190498559570312,-0.8320610687022901,0.5343511450381679,-1.3435114503816794
5258982251117,0.983976666,1,0.21188684692382811,1.714248388671875,-11.192892761230468,-0.7786259541984732,0.5572519083969466,-1.3282442748091603
5259002253356,1.003978905,1,0.2166752502441406,1.696291876220703,-11.207257971191405,-0.7786259541984732,0.5877862595419847,-1.3206106870229009
5259022251794,1.023977343,1,0.258573779296875,1.7417817077636717,-11.234791290283203,-0.7786259541984732,0.5725190839694656,-1.3206106870229009
5259042251690,1.043977239,1,0.19512743530273435,1.7405846069335937,-11.165359442138671,-0.816793893129771,0.6183206106870229,-1.3053435114503817
5259062251377,1.063976926,1,0.24301146850585936,1.7381904052734374,-11.201272467041015,-0.7862595419847328,0.5648854961832062,-1.297709923664122
5259082253252,1.083978801,1,0.2825157958984375,1.7609353210449217,-11.232397088623046,-0.816793893129771,0.5648854961832062,-1.3358778625954197
5259102249554,1.103975103,1,0.21906945190429686,1.7501614135742187,-11.171344946289063,-0.8702290076335878,0.5419847328244275,-1.3206106870229009
5259122252210,1.123977759,1,0.17956512451171874,1.7681179260253905,-11.124658013916015,-0.8320610687022901,0.5190839694656488,-1.3282442748091603
5259142251065,1.143976614,1,0.23104046020507812,1.7585411193847655,-11.194089862060546,-0.8625954198473282,0.5572519083969466,-1.2748091603053435
5259162251742,1.163977291,1,0.20829554443359374,1.7226280944824217,-11.141417425537108,-0.8091603053435115,0.5877862595419847,-1.2671755725190839
5259182250231,1.18397578,1,0.22864625854492185,1.7226280944824217,-11.182118853759764,-0.8015267175572519,0.5572519083969466,-1.3206106870229009
5259202250440,1.203975989,1,0.229843359375,1.7501614135742187,-11.234791290283203,-0.8091603053435115,0.549618320610687,-1.3740458015267176
5259222250960,1.223976509,1,0.20949264526367187,1.7118541870117185,-11.137826123046874,-0.8778625954198473,0.5877862595419847,-1.3511450381679388
5259242249763,1.243975312,1,0.2166752502441406,1.7262193969726563,-11.184513055419922,-0.8015267175572519,0.6183206106870229,-1.3282442748091603
5259262252054,1.263977603,1,0.17597382202148437,1.7238251953125,-11.156979736328124,-0.816793893129771,0.5801526717557252,-1.3206106870229009
5259282251273,1.283976822,1,0.20350714111328125,1.7465701110839842,-11.195286962890624,-0.8015267175572519,0.5801526717557252,-1.297709923664122
5259302260700,1.303986249,1,0.25139117431640623,1.7417817077636717,-11.123460913085937,-0.8091603053435115,0.4961832061068702,-1.2748091603053435
5259322256221,1.32398177,1,0.23223756103515625,1.7465701110839842,-11.173739147949219,-0.7786259541984732,0.5648854961832062,-1.297709923664122
5259342255127,1.343980676,1,0.2597708801269531,1.68551796875,-11.161768139648437,-0.8091603053435115,0.5954198473282443,-1.3358778625954197
5259362252106,1.363977655,1,0.21068974609375,1.7357962036132812,-11.23000288696289,-0.7938931297709924,0.6030534351145038,-1.2900763358778626
5259382250335,1.383975884,1,0.23702596435546874,1.7010802795410156,-11.218031878662108,-0.816793893129771,0.5419847328244275,-1.3129770992366412
5259402251325,1.403976874,1,0.25139117431640623,1.7226280944824217,-11.238382592773437,-0.7938931297709924,0.5877862595419847,-1.3587786259541985
5259422250700,1.423976249,1,0.24779987182617186,1.725022296142578,-11.164162341308593,-0.7862595419847328,0.5954198473282443,-1.3358778625954197
5259442251794,1.443977343,1,0.24660277099609373,1.68551796875,-11.155782635498046,-0.7938931297709924,0.5343511450381679,-1.3511450381679388
5259462251221,1.46397677,1,0.23582886352539062,1.7525556152343749,-11.17254204711914,-0.8549618320610687,0.5343511450381679,-1.3435114503816794
5259482251846,1.483977395,1,0.17836802368164062,1.7381904052734374,-11.209652172851563,-0.816793893129771,0.5725190839694656,-1.3282442748091603
5259502252315,1.503977864,1,0.23104046020507812,1.7130512878417967,-11.19169566040039,-0.816793893129771,0.6030534351145038,-1.3282442748091603
5259522293981,1.52401953,1,0.2442085693359375,1.7776947326660155,-11.177330450439452,-0.8473282442748091,0.5725190839694656,-1.3206106870229009
5259542254242,1.543979791,1,0.21906945190429686,1.7585411193847655,-11.192892761230468,-0.8396946564885496,0.5725190839694656,-1.3129770992366412
5259562252575,1.563978124,1,0.23702596435546874,1.7310078002929687,-11.173739147949219,-0.8015267175572519,0.5648854961832062,-1.3435114503816794
5259582249502,1.583975051,1,0.2645592834472656,1.7573440185546874,-11.162965240478515,-0.8396946564885496,0.5572519083969466,-1.3587786259541985
5259602252575,1.603978124,1,0.24181436767578124,1.70467158203125,-11.139023223876952,-0.8320610687022901,0.5954198473282443,-1.3206106870229009
5259622251273,1.623976822,1,0.20829554443359374,1.7310078002929687,-11.23000288696289,-0.8015267175572519,0.5572519083969466,-1.282442748091603
5259642250648,1.643976197,1,0.24660277099609373,1.7130512878417967,-11.206060870361327,-0.7633587786259542,0.5419847328244275,-1.3129770992366412
5259662252054,1.663977603,1,0.23582886352539062,1.7561469177246092,-11.149797131347656,-0.7938931297709924,0.549618320610687,-1.3358778625954197
5259682251117,1.683976666,1,0.22385785522460935,1.7022773803710936,-11.26831011352539,-0.7938931297709924,0.5877862595419847,-1.3511450381679388
5259702250648,1.703976197,1,0.21906945190429686,1.7202338928222656,-11.150994232177734,-0.8473282442748091,0.5267175572519084,-1.3053435114503817
5259722251898,1.723977447,1,0.20231004028320312,1.70467158203125,-11.231199987792968,-0.8091603053435115,0.549618320610687,-1.3053435114503817
5259742251898,1.743977447,1,0.2561795776367187,1.7202338928222656,-11.173739147949219,-0.7862595419847328,0.549618320610687,-1.3358778625954197
5259762251481,1.76397703,1,0.21068974609375,1.7429788085937499,-11.08395658569336,-0.8396946564885496,0.5419847328244275,-1.3282442748091603
5259782251637,1.783977186,1,0.20949264526367187,1.7357962036132812,-11.196484063720703,-0.816793893129771,0.5572519083969466,-1.3587786259541985
5259802250960,1.803976509,1,0.2346317626953125,1.7286135986328124,-11.118672509765624,-0.8320610687022901,0.5877862595419847,-1.3740458015267176
5259822252106,1.823977655,1,0.22026655273437498,1.7753005310058592,-11.156979736328124,-0.8396946564885496,0.5038167938931297,-1.3129770992366412
5259842251377,1.843976926,1,0.21787235107421873,1.7286135986328124,-11.19887826538086,-0.816793893129771,0.5190839694656488,-1.3358778625954197
5259862251585,1.863977134,1,0.2166752502441406,1.7753005310058592,-11.19169566040039,-0.8320610687022901,0.5725190839694656,-1.3587786259541985
5259882251585,1.883977134,1,0.27892449340820313,1.7513585144042967,-11.238382592773437,-0.7938931297709924,0.5419847328244275,-1.2290076335877862
5259902251741,1.90397729,1,0.17357962036132812,1.744175909423828,-11.219228979492186,-0.8091603053435115,0.5648854961832062,-1.3511450381679388
5259922250908,1.923976457,1,0.19512743530273435,1.7405846069335937,-11.13423482055664,-0.7938931297709924,0.5725190839694656,-1.3435114503816794
5259942250700,1.943976249,1,0.28012159423828126,1.7118541870117185,-11.155782635498046,-0.8015267175572519,0.5190839694656488,-1.3206106870229009
5259962251481,1.96397703,1,0.20350714111328125,1.6771382629394531,-11.209652172851563,-0.7938931297709924,0.549618320610687,-1.3893129770992367
5259982250335,1.983975884,1,0.24181436767578124,1.7226280944824217,-11.173739147949219,-0.8244274809160306,0.5190839694656488,-1.3435114503816794
5260002253043,2.003978592,1,0.2346317626953125,1.7693150268554687,-11.238382592773437,-0.8244274809160306,0.5725190839694656,-1.3053435114503817
5260022256273,2.023981822,1,0.258573779296875,1.7621324218749999,-11.202469567871093,-0.8854961832061069,0.5801526717557252,-1.2900763358778626
5260042253408,2.043978957,1,0.2645592834472656,1.7262193969726563,-11.177330450439452,-0.8015267175572519,0.549618320610687,-1.3053435114503817
5260062252627,2.063978176,1,0.2346317626953125,1.7310078002929687,-11.225214483642578,-0.8244274809160306,0.5801526717557252,-1.3129770992366412
5260082253877,2.083979426,1,0.2059013427734375,1.6986860778808592,-11.171344946289063,-0.8473282442748091,0.5801526717557252,-1.3511450381679388
5260102252106,2.103977655,1,0.23702596435546874,1.7106570861816406,-11.192892761230468,-0.816793893129771,0.549618320610687,-1.297709923664122
5260122254293,2.123979842,1,0.258573779296875,1.7573440185546874,-11.162965240478515,-0.7938931297709924,0.5725190839694656,-1.297709923664122
5260142253200,2.143978749,1,0.229843359375,1.7262193969726563,-11.112687005615234,-0.8320610687022901,0.549618320610687,-1.3282442748091603
5260162252262,2.163977811,1,0.22266075439453123,1.7657237243652342,-11.189301458740234,-0.8396946564885496,0.5648854961832062,-1.2900763358778626
5260182259293,2.183984842,1,0.20350714111328125,1.7322049011230467,-11.195286962890624,-0.8320610687022901,0.5038167938931297,-1.3435114503816794
5260202253304,2.203978853,1,0.22505495605468748,1.7202338928222656,-11.141417425537108,-0.816793893129771,0.6259541984732825,-1.3587786259541985
5260222250595,2.223976144,1,0.24061726684570311,1.7322049011230467,-11.171344946289063,-0.8396946564885496,0.5038167938931297,-1.3053435114503817
5260242252366,2.243977915,1,0.23104046020507812,1.7609353210449217,-11.1474029296875,-0.7938931297709924,0.5877862595419847,-1.3053435114503817
5260262254918,2.263980467,1,0.21428104858398436,1.725022296142578,-11.243170996093749,-0.8549618320610687,0.5877862595419847,-1.3358778625954197
5260282251793,2.283977342,1,0.2166752502441406,1.7513585144042967,-11.179724652099608,-0.8091603053435115,0.549618320610687,-1.3206106870229009
5260302251168,2.303976717,1,0.1771709228515625,1.7836802368164062,-11.164162341308593,-0.816793893129771,0.5648854961832062,-1.3358778625954197
5260322251116,2.323976665,1,0.1867477294921875,1.7501614135742187,-11.110292803955078,-0.8320610687022901,0.5419847328244275,-1.3129770992366412
5260342251064,2.343976613,1,0.23343466186523437,1.7609353210449217,-11.189301458740234,-0.8320610687022901,0.6030534351145038,-1.3053435114503817
5260362251741,2.36397729,1,0.229843359375,1.7525556152343749,-11.128249316406249,-0.8396946564885496,0.5572519083969466,-1.3358778625954197
5260382251793,2.383977342,1,0.17477672119140625,1.7369933044433592,-11.194089862060546,-0.7709923664122137,0.6106870229007634,-1.3358778625954197
5260402250127,2.403975676,1,0.201112939453125,1.7381904052734374,-11.11508120727539,-0.8320610687022901,0.5572519083969466,-1.3435114503816794
5260422250595,2.423976144,1,0.24181436767578124,1.763329522705078,-11.174936248779296,-0.8244274809160306,0.5572519083969466,-1.3129770992366412
5260442252158,2.443977707,1,0.23822306518554687,1.753752716064453,-11.202469567871093,-0.7633587786259542,0.5954198473282443,-1.297709923664122
5260462251429,2.463976978,1,0.20231004028320312,1.725022296142578,-11.188104357910156,-0.7786259541984732,0.5954198473282443,-1.3282442748091603
5260482250022,2.483975571,1,0.24779987182617186,1.7334020019531249,-11.2240173828125,-0.816793893129771,0.6030534351145038,-1.3206106870229009
5260502252366,2.503977915,1,0.16160861206054686,1.7010802795410156,-11.21683477783203,-0.7862595419847328,0.549618320610687,-1.3587786259541985
5260522250543,2.523976092,1,0.2693476867675781,1.7310078002929687,-11.173739147949219,-0.7633587786259542,0.5419847328244275,-1.3206106870229009
5260542251064,2.543976613,1,0.18315642700195311,1.7896657409667969,-11.239579693603515,-0.8091603053435115,0.5954198473282443,-1.3129770992366412
5260562251220,2.563976769,1,0.26336218261718747,1.734599102783203,-11.11508120727539,-0.8091603053435115,0.5114503816793893,-1.3053435114503817
5260582251689,2.583977238,1,0.2501940734863281,1.7381904052734374,-11.19169566040039,-0.8015267175572519,0.5343511450381679,-1.3053435114503817
5260602250647,2.603976196,1,0.2645592834472656,1.7417817077636717,-11.208455072021483,-0.8473282442748091,0.5877862595419847,-1.3282442748091603
5260622253408,2.623978957,1,0.23702596435546874,1.7573440185546874,-11.182118853759764,-0.8473282442748091,0.5648854961832062,-1.3206106870229009
5260642251897,2.643977446,1,0.24061726684570311,1.715445489501953,-11.158176837158203,-0.8091603053435115,0.5419847328244275,-1.3435114503816794
5260662250231,2.66397578,1,0.21906945190429686,1.678335363769531,-11.23718549194336,-0.8702290076335878,0.6259541984732825,-1.3358778625954197
5260682251689,2.683977238,1,0.2262520568847656,1.7310078002929687,-11.288660827636718,-0.816793893129771,0.549618320610687,-1.3740458015267176
5260702250387,2.703975936,1,0.22385785522460935,1.7369933044433592,-11.196484063720703,-0.8473282442748091,0.5801526717557252,-1.3282442748091603
5260722250179,2.723975728,1,0.2561795776367187,1.7166425903320313,-11.170147845458983,-0.8015267175572519,0.5801526717557252,-1.3206106870229009
5260742252366,2.743977915,1,0.28490999755859375,1.7681179260253905,-11.148600030517578,-0.816793893129771,0.5725190839694656,-1.2900763358778626
5260762251012,2.763976561,1,0.201112939453125,1.695094775390625,-11.21683477783203,-0.7633587786259542,0.5801526717557252,-1.282442748091603
5260782250908,2.783976457,1,0.24899697265624998,1.744175909423828,-11.222820281982422,-0.7786259541984732,0.5801526717557252,-1.3358778625954197
5260802251689,2.803977238,1,0.181959326171875,1.7190367919921874,-11.209652172851563,-0.816793893129771,0.5572519083969466,-1.297709923664122
5260822250595,2.823976144,1,0.23582886352539062,1.7178396911621092,-11.221623181152344,-0.7862595419847328,0.5801526717557252,-1.2900763358778626
5260842254658,2.843980207,1,0.23702596435546874,1.7286135986328124,-11.150994232177734,-0.8015267175572519,0.5190839694656488,-1.2748091603053435
5260862249658,2.863975207,1,0.24779987182617186,1.734599102783203,-11.152191333007812,-0.8244274809160306,0.5648854961832062,-1.3587786259541985
5260882253251,2.8839788,1,0.22505495605468748,1.7262193969726563,-11.133037719726563,-0.7709923664122137,0.5725190839694656,-1.3053435114503817
5260902250804,2.903976353,1,0.19512743530273435,1.734599102783203,-11.221623181152344,-0.8473282442748091,0.5114503816793893,-1.3358778625954197
5260922250908,2.923976457,1,0.25258827514648435,1.6998831787109374,-11.202469567871093,-0.8091603053435115,0.6183206106870229,-1.3435114503816794
5260942250856,2.943976405,1,0.22385785522460935,1.7357962036132812,-11.228805786132812,-0.9007633587786259,0.5801526717557252,-1.3206106870229009
5260962250751,2.9639763,1,0.22266075439453123,1.7645266235351562,-11.171344946289063,-0.8320610687022901,0.5725190839694656,-1.3511450381679388
5260982251689,2.983977238,1,0.26216508178710934,1.744175909423828,-11.17254204711914,-0.8473282442748091,0.5877862595419847,-1.3282442748091603
5261002251637,3.003977186,1,0.1975216369628906,1.7274164978027342,-11.21683477783203,-0.816793893129771,0.6106870229007634,-1.3129770992366412
5261022250387,3.023975936,1,0.25139117431640623,1.7513585144042967,-11.204863769531249,-0.8396946564885496,0.549618320610687,-1.3282442748091603
5261042252210,3.043977759,1,0.19871873779296872,1.6460136413574218,-11.200075366210937,-0.7786259541984732,0.5648854961832062,-1.3129770992366412
5261062252522,3.063978071,1,0.18555062866210936,1.7310078002929687,-11.152191333007812,-0.7862595419847328,0.5572519083969466,-1.3587786259541985
5261082250803,3.083976352,1,0.22505495605468748,1.714248388671875,-11.171344946289063,-0.8473282442748091,0.5725190839694656,-1.3282442748091603
5261102251845,3.103977394,1,0.28730419921875,1.7585411193847655,-11.166556542968749,-0.8091603053435115,0.5190839694656488,-1.297709923664122
5261122251637,3.123977186,1,0.20709844360351562,1.7597382202148437,-11.233594189453123,-0.8015267175572519,0.549618320610687,-1.3358778625954197
5261142251428,3.143976977,1,0.1388636962890625,1.7214309936523438,-11.109095703125,-0.816793893129771,0.5343511450381679,-1.3053435114503817
5261162252574,3.163978123,1,0.21068974609375,1.7298106994628906,-11.162965240478515,-0.8396946564885496,0.5725190839694656,-1.3511450381679388
5261182251116,3.183976665,1,0.20949264526367187,1.7585411193847655,-11.231199987792968,-0.7862595419847328,0.549618320610687,-1.3358778625954197
5261202251272,3.203976821,1,0.25258827514648435,1.7621324218749999,-11.197681164550781,-0.8396946564885496,0.5343511450381679,-1.3358778625954197
5261222254606,3.223980155,1,0.2346317626953125,1.7262193969726563,-11.158176837158203,-0.816793893129771,0.5877862595419847,-1.297709923664122
5261242254033,3.243979582,1,0.21188684692382811,1.7094599853515624,-11.226411584472656,-0.8244274809160306,0.5877862595419847,-1.3893129770992367
5261262251481,3.26397703,1,0.21068974609375,1.7286135986328124,-11.206060870361327,-0.8396946564885496,0.5572519083969466,-1.3053435114503817
5261282254189,3.283979738,1,0.16759411621093748,1.7118541870117185,-11.189301458740234,-0.8015267175572519,0.5572519083969466,-1.3358778625954197
5261302255803,3.303981352,1,0.2609679809570312,1.7561469177246092,-11.19887826538086,-0.7938931297709924,0.549618320610687,-1.3206106870229009
5261322253043,3.323978592,1,0.1867477294921875,1.7214309936523438,-11.21683477783203,-0.7862595419847328,0.5877862595419847,-1.3129770992366412
5261342252783,3.343978332,1,0.2154781494140625,1.6998831787109374,-11.137826123046874,-0.8244274809160306,0.5419847328244275,-1.3053435114503817
5261362253251,3.3639788,1,0.28012159423828126,1.7214309936523438,-11.158176837158203,-0.8320610687022901,0.5267175572519084,-1.3358778625954197
5261382252887,3.383978436,1,0.20470424194335937,1.7274164978027342,-11.174936248779296,-0.8091603053435115,0.6106870229007634,-1.3053435114503817
5261402252210,3.403977759,1,0.22026655273437498,1.7178396911621092,-11.146205828857422,-0.7862595419847328,0.5572519083969466,-1.3358778625954197
5261422251533,3.423977082,1,0.239420166015625,1.705868682861328,-11.127052215576171,-0.8549618320610687,0.5648854961832062,-1.3053435114503817
5261442250439,3.443975988,1,0.20709844360351562,1.7369933044433592,-11.189301458740234,-0.8320610687022901,0.5343511450381679,-1.3511450381679388
5261462251533,3.463977082,1,0.2346317626953125,1.792059942626953,-11.204863769531249,-0.7938931297709924,0.5877862595419847,-1.3129770992366412
5261482250803,3.483976352,1,0.18555062866210936,1.6927005737304686,-11.274295617675781,-0.8091603053435115,0.5725190839694656,-1.3282442748091603
5261502252158,3.503977707,1,0.23104046020507812,1.7034744812011717,-11.196484063720703,-0.816793893129771,0.5648854961832062,-1.297709923664122
5261522251689,3.523977238,1,0.20350714111328125,1.782483135986328,-11.150994232177734,-0.816793893129771,0.5419847328244275,-1.3129770992366412
5261542252262,3.543977811,1,0.2454056701660156,1.7286135986328124,-11.176133349609374,-0.8396946564885496,0.5954198473282443,-1.3206106870229009
5261562251220,3.563976769,1,0.23582886352539062,1.7034744812011717,-11.152191333007812,-0.8015267175572519,0.5572519083969466,-1.3053435114503817
5261582330387,3.584055936,1,0.1927332336425781,1.763329522705078,-11.174936248779296,-0.7862595419847328,0.5801526717557252,-1.3587786259541985
5261602267522,3.603993071,1,0.26216508178710934,1.7453730102539062,-11.12226381225586,-0.8015267175572519,0.5725190839694656,-1.3511450381679388
5261622268564,3.623994113,1,0.24181436767578124,1.7501614135742187,-11.158176837158203,-0.8244274809160306,0.5572519083969466,-1.3129770992366412
5261642268720,3.643994269,1,0.21428104858398436,1.7262193969726563,-11.218031878662108,-0.8396946564885496,0.6183206106870229,-1.3129770992366412
5261662267574,3.663993123,1,0.239420166015625,1.7525556152343749,-11.195286962890624,-0.8244274809160306,0.6106870229007634,-1.3587786259541985
5261682311012,3.684036561,1,0.25139117431640623,1.7214309936523438,-11.17254204711914,-0.8015267175572519,0.5419847328244275,-1.3358778625954197
5261702267522,3.703993071,1,0.24779987182617186,1.7489643127441405,-11.204863769531249,-0.8396946564885496,0.5572519083969466,-1.3053435114503817
5261722262470,3.723988019,1,0.22385785522460935,1.7609353210449217,-11.202469567871093,-0.8244274809160306,0.5648854961832062,-1.3511450381679388
5261742267991,3.74399354,1,0.1975216369628906,1.6903063720703124,-11.130643518066405,-0.8320610687022901,0.5725190839694656,-1.3206106870229009
5261762265022,3.763990571,1,0.24301146850585936,1.7202338928222656,-11.203666668701171,-0.7938931297709924,0.5343511450381679,-1.3587786259541985
5261782311949,3.784037498,1,0.1879448303222656,1.7513585144042967,-11.17254204711914,-0.8244274809160306,0.5572519083969466,-1.3129770992366412
5261802267991,3.80399354,1,0.19512743530273435,1.695094775390625,-11.192892761230468,-0.8320610687022901,0.5877862595419847,-1.2900763358778626
5261822267574,3.823993123,1,0.229843359375,1.7453730102539062,-11.21084927368164,-0.8244274809160306,0.5267175572519084,-1.3282442748091603
5261842268512,3.843994061,1,0.28371289672851563,1.7417817077636717,-11.204863769531249,-0.7709923664122137,0.5877862595419847,-1.3511450381679388
5261862268095,3.863993644,1,0.25737667846679685,1.7202338928222656,-11.148600030517578,-0.8091603053435115,0.6030534351145038,-1.3282442748091603
5261882268668,3.883994217,1,0.24660277099609373,1.7753005310058592,-11.141417425537108,-0.7862595419847328,0.5343511450381679,-1.3358778625954197
5261902269137,3.903994686,1,0.28371289672851563,1.7357962036132812,-11.192892761230468,-0.7709923664122137,0.6183206106870229,-1.3740458015267176
5261922266012,3.923991561,1,0.27293898925781246,1.7393875061035156,-11.145008728027342,-0.7786259541984732,0.5801526717557252,-1.3129770992366412
5261942267366,3.943992915,1,0.20470424194335937,1.714248388671875,-11.215637677001952,-0.816793893129771,0.5648854961832062,-1.3587786259541985
5261962266324,3.963991873,1,0.23104046020507812,1.7262193969726563,-11.184513055419922,-0.8702290076335878,0.5267175572519084,-1.366412213740458
5261982268564,3.983994113,1,0.21906945190429686,1.7525556152343749,-11.152191333007812,-0.8015267175572519,0.5954198473282443,-1.2900763358778626
5262002267782,4.003993331,1,0.21906945190429686,1.7094599853515624,-11.174936248779296,-0.8244274809160306,0.549618320610687,-1.2595419847328244
5262022266116,4.023991665,1,0.22385785522460935,1.7381904052734374,-11.220426080322264,-0.816793893129771,0.5572519083969466,-1.3282442748091603
5262042267678,4.043993227,1,0.21428104858398436,1.7501614135742187,-11.206060870361327,-0.8244274809160306,0.5419847328244275,-1.3282442748091603
5262062267834,4.063993383,1,0.20709844360351562,1.7298106994628906,-11.159373937988281,-0.8015267175572519,0.5801526717557252,-1.3435114503816794
5262082268616,4.083994165,1,0.23343466186523437,1.7082628845214842,-11.227608685302734,-0.8015267175572519,0.5343511450381679,-1.3358778625954197
5262102268720,4.103994269,1,0.21308394775390624,1.734599102783203,-11.21084927368164,-0.816793893129771,0.5801526717557252,-1.3206106870229009
5262122270334,4.123995883,1,0.21787235107421873,1.7381904052734374,-11.180921752929686,-0.816793893129771,0.5648854961832062,-1.3358778625954197
5262142264918,4.143990467,1,0.27174188842773433,1.7717092285156248,-11.213243475341796,-0.7862595419847328,0.5419847328244275,-1.3435114503816794
5262162267314,4.163992863,1,0.21308394775390624,1.7465701110839842,-11.24915650024414,-0.8244274809160306,0.5725190839694656,-1.366412213740458
5262182270386,4.183995935,1,0.20350714111328125,1.7609353210449217,-11.18571015625,-0.8473282442748091,0.5877862595419847,-1.3282442748091603
5262202268147,4.203993696,1,0.21906945190429686,1.7549498168945312,-11.208455072021483,-0.816793893129771,0.5725190839694656,-1.3358778625954197
5262222265855,4.223991404,1,0.2645592834472656,1.7417817077636717,-11.240776794433593,-0.7938931297709924,0.5038167938931297,-1.3206106870229009
5262242266897,4.243992446,1,0.26216508178710934,1.7178396911621092,-11.188104357910156,-0.7938931297709924,0.5877862595419847,-1.3206106870229009
5262262266793,4.263992342,1,0.19871873779296872,1.7010802795410156,-11.203666668701171,-0.8320610687022901,0.5572519083969466,-1.3206106870229009
5262282266741,4.28399229,1,0.2442085693359375,1.714248388671875,-11.259930407714844,-0.8320610687022901,0.5648854961832062,-1.3053435114503817
5262302267938,4.303993487,1,0.20231004028320312,1.7393875061035156,-11.149797131347656,-0.7938931297709924,0.5725190839694656,-1.3511450381679388
5262322267001,4.32399255,1,0.23582886352539062,1.7453730102539062,-11.168950744628905,-0.816793893129771,0.549618320610687,-1.3206106870229009
5262342265803,4.343991352,1,0.26336218261718747,1.7645266235351562,-11.161768139648437,-0.7862595419847328,0.549618320610687,-1.297709923664122
5262362267053,4.363992602,1,0.18435352783203124,1.7693150268554687,-11.168950744628905,-0.7709923664122137,0.6106870229007634,-1.3358778625954197
5262382267157,4.383992706,1,0.23223756103515625,1.7262193969726563,-11.159373937988281,-0.7862595419847328,0.5419847328244275,-1.2748091603053435
5262402267574,4.403993123,1,0.2597708801269531,1.7094599853515624,-11.2240173828125,-0.8244274809160306,0.48854961832061067,-1.3511450381679388
5262422268043,4.423993592,1,0.24779987182617186,1.7369933044433592,-11.201272467041015,-0.8244274809160306,0.5419847328244275,-1.3511450381679388
5262442267886,4.443993435,1,0.22864625854492185,1.70467158203125,-11.209652172851563,-0.8473282442748091,0.5572519083969466,-1.3206106870229009
5262462266428,4.463991977,1,0.19393033447265623,1.7286135986328124,-11.110292803955078,-0.816793893129771,0.5190839694656488,-1.297709923664122
5262482266532,4.483992081,1,0.20231004028320312,1.7202338928222656,-11.196484063720703,-0.7862595419847328,0.5954198473282443,-1.3435114503816794
5262502266949,4.503992498,1,0.23223756103515625,1.7369933044433592,-11.204863769531249,-0.8244274809160306,0.5877862595419847,-1.3053435114503817
5262522267365,4.523992914,1,0.2154781494140625,1.7166425903320313,-11.188104357910156,-0.8244274809160306,0.5648854961832062,-1.3129770992366412
5262542267470,4.543993019,1,0.1927332336425781,1.734599102783203,-11.109095703125,-0.8015267175572519,0.5725190839694656,-1.3053435114503817
5262562267261,4.56399281,1,0.28730419921875,1.7501614135742187,-11.189301458740234,-0.8091603053435115,0.5877862595419847,-1.297709923664122
5262582266897,4.583992446,1,0.24061726684570311,1.7489643127441405,-11.21683477783203,-0.8015267175572519,0.5801526717557252,-1.3053435114503817
5262602267313,4.603992862,1,0.24181436767578124,1.7465701110839842,-11.16057103881836,-0.7709923664122137,0.5801526717557252,-1.3206106870229009
5262622266272,4.623991821,1,0.19153613281249998,1.7202338928222656,-11.220426080322264,-0.8396946564885496,0.5419847328244275,-1.3282442748091603
5262642266845,4.643992394,1,0.26815058593749996,1.7010802795410156,-11.219228979492186,-0.7938931297709924,0.5648854961832062,-1.3206106870229009
5262662266011,4.66399156,1,0.23822306518554687,1.7226280944824217,-11.16057103881836,-0.8625954198473282,0.5419847328244275,-1.3587786259541985
5262682267782,4.683993331,1,0.2561795776367187,1.7334020019531249,-11.146205828857422,-0.7709923664122137,0.5190839694656488,-1.297709923664122
5262702267834,4.703993383,1,0.20350714111328125,1.7322049011230467,-11.218031878662108,-0.7786259541984732,0.5725190839694656,-1.3282442748091603
5262722266949,4.723992498,1,0.2154781494140625,1.7429788085937499,-11.148600030517578,-0.8015267175572519,0.5801526717557252,-1.3206106870229009
5262742267678,4.743993227,1,0.18076222534179687,1.7525556152343749,-11.149797131347656,-0.8396946564885496,0.5648854961832062,-1.3435114503816794
5262762266688,4.763992237,1,0.258573779296875,1.7082628845214842,-11.194089862060546,-0.8091603053435115,0.6183206106870229,-1.3435114503816794
5262782266272,4.783991821,1,0.2166752502441406,1.7393875061035156,-11.137826123046874,-0.8396946564885496,0.5648854961832062,-1.3511450381679388
5262802268563,4.803994112,1,0.22385785522460935,1.7106570861816406,-11.226411584472656,-0.8396946564885496,0.5038167938931297,-1.3435114503816794
5262822266324,4.823991873,1,0.2262520568847656,1.7310078002929687,-11.218031878662108,-0.8091603053435115,0.5343511450381679,-1.3129770992366412
5262842269917,4.843995466,1,0.2154781494140625,1.6986860778808592,-11.226411584472656,-0.8015267175572519,0.5572519083969466,-1.3587786259541985
5262862266376,4.863991925,1,0.2166752502441406,1.7393875061035156,-11.206060870361327,-0.8091603053435115,0.549618320610687,-1.3282442748091603
5262882268407,4.883993956,1,0.17956512451171874,1.7357962036132812,-11.168950744628905,-0.8396946564885496,0.5648854961832062,-1.3435114503816794
5262902268355,4.903993904,1,0.23343466186523437,1.7513585144042967,-11.156979736328124,-0.8320610687022901,0.5954198473282443,-1.2900763358778626
5262922267626,4.923993175,1,0.20949264526367187,1.6938976745605467,-11.189301458740234,-0.8549618320610687,0.5572519083969466,-1.3511450381679388
5262942268407,4.943993956,1,0.2861070983886719,1.7405846069335937,-11.214440576171874,-0.8320610687022901,0.5801526717557252,-1.3358778625954197
5262962264136,4.963989685,1,0.19153613281249998,1.6915034729003906,-11.197681164550781,-0.7938931297709924,0.5114503816793893,-1.3358778625954197
5262982267886,4.983993435,1,0.23223756103515625,1.7214309936523438,-11.24915650024414,-0.7786259541984732,0.5725190839694656,-1.297709923664122
5263002268355,5.003993904,1,0.24899697265624998,1.7753005310058592,-11.247959399414063,-0.8091603053435115,0.5877862595419847,-1.297709923664122
5263022266844,5.023992393,1,0.23223756103515625,1.7298106994628906,-11.14022032470703,-0.816793893129771,0.5572519083969466,-1.3129770992366412
5263042266688,5.043992237,1,0.22744915771484372,1.7764976318359373,-11.267113012695312,-0.8396946564885496,0.5877862595419847,-1.3206106870229009
5263062267105,5.063992654,1,0.2501940734863281,1.6998831787109374,-11.15338843383789,-0.8015267175572519,0.6030534351145038,-1.3206106870229009
5263082267417,5.083992966,1,0.25258827514648435,1.7393875061035156,-11.174936248779296,-0.8549618320610687,0.6030534351145038,-1.3282442748091603
5263102267157,5.103992706,1,0.22026655273437498,1.7669208251953124,-11.206060870361327,-0.816793893129771,0.5648854961832062,-1.3129770992366412
5263122267782,5.123993331,1,0.21428104858398436,1.7286135986328124,-11.188104357910156,-0.7633587786259542,0.5648854961832062,-1.3435114503816794
5263142266636,5.143992185,1,0.28969840087890625,1.7130512878417967,-11.118672509765624,-0.7557251908396947,0.5877862595419847,-1.3282442748091603
5263162267626,5.163993175,1,0.22385785522460935,1.7717092285156248,-11.21084927368164,-0.8549618320610687,0.549618320610687,-1.3206106870229009
5263182268251,5.1839938,1,0.21428104858398436,1.7238251953125,-11.200075366210937,-0.8320610687022901,0.5267175572519084,-1.3206106870229009
5263202269449,5.203994998,1,0.20709844360351562,1.753752716064453,-11.195286962890624,-0.8091603053435115,0.6106870229007634,-1.3282442748091603
5263222279292,5.224004841,1,0.25737667846679685,1.7034744812011717,-11.133037719726563,-0.8015267175572519,0.5572519083969466,-1.3282442748091603
5263242267730,5.243993279,1,0.21428104858398436,1.734599102783203,-11.197681164550781,-0.7938931297709924,0.5877862595419847,-1.3206106870229009
5263262265907,5.263991456,1,0.19632453613281248,1.7298106994628906,-11.183315954589844,-0.8091603053435115,0.5267175572519084,-1.3740458015267176
5263282272834,5.283998383,1,0.27174188842773433,1.7573440185546874,-11.14022032470703,-0.7404580152671756,0.5648854961832062,-1.282442748091603
5263302276115,5.304001664,1,0.2561795776367187,1.7465701110839842,-11.158176837158203,-0.8091603053435115,0.5648854961832062,-1.3435114503816794
5263322268042,5.323993591,1,0.20350714111328125,1.7513585144042967,-11.18571015625,-0.8549618320610687,0.5801526717557252,-1.3358778625954197
5263342270907,5.343996456,1,0.20949264526367187,1.7669208251953124,-11.11508120727539,-0.7938931297709924,0.5801526717557252,-1.3587786259541985
5263362268407,5.363993956,1,0.23582886352539062,1.7274164978027342,-11.176133349609374,-0.7709923664122137,0.5877862595419847,-1.3053435114503817
5263382268198,5.383993747,1,0.23822306518554687,1.7226280944824217,-11.252747802734374,-0.8473282442748091,0.5419847328244275,-1.3129770992366412
5263402267938,5.403993487,1,0.17956512451171874,1.7202338928222656,-11.167753643798827,-0.8244274809160306,0.5648854961832062,-1.3129770992366412
5263422263667,5.423989216,1,0.2214636535644531,1.7513585144042967,-11.189301458740234,-0.7709923664122137,0.5267175572519084,-1.3053435114503817
5263442267834,5.443993383,1,0.20350714111328125,1.7501614135742187,-11.202469567871093,-0.7938931297709924,0.6183206106870229,-1.3587786259541985
5263462266167,5.463991716,1,0.20470424194335937,1.7106570861816406,-11.180921752929686,-0.8625954198473282,0.5343511450381679,-1.3511450381679388
5263482266844,5.483992393,1,0.19632453613281248,1.7549498168945312,-11.177330450439452,-0.816793893129771,0.5725190839694656,-1.297709923664122
5263502267105,5.503992654,1,0.19393033447265623,1.7369933044433592,-11.17254204711914,-0.8091603053435115,0.5877862595419847,-1.3282442748091603
5263522266740,5.523992289,1,0.21068974609375,1.7405846069335937,-11.159373937988281,-0.8244274809160306,0.5419847328244275,-1.3129770992366412
5263542265907,5.543991456,1,0.25258827514648435,1.6903063720703124,-11.207257971191405,-0.8015267175572519,0.5267175572519084,-1.3435114503816794
5263562267209,5.563992758,1,0.1927332336425781,1.7274164978027342,-11.183315954589844,-0.7862595419847328,0.5801526717557252,-1.3511450381679388
5263582265386,5.583990935,1,0.239420166015625,1.7274164978027342,-11.207257971191405,-0.8396946564885496,0.5648854961832062,-1.3435114503816794
5263602268511,5.60399406,1,0.20231004028320312,1.7226280944824217,-11.174936248779296,-0.8091603053435115,0.5954198473282443,-1.3511450381679388
5263622267521,5.62399307,1,0.21188684692382811,1.7693150268554687,-11.204863769531249,-0.8244274809160306,0.5877862595419847,-1.3053435114503817
5263642267573,5.643993122,1,0.21068974609375,1.7106570861816406,-11.136629022216797,-0.816793893129771,0.5725190839694656,-1.2900763358778626
5263662266011,5.66399156,1,0.239420166015625,1.7262193969726563,-11.131840618896483,-0.8244274809160306,0.5572519083969466,-1.2900763358778626
5263682267053,5.683992602,1,0.21906945190429686,1.715445489501953,-11.177330450439452,-0.7938931297709924,0.6106870229007634,-1.3053435114503817
5263702267209,5.703992758,1,0.21787235107421873,1.7238251953125,-11.168950744628905,-0.7938931297709924,0.549618320610687,-1.3282442748091603
5263722267834,5.723993383,1,0.28012159423828126,1.7082628845214842,-11.149797131347656,-0.8244274809160306,0.549618320610687,-1.3358778625954197
5263742265959,5.743991508,1,0.2705447875976562,1.7118541870117185,-11.21683477783203,-0.7404580152671756,0.5343511450381679,-1.3282442748091603
5263762267000,5.763992549,1,0.20949264526367187,1.7190367919921874,-11.232397088623046,-0.8396946564885496,0.5572519083969466,-1.297709923664122
5263782267000,5.783992549,1,0.2262520568847656,1.7010802795410156,-11.156979736328124,-0.8091603053435115,0.5877862595419847,-1.3206106870229009
5263802268980,5.803994529,1,0.24660277099609373,1.705868682861328,-11.213243475341796,-0.7786259541984732,0.5725190839694656,-1.2748091603053435
5263822267469,5.823993018,1,0.201112939453125,1.6807295654296874,-11.233594189453123,-0.7862595419847328,0.5954198473282443,-1.3206106870229009
5263842266375,5.843991924,1,0.20949264526367187,1.7310078002929687,-11.196484063720703,-0.7786259541984732,0.6030534351145038,-1.3587786259541985
5263862267625,5.863993174,1,0.1879448303222656,1.7453730102539062,-11.212046374511718,-0.8473282442748091,0.5343511450381679,-1.3053435114503817
5263882267625,5.883993174,1,0.239420166015625,1.7190367919921874,-11.183315954589844,-0.8244274809160306,0.5419847328244275,-1.3053435114503817
5263902264657,5.903990206,1,0.20231004028320312,1.6915034729003906,-11.1474029296875,-0.7938931297709924,0.6030534351145038,-1.2900763358778626
5263922268250,5.923993799,1,0.2346317626953125,1.7501614135742187,-11.200075366210937,-0.7938931297709924,0.5648854961832062,-1.381679389312977
5263942267104,5.943992653,1,0.21428104858398436,1.705868682861328,-11.19169566040039,-0.8091603053435115,0.5725190839694656,-1.3282442748091603
5263962268094,5.963993643,1,0.3016694091796875,1.7645266235351562,-11.118672509765624,-0.8244274809160306,0.6106870229007634,-1.3206106870229009
5263982268302,5.983993851,1,0.21906945190429686,1.7429788085937499,-11.173739147949219,-0.7938931297709924,0.6106870229007634,-1.3206106870229009
5264002266063,6.003991612,1,0.22026655273437498,1.772906329345703,-11.170147845458983,-0.8091603053435115,0.5419847328244275,-1.3435114503816794
5264022267417,6.023992966,1,0.22864625854492185,1.7262193969726563,-11.194089862060546,-0.8549618320610687,0.5954198473282443,-1.3053435114503817
5264042265438,6.043990987,1,0.22864625854492185,1.7585411193847655,-11.188104357910156,-0.8015267175572519,0.549618320610687,-1.3282442748091603
5264062267313,6.063992862,1,0.17956512451171874,1.7190367919921874,-11.168950744628905,-0.8320610687022901,0.5267175572519084,-1.3129770992366412
5264082267157,6.083992706,1,0.229843359375,1.7202338928222656,-11.186907257080078,-0.8473282442748091,0.5572519083969466,-1.3358778625954197
5264102317677,6.104043226,1,0.2154781494140625,1.7130512878417967,-11.148600030517578,-0.8473282442748091,0.5648854961832062,-1.3206106870229009
5264122271532,6.123997081,1,0.25737667846679685,1.7585411193847655,-11.167753643798827,-0.8015267175572519,0.5190839694656488,-1.3511450381679388
5264142267938,6.143993487,1,0.201112939453125,1.725022296142578,-11.232397088623046,-0.8091603053435115,0.5648854961832062,-1.3282442748091603
5264162267365,6.163992914,1,0.19512743530273435,1.7214309936523438,-11.174936248779296,-0.816793893129771,0.6106870229007634,-1.3435114503816794
5264182276740,6.184002289,1,0.23702596435546874,1.6998831787109374,-11.174936248779296,-0.7786259541984732,0.5038167938931297,-1.3206106870229009
5264202265177,6.203990726,1,0.239420166015625,1.7393875061035156,-11.173739147949219,-0.7938931297709924,0.5572519083969466,-1.3282442748091603
5264222263667,6.223989216,1,0.23822306518554687,1.7489643127441405,-11.19887826538086,-0.8015267175572519,0.5725190839694656,-1.282442748091603
5264242267990,6.243993539,1,0.22744915771484372,1.7429788085937499,-11.212046374511718,-0.816793893129771,0.5725190839694656,-1.3282442748091603
5264262266323,6.263991872,1,0.23104046020507812,1.7621324218749999,-11.206060870361327,-0.8320610687022901,0.5648854961832062,-1.3358778625954197
5264282265490,6.283991039,1,0.22266075439453123,1.7286135986328124,-11.337741961669922,-0.7862595419847328,0.549618320610687,-1.3129770992366412
5264302268459,6.303994008,1,0.21428104858398436,1.7513585144042967,-11.037269653320312,-0.8244274809160306,0.5419847328244275,-1.3129770992366412
5264322266427,6.323991976,1,0.1975216369628906,1.715445489501953,-11.201272467041015,-0.8015267175572519,0.5648854961832062,-1.3587786259541985
5264342266740,6.343992289,1,0.21906945190429686,1.7705121276855467,-11.196484063720703,-0.8015267175572519,0.5648854961832062,-1.3053435114503817
5264362268511,6.36399406,1,0.2537853759765625,1.7429788085937499,-11.222820281982422,-0.816793893129771,0.5801526717557252,-1.282442748091603
5264382266792,6.383992341,1,0.22266075439453123,1.7764976318359373,-11.212046374511718,-0.7480916030534351,0.5954198473282443,-1.3206106870229009
5264402267365,6.403992914,1,0.24660277099609373,1.7525556152343749,-11.19169566040039,-0.8244274809160306,0.5725190839694656,-1.3129770992366412
5264422267365,6.423992914,1,0.2166752502441406,1.7465701110839842,-11.195286962890624,-0.8320610687022901,0.5725190839694656,-1.3511450381679388
5264442266740,6.443992289,1,0.23223756103515625,1.7286135986328124,-11.182118853759764,-0.7709923664122137,0.549618320610687,-1.3740458015267176
5264462267990,6.463993539,1,0.19991583862304688,1.7298106994628906,-11.208455072021483,-0.8320610687022901,0.5725190839694656,-1.3129770992366412
5264482266271,6.48399182,1,0.21308394775390624,1.7597382202148437,-11.184513055419922,-0.7938931297709924,0.5725190839694656,-1.3129770992366412
5264502267573,6.503993122,1,0.23822306518554687,1.7190367919921874,-11.073182678222656,-0.8015267175572519,0.5801526717557252,-1.381679389312977
5264522327261,6.52405281,1,0.23822306518554687,1.7501614135742187,-11.234791290283203,-0.7786259541984732,0.6335877862595419,-1.3129770992366412
5264542268406,6.543993955,1,0.24660277099609373,1.7501614135742187,-11.149797131347656,-0.816793893129771,0.6259541984732825,-1.3282442748091603
5264562270229,6.563995778,1,0.201112939453125,1.7393875061035156,-11.21084927368164,-0.7862595419847328,0.5343511450381679,-1.3129770992366412
5264582267833,6.583993382,1,0.22864625854492185,1.7776947326660155,-11.195286962890624,-0.8244274809160306,0.5954198473282443,-1.3282442748091603
5264602266115,6.603991664,1,0.239420166015625,1.7848773376464844,-11.164162341308593,-0.7709923664122137,0.5572519083969466,-1.297709923664122
5264622289760,6.624015309,1,0.1867477294921875,1.7334020019531249,-11.206060870361327,-0.8702290076335878,0.5877862595419847,-1.3435114503816794
5264642271896,6.643997445,1,0.2597708801269531,1.7202338928222656,-11.219228979492186,-0.8244274809160306,0.6030534351145038,-1.2748091603053435
5264662267885,6.663993434,1,0.23702596435546874,1.7800889343261719,-11.129446417236327,-0.8091603053435115,0.549618320610687,-1.3358778625954197
5264682267781,6.68399333,1,0.2214636535644531,1.695094775390625,-11.154585534667968,-0.8015267175572519,0.5648854961832062,-1.3053435114503817
5264702264031,6.70398958,1,0.21428104858398436,1.7657237243652342,-11.214440576171874,-0.8244274809160306,0.6335877862595419,-1.3129770992366412
5264722267781,6.72399333,1,0.201112939453125,1.7166425903320313,-11.188104357910156,-0.8091603053435115,0.5954198473282443,-1.3358778625954197
5264742265854,6.743991403,1,0.2537853759765625,1.6986860778808592,-11.130643518066405,-0.7938931297709924,0.6030534351145038,-1.3358778625954197
5264762267990,6.763993539,1,0.22026655273437498,1.707065783691406,-11.171344946289063,-0.8396946564885496,0.5419847328244275,-1.3129770992366412
5264782265802,6.783991351,1,0.18555062866210936,1.7645266235351562,-11.180921752929686,-0.7938931297709924,0.5801526717557252,-1.3282442748091603
5264802267156,6.803992705,1,0.23702596435546874,1.7226280944824217,-11.124658013916015,-0.8091603053435115,0.5725190839694656,-1.297709923664122
5264822268823,6.823994372,1,0.2549824768066406,1.707065783691406,-11.123460913085937,-0.816793893129771,0.6030534351145038,-1.366412213740458
5264842269187,6.843994736,1,0.22266075439453123,1.7262193969726563,-11.18571015625,-0.8702290076335878,0.5648854961832062,-1.3053435114503817
5264862266844,6.863992393,1,0.21906945190429686,1.7429788085937499,-11.214440576171874,-0.8320610687022901,0.5343511450381679,-1.3282442748091603
5264882266531,6.88399208,1,0.16519991455078123,1.744175909423828,-11.171344946289063,-0.8244274809160306,0.5648854961832062,-1.282442748091603
5264902267000,6.903992549,1,0.19153613281249998,1.7453730102539062,-11.196484063720703,-0.816793893129771,0.5572519083969466,-1.3206106870229009
5264922265802,6.923991351,1,0.21787235107421873,1.7357962036132812,-11.16057103881836,-0.816793893129771,0.5801526717557252,-1.3206106870229009
5264942268146,6.943993695,1,0.23822306518554687,1.7010802795410156,-11.21683477783203,-0.7786259541984732,0.5267175572519084,-1.3282442748091603
5264962268979,6.963994528,1,0.21428104858398436,1.725022296142578,-11.18571015625,-0.8015267175572519,0.5572519083969466,-1.3129770992366412
5264982267104,6.983992653,1,0.22385785522460935,1.7429788085937499,-11.17852755126953,-0.8091603053435115,0.5725190839694656,-1.3206106870229009
5265002266010,7.003991559,1,0.2166752502441406,1.7322049011230467,-11.225214483642578,-0.8549618320610687,0.5877862595419847,-1.3358778625954197
5265022267833,7.023993382,1,0.22266075439453123,1.7238251953125,-11.179724652099608,-0.8473282442748091,0.5267175572519084,-1.3358778625954197
5265042267312,7.043992861,1,0.2537853759765625,1.70467158203125,-11.227608685302734,-0.8091603053435115,0.5419847328244275,-1.2900763358778626
5265062267312,7.063992861,1,0.2166752502441406,1.734599102783203,-11.136629022216797,-0.7404580152671756,0.5419847328244275,-1.297709923664122
5265082266167,7.083991716,1,0.18315642700195311,1.695094775390625,-11.154585534667968,-0.8320610687022901,0.5725190839694656,-1.3358778625954197
5265102266427,7.103991976,1,0.17477672119140625,1.7334020019531249,-11.179724652099608,-0.8244274809160306,0.5954198473282443,-1.3129770992366412
5265122267521,7.12399307,1,0.25139117431640623,1.734599102783203,-11.148600030517578,-0.7633587786259542,0.5725190839694656,-1.3129770992366412
5265142267156,7.143992705,1,0.25139117431640623,1.7226280944824217,-11.305420239257812,-0.8473282442748091,0.5954198473282443,-1.3358778625954197
5265162266479,7.163992028,1,0.21068974609375,1.7429788085937499,-11.17852755126953,-0.7862595419847328,0.6412213740458015,-1.2900763358778626
5265182265125,7.183990674,1,0.2346317626953125,1.7741034301757812,-11.226411584472656,-0.8091603053435115,0.5572519083969466,-1.3206106870229009
5265202265698,7.203991247,1,0.20709844360351562,1.7298106994628906,-11.183315954589844,-0.7862595419847328,0.6183206106870229,-1.3587786259541985
5265222268771,7.22399432,1,0.25139117431640623,1.8064251525878905,-11.171344946289063,-0.8244274809160306,0.6259541984732825,-1.3053435114503817
5265242271844,7.243997393,1,0.21906945190429686,1.696291876220703,-11.231199987792968,-0.8244274809160306,0.5419847328244275,-1.3206106870229009
5265262269344,7.263994893,1,0.22385785522460935,1.725022296142578,-11.183315954589844,-0.7786259541984732,0.5648854961832062,-1.3206106870229009
5265282270229,7.283995778,1,0.21308394775390624,1.7094599853515624,-11.167753643798827,-0.8244274809160306,0.6030534351145038,-1.3435114503816794
5265302277573,7.304003122,1,0.2705447875976562,1.7717092285156248,-11.262324609375,-0.7633587786259542,0.5648854961832062,-1.3282442748091603
5265322268875,7.323994424,1,0.21428104858398436,1.7298106994628906,-11.145008728027342,-0.8320610687022901,0.5801526717557252,-1.3358778625954197
5265342267260,7.343992809,1,0.25258827514648435,1.7298106994628906,-11.176133349609374,-0.8625954198473282,0.5419847328244275,-1.3129770992366412
5265362265281,7.36399083,1,0.2262520568847656,1.7381904052734374,-11.171344946289063,-0.7938931297709924,0.5954198473282443,-1.3206106870229009
5265382269083,7.383994632,1,0.21906945190429686,1.7657237243652342,-11.121066711425781,-0.8091603053435115,0.5801526717557252,-1.3435114503816794
5265402266010,7.403991559,1,0.20231004028320312,1.7238251953125,-11.113884106445312,-0.8702290076335878,0.5267175572519084,-1.297709923664122
5265422268094,7.423993643,1,0.2645592834472656,1.734599102783203,-11.212046374511718,-0.7709923664122137,0.5572519083969466,-1.2900763358778626
5265442264969,7.443990518,1,0.2705447875976562,1.7094599853515624,-11.110292803955078,-0.816793893129771,0.5343511450381679,-1.3282442748091603
5265462265906,7.463991455,1,0.25737667846679685,1.7465701110839842,-11.184513055419922,-0.7709923664122137,0.5572519083969466,-1.297709923664122
5265482266010,7.483991559,1,0.20231004028320312,1.6807295654296874,-11.25514200439453,-0.7938931297709924,0.5954198473282443,-1.297709923664122
5265502267000,7.503992549,1,0.23223756103515625,1.7094599853515624,-11.105504400634764,-0.8396946564885496,0.5648854961832062,-1.3206106870229009
5265522266531,7.52399208,1,0.239420166015625,1.725022296142578,-11.207257971191405,-0.7938931297709924,0.5801526717557252,-1.3358778625954197
5265542266375,7.543991924,1,0.25139117431640623,1.6938976745605467,-11.11508120727539,-0.8015267175572519,0.5419847328244275,-1.3282442748091603
5265562265802,7.563991351,1,0.2059013427734375,1.7310078002929687,-11.194089862060546,-0.8473282442748091,0.549618320610687,-1.3358778625954197
5265582266635,7.583992184,1,0.2166752502441406,1.7369933044433592,-11.212046374511718,-0.816793893129771,0.5725190839694656,-1.3206106870229009
5265602265854,7.603991403,1,0.25258827514648435,1.707065783691406,-11.121066711425781,-0.8091603053435115,0.5572519083969466,-1.3358778625954197
5265622266739,7.623992288,1,0.2214636535644531,1.7322049011230467,-11.207257971191405,-0.8244274809160306,0.5801526717557252,-1.3435114503816794
5265642267521,7.64399307,1,0.16519991455078123,1.7381904052734374,-11.137826123046874,-0.8091603053435115,0.5801526717557252,-1.3358778625954197
5265662266323,7.663991872,1,0.23702596435546874,1.7417817077636717,-11.167753643798827,-0.8473282442748091,0.6030534351145038,-1.3282442748091603
5265682266635,7.683992184,1,0.2059013427734375,1.7381904052734374,-11.170147845458983,-0.7862595419847328,0.5801526717557252,-1.3282442748091603
5265702268510,7.703994059,1,0.2693476867675781,1.6843208679199217,-11.214440576171874,-0.8015267175572519,0.549618320610687,-1.3129770992366412
5265722267520,7.723993069,1,0.2346317626953125,1.7322049011230467,-11.203666668701171,-0.8244274809160306,0.5267175572519084,-1.3053435114503817
5265742268979,7.743994528,1,0.2442085693359375,1.7214309936523438,-11.170147845458983,-0.816793893129771,0.5801526717557252,-1.3740458015267176
5265762267520,7.763993069,1,0.19632453613281248,1.7525556152343749,-11.202469567871093,-0.816793893129771,0.5648854961832062,-1.282442748091603
5265782268562,7.783994111,1,0.24061726684570311,1.7561469177246092,-11.204863769531249,-0.8320610687022901,0.5572519083969466,-1.3740458015267176
5265802267416,7.803992965,1,0.18435352783203124,1.7369933044433592,-11.235988391113281,-0.816793893129771,0.5801526717557252,-1.3282442748091603
5265822269552,7.823995101,1,0.22864625854492185,1.7190367919921874,-11.16057103881836,-0.7938931297709924,0.5801526717557252,-1.2900763358778626
5265842268041,7.84399359,1,0.239420166015625,1.7322049011230467,-11.264718811035156,-0.7709923664122137,0.549618320610687,-1.2671755725190839
5265862267156,7.863992705,1,0.19033903198242186,1.7477672119140624,-11.174936248779296,-0.8244274809160306,0.5572519083969466,-1.3969465648854962
5265882267625,7.883993174,1,0.2561795776367187,1.705868682861328,-11.155782635498046,-0.8396946564885496,0.5954198473282443,-1.2900763358778626
5265902267416,7.903992965,1,0.28969840087890625,1.7393875061035156,-11.234791290283203,-0.8396946564885496,0.5801526717557252,-1.3053435114503817
5265922268145,7.923993694,1,0.23822306518554687,1.7310078002929687,-11.15338843383789,-0.8549618320610687,0.5648854961832062,-1.3053435114503817
5265942267260,7.943992809,1,0.22505495605468748,1.7190367919921874,-11.264718811035156,-0.7709923664122137,0.6183206106870229,-1.3282442748091603
5265962268718,7.963994267,1,0.2561795776367187,1.7178396911621092,-11.201272467041015,-0.8244274809160306,0.5572519083969466,-1.3206106870229009
5265982262729,7.983988278,1,0.2705447875976562,1.7226280944824217,-11.164162341308593,-0.8396946564885496,0.5801526717557252,-1.2900763358778626
5266002267520,8.003993069,1,0.20231004028320312,1.744175909423828,-11.2240173828125,-0.7938931297709924,0.5419847328244275,-1.2900763358778626
5266022279812,8.024005361,1,0.20470424194335937,1.725022296142578,-11.202469567871093,-0.816793893129771,0.5725190839694656,-1.3511450381679388
5266042267208,8.043992757,1,0.1927332336425781,1.7465701110839842,-11.148600030517578,-0.8091603053435115,0.5801526717557252,-1.3129770992366412
5266062267572,8.063993121,1,0.2442085693359375,1.7094599853515624,-11.17852755126953,-0.7862595419847328,0.6030534351145038,-1.297709923664122
5266082267468,8.083993017,1,0.21906945190429686,1.7106570861816406,-11.243170996093749,-0.8244274809160306,0.5572519083969466,-1.3740458015267176
5266102270854,8.103996403,1,0.18914193115234373,1.7094599853515624,-11.19887826538086,-0.8091603053435115,0.5648854961832062,-1.3435114503816794
5266122268458,8.123994007,1,0.22266075439453123,1.7274164978027342,-11.194089862060546,-0.816793893129771,0.5267175572519084,-1.3129770992366412
5266142271479,8.143997028,1,0.1927332336425781,1.7561469177246092,-11.167753643798827,-0.7633587786259542,0.5954198473282443,-1.3282442748091603
5266162266322,8.163991871,1,0.2537853759765625,1.6915034729003906,-11.184513055419922,-0.8549618320610687,0.5801526717557252,-1.3129770992366412
5266182268822,8.183994371,1,0.20470424194335937,1.7334020019531249,-11.188104357910156,-0.8396946564885496,0.5114503816793893,-1.3358778625954197
5266202276062,8.204001611,1,0.22505495605468748,1.7226280944824217,-11.173739147949219,-0.8473282442748091,0.549618320610687,-1.4198473282442747
5266222269916,8.223995465,1,0.239420166015625,1.725022296142578,-11.220426080322264,-0.8015267175572519,0.5419847328244275,-1.3282442748091603
5266242267781,8.24399333,1,0.2346317626953125,1.7178396911621092,-11.23718549194336,-0.8473282442748091,0.5648854961832062,-1.366412213740458
5266262268041,8.26399359,1,0.19632453613281248,1.715445489501953,-11.173739147949219,-0.8473282442748091,0.5801526717557252,-1.3129770992366412
5266282266374,8.283991923,1,0.23223756103515625,1.695094775390625,-11.179724652099608,-0.8244274809160306,0.5419847328244275,-1.3129770992366412
5266302266947,8.303992496,1,0.20231004028320312,1.7310078002929687,-11.19169566040039,-0.816793893129771,0.5267175572519084,-1.3282442748091603
5266322266374,8.323991923,1,0.2214636535644531,1.7178396911621092,-11.21084927368164,-0.8091603053435115,0.6106870229007634,-1.3511450381679388
5266342267364,8.343992913,1,0.22026655273437498,1.714248388671875,-11.14022032470703,-0.7938931297709924,0.5725190839694656,-1.297709923664122
5266362265489,8.363991038,1,0.201112939453125,1.7262193969726563,-11.176133349609374,-0.8396946564885496,0.6106870229007634,-1.3435114503816794
5266382265906,8.383991455,1,0.20949264526367187,1.7178396911621092,-11.233594189453123,-0.7938931297709924,0.549618320610687,-1.3206106870229009
5266402265020,8.403990569,1,0.19153613281249998,1.7166425903320313,-11.162965240478515,-0.7786259541984732,0.5343511450381679,-1.3206106870229009
5266422313926,8.424039475,1,0.22385785522460935,1.7334020019531249,-11.162965240478515,-0.8244274809160306,0.5648854961832062,-1.3206106870229009
5266442267364,8.443992913,1,0.23223756103515625,1.7286135986328124,-11.156979736328124,-0.8396946564885496,0.5725190839694656,-1.3206106870229009
5266462267104,8.463992653,1,0.23223756103515625,1.7214309936523438,-11.194089862060546,-0.8549618320610687,0.5877862595419847,-1.3206106870229009
5266482266010,8.483991559,1,0.15682020874023436,1.7776947326660155,-11.2240173828125,-0.816793893129771,0.5648854961832062,-1.3206106870229009
5266502266947,8.503992496,1,0.1975216369628906,1.7405846069335937,-11.212046374511718,-0.816793893129771,0.5572519083969466,-1.3511450381679388
5266522310229,8.524035778,1,0.22385785522460935,1.6986860778808592,-11.233594189453123,-0.816793893129771,0.6412213740458015,-1.282442748091603
5266542267728,8.543993277,1,0.2657563842773437,1.7274164978027342,-11.221623181152344,-0.8244274809160306,0.5954198473282443,-1.3129770992366412
5266562266635,8.563992184,1,0.239420166015625,1.7585411193847655,-11.262324609375,-0.7786259541984732,0.5725190839694656,-1.3435114503816794
5266582267364,8.583992913,1,0.19393033447265623,1.7585411193847655,-11.176133349609374,-0.8396946564885496,0.5267175572519084,-1.3206106870229009
5266602267051,8.6039926,1,0.25258827514648435,1.70467158203125,-11.155782635498046,-0.8244274809160306,0.5725190839694656,-1.3282442748091603
5266622266999,8.623992548,1,0.23343466186523437,1.725022296142578,-11.19887826538086,-0.8396946564885496,0.6106870229007634,-1.3358778625954197
5266642268145,8.643993694,1,0.2214636535644531,1.7645266235351562,-11.173739147949219,-0.8549618320610687,0.5801526717557252,-1.3129770992366412
5266662267676,8.663993225,1,0.20350714111328125,1.705868682861328,-11.152191333007812,-0.816793893129771,0.5419847328244275,-1.3358778625954197
5266682264499,8.683990048,1,0.229843359375,1.753752716064453,-11.14022032470703,-0.8244274809160306,0.5343511450381679,-1.3587786259541985
5266702266843,8.703992392,1,0.22864625854492185,1.7609353210449217,-11.252747802734374,-0.7786259541984732,0.5801526717557252,-1.3053435114503817
5266722267572,8.723993121,1,0.19991583862304688,1.744175909423828,-11.188104357910156,-0.8473282442748091,0.5267175572519084,-1.3282442748091603
5266742267156,8.743992705,1,0.1867477294921875,1.7477672119140624,-11.165359442138671,-0.7862595419847328,0.5419847328244275,-1.3435114503816794
5266762265853,8.763991402,1,0.20350714111328125,1.6771382629394531,-11.212046374511718,-0.8549618320610687,0.5343511450381679,-1.2900763358778626
5266782266739,8.783992288,1,0.21906945190429686,1.7357962036132812,-11.194089862060546,-0.8396946564885496,0.5801526717557252,-1.3511450381679388
5266802265124,8.803990673,1,0.22744915771484372,1.7369933044433592,-11.158176837158203,-0.8244274809160306,0.5190839694656488,-1.3129770992366412
5266822266635,8.823992184,1,0.20949264526367187,1.7214309936523438,-11.234791290283203,-0.7862595419847328,0.4961832061068702,-1.3053435114503817
5266842267260,8.843992809,1,0.22744915771484372,1.707065783691406,-11.171344946289063,-0.8015267175572519,0.5419847328244275,-1.3358778625954197
5266862266947,8.863992496,1,0.21308394775390624,1.7118541870117185,-11.180921752929686,-0.8320610687022901,0.5954198473282443,-1.2900763358778626
5266882267572,8.883993121,1,0.22266075439453123,1.7106570861816406,-11.168950744628905,-0.7709923664122137,0.6030534351145038,-1.3282442748091603
5266902267416,8.903992965,1,0.19991583862304688,1.707065783691406,-11.226411584472656,-0.8091603053435115,0.5954198473282443,-1.2900763358778626
5266922266322,8.923991871,1,0.22266075439453123,1.7693150268554687,-11.2240173828125,-0.8244274809160306,0.5572519083969466,-1.3206106870229009
5266942269864,8.943995413,1,0.25737667846679685,1.6915034729003906,-11.174936248779296,-0.8320610687022901,0.6030534351145038,-1.3129770992366412
5266962266843,8.963992392,1,0.1771709228515625,1.7310078002929687,-11.18571015625,-0.8320610687022901,0.5725190839694656,-1.3282442748091603
5266982267780,8.983993329,1,0.26216508178710934,1.744175909423828,-11.196484063720703,-0.816793893129771,0.5419847328244275,-1.297709923664122
5267002267260,9.003992809,1,0.22505495605468748,1.725022296142578,-11.194089862060546,-0.8473282442748091,0.5648854961832062,-1.297709923664122
5267022267989,9.023993538,1,0.2561795776367187,1.715445489501953,-11.197681164550781,-0.816793893129771,0.5419847328244275,-1.3129770992366412
5267042266635,9.043992184,1,0.2059013427734375,1.7106570861816406,-11.200075366210937,-0.8473282442748091,0.6030534351145038,-1.3206106870229009
5267062266062,9.063991611,1,0.28490999755859375,1.7513585144042967,-11.218031878662108,-0.816793893129771,0.5114503816793893,-1.3282442748091603
5267082266062,9.083991611,1,0.2214636535644531,1.687912170410156,-11.14022032470703,-0.8015267175572519,0.6030534351145038,-1.2900763358778626
5267102266270,9.103991819,1,0.21787235107421873,1.6927005737304686,-11.256339105224608,-0.8549618320610687,0.549618320610687,-1.3587786259541985
5267122267572,9.123993121,1,0.23343466186523437,1.7477672119140624,-11.17254204711914,-0.8473282442748091,0.6106870229007634,-1.3282442748091603
5267142267624,9.143993173,1,0.2501940734863281,1.7501614135742187,-11.156979736328124,-0.7786259541984732,0.549618320610687,-1.297709923664122
5267162266843,9.163992392,1,0.18555062866210936,1.7334020019531249,-11.174936248779296,-0.816793893129771,0.549618320610687,-1.3053435114503817
5267182266374,9.183991923,1,0.20231004028320312,1.7310078002929687,-11.127052215576171,-0.8320610687022901,0.6030534351145038,-1.3282442748091603
5267202266218,9.203991767,1,0.21308394775390624,1.7286135986328124,-11.179724652099608,-0.7862595419847328,0.5725190839694656,-1.3206106870229009
5267222266634,9.223992183,1,0.22744915771484372,1.7310078002929687,-11.201272467041015,-0.816793893129771,0.5648854961832062,-1.297709923664122
5267242269551,9.2439951,1,0.23104046020507812,1.7214309936523438,-11.228805786132812,-0.7709923664122137,0.5877862595419847,-1.2900763358778626
5267262263249,9.263988798,1,0.21787235107421873,1.7094599853515624,-11.133037719726563,-0.8320610687022901,0.5572519083969466,-1.282442748091603
5267282268093,9.283993642,1,0.2166752502441406,1.7513585144042967,-11.130643518066405,-0.8320610687022901,0.5114503816793893,-1.3435114503816794
5267302270645,9.303996194,1,0.23822306518554687,1.715445489501953,-11.207257971191405,-0.8320610687022901,0.5725190839694656,-1.3435114503816794
5267322276999,9.324002548,1,0.25258827514648435,1.7585411193847655,-11.162965240478515,-0.8015267175572519,0.5648854961832062,-1.3129770992366412
5267342268562,9.343994111,1,0.23343466186523437,1.7393875061035156,-11.177330450439452,-0.8778625954198473,0.5725190839694656,-1.3435114503816794
5267362266947,9.363992496,1,0.2861070983886719,1.7094599853515624,-11.189301458740234,-0.8015267175572519,0.6030534351145038,-1.3129770992366412
5267382266582,9.383992131,1,0.2262520568847656,1.7226280944824217,-11.192892761230468,-0.8549618320610687,0.5648854961832062,-1.297709923664122
5267402267207,9.403992756,1,0.2262520568847656,1.7741034301757812,-11.207257971191405,-0.8625954198473282,0.5343511450381679,-1.3435114503816794
5267422266374,9.423991923,1,0.2214636535644531,1.6735469604492186,-11.189301458740234,-0.8320610687022901,0.5572519083969466,-1.297709923664122
5267442268666,9.443994215,1,0.2262520568847656,1.7274164978027342,-11.263521710205078,-0.8320610687022901,0.5419847328244275,-1.3435114503816794
5267462265905,9.463991454,1,0.18555062866210936,1.7489643127441405,-11.219228979492186,-0.8549618320610687,0.6030534351145038,-1.282442748091603
5267482265957,9.483991506,1,0.26815058593749996,1.7262193969726563,-11.213243475341796,-0.816793893129771,0.5725190839694656,-1.297709923664122
5267502267259,9.503992808,1,0.20709844360351562,1.7657237243652342,-11.192892761230468,-0.7938931297709924,0.5877862595419847,-1.2900763358778626
5267522267936,9.523993485,1,0.20829554443359374,1.7429788085937499,-11.135431921386719,-0.7633587786259542,0.5801526717557252,-1.3053435114503817
5267542267780,9.543993329,1,0.24301146850585936,1.7334020019531249,-11.141417425537108,-0.8396946564885496,0.5801526717557252,-1.3206106870229009
5267562266686,9.563992235,1,0.26815058593749996,1.7310078002929687,-11.180921752929686,-0.816793893129771,0.5648854961832062,-1.3511450381679388
5267582267780,9.583993329,1,0.21906945190429686,1.7118541870117185,-11.221623181152344,-0.816793893129771,0.5877862595419847,-1.3206106870229009
5267602267520,9.603993069,1,0.21787235107421873,1.7286135986328124,-11.190498559570312,-0.816793893129771,0.5419847328244275,-1.3435114503816794
5267622266270,9.623991819,1,0.2454056701660156,1.7501614135742187,-11.155782635498046,-0.8320610687022901,0.5648854961832062,-1.3511450381679388
5267642266686,9.643992235,1,0.1867477294921875,1.7094599853515624,-11.207257971191405,-0.816793893129771,0.5190839694656488,-1.3129770992366412
5267662265905,9.663991454,1,0.21188684692382811,1.7501614135742187,-11.21683477783203,-0.8091603053435115,0.5801526717557252,-1.3358778625954197
5267682265905,9.683991454,1,0.2346317626953125,1.7310078002929687,-11.141417425537108,-0.7557251908396947,0.6335877862595419,-1.3053435114503817
5267702266374,9.703991923,1,0.20350714111328125,1.7262193969726563,-11.148600030517578,-0.7862595419847328,0.5572519083969466,-1.3511450381679388
5267722268509,9.723994058,1,0.229843359375,1.714248388671875,-11.149797131347656,-0.8473282442748091,0.549618320610687,-1.3358778625954197
5267742267416,9.743992965,1,0.2645592834472656,1.68551796875,-11.23000288696289,-0.7633587786259542,0.5801526717557252,-1.3129770992366412
5267762268353,9.763993902,1,0.20709844360351562,1.697488977050781,-11.17852755126953,-0.8320610687022901,0.5267175572519084,-1.3511450381679388
5267782265645,9.783991194,1,0.20470424194335937,1.7298106994628906,-11.202469567871093,-0.8320610687022901,0.5648854961832062,-1.297709923664122
5267802267728,9.803993277,1,0.22744915771484372,1.7405846069335937,-11.149797131347656,-0.8625954198473282,0.5572519083969466,-1.3206106870229009
5267822266322,9.823991871,1,0.2657563842773437,1.725022296142578,-11.177330450439452,-0.8320610687022901,0.5419847328244275,-1.3206106870229009
5267842267780,9.843993329,1,0.201112939453125,1.714248388671875,-11.143811627197264,-0.7938931297709924,0.6106870229007634,-1.3129770992366412
5267862268040,9.863993589,1,0.19871873779296872,1.7310078002929687,-11.251550701904296,-0.9007633587786259,0.5419847328244275,-1.3358778625954197
5267882267468,9.883993017,1,0.22266075439453123,1.7178396911621092,-11.247959399414063,-0.8015267175572519,0.6030534351145038,-1.3282442748091603
5267902266530,9.903992079,1,0.23582886352539062,1.7178396911621092,-11.182118853759764,-0.8396946564885496,0.5954198473282443,-1.3740458015267176
5267922262676,9.923988225,1,0.20231004028320312,1.7453730102539062,-11.28746372680664,-0.8473282442748091,0.5954198473282443,-1.2900763358778626
5267942267936,9.943993485,1,0.17836802368164062,1.697488977050781,-11.165359442138671,-0.8091603053435115,0.549618320610687,-1.3053435114503817
5267962268926,9.963994475,1,0.20350714111328125,1.696291876220703,-11.247959399414063,-0.816793893129771,0.5114503816793893,-1.3129770992366412
5267982266426,9.983991975,1,0.24899697265624998,1.7226280944824217,-11.109095703125,-0.9007633587786259,0.5877862595419847,-1.3358778625954197
5268002267728,10.003993277,1,0.2214636535644531,1.7118541870117185,-11.146205828857422,-0.8244274809160306,0.5725190839694656,-1.3206106870229009
5268022268040,10.023993589,1,0.22385785522460935,1.7429788085937499,-11.176133349609374,-0.816793893129771,0.5725190839694656,-1.3053435114503817
5268042268822,10.043994371,1,0.20709844360351562,1.7501614135742187,-11.136629022216797,-0.7786259541984732,0.5190839694656488,-1.3282442748091603
5268062266738,10.063992287,1,0.2346317626953125,1.6747440612792968,-11.176133349609374,-0.7938931297709924,0.6412213740458015,-1.282442748091603
5268082267363,10.083992912,1,0.1975216369628906,1.7130512878417967,-11.173739147949219,-0.7938931297709924,0.5648854961832062,-1.3282442748091603
5268102266582,10.103992131,1,0.23104046020507812,1.7489643127441405,-11.137826123046874,-0.8015267175572519,0.5725190839694656,-1.3206106870229009
5268122269238,10.123994787,1,0.21906945190429686,1.7202338928222656,-11.164162341308593,-0.7786259541984732,0.5648854961832062,-1.366412213740458
5268142273509,10.143999058,1,0.17956512451171874,1.7178396911621092,-11.221623181152344,-0.8244274809160306,0.5343511450381679,-1.297709923664122
5268162268092,10.163993641,1,0.2442085693359375,1.7178396911621092,-11.245565197753905,-0.8396946564885496,0.5572519083969466,-1.2900763358778626
5268182268353,10.183993902,1,0.22505495605468748,1.707065783691406,-11.188104357910156,-0.7709923664122137,0.5572519083969466,-1.3358778625954197
5268202272520,10.203998069,1,0.19632453613281248,1.7094599853515624,-11.258733306884764,-0.816793893129771,0.5419847328244275,-1.297709923664122
5268222268613,10.223994162,1,0.21428104858398436,1.7214309936523438,-11.194089862060546,-0.7786259541984732,0.5801526717557252,-1.2748091603053435
5268242268405,10.243993954,1,0.23822306518554687,1.7573440185546874,-11.233594189453123,-0.7709923664122137,0.5419847328244275,-1.3282442748091603
5268262267103,10.263992652,1,0.22744915771484372,1.7226280944824217,-11.130643518066405,-0.7862595419847328,0.5572519083969466,-1.3511450381679388
5268282267936,10.283993485,1,0.2537853759765625,1.70467158203125,-11.068394274902342,-0.8244274809160306,0.5877862595419847,-1.3358778625954197
5268302267363,10.303992912,1,0.229843359375,1.7597382202148437,-11.192892761230468,-0.7938931297709924,0.6106870229007634,-1.3511450381679388
5268322267884,10.323993433,1,0.19153613281249998,1.7453730102539062,-11.225214483642578,-0.7709923664122137,0.5648854961832062,-1.3435114503816794
5268342268613,10.343994162,1,0.2214636535644531,1.7238251953125,-11.142614526367186,-0.7862595419847328,0.5877862595419847,-1.3206106870229009
5268362268769,10.363994318,1,0.229843359375,1.7094599853515624,-11.233594189453123,-0.8015267175572519,0.549618320610687,-1.3282442748091603
5268382266947,10.383992496,1,0.23822306518554687,1.7561469177246092,-11.165359442138671,-0.8320610687022901,0.549618320610687,-1.3358778625954197
5268402266165,10.403991714,1,0.23582886352539062,1.695094775390625,-11.156979736328124,-0.8091603053435115,0.5343511450381679,-1.3282442748091603
5268422265488,10.423991037,1,0.24660277099609373,1.7453730102539062,-11.097124694824219,-0.7557251908396947,0.5725190839694656,-1.3358778625954197
5268442268874,10.443994423,1,0.22864625854492185,1.696291876220703,-11.171344946289063,-0.8015267175572519,0.5572519083969466,-1.3129770992366412
5268462266842,10.463992391,1,0.20350714111328125,1.7513585144042967,-11.194089862060546,-0.816793893129771,0.5267175572519084,-1.3206106870229009
5268482266947,10.483992496,1,0.20949264526367187,1.7357962036132812,-11.154585534667968,-0.8091603053435115,0.5648854961832062,-1.2748091603053435
5268502265853,10.503991402,1,0.19871873779296872,1.7525556152343749,-11.168950744628905,-0.8244274809160306,0.5801526717557252,-1.3206106870229009
5268522267571,10.52399312,1,0.23582886352539062,1.7681179260253905,-11.146205828857422,-0.8549618320610687,0.6106870229007634,-1.3129770992366412
5268542264603,10.543990152,1,0.23822306518554687,1.7393875061035156,-11.121066711425781,-0.7633587786259542,0.5801526717557252,-1.3129770992366412
5268562268717,10.563994266,1,0.20829554443359374,1.763329522705078,-11.112687005615234,-0.8091603053435115,0.5419847328244275,-1.3206106870229009
5268582266321,10.58399187,1,0.19393033447265623,1.7501614135742187,-11.156979736328124,-0.7786259541984732,0.5572519083969466,-1.3206106870229009
5268602267571,10.60399312,1,0.22505495605468748,1.715445489501953,-11.183315954589844,-0.816793893129771,0.5648854961832062,-1.3206106870229009
5268622266478,10.623992027,1,0.17238251953125,1.7106570861816406,-11.192892761230468,-0.8091603053435115,0.5343511450381679,-1.3282442748091603
5268642309186,10.644034735,1,0.24061726684570311,1.697488977050781,-11.12226381225586,-0.8473282442748091,0.5725190839694656,-1.3053435114503817
5268662265853,10.663991402,1,0.2154781494140625,1.7369933044433592,-11.15338843383789,-0.8549618320610687,0.5877862595419847,-1.3282442748091603
5268682267415,10.683992964,1,0.21308394775390624,1.7310078002929687,-11.158176837158203,-0.8396946564885496,0.5725190839694656,-1.3206106870229009
5268702266842,10.703992391,1,0.20231004028320312,1.7417817077636717,-11.19169566040039,-0.8015267175572519,0.5572519083969466,-1.3358778625954197
5268722266790,10.723992339,1,0.25737667846679685,1.7369933044433592,-11.173739147949219,-0.816793893129771,0.5343511450381679,-1.3358778625954197
5268742311321,10.74403687,1,0.24779987182617186,1.7908628417968748,-11.204863769531249,-0.8320610687022901,0.5572519083969466,-1.3053435114503817
5268762268040,10.763993589,1,0.239420166015625,1.7417817077636717,-11.18571015625,-0.7938931297709924,0.6183206106870229,-1.2442748091603053
5268782267728,10.783993277,1,0.18914193115234373,1.7286135986328124,-11.182118853759764,-0.8015267175572519,0.549618320610687,-1.3282442748091603
5268802267051,10.8039926,1,0.24779987182617186,1.7417817077636717,-11.131840618896483,-0.816793893129771,0.5877862595419847,-1.3358778625954197
5268822267103,10.823992652,1,0.2214636535644531,1.7130512878417967,-11.197681164550781,-0.8396946564885496,0.5877862595419847,-1.3282442748091603
5268842306426,10.844031975,1,0.23582886352539062,1.734599102783203,-11.275492718505859,-0.7938931297709924,0.5877862595419847,-1.3129770992366412
5268862267311,10.86399286,1,0.2154781494140625,1.7369933044433592,-11.131840618896483,-0.7862595419847328,0.5877862595419847,-1.3282442748091603
5268882267623,10.883993172,1,0.25258827514648435,1.707065783691406,-11.161768139648437,-0.7938931297709924,0.5648854961832062,-1.3282442748091603
5268902267467,10.903993016,1,0.24779987182617186,1.744175909423828,-11.11508120727539,-0.7786259541984732,0.5725190839694656,-1.3587786259541985
5268922267363,10.923992912,1,0.201112939453125,1.7118541870117185,-11.177330450439452,-0.8320610687022901,0.549618320610687,-1.3053435114503817
5268942267311,10.94399286,1,0.19871873779296872,1.7094599853515624,-11.113884106445312,-0.8396946564885496,0.5648854961832062,-1.3282442748091603
5268962283769,10.964009318,1,0.24061726684570311,1.7513585144042967,-11.135431921386719,-0.816793893129771,0.5419847328244275,-1.3053435114503817
5268982270384,10.983995933,1,0.21428104858398436,1.7274164978027342,-11.128249316406249,-0.8091603053435115,0.5343511450381679,-1.2900763358778626
5269002267415,11.003992964,1,0.23582886352539062,1.7657237243652342,-11.244368096923827,-0.8396946564885496,0.5648854961832062,-1.3358778625954197
5269022265488,11.023991037,1,0.23822306518554687,1.6927005737304686,-11.170147845458983,-0.7938931297709924,0.5572519083969466,-1.3053435114503817
5269042267675,11.043993224,1,0.21188684692382811,1.7417817077636717,-11.209652172851563,-0.8091603053435115,0.6259541984732825,-1.3206106870229009
5269062266790,11.063992339,1,0.24181436767578124,1.7381904052734374,-11.200075366210937,-0.8091603053435115,0.5954198473282443,-1.3435114503816794
5269082266009,11.083991558,1,0.2705447875976562,1.7034744812011717,-11.156979736328124,-0.7786259541984732,0.549618320610687,-1.3587786259541985
5269102268769,11.103994318,1,0.24181436767578124,1.7357962036132812,-11.14022032470703,-0.8320610687022901,0.5801526717557252,-1.3129770992366412
5269122267311,11.12399286,1,0.22385785522460935,1.7453730102539062,-11.129446417236327,-0.8244274809160306,0.5572519083969466,-1.3893129770992367
5269142267155,11.143992704,1,0.16160861206054686,1.7549498168945312,-11.166556542968749,-0.7938931297709924,0.549618320610687,-1.2900763358778626
5269162264134,11.163989683,1,0.22864625854492185,1.7106570861816406,-11.189301458740234,-0.8015267175572519,0.5572519083969466,-1.3587786259541985
5269182266946,11.183992495,1,0.21068974609375,1.7322049011230467,-11.179724652099608,-0.8625954198473282,0.5038167938931297,-1.3511450381679388
5269202265488,11.203991037,1,0.23702596435546874,1.7034744812011717,-11.177330450439452,-0.8015267175572519,0.5190839694656488,-1.297709923664122
5269222264602,11.223990151,1,0.23343466186523437,1.7286135986328124,-11.18571015625,-0.8015267175572519,0.5954198473282443,-1.3358778625954197
5269242269655,11.243995204,1,0.2705447875976562,1.7310078002929687,-11.190498559570312,-0.816793893129771,0.5877862595419847,-1.297709923664122
5269262268717,11.263994266,1,0.21787235107421873,1.7106570861816406,-11.166556542968749,-0.7709923664122137,0.5419847328244275,-1.3282442748091603
5269282265280,11.283990829,1,0.19871873779296872,1.7082628845214842,-11.213243475341796,-0.7862595419847328,0.4961832061068702,-1.3206106870229009
5269302272727,11.303998276,1,0.1975216369628906,1.6915034729003906,-11.162965240478515,-0.8396946564885496,0.5801526717557252,-1.3206106870229009
5269322274863,11.324000412,1,0.21906945190429686,1.7705121276855467,-11.17852755126953,-0.8015267175572519,0.5648854961832062,-1.3511450381679388
5269342264342,11.343989891,1,0.24181436767578124,1.7310078002929687,-11.215637677001952,-0.8931297709923665,0.549618320610687,-1.3206106870229009
5269362268248,11.363993797,1,0.19153613281249998,1.6998831787109374,-11.168950744628905,-0.7786259541984732,0.5954198473282443,-1.366412213740458
5269382266790,11.383992339,1,0.24181436767578124,1.7166425903320313,-11.192892761230468,-0.816793893129771,0.6106870229007634,-1.3511450381679388
5269402266894,11.403992443,1,0.19632453613281248,1.7477672119140624,-11.23000288696289,-0.8015267175572519,0.5572519083969466,-1.3053435114503817
5269422266634,11.423992183,1,0.21188684692382811,1.7310078002929687,-11.12226381225586,-0.8396946564885496,0.5267175572519084,-1.3969465648854962
5269442266217,11.443991766,1,0.2549824768066406,1.7525556152343749,-11.131840618896483,-0.8931297709923665,0.5877862595419847,-1.3129770992366412
5269462268040,11.463993589,1,0.25139117431640623,1.7753005310058592,-11.154585534667968,-0.7709923664122137,0.6030534351145038,-1.3358778625954197
5269482268092,11.483993641,1,0.22385785522460935,1.7465701110839842,-11.219228979492186,-0.7862595419847328,0.5877862595419847,-1.3435114503816794
5269502267832,11.503993381,1,0.19991583862304688,1.7214309936523438,-11.202469567871093,-0.7709923664122137,0.5877862595419847,-1.3206106870229009
5269522266373,11.523991922,1,0.24899697265624998,1.725022296142578,-11.159373937988281,-0.8473282442748091,0.5572519083969466,-1.2900763358778626
5269542317675,11.544043224,1,0.23702596435546874,1.6986860778808592,-11.186907257080078,-0.7709923664122137,0.5343511450381679,-1.3511450381679388
5269562269759,11.563995308,1,0.14724340209960937,1.7310078002929687,-11.204863769531249,-0.8320610687022901,0.5038167938931297,-1.3282442748091603
5269582270488,11.583996037,1,0.24779987182617186,1.70467158203125,-11.209652172851563,-0.7938931297709924,0.5801526717557252,-1.3358778625954197
5269602267259,11.603992808,1,0.20829554443359374,1.7393875061035156,-11.130643518066405,-0.8091603053435115,0.5419847328244275,-1.3129770992366412
5269622267467,11.623993016,1,0.2154781494140625,1.7274164978027342,-11.189301458740234,-0.8320610687022901,0.5648854961832062,-1.3206106870229009
5269642269081,11.64399463,1,0.201112939453125,1.763329522705078,-11.186907257080078,-0.7862595419847328,0.5725190839694656,-1.3282442748091603
5269662266998,11.663992547,1,0.19871873779296872,1.6843208679199217,-11.121066711425781,-0.7938931297709924,0.5877862595419847,-1.3358778625954197
5269682267988,11.683993537,1,0.23223756103515625,1.707065783691406,-11.174936248779296,-0.8015267175572519,0.5954198473282443,-1.3435114503816794
5269702266634,11.703992183,1,0.2549824768066406,1.734599102783203,-11.136629022216797,-0.8931297709923665,0.5725190839694656,-1.3129770992366412
5269722267415,11.723992964,1,0.23343466186523437,1.7298106994628906,-11.156979736328124,-0.8396946564885496,0.6030534351145038,-1.3511450381679388
5269742266009,11.743991558,1,0.2346317626953125,1.7956512451171873,-11.240776794433593,-0.816793893129771,0.5801526717557252,-1.3282442748091603
5269762267675,11.763993224,1,0.20350714111328125,1.7022773803710936,-11.206060870361327,-0.8396946564885496,0.5648854961832062,-1.297709923664122
5269782265384,11.783990933,1,0.24061726684570311,1.707065783691406,-11.231199987792968,-0.8244274809160306,0.5877862595419847,-1.3358778625954197
5269802267050,11.803992599,1,0.229843359375,1.7657237243652342,-11.184513055419922,-0.7938931297709924,0.5267175572519084,-1.3358778625954197
5269822263040,11.823988589,1,0.2537853759765625,1.7477672119140624,-11.208455072021483,-0.8549618320610687,0.5648854961832062,-1.3282442748091603
5269842268665,11.843994214,1,0.2442085693359375,1.7585411193847655,-11.142614526367186,-0.7709923664122137,0.549618320610687,-1.3282442748091603
5269862267311,11.86399286,1,0.24301146850585936,1.7549498168945312,-11.183315954589844,-0.8091603053435115,0.5190839694656488,-1.3206106870229009
5269882267415,11.883992964,1,0.24181436767578124,1.7573440185546874,-11.168950744628905,-0.7938931297709924,0.5572519083969466,-1.3282442748091603
5269902265383,11.903990932,1,0.2154781494140625,1.7298106994628906,-11.182118853759764,-0.8625954198473282,0.5648854961832062,-1.3358778625954197
5269922267311,11.92399286,1,0.19991583862304688,1.7489643127441405,-11.154585534667968,-0.8244274809160306,0.5267175572519084,-1.3358778625954197
5269942266738,11.943992287,1,0.21787235107421873,1.7238251953125,-11.240776794433593,-0.8244274809160306,0.6106870229007634,-1.3435114503816794
5269962269029,11.963994578,1,0.229843359375,1.7214309936523438,-11.171344946289063,-0.7480916030534351,0.5954198473282443,-1.3206106870229009
5269982265956,11.983991505,1,0.16639701538085935,1.7106570861816406,-11.105504400634764,-0.8473282442748091,0.5419847328244275,-1.3969465648854962
5270002267727,12.003993276,1,0.1771709228515625,1.7357962036132812,-11.174936248779296,-0.8091603053435115,0.5801526717557252,-1.3053435114503817
5270022266061,12.02399161,1,0.25258827514648435,1.7010802795410156,-11.149797131347656,-0.7786259541984732,0.5419847328244275,-1.3587786259541985
5270042267883,12.043993432,1,0.2597708801269531,1.7501614135742187,-11.271901416015623,-0.816793893129771,0.5648854961832062,-1.2900763358778626
5270062268352,12.063993901,1,0.18315642700195311,1.7322049011230467,-11.218031878662108,-0.8091603053435115,0.5801526717557252,-1.3053435114503817
5270082267050,12.083992599,1,0.19512743530273435,1.7130512878417967,-11.135431921386719,-0.8244274809160306,0.5954198473282443,-1.297709923664122
5270102266425,12.103991974,1,0.22385785522460935,1.7405846069335937,-11.218031878662108,-0.8015267175572519,0.5648854961832062,-1.3282442748091603
5270122265748,12.123991297,1,0.23343466186523437,1.7178396911621092,-11.17254204711914,-0.8015267175572519,0.5801526717557252,-1.3053435114503817
5270142274758,12.144000307,1,0.22505495605468748,1.7082628845214842,-11.182118853759764,-0.8015267175572519,0.5190839694656488,-1.3511450381679388
5270162269081,12.16399463,1,0.2454056701660156,1.7405846069335937,-11.145008728027342,-0.7862595419847328,0.5648854961832062,-1.2900763358778626
5270182268613,12.183994162,1,0.25737667846679685,1.7310078002929687,-11.182118853759764,-0.7938931297709924,0.5801526717557252,-1.3206106870229009
5270202266425,12.203991974,1,0.31004911499023435,1.7214309936523438,-11.24915650024414,-0.8244274809160306,0.5343511450381679,-1.3358778625954197
5270222273613,12.223999162,1,0.22505495605468748,1.714248388671875,-11.184513055419922,-0.8015267175572519,0.549618320610687,-1.3206106870229009
5270242269863,12.243995412,1,0.21188684692382811,1.7010802795410156,-11.149797131347656,-0.8091603053435115,0.5572519083969466,-1.3511450381679388
5270262269758,12.263995307,1,0.20470424194335937,1.7405846069335937,-11.196484063720703,-0.8778625954198473,0.5954198473282443,-1.3206106870229009
5270282266581,12.28399213,1,0.1879448303222656,1.7238251953125,-11.197681164550781,-0.8320610687022901,0.5725190839694656,-1.3053435114503817
5270302266269,12.303991818,1,0.21308394775390624,1.7681179260253905,-11.231199987792968,-0.8244274809160306,0.5725190839694656,-1.3358778625954197
5270322267362,12.323992911,1,0.1879448303222656,1.6771382629394531,-11.201272467041015,-0.8244274809160306,0.5343511450381679,-1.3053435114503817
5270342264550,12.343990099,1,0.19393033447265623,1.7178396911621092,-11.123460913085937,-0.8015267175572519,0.5877862595419847,-1.3282442748091603
5270362265331,12.36399088,1,0.19033903198242186,1.70467158203125,-11.164162341308593,-0.8549618320610687,0.5877862595419847,-1.3587786259541985
5270382267623,12.383993172,1,0.201112939453125,1.725022296142578,-11.14022032470703,-0.8244274809160306,0.6259541984732825,-1.3282442748091603
5270402262310,12.403987859,1,0.19153613281249998,1.7405846069335937,-11.107898602294922,-0.8320610687022901,0.5419847328244275,-1.3282442748091603
5270422267467,12.423993016,1,0.18435352783203124,1.7202338928222656,-11.226411584472656,-0.8549618320610687,0.549618320610687,-1.297709923664122
5270442266373,12.443991922,1,0.23343466186523437,1.7226280944824217,-11.244368096923827,-0.8396946564885496,0.549618320610687,-1.3053435114503817
5270462267779,12.463993328,1,0.1975216369628906,1.7238251953125,-11.164162341308593,-0.8396946564885496,0.5877862595419847,-1.3587786259541985
5270482266581,12.48399213,1,0.24660277099609373,1.7286135986328124,-11.203666668701171,-0.8320610687022901,0.5419847328244275,-1.3282442748091603
5270502264862,12.503990411,1,0.24061726684570311,1.763329522705078,-11.220426080322264,-0.816793893129771,0.6106870229007634,-1.366412213740458
5270522267414,12.523992963,1,0.20350714111328125,1.7094599853515624,-11.19169566040039,-0.8244274809160306,0.5954198473282443,-1.3358778625954197
5270542266321,12.54399187,1,0.20470424194335937,1.7465701110839842,-11.190498559570312,-0.7938931297709924,0.5648854961832062,-1.3282442748091603
5270562267727,12.563993276,1,0.25139117431640623,1.7465701110839842,-11.21683477783203,-0.8091603053435115,0.5343511450381679,-1.3053435114503817
5270582266581,12.58399213,1,0.22505495605468748,1.7130512878417967,-11.26831011352539,-0.8320610687022901,0.6030534351145038,-1.3511450381679388
5270602266112,12.603991661,1,0.2166752502441406,1.7405846069335937,-11.215637677001952,-0.8015267175572519,0.5725190839694656,-1.297709923664122
5270622265383,12.623990932,1,0.2346317626953125,1.7166425903320313,-11.21683477783203,-0.8091603053435115,0.6259541984732825,-1.3435114503816794
5270642267310,12.643992859,1,0.20350714111328125,1.7082628845214842,-11.190498559570312,-0.7862595419847328,0.5572519083969466,-1.3206106870229009
5270662268821,12.66399437,1,0.23104046020507812,1.7788918334960937,-11.180921752929686,-0.8702290076335878,0.6106870229007634,-1.3435114503816794
5270682268039,12.683993588,1,0.18914193115234373,1.763329522705078,-11.195286962890624,-0.7862595419847328,0.5648854961832062,-1.3129770992366412
5270702267675,12.703993224,1,0.21428104858398436,1.707065783691406,-11.257536206054686,-0.8396946564885496,0.5954198473282443,-1.3129770992366412
5270722266321,12.72399187,1,0.24061726684570311,1.7166425903320313,-11.231199987792968,-0.8473282442748091,0.6183206106870229,-1.3358778625954197
5270742265696,12.743991245,1,0.1771709228515625,1.7298106994628906,-11.19169566040039,-0.7709923664122137,0.5725190839694656,-1.297709923664122
5270762271164,12.763996713,1,0.181959326171875,1.744175909423828,-11.203666668701171,-0.816793893129771,0.5801526717557252,-1.3053435114503817
5270782269758,12.783995307,1,0.16639701538085935,1.7082628845214842,-11.130643518066405,-0.8320610687022901,0.5190839694656488,-1.3053435114503817
5270802270539,12.803996088,1,0.2346317626953125,1.7082628845214842,-11.156979736328124,-0.7862595419847328,0.5572519083969466,-1.3282442748091603
5270822268821,12.82399437,1,0.2765302917480469,1.7585411193847655,-11.183315954589844,-0.8015267175572519,0.6030534351145038,-1.3206106870229009
5270842269810,12.843995359,1,0.20350714111328125,1.7106570861816406,-11.262324609375,-0.8549618320610687,0.5954198473282443,-1.366412213740458
5270862271373,12.863996922,1,0.2861070983886719,1.7034744812011717,-11.186907257080078,-0.7862595419847328,0.5877862595419847,-1.3206106870229009
5270882271321,12.88399687,1,0.23702596435546874,1.7130512878417967,-11.166556542968749,-0.8015267175572519,0.5648854961832062,-1.3740458015267176
5270902266112,12.903991661,1,0.2442085693359375,1.7357962036132812,-11.174936248779296,-0.8549618320610687,0.5343511450381679,-1.3282442748091603
5270922269133,12.923994682,1,0.2645592834472656,1.6915034729003906,-11.195286962890624,-0.816793893129771,0.5954198473282443,-1.3282442748091603
5270942269133,12.943994682,1,0.239420166015625,1.7381904052734374,-11.186907257080078,-0.8549618320610687,0.5419847328244275,-1.3282442748091603
5270962268873,12.963994422,1,0.24181436767578124,1.715445489501953,-11.159373937988281,-0.816793893129771,0.6106870229007634,-1.2748091603053435
5270982271164,12.983996713,1,0.22864625854492185,1.7238251953125,-11.174936248779296,-0.8625954198473282,0.6335877862595419,-1.3053435114503817
5271002270018,13.003995567,1,0.258573779296875,1.70467158203125,-11.182118853759764,-0.8396946564885496,0.5343511450381679,-1.3358778625954197
5271022269133,13.023994682,1,0.20709844360351562,1.715445489501953,-11.221623181152344,-0.816793893129771,0.5572519083969466,-1.3129770992366412
5271042269289,13.043994838,1,0.24660277099609373,1.7597382202148437,-11.142614526367186,-0.7862595419847328,0.5725190839694656,-1.3206106870229009
5271062270539,13.063996088,1,0.2346317626953125,1.6819266662597656,-11.190498559570312,-0.8244274809160306,0.5419847328244275,-1.3282442748091603
5271082270800,13.083996349,1,0.17118541870117188,1.7609353210449217,-11.159373937988281,-0.816793893129771,0.5725190839694656,-1.3282442748091603
5271102266373,13.103991922,1,0.23104046020507812,1.7190367919921874,-11.264718811035156,-0.816793893129771,0.5572519083969466,-1.3206106870229009
5271122269341,13.12399489,1,0.16041151123046873,1.8004396484374998,-11.137826123046874,-0.8091603053435115,0.5801526717557252,-1.366412213740458
5271142269133,13.143994682,1,0.2861070983886719,1.7453730102539062,-11.168950744628905,-0.8015267175572519,0.5572519083969466,-1.3358778625954197
5271162267102,13.163992651,1,0.22385785522460935,1.6843208679199217,-11.247959399414063,-0.816793893129771,0.6030534351145038,-1.3129770992366412
5271182270904,13.183996453,1,0.26695348510742184,1.7417817077636717,-11.213243475341796,-0.8396946564885496,0.6183206106870229,-1.3282442748091603
5271202269133,13.203994682,1,0.19393033447265623,1.675941162109375,-11.192892761230468,-0.8244274809160306,0.549618320610687,-1.3282442748091603
5271222269706,13.223995255,1,0.21188684692382811,1.714248388671875,-11.174936248779296,-0.7709923664122137,0.5572519083969466,-1.3129770992366412
5271242270383,13.243995932,1,0.24181436767578124,1.7465701110839842,-11.186907257080078,-0.8015267175572519,0.5343511450381679,-1.3358778625954197
5271262273195,13.263998744,1,0.2705447875976562,1.7561469177246092,-11.221623181152344,-0.8244274809160306,0.5954198473282443,-1.282442748091603
5271282270331,13.28399588,1,0.2214636535644531,1.7178396911621092,-11.170147845458983,-0.7709923664122137,0.549618320610687,-1.3282442748091603
5271302276008,13.304001557,1,0.18315642700195311,1.7429788085937499,-11.168950744628905,-0.8091603053435115,0.5877862595419847,-1.3053435114503817
5271322271633,13.323997182,1,0.23822306518554687,1.7477672119140624,-11.165359442138671,-0.8320610687022901,0.5648854961832062,-1.3282442748091603
5271342281477,13.344007026,1,0.20231004028320312,1.725022296142578,-11.129446417236327,-0.8320610687022901,0.6030534351145038,-1.3206106870229009
5271362268247,13.363993796,1,0.2214636535644531,1.7334020019531249,-11.129446417236327,-0.7862595419847328,0.5648854961832062,-1.3435114503816794
5271382269185,13.383994734,1,0.20709844360351562,1.697488977050781,-11.184513055419922,-0.8091603053435115,0.5954198473282443,-1.3129770992366412
5271402269758,13.403995307,1,0.2454056701660156,1.7669208251953124,-11.162965240478515,-0.8244274809160306,0.5114503816793893,-1.3206106870229009
5271422269133,13.423994682,1,0.2609679809570312,1.7334020019531249,-11.167753643798827,-0.8396946564885496,0.5648854961832062,-1.297709923664122
5271442269445,13.443994994,1,0.26216508178710934,1.7262193969726563,-11.186907257080078,-0.7862595419847328,0.5572519083969466,-1.3969465648854962
5271462311685,13.464037234,1,0.20709844360351562,1.7525556152343749,-11.18571015625,-0.7709923664122137,0.5801526717557252,-1.3358778625954197
5271482269550,13.483995099,1,0.23822306518554687,1.7453730102539062,-11.213243475341796,-0.7938931297709924,0.5877862595419847,-1.282442748091603
5271502269810,13.503995359,1,0.23104046020507812,1.707065783691406,-11.19887826538086,-0.7938931297709924,0.5190839694656488,-1.282442748091603
5271522269237,13.523994786,1,0.23104046020507812,1.7274164978027342,-11.124658013916015,-0.8015267175572519,0.5954198473282443,-1.3511450381679388
5271542270018,13.543995567,1,0.26216508178710934,1.7118541870117185,-11.141417425537108,-0.7862595419847328,0.5419847328244275,-1.3206106870229009
5271562268560,13.563994109,1,0.23343466186523437,1.7334020019531249,-11.188104357910156,-0.8244274809160306,0.5725190839694656,-1.3587786259541985
5271582269029,13.583994578,1,0.23343466186523437,1.7417817077636717,-11.080365283203124,-0.8320610687022901,0.5877862595419847,-1.282442748091603
5271602269966,13.603995515,1,0.18555062866210936,1.6915034729003906,-11.174936248779296,-0.8091603053435115,0.5954198473282443,-1.3358778625954197
5271622267414,13.623992963,1,0.2442085693359375,1.725022296142578,-11.196484063720703,-0.8931297709923665,0.5877862595419847,-1.282442748091603
5271642264549,13.643990098,1,0.2609679809570312,1.6938976745605467,-11.143811627197264,-0.7862595419847328,0.5954198473282443,-1.3282442748091603
5271662269914,13.663995463,1,0.2537853759765625,1.7525556152343749,-11.13423482055664,-0.7938931297709924,0.5725190839694656,-1.2900763358778626
5271682270070,13.683995619,1,0.23822306518554687,1.7369933044433592,-11.265915911865234,-0.8244274809160306,0.5801526717557252,-1.3511450381679388
5271702269393,13.703994942,1,0.17956512451171874,1.7393875061035156,-11.088744989013671,-0.8473282442748091,0.5419847328244275,-1.3740458015267176
5271722268977,13.723994526,1,0.1879448303222656,1.763329522705078,-11.188104357910156,-0.7938931297709924,0.5419847328244275,-1.3587786259541985
5271742269810,13.743995359,1,0.21308394775390624,1.7310078002929687,-11.156979736328124,-0.8396946564885496,0.5801526717557252,-1.3358778625954197
5271762270174,13.763995723,1,0.25737667846679685,1.734599102783203,-11.285069525146485,-0.8396946564885496,0.5725190839694656,-1.3511450381679388
5271782270226,13.783995775,1,0.2346317626953125,1.7669208251953124,-11.148600030517578,-0.816793893129771,0.5572519083969466,-1.3282442748091603
5271802268768,13.803994317,1,0.23343466186523437,1.7298106994628906,-11.127052215576171,-0.8091603053435115,0.5572519083969466,-1.297709923664122
5271822269810,13.823995359,1,0.229843359375,1.7322049011230467,-11.235988391113281,-0.8320610687022901,0.5801526717557252,-1.3587786259541985
5271842269862,13.843995411,1,0.2861070983886719,1.7106570861816406,-11.201272467041015,-0.8320610687022901,0.6259541984732825,-1.3435114503816794
5271862271320,13.863996869,1,0.27293898925781246,1.7788918334960937,-11.18571015625,-0.7862595419847328,0.549618320610687,-1.3358778625954197
5271882270695,13.883996244,1,0.22744915771484372,1.707065783691406,-11.196484063720703,-0.8015267175572519,0.4961832061068702,-1.3129770992366412
5271902269185,13.903994734,1,0.27174188842773433,1.7357962036132812,-11.21683477783203,-0.8473282442748091,0.5419847328244275,-1.3435114503816794
5271922269237,13.923994786,1,0.25737667846679685,1.7573440185546874,-11.154585534667968,-0.8015267175572519,0.5725190839694656,-1.3282442748091603
5271942269029,13.943994578,1,0.26815058593749996,1.7214309936523438,-11.14022032470703,-0.7862595419847328,0.6030534351145038,-1.3053435114503817
5271962269185,13.963994734,1,0.2059013427734375,1.6938976745605467,-11.100715997314452,-0.8091603053435115,0.5725190839694656,-1.3358778625954197
5271982271320,13.983996869,1,0.21188684692382811,1.734599102783203,-11.195286962890624,-0.8091603053435115,0.5877862595419847,-1.3206106870229009
5272002271216,14.003996765,1,0.2501940734863281,1.744175909423828,-11.226411584472656,-0.8244274809160306,0.5954198473282443,-1.3358778625954197
5272022281997,14.024007546,1,0.22864625854492185,1.7453730102539062,-11.186907257080078,-0.8396946564885496,0.5877862595419847,-1.3358778625954197
5272042269133,14.043994682,1,0.22864625854492185,1.7106570861816406,-11.2240173828125,-0.8320610687022901,0.5572519083969466,-1.3129770992366412
5272062267778,14.063993327,1,0.2442085693359375,1.7202338928222656,-11.194089862060546,-0.7862595419847328,0.5954198473282443,-1.3206106870229009
5272082271997,14.083997546,1,0.2549824768066406,1.7597382202148437,-11.152191333007812,-0.8091603053435115,0.5877862595419847,-1.3358778625954197
5272102270747,14.103996296,1,0.24779987182617186,1.7130512878417967,-11.201272467041015,-0.816793893129771,0.5725190839694656,-1.3511450381679388
5272122270331,14.12399588,1,0.22026655273437498,1.7549498168945312,-11.184513055419922,-0.8015267175572519,0.6030534351145038,-1.3129770992366412
5272142275278,14.144000827,1,0.24779987182617186,1.7274164978027342,-11.121066711425781,-0.8549618320610687,0.5725190839694656,-1.3435114503816794
5272162272831,14.16399838,1,0.21068974609375,1.7166425903320313,-11.139023223876952,-0.816793893129771,0.5343511450381679,-1.3129770992366412
5272182271164,14.183996713,1,0.2454056701660156,1.695094775390625,-11.222820281982422,-0.8549618320610687,0.5801526717557252,-1.2748091603053435
5272202271268,14.203996817,1,0.2346317626953125,1.7310078002929687,-11.17254204711914,-0.8091603053435115,0.5801526717557252,-1.3282442748091603
5272222280226,14.224005775,1,0.19512743530273435,1.725022296142578,-11.149797131347656,-0.7938931297709924,0.5267175572519084,-1.3282442748091603
5272242272153,14.243997702,1,0.21428104858398436,1.7310078002929687,-11.129446417236327,-0.8625954198473282,0.5725190839694656,-1.3206106870229009
5272262270903,14.263996452,1,0.19632453613281248,1.7453730102539062,-11.17852755126953,-0.8396946564885496,0.5190839694656488,-1.3282442748091603
5272282270695,14.283996244,1,0.17836802368164062,1.7214309936523438,-11.158176837158203,-0.816793893129771,0.5725190839694656,-1.3206106870229009
5272302269914,14.303995463,1,0.181959326171875,1.6938976745605467,-11.208455072021483,-0.816793893129771,0.5572519083969466,-1.3435114503816794
5272322269653,14.323995202,1,0.2657563842773437,1.6819266662597656,-11.186907257080078,-0.8320610687022901,0.5648854961832062,-1.3206106870229009
5272342269028,14.343994577,1,0.1771709228515625,1.7405846069335937,-11.139023223876952,-0.8320610687022901,0.5190839694656488,-1.3129770992366412
5272362269289,14.363994838,1,0.24779987182617186,1.705868682861328,-11.165359442138671,-0.732824427480916,0.549618320610687,-1.3053435114503817
5272382264966,14.383990515,1,0.21428104858398436,1.715445489501953,-11.112687005615234,-0.8473282442748091,0.5954198473282443,-1.3282442748091603
5272402270539,14.403996088,1,0.19512743530273435,1.725022296142578,-11.204863769531249,-0.8320610687022901,0.5801526717557252,-1.3511450381679388
5272422269289,14.423994838,1,0.2214636535644531,1.7094599853515624,-11.197681164550781,-0.8015267175572519,0.5725190839694656,-1.2748091603053435
5272442271476,14.443997025,1,0.21787235107421873,1.7190367919921874,-11.170147845458983,-0.8244274809160306,0.6183206106870229,-1.3129770992366412
5272462269445,14.463994994,1,0.19991583862304688,1.7274164978027342,-11.200075366210937,-0.8320610687022901,0.5954198473282443,-1.3282442748091603
5272482272257,14.483997806,1,0.24061726684570311,1.7357962036132812,-11.227608685302734,-0.7862595419847328,0.5648854961832062,-1.282442748091603
5272502270851,14.5039964,1,0.23104046020507812,1.7274164978027342,-11.154585534667968,-0.8244274809160306,0.5648854961832062,-1.3206106870229009
5272522269810,14.523995359,1,0.258573779296875,1.70467158203125,-11.204863769531249,-0.8320610687022901,0.549618320610687,-1.3129770992366412
5272542270226,14.543995775,1,0.26336218261718747,1.7621324218749999,-11.189301458740234,-0.8320610687022901,0.549618320610687,-1.3129770992366412
5272562270591,14.56399614,1,0.22744915771484372,1.744175909423828,-11.159373937988281,-0.816793893129771,0.6106870229007634,-1.3053435114503817
5272582271060,14.583996609,1,0.19632453613281248,1.7369933044433592,-11.158176837158203,-0.7633587786259542,0.5572519083969466,-1.3435114503816794
5272602270643,14.603996192,1,0.23702596435546874,1.7202338928222656,-11.150994232177734,-0.8015267175572519,0.5877862595419847,-1.3511450381679388
5272622270018,14.623995567,1,0.23702596435546874,1.7357962036132812,-11.15338843383789,-0.8320610687022901,0.5572519083969466,-1.381679389312977
5272642271060,14.643996609,1,0.21188684692382811,1.7381904052734374,-11.203666668701171,-0.8015267175572519,0.5419847328244275,-1.3206106870229009
5272662271164,14.663996713,1,0.1927332336425781,1.7669208251953124,-11.164162341308593,-0.8396946564885496,0.5648854961832062,-1.3511450381679388
5272682270591,14.68399614,1,0.22505495605468748,1.7190367919921874,-11.190498559570312,-0.8244274809160306,0.6183206106870229,-1.3740458015267176
5272702270018,14.703995567,1,0.23702596435546874,1.7238251953125,-11.184513055419922,-0.8549618320610687,0.5419847328244275,-1.3206106870229009
5272722269966,14.723995515,1,0.20350714111328125,1.7166425903320313,-11.150994232177734,-0.8091603053435115,0.6030534351145038,-1.3282442748091603
5272742268976,14.743994525,1,0.23582886352539062,1.7549498168945312,-11.179724652099608,-0.8015267175572519,0.5267175572519084,-1.2900763358778626
5272762270591,14.76399614,1,0.22026655273437498,1.7190367919921874,-11.202469567871093,-0.8091603053435115,0.6030534351145038,-1.2900763358778626
5272782269862,14.783995411,1,0.1927332336425781,1.7501614135742187,-11.173739147949219,-0.8091603053435115,0.5954198473282443,-1.3053435114503817
5272802270122,14.803995671,1,0.23582886352539062,1.7357962036132812,-11.18571015625,-0.8091603053435115,0.5648854961832062,-1.3282442748091603
5272822270851,14.8239964,1,0.2657563842773437,1.734599102783203,-11.21084927368164,-0.7709923664122137,0.6259541984732825,-1.3435114503816794
5272842270122,14.843995671,1,0.24301146850585936,1.696291876220703,-11.238382592773437,-0.8320610687022901,0.5419847328244275,-1.3511450381679388
5272862270174,14.863995723,1,0.20231004028320312,1.8004396484374998,-11.158176837158203,-0.7862595419847328,0.5801526717557252,-1.3053435114503817
5272882264445,14.883989994,1,0.27174188842773433,1.7214309936523438,-11.150994232177734,-0.8549618320610687,0.5801526717557252,-1.3053435114503817
5272902268664,14.903994213,1,0.22266075439453123,1.7298106994628906,-11.192892761230468,-0.8091603053435115,0.5725190839694656,-1.3511450381679388
5272922269132,14.923994681,1,0.2442085693359375,1.7453730102539062,-11.155782635498046,-0.8244274809160306,0.549618320610687,-1.3129770992366412
5272942269341,14.94399489,1,0.277727392578125,1.7501614135742187,-11.253944903564452,-0.8015267175572519,0.5419847328244275,-1.3282442748091603
5272962269549,14.963995098,1,0.23223756103515625,1.7214309936523438,-11.168950744628905,-0.7786259541984732,0.5572519083969466,-1.3206106870229009
5272982271111,14.98399666,1,0.24660277099609373,1.6819266662597656,-11.158176837158203,-0.8396946564885496,0.5267175572519084,-1.3358778625954197
5273002269653,15.003995202,1,0.1927332336425781,1.7465701110839842,-11.19887826538086,-0.8244274809160306,0.5572519083969466,-1.3587786259541985
5273022269653,15.023995202,1,0.24181436767578124,1.725022296142578,-11.203666668701171,-0.7938931297709924,0.5572519083969466,-1.3358778625954197
5273042269966,15.043995515,1,0.24779987182617186,1.7190367919921874,-11.192892761230468,-0.8320610687022901,0.5648854961832062,-1.2671755725190839
5273062268924,15.063994473,1,0.1927332336425781,1.725022296142578,-11.158176837158203,-0.8396946564885496,0.549618320610687,-1.297709923664122
5273082271059,15.083996608,1,0.23343466186523437,1.725022296142578,-11.197681164550781,-0.8320610687022901,0.5877862595419847,-1.3511450381679388
5273102269236,15.103994785,1,0.20231004028320312,1.7405846069335937,-11.1474029296875,-0.7786259541984732,0.6106870229007634,-1.3206106870229009
5273122268820,15.123994369,1,0.22026655273437498,1.7465701110839842,-11.197681164550781,-0.8320610687022901,0.5343511450381679,-1.3282442748091603
5273142271736,15.143997285,1,0.24301146850585936,1.7298106994628906,-11.194089862060546,-0.8702290076335878,0.6030534351145038,-1.2900763358778626
5273162270434,15.163995983,1,0.23822306518554687,1.7286135986328124,-11.107898602294922,-0.8244274809160306,0.5801526717557252,-1.3893129770992367
