timestamp_ns,t_s,sensor_id,ax,ay,az,gx,gy,gz
5258184449659,0.186175208,2,8.10197841796875,5.767631799316406,0.7649474304199219,-1.7786259541984732,0.26717557251908397,-1.5648854961832062
5258204246378,0.205971927,2,8.070853796386718,5.76523759765625,0.7362170104980469,-1.7328244274809161,0.24427480916030533,-1.5419847328244274
5258224229971,0.22595552,2,8.11514652709961,5.791573815917968,0.7302315063476562,-1.7557251908396947,0.22900763358778625,-1.5648854961832062
5258244200232,0.245925781,2,8.074445098876952,5.719747766113281,0.6883329772949218,-1.786259541984733,0.26717557251908397,-1.618320610687023
5258264215284,0.265940833,2,8.060079888916015,5.7317187744140625,0.7050923889160156,-1.7709923664122138,0.24427480916030533,-1.618320610687023
5258284146586,0.285872135,2,8.084021905517577,5.738901379394531,0.8200140686035156,-1.8244274809160306,0.29770992366412213,-1.5801526717557253
5258304178669,0.305904218,2,8.136694342041014,5.772420202636718,0.7757213378906249,-1.748091603053435,0.19083969465648856,-1.6030534351145038
5258324205596,0.325931145,2,8.122329132080077,5.691017346191406,0.6536170532226562,-1.7709923664122138,0.22137404580152673,-1.6030534351145038
5258344172680,0.345898229,2,8.105569720458984,5.761646295166015,0.6859387756347656,-1.7404580152671756,0.183206106870229,-1.6030534351145038
5258364178461,0.36590401,2,8.109161022949218,5.76523759765625,0.7829039428710937,-1.7786259541984732,0.24427480916030533,-1.5648854961832062
5258384205961,0.38593151,2,8.122329132080077,5.768828900146484,0.7074865905761718,-1.7633587786259541,0.26717557251908397,-1.5954198473282444
5258404172680,0.405898229,2,8.131905938720703,5.7329158752441405,0.7074865905761718,-1.7251908396946565,0.29770992366412213,-1.6106870229007633
5258424175909,0.425901458,2,8.12113203125,5.761646295166015,0.7649474304199219,-1.7557251908396947,0.22137404580152673,-1.549618320610687
5258444203252,0.445928801,2,8.135497241210937,5.748478186035156,0.7433996154785156,-1.786259541984733,0.22900763358778625,-1.6106870229007633
5258464216794,0.465942343,2,8.122329132080077,5.7520694885253905,0.7589619262695312,-1.7709923664122138,0.21374045801526717,-1.549618320610687
5258484175700,0.485901249,2,8.112752325439452,5.7508723876953125,0.6751648681640625,-1.7557251908396947,0.2900763358778626,-1.6412213740458015
5258504210284,0.505935833,2,8.141482745361328,5.724536169433593,0.7817068420410156,-1.7786259541984732,0.22137404580152673,-1.5954198473282444
5258524204711,0.52593026,2,8.099584216308592,5.787982513427734,0.6823474731445313,-1.7709923664122138,0.25190839694656486,-1.5725190839694656
5258544200752,0.545926301,2,8.135497241210937,5.7520694885253905,0.6847416748046875,-1.7557251908396947,0.22900763358778625,-1.633587786259542
5258564211065,0.565936614,2,8.157045056152343,5.740098480224609,0.7158662963867187,-1.7709923664122138,0.2900763358778626,-1.534351145038168
5258584177627,0.585903176,2,8.131905938720703,5.687426043701172,0.7422025146484375,-1.7251908396946565,0.22900763358778625,-1.6106870229007633
5258604172836,0.605898385,2,8.099584216308592,5.780799908447265,0.7218518005371093,-1.7633587786259541,0.25190839694656486,-1.5572519083969465
5258624202054,0.625927603,2,8.14028564453125,5.781997009277344,0.6727706665039062,-1.8244274809160306,0.22137404580152673,-1.5877862595419847
5258644175388,0.645900937,2,8.131905938720703,5.746083984375,0.7326257080078125,-1.7633587786259541,0.2366412213740458,-1.6412213740458015
5258664179659,0.665905208,2,8.106766821289062,5.764040496826172,0.7350199096679687,-1.7404580152671756,0.2748091603053435,-1.5419847328244274
5258684205179,0.685930728,2,8.124723333740233,5.801150622558594,0.7888894470214843,-1.7328244274809161,0.2366412213740458,-1.6259541984732824
5258704243825,0.705969374,2,8.123526232910155,5.704185455322265,0.6619967590332031,-1.7786259541984732,0.2595419847328244,-1.5877862595419847
5258724199294,0.725924843,2,8.087613208007811,5.7329158752441405,0.719457598876953,-1.7404580152671756,0.22137404580152673,-1.5877862595419847
5258744151377,0.745876926,2,8.052897283935547,5.724536169433593,0.737414111328125,-1.7633587786259541,0.24427480916030533,-1.618320610687023
5258764176534,0.765902083,2,8.122329132080077,5.773617303466796,0.7864952453613281,-1.7709923664122138,0.26717557251908397,-1.5648854961832062
5258784206481,0.78593203,2,8.08881030883789,5.7317187744140625,0.7314286071777343,-1.6946564885496183,0.2366412213740458,-1.5725190839694656
5258804175909,0.805901458,2,8.06965669555664,5.756857891845703,0.7278373046875,-1.748091603053435,0.29770992366412213,-1.6259541984732824
5258824214398,0.825939947,2,8.106766821289062,5.720944866943359,0.7433996154785156,-1.7633587786259541,0.2595419847328244,-1.6564885496183206
5258844173617,0.845899166,2,8.14028564453125,5.747281085205078,0.6931213806152343,-1.7328244274809161,0.26717557251908397,-1.5877862595419847
5258864205909,0.865931458,2,8.081627703857421,5.773617303466796,0.7541735229492187,-1.748091603053435,0.2748091603053435,-1.5954198473282444
5258884199606,0.885925155,2,8.087613208007811,5.783194110107422,0.6859387756347656,-1.786259541984733,0.24427480916030533,-1.5877862595419847
5258904171221,0.90589677,2,8.111555224609374,5.756857891845703,0.7278373046875,-1.8015267175572518,0.22900763358778625,-1.5419847328244274
5258924210856,0.925936405,2,8.110358123779296,5.780799908447265,0.7230489013671875,-1.7557251908396947,0.20610687022900764,-1.633587786259542
5258944174815,0.945900364,2,8.14028564453125,5.744886883544922,0.8020575561523438,-1.7938931297709924,0.2824427480916031,-1.5267175572519085
5258964176325,0.965901874,2,8.111555224609374,5.753266589355468,0.8104372619628906,-1.7709923664122138,0.2595419847328244,-1.6412213740458015
5258984175492,0.985901041,2,8.086416107177733,5.819107135009765,0.709880792236328,-1.7633587786259541,0.24427480916030533,-1.618320610687023
5259004155492,1.005881041,2,8.106766821289062,5.748478186035156,0.6655880615234374,-1.7557251908396947,0.20610687022900764,-1.5648854961832062
5259024208877,1.025934426,2,8.105569720458984,5.736507177734374,0.6572083557128906,-1.8015267175572518,0.2366412213740458,-1.633587786259542
5259044212783,1.045938332,2,8.157045056152343,5.747281085205078,0.7769184387207031,-1.7633587786259541,0.20610687022900764,-1.5801526717557253
5259064234398,1.065959947,2,8.141482745361328,5.6946086486816405,0.7218518005371093,-1.7404580152671756,0.17557251908396945,-1.5725190839694656
5259084231846,1.085957395,2,8.070853796386718,5.781997009277344,0.7278373046875,-1.7709923664122138,0.26717557251908397,-1.6030534351145038
5259104222158,1.105947707,2,8.086416107177733,5.741295581054687,0.6979097839355468,-1.7786259541984732,0.22137404580152673,-1.5725190839694656
5259124212054,1.125937603,2,8.13310303955078,5.717353564453124,0.7457938171386719,-1.786259541984733,0.2595419847328244,-1.5954198473282444
5259144209554,1.145935103,2,8.136694342041014,5.7508723876953125,0.7230489013671875,-1.8015267175572518,0.3053435114503817,-1.6106870229007633
5259164223565,1.165949114,2,8.135497241210937,5.735310076904296,0.7769184387207031,-1.7557251908396947,0.24427480916030533,-1.5877862595419847
5259184206377,1.185931926,2,8.103175518798828,5.755660791015624,0.7757213378906249,-1.7328244274809161,0.22137404580152673,-1.5572519083969465
5259204201950,1.205927499,2,8.116343627929687,5.768828900146484,0.7218518005371093,-1.7328244274809161,0.24427480916030533,-1.5801526717557253
5259224230440,1.225955989,2,8.10796392211914,5.716156463623046,0.7410054138183594,-1.748091603053435,0.25190839694656486,-1.5725190839694656
5259244247315,1.245972864,2,8.123526232910155,5.738901379394531,0.6560112548828124,-1.816793893129771,0.2595419847328244,-1.5572519083969465
5259264217106,1.265942655,2,8.173804467773436,5.740098480224609,0.7912836486816406,-1.7709923664122138,0.26717557251908397,-1.6259541984732824
5259284219658,1.285945207,2,8.095992913818359,5.774814404296874,0.6907271789550781,-1.7786259541984732,0.1984732824427481,-1.4885496183206106
5259304244033,1.305969582,2,8.141482745361328,5.772420202636718,0.7170633972167968,-1.7099236641221374,0.29770992366412213,-1.6106870229007633
5259324168460,1.325894009,2,8.113949426269532,5.8083332275390624,0.7170633972167968,-1.786259541984733,0.2595419847328244,-1.5801526717557253
5259344233825,1.345959374,2,8.117540728759765,5.743689782714843,0.737414111328125,-1.8091603053435115,0.2595419847328244,-1.618320610687023
5259364214033,1.365939582,2,8.164227661132813,5.814318731689453,0.7122749938964843,-1.7251908396946565,0.25190839694656486,-1.6030534351145038
5259384211429,1.385936978,2,8.084021905517577,5.741295581054687,0.689530078125,-1.7328244274809161,0.21374045801526717,-1.5114503816793894
5259404218929,1.405944478,2,8.11514652709961,5.68862314453125,0.7433996154785156,-1.7709923664122138,0.2595419847328244,-1.6030534351145038
5259424206169,1.425931718,2,8.145074047851562,5.766434698486328,0.6344634399414062,-1.6946564885496183,0.21374045801526717,-1.5648854961832062
5259444206846,1.445932395,2,8.118737829589843,5.783194110107422,0.718260498046875,-1.717557251908397,0.2595419847328244,-1.6106870229007633
5259464227627,1.465953176,2,8.079233502197265,5.7125651611328125,0.7350199096679687,-1.7099236641221374,0.22137404580152673,-1.5877862595419847
5259484151794,1.485877343,2,8.124723333740233,5.746083984375,0.7158662963867187,-1.7938931297709924,0.22900763358778625,-1.5572519083969465
5259504214346,1.505939895,2,8.155847955322265,5.716156463623046,0.622492431640625,-1.7404580152671756,0.2366412213740458,-1.5877862595419847
5259524447575,1.526173124,2,8.119934930419921,5.77122310180664,0.7062894897460937,-1.748091603053435,0.2595419847328244,-1.6030534351145038
5259544239710,1.545965259,2,8.105569720458984,5.744886883544922,0.6919242797851562,-1.7404580152671756,0.1984732824427481,-1.618320610687023
5259564209346,1.565934895,2,8.060079888916015,5.76523759765625,0.7015010864257812,-1.7328244274809161,0.2595419847328244,-1.6106870229007633
5259584207731,1.58593328,2,8.099584216308592,5.683834741210937,0.6631938598632812,-1.786259541984733,0.25190839694656486,-1.6488549618320612
5259604206273,1.605931822,2,8.14028564453125,5.766434698486328,0.7721300354003906,-1.7251908396946565,0.26717557251908397,-1.5954198473282444
5259624173877,1.625899426,2,8.154650854492187,5.787982513427734,0.6572083557128906,-1.786259541984733,0.22137404580152673,-1.5877862595419847
5259644217783,1.645943332,2,8.081627703857421,5.781997009277344,0.6811503723144531,-1.816793893129771,0.22900763358778625,-1.6412213740458015
5259664176117,1.665901666,2,8.12711753540039,5.718550665283203,0.74699091796875,-1.717557251908397,0.2824427480916031,-1.5954198473282444
5259684203304,1.685928853,2,8.154650854492187,5.780799908447265,0.7362170104980469,-1.7709923664122138,0.2748091603053435,-1.6717557251908397
5259704204606,1.705930155,2,8.099584216308592,5.7520694885253905,0.7649474304199219,-1.7709923664122138,0.25190839694656486,-1.5725190839694656
5259724203148,1.725928697,2,8.10796392211914,5.783194110107422,0.6619967590332031,-1.7938931297709924,0.2748091603053435,-1.6030534351145038
5259744177731,1.74590328,2,8.057685687255859,5.724536169433593,0.7206546997070312,-1.748091603053435,0.24427480916030533,-1.6106870229007633
5259764223148,1.765948697,2,8.170213165283203,5.7329158752441405,0.6931213806152343,-1.7557251908396947,0.29770992366412213,-1.5877862595419847
5259784174398,1.785899947,2,8.143876947021484,5.700594152832031,0.6979097839355468,-1.786259541984733,0.2748091603053435,-1.5877862595419847
5259804152575,1.805878124,2,8.111555224609374,5.737704278564453,0.74699091796875,-1.7786259541984732,0.21374045801526717,-1.5725190839694656
5259824203096,1.825928645,2,8.124723333740233,5.773617303466796,0.6751648681640625,-1.7633587786259541,0.26717557251908397,-1.618320610687023
5259844209033,1.845934582,2,8.090007409667969,5.740098480224609,0.7326257080078125,-1.7251908396946565,0.22900763358778625,-1.549618320610687
5259864207679,1.865933228,2,8.164227661132813,5.758054992675781,0.7721300354003906,-1.7404580152671756,0.25190839694656486,-1.6030534351145038
5259884220804,1.885946353,2,8.104372619628906,5.774814404296874,0.6871358764648438,-1.7328244274809161,0.29770992366412213,-1.6259541984732824
5259904204033,1.905929582,2,8.098387115478515,5.741295581054687,0.7015010864257812,-1.7251908396946565,0.1984732824427481,-1.5572519083969465
5259924204137,1.925929686,2,8.080430603027343,5.725733270263672,0.7613561279296874,-1.748091603053435,0.24427480916030533,-1.5954198473282444
5259944216585,1.945942134,2,8.07683930053711,5.747281085205078,0.7302315063476562,-1.7328244274809161,0.22137404580152673,-1.618320610687023
5259964206377,1.965931926,2,8.105569720458984,5.785588311767578,0.7757213378906249,-1.7786259541984732,0.2366412213740458,-1.5725190839694656
5259984288512,1.986014061,2,8.10197841796875,5.777208605957031,0.6919242797851562,-1.7786259541984732,0.26717557251908397,-1.5725190839694656
5260004276168,2.006001717,2,8.106766821289062,5.807136126708984,0.6607996582031249,-1.786259541984733,0.2366412213740458,-1.5648854961832062
5260024246585,2.025972134,2,8.103175518798828,5.759252093505859,0.7445967163085937,-1.8015267175572518,0.24427480916030533,-1.633587786259542
5260044221585,2.045947134,2,8.134300140380859,5.768828900146484,0.6715735656738281,-1.7404580152671756,0.3053435114503817,-1.6106870229007633
5260064220179,2.065945728,2,8.131905938720703,5.767631799316406,0.7254431030273437,-1.748091603053435,0.2748091603053435,-1.6106870229007633
5260084213773,2.085939322,2,8.119934930419921,5.7329158752441405,0.5925649108886718,-1.748091603053435,0.2824427480916031,-1.6259541984732824
5260104207523,2.105933072,2,8.0828248046875,5.749675286865234,0.7433996154785156,-1.7709923664122138,0.2900763358778626,-1.6488549618320612
5260124160908,2.125886457,2,8.046911779785155,5.753266589355468,0.7338228088378905,-1.7633587786259541,0.2824427480916031,-1.6259541984732824
5260144209033,2.145934582,2,8.118737829589843,5.759252093505859,0.70868369140625,-1.7786259541984732,0.2748091603053435,-1.6412213740458015
5260164180075,2.165905624,2,8.1594392578125,5.737704278564453,0.7433996154785156,-1.7251908396946565,0.25190839694656486,-1.6488549618320612
5260184225960,2.185951509,2,8.095992913818359,5.741295581054687,0.7601590270996094,-1.7404580152671756,0.2748091603053435,-1.5572519083969465
5260204207939,2.205933488,2,8.149862451171874,5.755660791015624,0.689530078125,-1.7786259541984732,0.2824427480916031,-1.633587786259542
5260224209502,2.225935051,2,8.145074047851562,5.755660791015624,0.6919242797851562,-1.7328244274809161,0.25190839694656486,-1.5877862595419847
5260244205023,2.245930572,2,8.10796392211914,5.735310076904296,0.7553706237792969,-1.7786259541984732,0.22900763358778625,-1.5954198473282444
5260264229866,2.265955415,2,8.14028564453125,5.716156463623046,0.6859387756347656,-1.8091603053435115,0.2366412213740458,-1.5801526717557253
5260284175179,2.285900728,2,8.129511737060547,5.744886883544922,0.719457598876953,-1.748091603053435,0.2595419847328244,-1.534351145038168
5260304205283,2.305930832,2,8.109161022949218,5.7700260009765625,0.7146691955566405,-1.7404580152671756,0.2748091603053435,-1.6488549618320612
5260324149085,2.325874634,2,8.141482745361328,5.780799908447265,0.7074865905761718,-1.8015267175572518,0.183206106870229,-1.6259541984732824
5260344174085,2.345899634,2,8.136694342041014,5.758054992675781,0.718260498046875,-1.8015267175572518,0.26717557251908397,-1.633587786259542
5260364222158,2.365947707,2,8.113949426269532,5.76523759765625,0.6356605407714844,-1.786259541984733,0.2595419847328244,-1.6030534351145038
5260384200908,2.385926457,2,8.078036401367187,5.720944866943359,0.6979097839355468,-1.8015267175572518,0.2595419847328244,-1.618320610687023
5260404176741,2.40590229,2,8.152256652832031,5.7329158752441405,0.6631938598632812,-1.7328244274809161,0.22900763358778625,-1.6259541984732824
5260424203668,2.425929217,2,8.10796392211914,5.7329158752441405,0.7302315063476562,-1.7099236641221374,0.2748091603053435,-1.549618320610687
5260444203200,2.445928749,2,8.086416107177733,5.728127471923828,0.7230489013671875,-1.7328244274809161,0.2900763358778626,-1.618320610687023
5260464218981,2.46594453,2,8.14028564453125,5.756857891845703,0.7589619262695312,-1.7786259541984732,0.25190839694656486,-1.5877862595419847
5260484210908,2.485936457,2,8.147468249511718,5.720944866943359,0.7493851196289062,-1.7557251908396947,0.2595419847328244,-1.5954198473282444
5260504174241,2.50589979,2,8.124723333740233,5.740098480224609,0.6847416748046875,-1.7328244274809161,0.31297709923664124,-1.6030534351145038
5260524174502,2.525900051,2,8.15345375366211,5.779602807617187,0.6512228515624999,-1.717557251908397,0.2748091603053435,-1.5725190839694656
5260544202991,2.54592854,2,8.123526232910155,5.777208605957031,0.6955155822753906,-1.748091603053435,0.2824427480916031,-1.6412213740458015
5260564206585,2.565932134,2,8.145074047851562,5.762843395996094,0.6703764648437499,-1.7404580152671756,0.2748091603053435,-1.6030534351145038
5260584176116,2.585901665,2,8.1594392578125,5.7891796142578125,0.6811503723144531,-1.7938931297709924,0.26717557251908397,-1.5648854961832062
5260604142991,2.60586854,2,8.123526232910155,5.742492681884765,0.6871358764648438,-1.748091603053435,0.24427480916030533,-1.549618320610687
5260624202470,2.625928019,2,8.15345375366211,5.729324572753906,0.6536170532226562,-1.786259541984733,0.2595419847328244,-1.5954198473282444
5260644207470,2.645933019,2,8.12711753540039,5.779602807617187,0.7338228088378905,-1.748091603053435,0.2748091603053435,-1.633587786259542
5260664206324,2.665931873,2,8.137891442871092,5.702988354492187,0.7433996154785156,-1.7938931297709924,0.3053435114503817,-1.534351145038168
5260684207835,2.685933384,2,8.117540728759765,5.720944866943359,0.7050923889160156,-1.7328244274809161,0.2748091603053435,-1.6030534351145038
5260704207783,2.705933332,2,8.154650854492187,5.734112976074218,0.7278373046875,-1.7404580152671756,0.20610687022900764,-1.5801526717557253
5260724202106,2.725927655,2,8.116343627929687,5.755660791015624,0.7529764221191406,-1.786259541984733,0.2366412213740458,-1.5801526717557253
5260744208304,2.745933853,2,8.131905938720703,5.783194110107422,0.7769184387207031,-1.7633587786259541,0.2824427480916031,-1.6030534351145038
5260764206481,2.76593203,2,8.167818963623047,5.783194110107422,0.729034405517578,-1.748091603053435,0.1984732824427481,-1.5572519083969465
5260784202939,2.785928488,2,8.105569720458984,5.749675286865234,0.7158662963867187,-1.8091603053435115,0.2824427480916031,-1.6259541984732824
5260804176377,2.805901926,2,8.139088543701172,5.737704278564453,0.7062894897460937,-1.7404580152671756,0.29770992366412213,-1.6106870229007633
5260824173043,2.825898592,2,8.123526232910155,5.760449194335937,0.7134720947265625,-1.7404580152671756,0.24427480916030533,-1.5801526717557253
5260844232939,2.845958488,2,8.092401611328125,5.786785412597656,0.6787561706542968,-1.7557251908396947,0.22900763358778625,-1.549618320610687
5260864204918,2.865930467,2,8.106766821289062,5.730521673583984,0.6548141540527344,-1.7633587786259541,0.22137404580152673,-1.6106870229007633
5260884209137,2.885934686,2,8.1594392578125,5.710170959472656,0.7601590270996094,-1.7938931297709924,0.22900763358778625,-1.6412213740458015
5260904177001,2.90590255,2,8.145074047851562,5.725733270263672,0.6428431457519531,-1.7328244274809161,0.31297709923664124,-1.5725190839694656
5260924203720,2.925929269,2,8.07683930053711,5.777208605957031,0.689530078125,-1.7404580152671756,0.2748091603053435,-1.6488549618320612
5260944175283,2.945900832,2,8.129511737060547,5.819107135009765,0.6883329772949218,-1.7404580152671756,0.22137404580152673,-1.5648854961832062
5260964206220,2.965931769,2,8.135497241210937,5.77122310180664,0.74699091796875,-1.748091603053435,0.3282442748091603,-1.534351145038168
5260984205908,2.985931457,2,8.112752325439452,5.702988354492187,0.7230489013671875,-1.7633587786259541,0.2366412213740458,-1.6106870229007633
5261004203199,3.005928748,2,8.117540728759765,5.725733270263672,0.7170633972167968,-1.7709923664122138,0.2900763358778626,-1.618320610687023
5261024216897,3.025942446,2,8.073247998046874,5.730521673583984,0.6871358764648438,-1.7328244274809161,0.22137404580152673,-1.5801526717557253
5261044216533,3.045942082,2,8.097190014648437,5.740098480224609,0.6835445739746093,-1.7557251908396947,0.20610687022900764,-1.5801526717557253
5261064217939,3.065943488,2,8.15345375366211,5.717353564453124,0.7003039855957031,-1.748091603053435,0.25190839694656486,-1.618320610687023
5261084211481,3.08593703,2,8.091204510498047,5.766434698486328,0.70868369140625,-1.786259541984733,0.24427480916030533,-1.6259541984732824
5261104210283,3.105935832,2,8.158242156982421,5.786785412597656,0.7338228088378905,-1.7099236641221374,0.29770992366412213,-1.5801526717557253
5261124217939,3.125943488,2,8.12711753540039,5.728127471923828,0.7625532287597656,-1.702290076335878,0.22900763358778625,-1.5648854961832062
5261144206376,3.145931925,2,8.15345375366211,5.7125651611328125,0.7254431030273437,-1.6870229007633588,0.21374045801526717,-1.6030534351145038
5261164222939,3.165948488,2,8.118737829589843,5.753266589355468,0.6619967590332031,-1.7709923664122138,0.25190839694656486,-1.5801526717557253
5261184211845,3.185937394,2,8.142679846191406,5.708973858642578,0.7038952880859375,-1.7633587786259541,0.2595419847328244,-1.5801526717557253
5261204219345,3.205944894,2,8.118737829589843,5.7508723876953125,0.7912836486816406,-1.717557251908397,0.2824427480916031,-1.6106870229007633
5261224162731,3.22588828,2,8.091204510498047,5.785588311767578,0.7433996154785156,-1.7404580152671756,0.24427480916030533,-1.618320610687023
5261244221637,3.245947186,2,8.131905938720703,5.738901379394531,0.6967126831054687,-1.7099236641221374,0.2900763358778626,-1.5877862595419847
5261264218981,3.26594453,2,8.084021905517577,5.795165118408203,0.7517793212890624,-1.816793893129771,0.21374045801526717,-1.618320610687023
5261284232314,3.285957863,2,8.079233502197265,5.758054992675781,0.6943184814453125,-1.7938931297709924,0.22137404580152673,-1.5419847328244274
5261304227783,3.305953332,2,8.100781317138672,5.742492681884765,0.7817068420410156,-1.7938931297709924,0.24427480916030533,-1.6259541984732824
5261324218147,3.325943696,2,8.14028564453125,5.748478186035156,0.7134720947265625,-1.7557251908396947,0.25190839694656486,-1.5801526717557253
5261344155595,3.345881144,2,8.109161022949218,5.754463690185546,0.7841010437011718,-1.7328244274809161,0.2595419847328244,-1.633587786259542
5261364220283,3.365945832,2,8.182184173583984,5.686228942871093,0.6488286499023437,-1.717557251908397,0.2748091603053435,-1.5877862595419847
5261384220647,3.385946196,2,8.117540728759765,5.767631799316406,0.6931213806152343,-1.7557251908396947,0.22900763358778625,-1.618320610687023
5261404212991,3.40593854,2,8.130708837890625,5.744886883544922,0.6883329772949218,-1.7938931297709924,0.26717557251908397,-1.6030534351145038
5261424216585,3.425942134,2,8.151059552001952,5.791573815917968,0.6344634399414062,-1.7633587786259541,0.2748091603053435,-1.549618320610687
5261444218199,3.445943748,2,8.139088543701172,5.764040496826172,0.7122749938964843,-1.748091603053435,0.22900763358778625,-1.633587786259542
5261464215022,3.465940571,2,8.154650854492187,5.776011505126953,0.6847416748046875,-1.7786259541984732,0.2595419847328244,-1.6641221374045803
5261484220960,3.485946509,2,8.148665350341796,5.798756420898437,0.7230489013671875,-1.7557251908396947,0.26717557251908397,-1.5725190839694656
5261504217210,3.505942759,2,8.08881030883789,5.764040496826172,0.7218518005371093,-1.8015267175572518,0.2824427480916031,-1.5801526717557253
5261524212522,3.525938071,2,8.124723333740233,5.738901379394531,0.6655880615234374,-1.7633587786259541,0.2824427480916031,-1.5419847328244274
5261544218147,3.545943696,2,8.044517578125,5.743689782714843,0.7362170104980469,-1.8091603053435115,0.2824427480916031,-1.6564885496183206
5261564218564,3.565944113,2,8.128314636230469,5.756857891845703,0.7242460021972655,-1.7099236641221374,0.24427480916030533,-1.5419847328244274
5261584853199,3.586578748,2,8.142679846191406,5.778405706787109,0.7864952453613281,-1.7786259541984732,0.26717557251908397,-1.5954198473282444
5261604983251,3.6067088,2,8.098387115478515,5.7520694885253905,0.6572083557128906,-1.7709923664122138,0.2595419847328244,-1.5801526717557253
5261624963407,3.626688956,2,8.15345375366211,5.7329158752441405,0.6165069274902344,-1.7633587786259541,0.2900763358778626,-1.5801526717557253
5261644991220,3.646716769,2,8.151059552001952,5.736507177734374,0.7661445312499999,-1.7786259541984732,0.183206106870229,-1.6030534351145038
5261664977210,3.666702759,2,8.109161022949218,5.756857891845703,0.7422025146484375,-1.7709923664122138,0.26717557251908397,-1.5725190839694656
5261685039345,3.686764894,2,8.122329132080077,5.723339068603515,0.6835445739746093,-1.748091603053435,0.24427480916030533,-1.5954198473282444
5261704987574,3.706713123,2,8.105569720458984,5.799953521728515,0.6596025573730468,-1.7404580152671756,0.24427480916030533,-1.5801526717557253
5261724983824,3.726709373,2,8.091204510498047,5.7700260009765625,0.7015010864257812,-1.748091603053435,0.22137404580152673,-1.5725190839694656
5261744984293,3.746709842,2,8.141482745361328,5.759252093505859,0.7517793212890624,-1.7938931297709924,0.25190839694656486,-1.633587786259542
5261764982782,3.766708331,2,8.11514652709961,5.728127471923828,0.7170633972167968,-1.748091603053435,0.26717557251908397,-1.534351145038168
5261785019762,3.786745311,2,8.112752325439452,5.76523759765625,0.6344634399414062,-1.7251908396946565,0.25190839694656486,-1.6106870229007633
5261805000126,3.806725675,2,8.123526232910155,5.767631799316406,0.7146691955566405,-1.7251908396946565,0.21374045801526717,-1.549618320610687
5261824984501,3.82671005,2,8.119934930419921,5.7520694885253905,0.7398083129882812,-1.7557251908396947,0.24427480916030533,-1.5877862595419847
5261844994605,3.846720154,2,8.12113203125,5.7329158752441405,0.6607996582031249,-1.748091603053435,0.2748091603053435,-1.633587786259542
5261865001428,3.866726977,2,8.118737829589843,5.718550665283203,0.6835445739746093,-1.7786259541984732,0.22137404580152673,-1.6030534351145038
5261884988668,3.886714217,2,8.118737829589843,5.7077767578125,0.6847416748046875,-1.83206106870229,0.2366412213740458,-1.5954198473282444
5261904983147,3.906708696,2,8.109161022949218,5.7520694885253905,0.7170633972167968,-1.7557251908396947,0.22137404580152673,-1.5725190839694656
5261924986012,3.926711561,2,8.11514652709961,5.746083984375,0.7386112121582031,-1.7328244274809161,0.2595419847328244,-1.633587786259542
5261944990855,3.946716404,2,8.117540728759765,5.729324572753906,0.7146691955566405,-1.7099236641221374,0.29770992366412213,-1.5648854961832062
5261964964136,3.966689685,2,8.072050897216796,5.748478186035156,0.7829039428710937,-1.7404580152671756,0.26717557251908397,-1.6030534351145038
5261985038407,3.986763956,2,8.110358123779296,5.740098480224609,0.7278373046875,-1.7709923664122138,0.2748091603053435,-1.5877862595419847
5262005002782,4.006728331,2,8.148665350341796,5.738901379394531,0.7577648254394531,-1.8015267175572518,0.22137404580152673,-1.5572519083969465
5262025004553,4.026730102,2,8.106766821289062,5.741295581054687,0.7074865905761718,-1.7786259541984732,0.21374045801526717,-1.5954198473282444
5262044988876,4.046714425,2,8.149862451171874,5.761646295166015,0.7266402038574218,-1.7709923664122138,0.17557251908396945,-1.549618320610687
5262064991324,4.066716873,2,8.12711753540039,5.730521673583984,0.7972691528320313,-1.816793893129771,0.22137404580152673,-1.6106870229007633
5262085051376,4.086776925,2,8.154650854492187,5.748478186035156,0.6200982299804687,-1.7633587786259541,0.3053435114503817,-1.6030534351145038
5262104991116,4.106716665,2,8.045714678955077,5.734112976074218,0.7721300354003906,-1.7633587786259541,0.2366412213740458,-1.6259541984732824
5262125003407,4.126728956,2,8.148665350341796,5.746083984375,0.7457938171386719,-1.816793893129771,0.29770992366412213,-1.6412213740458015
5262144984241,4.14670979,2,8.095992913818359,5.716156463623046,0.8092401611328125,-1.748091603053435,0.24427480916030533,-1.5725190839694656
5262164986011,4.16671156,2,8.078036401367187,5.708973858642578,0.7278373046875,-1.786259541984733,0.25190839694656486,-1.6106870229007633
5262185088720,4.186814269,2,8.161833459472655,5.743689782714843,0.7003039855957031,-1.7709923664122138,0.21374045801526717,-1.6106870229007633
5262204988772,4.206714321,2,8.152256652832031,5.753266589355468,0.7769184387207031,-1.7328244274809161,0.22900763358778625,-1.5877862595419847
5262224983616,4.226709165,2,8.06367119140625,5.766434698486328,0.622492431640625,-1.7557251908396947,0.20610687022900764,-1.5801526717557253
5262244986949,4.246712498,2,8.093598712158203,5.7125651611328125,0.7661445312499999,-1.748091603053435,0.24427480916030533,-1.6106870229007633
5262264987938,4.266713487,2,8.129511737060547,5.77122310180664,0.7553706237792969,-1.7557251908396947,0.22900763358778625,-1.5725190839694656
5262285029136,4.286754685,2,8.113949426269532,5.767631799316406,0.6344634399414062,-1.748091603053435,0.24427480916030533,-1.5572519083969465
5262304986324,4.306711873,2,8.106766821289062,5.706579656982422,0.6943184814453125,-1.7633587786259541,0.20610687022900764,-1.6412213740458015
5262324985438,4.326710987,2,8.119934930419921,5.786785412597656,0.6943184814453125,-1.786259541984733,0.26717557251908397,-1.618320610687023
5262344995699,4.346721248,2,8.141482745361328,5.734112976074218,0.74699091796875,-1.7328244274809161,0.20610687022900764,-1.5954198473282444
5262364990386,4.366715935,2,8.080430603027343,5.730521673583984,0.6703764648437499,-1.7557251908396947,0.2748091603053435,-1.549618320610687
5262384979345,4.386704894,2,8.10197841796875,5.742492681884765,0.6189011291503906,-1.7404580152671756,0.2748091603053435,-1.534351145038168
5262404991324,4.406716873,2,8.122329132080077,5.7843912109375,0.7386112121582031,-1.6946564885496183,0.2366412213740458,-1.6412213740458015
5262424991376,4.426716925,2,8.116343627929687,5.774814404296874,0.6536170532226562,-1.7557251908396947,0.1984732824427481,-1.5572519083969465
5262444985074,4.446710623,2,8.105569720458984,5.737704278564453,0.6931213806152343,-1.7557251908396947,0.2900763358778626,-1.618320610687023
5262464983511,4.46670906,2,8.109161022949218,5.777208605957031,0.6679822631835937,-1.7709923664122138,0.20610687022900764,-1.5648854961832062
5262484977574,4.486703123,2,8.104372619628906,5.737704278564453,0.737414111328125,-1.7786259541984732,0.2748091603053435,-1.549618320610687
5262504994240,4.506719789,2,8.119934930419921,5.722141967773437,0.70868369140625,-1.7633587786259541,0.26717557251908397,-1.6412213740458015
5262524979397,4.526704946,2,8.143876947021484,5.718550665283203,0.7589619262695312,-1.7709923664122138,0.2366412213740458,-1.5877862595419847
5262544986168,4.546711717,2,8.103175518798828,5.754463690185546,0.7254431030273437,-1.7709923664122138,0.24427480916030533,-1.6488549618320612
5262564982782,4.566708331,2,8.117540728759765,5.749675286865234,0.7505822204589844,-1.7709923664122138,0.2824427480916031,-1.5877862595419847
5262584989240,4.586714789,2,8.12711753540039,5.76523759765625,0.7457938171386719,-1.7786259541984732,0.2900763358778626,-1.5801526717557253
5262604980230,4.606705779,2,8.092401611328125,5.758054992675781,0.7278373046875,-1.7786259541984732,0.2595419847328244,-1.5801526717557253
5262624979553,4.626705102,2,8.17141026611328,5.741295581054687,0.679953271484375,-1.7251908396946565,0.26717557251908397,-1.6030534351145038
5262644977990,4.646703539,2,8.10197841796875,5.737704278564453,0.6727706665039062,-1.7404580152671756,0.22900763358778625,-1.6106870229007633
5262664998147,4.666723696,2,8.074445098876952,5.7843912109375,0.7553706237792969,-1.786259541984733,0.2366412213740458,-1.5877862595419847
5262684985751,4.6867113,2,8.104372619628906,5.7317187744140625,0.7410054138183594,-1.7251908396946565,0.2595419847328244,-1.6412213740458015
5262704986480,4.706712029,2,8.130708837890625,5.718550665283203,0.7457938171386719,-1.7328244274809161,0.2824427480916031,-1.6259541984732824
5262724988303,4.726713852,2,8.118737829589843,5.682637640380859,0.6955155822753906,-1.748091603053435,0.3053435114503817,-1.5725190839694656
5262744992313,4.746717862,2,8.125920434570313,5.72693037109375,0.7266402038574218,-1.702290076335878,0.2900763358778626,-1.633587786259542
5262764975178,4.766700727,2,8.080430603027343,5.7329158752441405,0.6619967590332031,-1.748091603053435,0.26717557251908397,-1.5572519083969465
5262784981792,4.786707341,2,8.151059552001952,5.730521673583984,0.737414111328125,-1.7557251908396947,0.20610687022900764,-1.618320610687023
5262804982730,4.806708279,2,8.110358123779296,5.759252093505859,0.6368576416015624,-1.7557251908396947,0.2595419847328244,-1.5419847328244274
5262824999553,4.826725102,2,8.137891442871092,5.716156463623046,0.7505822204589844,-1.7709923664122138,0.25190839694656486,-1.6106870229007633
5262844992886,4.846718435,2,8.098387115478515,5.755660791015624,0.7015010864257812,-1.786259541984733,0.3053435114503817,-1.5877862595419847
5262864982261,4.86670781,2,8.122329132080077,5.767631799316406,0.719457598876953,-1.748091603053435,0.26717557251908397,-1.6259541984732824
5262885002678,4.886728227,2,8.145074047851562,5.761646295166015,0.7015010864257812,-1.7709923664122138,0.2366412213740458,-1.633587786259542
5262904975751,4.9067013,2,8.13310303955078,5.744886883544922,0.7266402038574218,-1.748091603053435,0.2595419847328244,-1.549618320610687
5262924988147,4.926713696,2,8.112752325439452,5.792770916748046,0.7134720947265625,-1.7404580152671756,0.2824427480916031,-1.6106870229007633
5262944981167,4.946706716,2,8.097190014648437,5.738901379394531,0.6883329772949218,-1.7404580152671756,0.29770992366412213,-1.5572519083969465
5262964980594,4.966706143,2,8.155847955322265,5.728127471923828,0.709880792236328,-1.748091603053435,0.3053435114503817,-1.5954198473282444
5262984992990,4.986718539,2,8.079233502197265,5.764040496826172,0.679953271484375,-1.7251908396946565,0.26717557251908397,-1.6106870229007633
5263004986376,5.006711925,2,8.084021905517577,5.747281085205078,0.7625532287597656,-1.7633587786259541,0.24427480916030533,-1.5725190839694656
5263024982053,5.026707602,2,8.100781317138672,5.730521673583984,0.7613561279296874,-1.7709923664122138,0.24427480916030533,-1.6106870229007633
5263044979240,5.046704789,2,8.10197841796875,5.699397052001952,0.6715735656738281,-1.8015267175572518,0.21374045801526717,-1.5801526717557253
5263064987417,5.066712966,2,8.135497241210937,5.760449194335937,0.7003039855957031,-1.7557251908396947,0.2748091603053435,-1.5725190839694656
5263084970907,5.086696456,2,8.10796392211914,5.718550665283203,0.6392518432617187,-1.7938931297709924,0.24427480916030533,-1.5648854961832062
5263104977261,5.10670281,2,8.12113203125,5.7520694885253905,0.699106884765625,-1.8091603053435115,0.26717557251908397,-1.5801526717557253
5263124971115,5.126696664,2,8.136694342041014,5.7077767578125,0.7733271362304687,-1.786259541984733,0.31297709923664124,-1.618320610687023
5263144978251,5.1467038,2,8.131905938720703,5.6958057495117185,0.7338228088378905,-1.717557251908397,0.26717557251908397,-1.618320610687023
5263164972417,5.166697966,2,8.124723333740233,5.796362219238281,0.6955155822753906,-1.786259541984733,0.2900763358778626,-1.6488549618320612
5263184973303,5.186698852,2,8.136694342041014,5.76523759765625,0.8200140686035156,-1.7633587786259541,0.22900763358778625,-1.5801526717557253
5263204967261,5.20669281,2,8.099584216308592,5.758054992675781,0.7254431030273437,-1.7557251908396947,0.2595419847328244,-1.6412213740458015
5263225030542,5.226756091,2,8.10197841796875,5.773617303466796,0.7062894897460937,-1.7786259541984732,0.2824427480916031,-1.5648854961832062
5263244967157,5.246692706,2,8.086416107177733,5.7891796142578125,0.7805097412109374,-1.7557251908396947,0.3053435114503817,-1.6106870229007633
5263264974240,5.266699789,2,8.109161022949218,5.758054992675781,0.7697358337402344,-1.7099236641221374,0.24427480916030533,-1.618320610687023
5263284991428,5.286716977,2,8.10197841796875,5.758054992675781,0.7433996154785156,-1.7557251908396947,0.24427480916030533,-1.534351145038168
5263305019865,5.306745414,2,8.09479581298828,5.740098480224609,0.7805097412109374,-1.7328244274809161,0.24427480916030533,-1.618320610687023
5263325136428,5.326861977,2,8.111555224609374,5.692214447021484,0.7589619262695312,-1.7633587786259541,0.24427480916030533,-1.6259541984732824
5263344992626,5.346718175,2,8.07683930053711,5.792770916748046,0.7589619262695312,-1.7709923664122138,0.26717557251908397,-1.5954198473282444
5263364983511,5.36670906,2,8.123526232910155,5.740098480224609,0.7302315063476562,-1.786259541984733,0.22900763358778625,-1.5954198473282444
5263385001376,5.386726925,2,8.05648858642578,5.7317187744140625,0.7661445312499999,-1.7633587786259541,0.20610687022900764,-1.5725190839694656
5263404986376,5.406711925,2,8.14627114868164,5.777208605957031,0.6679822631835937,-1.7633587786259541,0.2366412213740458,-1.5954198473282444
5263424986271,5.42671182,2,8.117540728759765,5.693411547851563,0.6751648681640625,-1.748091603053435,0.24427480916030533,-1.5572519083969465
5263444987730,5.446713279,2,8.125920434570313,5.773617303466796,0.7026981872558593,-1.7709923664122138,0.3053435114503817,-1.6412213740458015
5263464996480,5.466722029,2,8.143876947021484,5.747281085205078,0.7266402038574218,-1.7404580152671756,0.26717557251908397,-1.5572519083969465
5263484982990,5.486708539,2,8.110358123779296,5.735310076904296,0.7577648254394531,-1.786259541984733,0.25190839694656486,-1.6030534351145038
5263504987678,5.506713227,2,8.054094384765625,5.741295581054687,0.6919242797851562,-1.7099236641221374,0.2748091603053435,-1.6412213740458015
5263524979657,5.526705206,2,8.131905938720703,5.741295581054687,0.6931213806152343,-1.7938931297709924,0.22137404580152673,-1.5801526717557253
5263544992157,5.546717706,2,8.106766821289062,5.730521673583984,0.7685387329101562,-1.7251908396946565,0.2595419847328244,-1.6106870229007633
5263564984136,5.566709685,2,8.190563879394531,5.7317187744140625,0.7422025146484375,-1.7251908396946565,0.22900763358778625,-1.6106870229007633
5263584987625,5.586713174,2,8.0828248046875,5.785588311767578,0.6835445739746093,-1.7938931297709924,0.22900763358778625,-1.6030534351145038
5263604991480,5.606717029,2,8.06965669555664,5.748478186035156,0.7422025146484375,-1.7709923664122138,0.26717557251908397,-1.5877862595419847
5263624996219,5.626721768,2,8.139088543701172,5.722141967773437,0.6607996582031249,-1.7251908396946565,0.24427480916030533,-1.5572519083969465
5263644986688,5.646712237,2,8.090007409667969,5.767631799316406,0.6607996582031249,-1.8015267175572518,0.29770992366412213,-1.6106870229007633
5263664988459,5.666714008,2,8.068459594726562,5.7508723876953125,0.6763619689941406,-1.8244274809160306,0.25190839694656486,-1.5954198473282444
5263684985750,5.686711299,2,8.073247998046874,5.7891796142578125,0.6572083557128906,-1.7709923664122138,0.25190839694656486,-1.5877862595419847
5263705001844,5.706727393,2,8.131905938720703,5.786785412597656,0.70868369140625,-1.748091603053435,0.21374045801526717,-1.5572519083969465
5263724985959,5.726711508,2,8.130708837890625,5.7520694885253905,0.7613561279296874,-1.7709923664122138,0.26717557251908397,-1.5572519083969465
5263744983980,5.746709529,2,8.12711753540039,5.7520694885253905,0.7457938171386719,-1.7557251908396947,0.2366412213740458,-1.633587786259542
5263764985125,5.766710674,2,8.095992913818359,5.722141967773437,0.7410054138183594,-1.7099236641221374,0.25190839694656486,-1.5877862595419847
5263784990959,5.786716508,2,8.134300140380859,5.740098480224609,0.74699091796875,-1.7709923664122138,0.2366412213740458,-1.5877862595419847
5263804994188,5.806719737,2,8.08881030883789,5.783194110107422,0.6979097839355468,-1.7709923664122138,0.24427480916030533,-1.6030534351145038
5263824992417,5.826717966,2,8.136694342041014,5.7520694885253905,0.6572083557128906,-1.7938931297709924,0.20610687022900764,-1.6793893129770991
5263844978355,5.846703904,2,8.104372619628906,5.7077767578125,0.7003039855957031,-1.7404580152671756,0.183206106870229,-1.5877862595419847
5263865000125,5.866725674,2,8.049305981445311,5.740098480224609,0.7218518005371093,-1.7557251908396947,0.2366412213740458,-1.6259541984732824
5263884985177,5.886710726,2,8.087613208007811,5.744886883544922,0.7529764221191406,-1.6946564885496183,0.21374045801526717,-1.5801526717557253
5263904999448,5.906724997,2,8.118737829589843,5.749675286865234,0.7038952880859375,-1.7557251908396947,0.31297709923664124,-1.6106870229007633
5263924987521,5.92671307,2,8.141482745361328,5.7700260009765625,0.6967126831054687,-1.786259541984733,0.22900763358778625,-1.6412213740458015
5263944989761,5.94671531,2,8.097190014648437,5.746083984375,0.7146691955566405,-1.7786259541984732,0.25190839694656486,-1.6030534351145038
5263964995021,5.96672057,2,8.0828248046875,5.746083984375,0.6859387756347656,-1.7709923664122138,0.26717557251908397,-1.5877862595419847
5263984987625,5.986713174,2,8.092401611328125,5.743689782714843,0.7529764221191406,-1.7709923664122138,0.25190839694656486,-1.5801526717557253
5264004984813,6.006710362,2,8.12711753540039,5.741295581054687,0.7888894470214843,-1.7404580152671756,0.2366412213740458,-1.5877862595419847
5264024989136,6.026714685,2,8.105569720458984,5.776011505126953,0.7398083129882812,-1.7709923664122138,0.22137404580152673,-1.549618320610687
5264044983823,6.046709372,2,8.130708837890625,5.724536169433593,0.6979097839355468,-1.7938931297709924,0.2824427480916031,-1.5190839694656488
5264064982573,6.066708122,2,8.173804467773436,5.779602807617187,0.7314286071777343,-1.7557251908396947,0.25190839694656486,-1.5954198473282444
5264084987990,6.086713539,2,8.10197841796875,5.725733270263672,0.6943184814453125,-1.7404580152671756,0.26717557251908397,-1.5190839694656488
5264105057938,6.106783487,2,8.079233502197265,5.748478186035156,0.7254431030273437,-1.7251908396946565,0.2366412213740458,-1.5648854961832062
5264125001948,6.126727497,2,8.111555224609374,5.736507177734374,0.7134720947265625,-1.7786259541984732,0.21374045801526717,-1.6030534351145038
5264144984292,6.146709841,2,8.110358123779296,5.759252093505859,0.7386112121582031,-1.702290076335878,0.24427480916030533,-1.6030534351145038
5264164989761,6.16671531,2,8.16542476196289,5.725733270263672,0.7481880187988281,-1.7709923664122138,0.2595419847328244,-1.6030534351145038
5264185014500,6.186740049,2,8.066065393066406,5.7329158752441405,0.7589619262695312,-1.717557251908397,0.24427480916030533,-1.5725190839694656
5264204997052,6.206722601,2,8.087613208007811,5.736507177734374,0.7781155395507812,-1.7557251908396947,0.25190839694656486,-1.6106870229007633
5264224986427,6.226711976,2,8.143876947021484,5.760449194335937,0.7445967163085937,-1.7404580152671756,0.22900763358778625,-1.6030534351145038
5264244990542,6.246716091,2,8.099584216308592,5.7137622619628905,0.7625532287597656,-1.7251908396946565,0.25190839694656486,-1.6412213740458015
5264264994084,6.266719633,2,8.090007409667969,5.792770916748046,0.6212953308105469,-1.7786259541984732,0.24427480916030533,-1.6564885496183206
5264284984604,6.286710153,2,8.074445098876952,5.79037671508789,0.7685387329101562,-1.7709923664122138,0.2824427480916031,-1.5725190839694656
5264305037729,6.306763278,2,8.112752325439452,5.72693037109375,0.718260498046875,-1.7709923664122138,0.19083969465648856,-1.6259541984732824
5264324986740,6.326712289,2,8.103175518798828,5.768828900146484,0.7003039855957031,-1.7557251908396947,0.2748091603053435,-1.534351145038168
5264344984344,6.346709893,2,8.066065393066406,5.7508723876953125,0.6931213806152343,-1.786259541984733,0.20610687022900764,-1.6412213740458015
5264364997781,6.36672333,2,8.143876947021484,5.755660791015624,0.7062894897460937,-1.786259541984733,0.26717557251908397,-1.6030534351145038
5264384986948,6.386712497,2,8.099584216308592,5.749675286865234,0.7757213378906249,-1.7557251908396947,0.19083969465648856,-1.5572519083969465
5264405042417,6.406767966,2,8.080430603027343,5.755660791015624,0.7972691528320313,-1.7404580152671756,0.2366412213740458,-1.5801526717557253
5264424992990,6.426718539,2,8.103175518798828,5.716156463623046,0.6512228515624999,-1.7557251908396947,0.2595419847328244,-1.5725190839694656
5264444970125,6.446695674,2,8.130708837890625,5.706579656982422,0.7122749938964843,-1.7557251908396947,0.24427480916030533,-1.6412213740458015
5264464991167,6.466716716,2,8.098387115478515,5.742492681884765,0.7565677246093749,-1.7938931297709924,0.2366412213740458,-1.6412213740458015
5264484988875,6.486714424,2,8.141482745361328,5.748478186035156,0.6308721374511719,-1.7633587786259541,0.25190839694656486,-1.5648854961832062
5264505036844,6.506762393,2,8.117540728759765,5.734112976074218,0.679953271484375,-1.7786259541984732,0.2595419847328244,-1.5801526717557253
5264525277677,6.527003226,2,8.10197841796875,5.767631799316406,0.7433996154785156,-1.7786259541984732,0.2824427480916031,-1.5572519083969465
5264545010386,6.546735935,2,8.123526232910155,5.736507177734374,0.7218518005371093,-1.7557251908396947,0.2748091603053435,-1.618320610687023
5264565000646,6.566726195,2,8.109161022949218,5.80354482421875,0.6955155822753906,-1.7404580152671756,0.22900763358778625,-1.5572519083969465
5264584980958,6.586706507,2,8.109161022949218,5.7125651611328125,0.7062894897460937,-1.786259541984733,0.26717557251908397,-1.5954198473282444
5264605027781,6.60675333,2,8.131905938720703,5.746083984375,0.6715735656738281,-1.7404580152671756,0.2595419847328244,-1.6030534351145038
5264625210594,6.626936143,2,8.099584216308592,5.7520694885253905,0.8391676818847655,-1.7404580152671756,0.2595419847328244,-1.5648854961832062
5264644990802,6.646716351,2,8.110358123779296,5.724536169433593,0.7314286071777343,-1.748091603053435,0.2366412213740458,-1.5801526717557253
5264664983615,6.666709164,2,8.135497241210937,5.762843395996094,0.7410054138183594,-1.7251908396946565,0.2595419847328244,-1.5267175572519085
5264684976063,6.686701612,2,8.12113203125,5.747281085205078,0.7362170104980469,-1.748091603053435,0.31297709923664124,-1.6030534351145038
5264704974969,6.706700518,2,8.081627703857421,5.738901379394531,0.7158662963867187,-1.7633587786259541,0.26717557251908397,-1.5572519083969465
5264724974292,6.726699841,2,8.110358123779296,5.7329158752441405,0.7158662963867187,-1.786259541984733,0.2748091603053435,-1.633587786259542
5264744986219,6.746711768,2,8.100781317138672,5.804741925048828,0.6775590698242188,-1.7786259541984732,0.24427480916030533,-1.5725190839694656
5264764970906,6.766696455,2,8.1594392578125,5.760449194335937,0.7481880187988281,-1.7328244274809161,0.2595419847328244,-1.549618320610687
5264784977729,6.786703278,2,8.131905938720703,5.730521673583984,0.8032546569824218,-1.7328244274809161,0.2595419847328244,-1.618320610687023
5264804978458,6.806704007,2,8.148665350341796,5.758054992675781,0.7505822204589844,-1.748091603053435,0.22900763358778625,-1.549618320610687
5264824995333,6.826720882,2,8.136694342041014,5.762843395996094,0.70868369140625,-1.786259541984733,0.2366412213740458,-1.6259541984732824
5264844983615,6.846709164,2,8.106766821289062,5.764040496826172,0.6248866333007812,-1.748091603053435,0.2366412213740458,-1.6030534351145038
5264864978458,6.866704007,2,8.14627114868164,5.728127471923828,0.7122749938964843,-1.786259541984733,0.22137404580152673,-1.5648854961832062
5264884979344,6.886704893,2,8.093598712158203,5.756857891845703,0.7350199096679687,-1.748091603053435,0.22137404580152673,-1.5877862595419847
5264904976531,6.90670208,2,8.125920434570313,5.729324572753906,0.7817068420410156,-1.786259541984733,0.24427480916030533,-1.549618320610687
5264924984604,6.926710153,2,8.084021905517577,5.77122310180664,0.7422025146484375,-1.748091603053435,0.22900763358778625,-1.5648854961832062
5264944982677,6.946708226,2,8.111555224609374,5.764040496826172,0.7661445312499999,-1.7786259541984732,0.2366412213740458,-1.5419847328244274
5264964985333,6.966710882,2,8.118737829589843,5.7520694885253905,0.7661445312499999,-1.7709923664122138,0.2366412213740458,-1.6259541984732824
5264984975229,6.986700778,2,8.155847955322265,5.7520694885253905,0.7410054138183594,-1.7786259541984732,0.3053435114503817,-1.633587786259542
5265004977000,7.006702549,2,8.163030560302733,5.708973858642578,0.7170633972167968,-1.748091603053435,0.22900763358778625,-1.6030534351145038
5265024984187,7.026709736,2,8.125920434570313,5.743689782714843,0.7062894897460937,-1.786259541984733,0.2595419847328244,-1.5954198473282444
5265044975750,7.046701299,2,8.087613208007811,5.704185455322265,0.6308721374511719,-1.748091603053435,0.2748091603053435,-1.5801526717557253
5265065009396,7.066734945,2,8.106766821289062,5.693411547851563,0.7350199096679687,-1.7633587786259541,0.25190839694656486,-1.5801526717557253
5265084989917,7.086715466,2,8.113949426269532,5.785588311767578,0.7601590270996094,-1.7557251908396947,0.2824427480916031,-1.5648854961832062
5265104986114,7.106711663,2,8.103175518798828,5.737704278564453,0.7170633972167968,-1.748091603053435,0.25190839694656486,-1.5725190839694656
5265124992885,7.126718434,2,8.058882788085937,5.6946086486816405,0.6823474731445313,-1.8015267175572518,0.25190839694656486,-1.5648854961832062
5265144992312,7.146717861,2,8.145074047851562,5.764040496826172,0.6859387756347656,-1.748091603053435,0.2824427480916031,-1.5572519083969465
5265164986427,7.166711976,2,8.155847955322265,5.747281085205078,0.6751648681640625,-1.702290076335878,0.2366412213740458,-1.6488549618320612
5265184983094,7.186708643,2,8.062474090576172,5.758054992675781,0.7493851196289062,-1.8091603053435115,0.2748091603053435,-1.6106870229007633
5265204988458,7.206714007,2,8.103175518798828,5.804741925048828,0.7577648254394531,-1.7557251908396947,0.22900763358778625,-1.6488549618320612
5265225001166,7.226726715,2,8.061276989746093,5.743689782714843,0.74699091796875,-1.7404580152671756,0.2595419847328244,-1.5725190839694656
5265245007364,7.246732913,2,8.08881030883789,5.807136126708984,0.6751648681640625,-1.748091603053435,0.24427480916030533,-1.5801526717557253
5265264987729,7.266713278,2,8.151059552001952,5.760449194335937,0.718260498046875,-1.7786259541984732,0.26717557251908397,-1.5877862595419847
5265285008771,7.28673432,2,8.149862451171874,5.720944866943359,0.6667851623535156,-1.7557251908396947,0.1984732824427481,-1.6106870229007633
5265305044552,7.306770101,2,8.078036401367187,5.740098480224609,0.7709329345703124,-1.7633587786259541,0.2900763358778626,-1.6488549618320612
5265324993406,7.326718955,2,8.084021905517577,5.699397052001952,0.7517793212890624,-1.7328244274809161,0.2900763358778626,-1.534351145038168
5265344987677,7.346713226,2,8.092401611328125,5.801150622558594,0.6596025573730468,-1.7633587786259541,0.22900763358778625,-1.633587786259542
5265364983979,7.366709528,2,8.109161022949218,5.7700260009765625,0.7146691955566405,-1.717557251908397,0.3053435114503817,-1.5954198473282444
5265384988094,7.386713643,2,8.097190014648437,5.766434698486328,0.7338228088378905,-1.748091603053435,0.2595419847328244,-1.5954198473282444
5265404988666,7.406714215,2,8.170213165283203,5.6946086486816405,0.7613561279296874,-1.7328244274809161,0.16030534351145037,-1.5954198473282444
5265424983146,7.426708695,2,8.125920434570313,5.737704278564453,0.6655880615234374,-1.7404580152671756,0.22137404580152673,-1.5801526717557253
5265444983562,7.446709111,2,8.08881030883789,5.772420202636718,0.7314286071777343,-1.7786259541984732,0.2748091603053435,-1.5572519083969465
5265464964239,7.466689788,2,8.128314636230469,5.740098480224609,0.6643909606933593,-1.748091603053435,0.25190839694656486,-1.5419847328244274
5265484990073,7.486715622,2,8.130708837890625,5.735310076904296,0.6428431457519531,-1.7328244274809161,0.16793893129770993,-1.6030534351145038
5265504978510,7.506704059,2,8.109161022949218,5.735310076904296,0.7422025146484375,-1.8015267175572518,0.25190839694656486,-1.6259541984732824
5265524991010,7.526716559,2,8.118737829589843,5.764040496826172,0.7793126403808593,-1.7786259541984732,0.31297709923664124,-1.534351145038168
5265544991896,7.546717445,2,8.12711753540039,5.705382556152343,0.6943184814453125,-1.7938931297709924,0.2748091603053435,-1.6030534351145038
5265564988771,7.56671432,2,8.105569720458984,5.772420202636718,0.7709329345703124,-1.8015267175572518,0.21374045801526717,-1.5648854961832062
5265584985073,7.586710622,2,8.099584216308592,5.735310076904296,0.7074865905761718,-1.717557251908397,0.1984732824427481,-1.6412213740458015
5265604984604,7.606710153,2,8.130708837890625,5.754463690185546,0.6835445739746093,-1.7557251908396947,0.24427480916030533,-1.6259541984732824
5265624995854,7.626721403,2,8.119934930419921,5.72693037109375,0.7457938171386719,-1.7557251908396947,0.2595419847328244,-1.5648854961832062
5265644986791,7.64671234,2,8.130708837890625,5.743689782714843,0.6308721374511719,-1.7099236641221374,0.26717557251908397,-1.5725190839694656
5265664983458,7.666709007,2,8.103175518798828,5.749675286865234,0.7230489013671875,-1.7557251908396947,0.2595419847328244,-1.5725190839694656
5265684972156,7.686697705,2,8.122329132080077,5.723339068603515,0.7110778930664062,-1.786259541984733,0.2366412213740458,-1.6488549618320612
5265704992364,7.706717913,2,8.085219006347655,5.781997009277344,0.7637503295898437,-1.7404580152671756,0.22900763358778625,-1.5877862595419847
5265724989760,7.726715309,2,8.12711753540039,5.710170959472656,0.718260498046875,-1.83206106870229,0.25190839694656486,-1.6259541984732824
5265744982729,7.746708278,2,8.151059552001952,5.706579656982422,0.737414111328125,-1.748091603053435,0.26717557251908397,-1.6564885496183206
5265764988302,7.766713851,2,8.152256652832031,5.7700260009765625,0.6955155822753906,-1.7557251908396947,0.24427480916030533,-1.6488549618320612
5265784997468,7.786723017,2,8.123526232910155,5.8083332275390624,0.6524199523925781,-1.7328244274809161,0.2824427480916031,-1.618320610687023
5265804988927,7.806714476,2,8.097190014648437,5.764040496826172,0.6955155822753906,-1.7099236641221374,0.2366412213740458,-1.4809160305343512
5265824991010,7.826716559,2,8.141482745361328,5.7508723876953125,0.6296750366210937,-1.748091603053435,0.24427480916030533,-1.6106870229007633
5265844995750,7.846721299,2,8.091204510498047,5.749675286865234,0.7433996154785156,-1.7709923664122138,0.26717557251908397,-1.5801526717557253
5265864994656,7.866720205,2,8.13310303955078,5.7843912109375,0.6787561706542968,-1.7557251908396947,0.2748091603053435,-1.5572519083969465
5265884989552,7.886715101,2,8.131905938720703,5.747281085205078,0.7433996154785156,-1.7404580152671756,0.2824427480916031,-1.633587786259542
5265904977104,7.906702653,2,8.091204510498047,5.7137622619628905,0.7553706237792969,-1.7557251908396947,0.2748091603053435,-1.549618320610687
5265924983197,7.926708746,2,8.048108880615233,5.7891796142578125,0.7326257080078125,-1.7709923664122138,0.35877862595419846,-1.6488549618320612
5265944970802,7.946696351,2,8.12711753540039,5.742492681884765,0.7050923889160156,-1.7633587786259541,0.19083969465648856,-1.5877862595419847
5265964982729,7.966708278,2,8.130708837890625,5.7125651611328125,0.7326257080078125,-1.7328244274809161,0.24427480916030533,-1.5954198473282444
5265984976375,7.986701924,2,8.08881030883789,5.748478186035156,0.7122749938964843,-1.786259541984733,0.2748091603053435,-1.5954198473282444
5266005000958,8.006726507,2,8.160636358642577,5.791573815917968,0.7745242370605468,-1.7633587786259541,0.2900763358778626,-1.5725190839694656
5266025103822,8.026829371,2,8.118737829589843,5.762843395996094,0.7134720947265625,-1.6946564885496183,0.2748091603053435,-1.5954198473282444
5266044989083,8.046714632,2,8.135497241210937,5.748478186035156,0.7254431030273437,-1.7557251908396947,0.25190839694656486,-1.6259541984732824
5266064969968,8.066695517,2,8.129511737060547,5.7317187744140625,0.6871358764648438,-1.816793893129771,0.26717557251908397,-1.6259541984732824
5266084974760,8.086700309,2,8.177395770263672,5.728127471923828,0.7912836486816406,-1.7404580152671756,0.2366412213740458,-1.5419847328244274
5266104991218,8.106716767,2,8.12711753540039,5.742492681884765,0.6739677673339843,-1.7709923664122138,0.25190839694656486,-1.6106870229007633
5266124976322,8.126701871,2,8.179789971923828,5.693411547851563,0.7505822204589844,-1.7633587786259541,0.31297709923664124,-1.6106870229007633
5266144983354,8.146708903,2,8.103175518798828,5.777208605957031,0.8116343627929687,-1.7938931297709924,0.2748091603053435,-1.5572519083969465
5266164969447,8.166694996,2,8.128314636230469,5.767631799316406,0.6488286499023437,-1.7099236641221374,0.31297709923664124,-1.633587786259542
5266184977781,8.18670333,2,8.139088543701172,5.773617303466796,0.7338228088378905,-1.7557251908396947,0.22900763358778625,-1.6030534351145038
5266205017104,8.206742653,2,8.104372619628906,5.774814404296874,0.7721300354003906,-1.7404580152671756,0.2900763358778626,-1.6106870229007633
5266224979604,8.226705153,2,8.095992913818359,5.768828900146484,0.7110778930664062,-1.748091603053435,0.26717557251908397,-1.5801526717557253
5266244979031,8.24670458,2,8.147468249511718,5.768828900146484,0.6643909606933593,-1.7709923664122138,0.17557251908396945,-1.5954198473282444
5266264954343,8.266679892,2,8.068459594726562,5.776011505126953,0.6560112548828124,-1.7633587786259541,0.2900763358778626,-1.6412213740458015
5266284974239,8.286699788,2,8.16542476196289,5.6778492370605465,0.6751648681640625,-1.786259541984733,0.26717557251908397,-1.6488549618320612
5266304970749,8.306696298,2,8.148665350341796,5.759252093505859,0.7541735229492187,-1.7557251908396947,0.2595419847328244,-1.6488549618320612
5266324976791,8.32670234,2,8.109161022949218,5.759252093505859,0.6524199523925781,-1.7786259541984732,0.24427480916030533,-1.5954198473282444
5266344975801,8.34670135,2,8.122329132080077,5.741295581054687,0.689530078125,-1.8015267175572518,0.22900763358778625,-1.6106870229007633
5266364976426,8.366701975,2,8.085219006347655,5.729324572753906,0.7302315063476562,-1.748091603053435,0.24427480916030533,-1.618320610687023
5266384974031,8.38669958,2,8.091204510498047,5.7317187744140625,0.7074865905761718,-1.748091603053435,0.25190839694656486,-1.5725190839694656
5266404978874,8.406704423,2,8.135497241210937,5.776011505126953,0.7649474304199219,-1.7633587786259541,0.20610687022900764,-1.6106870229007633
5266425028874,8.426754423,2,8.10796392211914,5.724536169433593,0.7422025146484375,-1.786259541984733,0.22900763358778625,-1.5725190839694656
5266444978614,8.446704163,2,8.091204510498047,5.730521673583984,0.689530078125,-1.7557251908396947,0.19083969465648856,-1.618320610687023
5266464968093,8.466693642,2,8.136694342041014,5.743689782714843,0.7422025146484375,-1.7633587786259541,0.22900763358778625,-1.5877862595419847
5266484973562,8.486699111,2,8.074445098876952,5.793968017578124,0.7817068420410156,-1.7404580152671756,0.25190839694656486,-1.6259541984732824
5266504976947,8.506702496,2,8.14028564453125,5.72693037109375,0.6679822631835937,-1.7633587786259541,0.19083969465648856,-1.6488549618320612
5266525028093,8.526753642,2,8.106766821289062,5.741295581054687,0.7386112121582031,-1.748091603053435,0.19083969465648856,-1.6030534351145038
5266544965593,8.546691142,2,8.116343627929687,5.722141967773437,0.6727706665039062,-1.7404580152671756,0.26717557251908397,-1.5419847328244274
5266564965437,8.566690986,2,8.105569720458984,5.717353564453124,0.6967126831054687,-1.7938931297709924,0.22900763358778625,-1.5114503816793894
5266584970437,8.586695986,2,8.139088543701172,5.7891796142578125,0.7134720947265625,-1.786259541984733,0.22137404580152673,-1.6412213740458015
5266604971166,8.606696715,2,8.148665350341796,5.7520694885253905,0.6428431457519531,-1.8244274809160306,0.25190839694656486,-1.5648854961832062
5266624970333,8.626695882,2,8.155847955322265,5.6946086486816405,0.6631938598632812,-1.7404580152671756,0.2366412213740458,-1.5877862595419847
5266644972989,8.646698538,2,8.085219006347655,5.738901379394531,0.6715735656738281,-1.786259541984733,0.26717557251908397,-1.6106870229007633
5266664972572,8.666698121,2,8.042123376464843,5.759252093505859,0.7362170104980469,-1.7633587786259541,0.26717557251908397,-1.5419847328244274
5266684976374,8.686701923,2,8.125920434570313,5.734112976074218,0.6739677673339843,-1.748091603053435,0.26717557251908397,-1.6030534351145038
5266704974447,8.706699996,2,8.068459594726562,5.743689782714843,0.7410054138183594,-1.7404580152671756,0.26717557251908397,-1.5801526717557253
5266725023458,8.726749007,2,8.16542476196289,5.737704278564453,0.6679822631835937,-1.7938931297709924,0.29770992366412213,-1.5572519083969465
5266744955853,8.746681402,2,8.061276989746093,5.7137622619628905,0.7003039855957031,-1.7557251908396947,0.2748091603053435,-1.6106870229007633
5266764974447,8.766699996,2,8.080430603027343,5.781997009277344,0.709880792236328,-1.7709923664122138,0.2900763358778626,-1.5801526717557253
5266784961843,8.786687392,2,8.16542476196289,5.735310076904296,0.7709329345703124,-1.7633587786259541,0.21374045801526717,-1.5954198473282444
5266804970020,8.806695569,2,8.143876947021484,5.740098480224609,0.7050923889160156,-1.7709923664122138,0.26717557251908397,-1.534351145038168
5266825022572,8.826748121,2,8.139088543701172,5.723339068603515,0.6524199523925781,-1.7404580152671756,0.21374045801526717,-1.5954198473282444
5266844972989,8.846698538,2,8.081627703857421,5.728127471923828,0.8164227661132812,-1.748091603053435,0.1984732824427481,-1.5954198473282444
5266864965124,8.866690673,2,8.122329132080077,5.7520694885253905,0.6751648681640625,-1.7404580152671756,0.2748091603053435,-1.5877862595419847
5266884973041,8.88669859,2,8.155847955322265,5.736507177734374,0.7314286071777343,-1.7709923664122138,0.25190839694656486,-1.5725190839694656
5266904972676,8.906698225,2,8.124723333740233,5.744886883544922,0.7362170104980469,-1.748091603053435,0.26717557251908397,-1.6564885496183206
5266924997416,8.926722965,2,8.149862451171874,5.728127471923828,0.7553706237792969,-1.7786259541984732,0.2748091603053435,-1.5801526717557253
5266944984916,8.946710465,2,8.087613208007811,5.746083984375,0.7266402038574218,-1.7328244274809161,0.22900763358778625,-1.5954198473282444
5266964971583,8.966697132,2,8.099584216308592,5.689820245361328,0.7541735229492187,-1.7633587786259541,0.22900763358778625,-1.6106870229007633
5266984984395,8.986709944,2,8.10796392211914,5.717353564453124,0.6308721374511719,-1.7404580152671756,0.2595419847328244,-1.5954198473282444
5267004972728,9.006698277,2,8.134300140380859,5.7149593627929685,0.7613561279296874,-1.7709923664122138,0.2824427480916031,-1.6641221374045803
5267024970957,9.026696506,2,8.151059552001952,5.737704278564453,0.7493851196289062,-1.7557251908396947,0.2595419847328244,-1.5725190839694656
5267044972572,9.046698121,2,8.158242156982421,5.785588311767578,0.719457598876953,-1.7251908396946565,0.3053435114503817,-1.633587786259542
5267064950072,9.066675621,2,8.145074047851562,5.742492681884765,0.719457598876953,-1.7709923664122138,0.22900763358778625,-1.5954198473282444
5267084990593,9.086716142,2,8.110358123779296,5.741295581054687,0.6871358764648438,-1.7633587786259541,0.25190839694656486,-1.5801526717557253
5267104978145,9.106703694,2,8.110358123779296,5.768828900146484,0.7003039855957031,-1.7709923664122138,0.2900763358778626,-1.6106870229007633
5267124982155,9.126707704,2,8.10796392211914,5.735310076904296,0.7326257080078125,-1.7404580152671756,0.2900763358778626,-1.5572519083969465
5267144990437,9.146715986,2,8.13310303955078,5.7700260009765625,0.6380547424316406,-1.7938931297709924,0.2595419847328244,-1.6106870229007633
5267164982937,9.166708486,2,8.134300140380859,5.728127471923828,0.7625532287597656,-1.7328244274809161,0.25190839694656486,-1.5801526717557253
5267184986530,9.186712079,2,8.098387115478515,5.740098480224609,0.6655880615234374,-1.7709923664122138,0.2748091603053435,-1.6030534351145038
5267204982312,9.206707861,2,8.066065393066406,5.6946086486816405,0.7170633972167968,-1.717557251908397,0.2595419847328244,-1.618320610687023
5267224980437,9.226705986,2,8.092401611328125,5.776011505126953,0.6847416748046875,-1.786259541984733,0.20610687022900764,-1.5801526717557253
5267244998926,9.246724475,2,8.14028564453125,5.7891796142578125,0.7410054138183594,-1.7938931297709924,0.2748091603053435,-1.618320610687023
5267264975020,9.266700569,2,8.129511737060547,5.723339068603515,0.7314286071777343,-1.748091603053435,0.22137404580152673,-1.6030534351145038
5267284989499,9.286715048,2,8.110358123779296,5.773617303466796,0.7062894897460937,-1.7786259541984732,0.2595419847328244,-1.6030534351145038
5267305005957,9.306731506,2,8.142679846191406,5.740098480224609,0.6979097839355468,-1.717557251908397,0.26717557251908397,-1.5877862595419847
5267325029916,9.326755465,2,8.112752325439452,5.754463690185546,0.7422025146484375,-1.786259541984733,0.2595419847328244,-1.633587786259542
5267344983041,9.34670859,2,8.125920434570313,5.749675286865234,0.7709329345703124,-1.7938931297709924,0.29770992366412213,-1.549618320610687
5267364980801,9.36670635,2,8.06965669555664,5.724536169433593,0.6883329772949218,-1.7099236641221374,0.26717557251908397,-1.5190839694656488
5267384982051,9.3867076,2,8.081627703857421,5.719747766113281,0.7589619262695312,-1.7938931297709924,0.22900763358778625,-1.5954198473282444
5267404989447,9.406714996,2,8.112752325439452,5.706579656982422,0.7242460021972655,-1.7786259541984732,0.25190839694656486,-1.6030534351145038
5267424977572,9.426703121,2,8.13310303955078,5.772420202636718,0.7625532287597656,-1.786259541984733,0.26717557251908397,-1.5725190839694656
5267444989186,9.446714735,2,8.091204510498047,5.734112976074218,0.7158662963867187,-1.7557251908396947,0.2366412213740458,-1.5725190839694656
5267464983926,9.466709475,2,8.151059552001952,5.759252093505859,0.7015010864257812,-1.7328244274809161,0.29770992366412213,-1.5725190839694656
5267484977989,9.486703538,2,8.078036401367187,5.686228942871093,0.7481880187988281,-1.7633587786259541,0.2366412213740458,-1.6030534351145038
5267504977155,9.506702704,2,8.10796392211914,5.738901379394531,0.7745242370605468,-1.7786259541984732,0.25190839694656486,-1.618320610687023
5267524987520,9.526713069,2,8.130708837890625,5.744886883544922,0.6488286499023437,-1.7786259541984732,0.2900763358778626,-1.633587786259542
5267544992207,9.546717756,2,8.12711753540039,5.773617303466796,0.8846575134277344,-1.7328244274809161,0.20610687022900764,-1.5419847328244274
5267564982311,9.56670786,2,8.09479581298828,5.762843395996094,0.7158662963867187,-1.7938931297709924,0.25190839694656486,-1.6793893129770991
5267584998718,9.586724267,2,8.143876947021484,5.772420202636718,0.679953271484375,-1.786259541984733,0.24427480916030533,-1.5725190839694656
5267604974082,9.606699631,2,8.090007409667969,5.76523759765625,0.612915625,-1.8015267175572518,0.19083969465648856,-1.5725190839694656
5267624988874,9.626714423,2,8.080430603027343,5.758054992675781,0.7577648254394531,-1.7251908396946565,0.26717557251908397,-1.5954198473282444
5267644978874,9.646704423,2,8.111555224609374,5.746083984375,0.6823474731445313,-1.7328244274809161,0.1984732824427481,-1.5419847328244274
5267664978718,9.666704267,2,8.123526232910155,5.736507177734374,0.7386112121582031,-1.7709923664122138,0.2748091603053435,-1.6030534351145038
5267684984551,9.6867101,2,8.104372619628906,5.759252093505859,0.70868369140625,-1.7709923664122138,0.25190839694656486,-1.549618320610687
5267704990124,9.706715673,2,8.10796392211914,5.754463690185546,0.737414111328125,-1.748091603053435,0.24427480916030533,-1.6259541984732824
5267724988405,9.726713954,2,8.079233502197265,5.778405706787109,0.7003039855957031,-1.6870229007633588,0.2748091603053435,-1.5954198473282444
5267744993249,9.746718798,2,8.085219006347655,5.746083984375,0.7326257080078125,-1.7633587786259541,0.2824427480916031,-1.5954198473282444
5267764982051,9.7667076,2,8.109161022949218,5.756857891845703,0.7685387329101562,-1.7557251908396947,0.24427480916030533,-1.5725190839694656
5267784994916,9.786720465,2,8.078036401367187,5.756857891845703,0.719457598876953,-1.7709923664122138,0.22900763358778625,-1.5267175572519085
5267804981582,9.806707131,2,8.125920434570313,5.760449194335937,0.6584054565429687,-1.7709923664122138,0.2824427480916031,-1.5648854961832062
5267824980801,9.82670635,2,8.113949426269532,5.72693037109375,0.6967126831054687,-1.702290076335878,0.25190839694656486,-1.5648854961832062
5267844982520,9.846708069,2,8.103175518798828,5.698199951171874,0.7422025146484375,-1.7709923664122138,0.2366412213740458,-1.5801526717557253
5267864997520,9.866723069,2,8.14627114868164,5.783194110107422,0.7805097412109374,-1.7404580152671756,0.2366412213740458,-1.6412213740458015
5267884976843,9.886702392,2,8.106766821289062,5.759252093505859,0.74699091796875,-1.7786259541984732,0.20610687022900764,-1.5267175572519085
5267904979447,9.906704996,2,8.161833459472655,5.774814404296874,0.7577648254394531,-1.7251908396946565,0.2900763358778626,-1.6259541984732824
5267924970280,9.926695829,2,8.081627703857421,5.737704278564453,0.7673416320800781,-1.7633587786259541,0.20610687022900764,-1.549618320610687
5267944997363,9.946722912,2,8.124723333740233,5.768828900146484,0.7529764221191406,-1.7786259541984732,0.2366412213740458,-1.5954198473282444
5267964981843,9.966707392,2,8.134300140380859,5.743689782714843,0.6368576416015624,-1.7786259541984732,0.26717557251908397,-1.6717557251908397
5267984982520,9.986708069,2,8.166621862792969,5.758054992675781,0.7517793212890624,-1.7404580152671756,0.25190839694656486,-1.633587786259542
5268004995593,10.006721142,2,8.26119282836914,5.734112976074218,0.7110778930664062,-1.7633587786259541,0.25190839694656486,-1.6259541984732824
5268024971686,10.026697235,2,8.090007409667969,5.736507177734374,0.6943184814453125,-1.7099236641221374,0.26717557251908397,-1.5572519083969465
5268044988040,10.046713589,2,7.97388862915039,5.704185455322265,0.6907271789550781,-1.7404580152671756,0.19083969465648856,-1.5648854961832062
5268064988561,10.06671411,2,8.129511737060547,5.8083332275390624,0.6643909606933593,-1.7404580152671756,0.29770992366412213,-1.5648854961832062
5268084978926,10.086704475,2,8.131905938720703,5.753266589355468,0.6727706665039062,-1.748091603053435,0.25190839694656486,-1.5954198473282444
5268104995957,10.106721506,2,8.185775476074218,5.797559320068359,0.6847416748046875,-1.748091603053435,0.25190839694656486,-1.6030534351145038
5268124990020,10.126715569,2,8.14627114868164,5.7137622619628905,0.7900865478515624,-1.786259541984733,0.2595419847328244,-1.5801526717557253
5268144998770,10.146724319,2,8.0828248046875,5.717353564453124,0.8762778076171874,-1.7709923664122138,0.21374045801526717,-1.6259541984732824
5268164966530,10.166692079,2,8.128314636230469,5.710170959472656,0.7134720947265625,-1.7786259541984732,0.22900763358778625,-1.549618320610687
5268184999342,10.186724891,2,8.104372619628906,5.744886883544922,0.7433996154785156,-1.7709923664122138,0.2900763358778626,-1.5877862595419847
5268205017936,10.206743485,2,8.148665350341796,5.749675286865234,0.7589619262695312,-1.7251908396946565,0.25190839694656486,-1.6106870229007633
5268224985072,10.226710621,2,8.085219006347655,5.753266589355468,0.7769184387207031,-1.786259541984733,0.21374045801526717,-1.5877862595419847
5268244983405,10.246708954,2,8.118737829589843,5.7329158752441405,0.6955155822753906,-1.748091603053435,0.2748091603053435,-1.5725190839694656
5268264985228,10.266710777,2,8.100781317138672,5.744886883544922,0.7278373046875,-1.7328244274809161,0.22900763358778625,-1.5877862595419847
5268284984186,10.286709735,2,8.109161022949218,5.760449194335937,0.834379278564453,-1.7786259541984732,0.25190839694656486,-1.618320610687023
5268304984342,10.306709891,2,8.163030560302733,5.740098480224609,0.7170633972167968,-1.7938931297709924,0.22900763358778625,-1.5954198473282444
5268324991686,10.326717235,2,8.091204510498047,5.699397052001952,0.7254431030273437,-1.7404580152671756,0.25190839694656486,-1.6412213740458015
5268345001947,10.346727496,2,8.109161022949218,5.780799908447265,0.7721300354003906,-1.8015267175572518,0.2900763358778626,-1.5267175572519085
5268364982988,10.366708537,2,8.17859287109375,5.76523759765625,0.6679822631835937,-1.748091603053435,0.1984732824427481,-1.5419847328244274
5268384983926,10.386709475,2,8.116343627929687,5.730521673583984,0.679953271484375,-1.7938931297709924,0.2824427480916031,-1.633587786259542
5268404982311,10.40670786,2,8.128314636230469,5.741295581054687,0.7386112121582031,-1.7328244274809161,0.2900763358778626,-1.5725190839694656
5268424992988,10.426718537,2,8.113949426269532,5.7843912109375,0.7230489013671875,-1.748091603053435,0.2748091603053435,-1.5801526717557253
5268444985436,10.446710985,2,8.066065393066406,5.730521673583984,0.7445967163085937,-1.7633587786259541,0.2366412213740458,-1.5419847328244274
5268464982572,10.466708121,2,8.068459594726562,5.753266589355468,0.7709329345703124,-1.7938931297709924,0.2748091603053435,-1.618320610687023
5268484977780,10.486703329,2,8.182184173583984,5.760449194335937,0.7302315063476562,-1.7328244274809161,0.26717557251908397,-1.5954198473282444
5268504991061,10.50671661,2,8.12711753540039,5.783194110107422,0.7637503295898437,-1.748091603053435,0.2824427480916031,-1.549618320610687
5268524980176,10.526705725,2,8.111555224609374,5.7843912109375,0.7278373046875,-1.7938931297709924,0.2900763358778626,-1.5954198473282444
5268544991582,10.546717131,2,8.086416107177733,5.7508723876953125,0.7266402038574218,-1.748091603053435,0.26717557251908397,-1.5954198473282444
5268564986634,10.566712183,2,8.0828248046875,5.756857891845703,0.7565677246093749,-1.7404580152671756,0.2748091603053435,-1.633587786259542
5268584985957,10.586711506,2,8.169016064453125,5.724536169433593,0.6775590698242188,-1.7557251908396947,0.19083969465648856,-1.618320610687023
5268604982780,10.606708329,2,8.113949426269532,5.756857891845703,0.7015010864257812,-1.7633587786259541,0.2366412213740458,-1.5725190839694656
5268624981999,10.626707548,2,8.116343627929687,5.691017346191406,0.6584054565429687,-1.7557251908396947,0.22137404580152673,-1.6106870229007633
5268645036478,10.646762027,2,8.099584216308592,5.758054992675781,0.6823474731445313,-1.8091603053435115,0.25190839694656486,-1.5954198473282444
5268664987363,10.666712912,2,8.12711753540039,5.747281085205078,0.6823474731445313,-1.7709923664122138,0.2748091603053435,-1.633587786259542
5268684979499,10.686705048,2,8.084021905517577,5.744886883544922,0.719457598876953,-1.7557251908396947,0.26717557251908397,-1.5572519083969465
5268704981374,10.706706923,2,8.123526232910155,5.746083984375,0.7230489013671875,-1.7328244274809161,0.20610687022900764,-1.618320610687023
5268724973873,10.726699422,2,8.12711753540039,5.711368060302734,0.7410054138183594,-1.7709923664122138,0.26717557251908397,-1.5038167938931297
5268745045748,10.746771297,2,8.13310303955078,5.773617303466796,0.7517793212890624,-1.7557251908396947,0.26717557251908397,-1.5877862595419847
5268764976738,10.766702287,2,8.143876947021484,5.77122310180664,0.7146691955566405,-1.7251908396946565,0.3053435114503817,-1.6259541984732824
5268784985228,10.786710777,2,8.124723333740233,5.766434698486328,0.718260498046875,-1.748091603053435,0.25190839694656486,-1.6259541984732824
5268804989811,10.80671536,2,8.136694342041014,5.734112976074218,0.6691793640136718,-1.8015267175572518,0.2748091603053435,-1.6412213740458015
5268824993926,10.826719475,2,8.13310303955078,5.815515832519531,0.6428431457519531,-1.7786259541984732,0.2900763358778626,-1.5954198473282444
5268845027832,10.846753381,2,8.084021905517577,5.717353564453124,0.7661445312499999,-1.7709923664122138,0.2366412213740458,-1.534351145038168
5268864981790,10.866707339,2,8.070853796386718,5.72693037109375,0.7864952453613281,-1.7786259541984732,0.2595419847328244,-1.6030534351145038
5268884980592,10.886706141,2,8.098387115478515,5.768828900146484,0.7817068420410156,-1.7709923664122138,0.2366412213740458,-1.6030534351145038
5268904987415,10.906712964,2,8.092401611328125,5.734112976074218,0.7134720947265625,-1.7709923664122138,0.21374045801526717,-1.5954198473282444
5268924981686,10.926707235,2,8.142679846191406,5.725733270263672,0.6500257507324219,-1.786259541984733,0.24427480916030533,-1.5725190839694656
5268944984863,10.946710412,2,8.110358123779296,5.79037671508789,0.6931213806152343,-1.786259541984733,0.2900763358778626,-1.6412213740458015
5268965101998,10.966827547,2,8.051700183105469,5.749675286865234,0.7122749938964843,-1.8091603053435115,0.2366412213740458,-1.534351145038168
5268984998717,10.986724266,2,8.074445098876952,5.722141967773437,0.7505822204589844,-1.7099236641221374,0.22900763358778625,-1.633587786259542
5269004979759,11.006705308,2,8.137891442871092,5.737704278564453,0.7565677246093749,-1.7557251908396947,0.2595419847328244,-1.5572519083969465
5269024989655,11.026715204,2,8.064868292236328,5.702988354492187,0.7493851196289062,-1.7251908396946565,0.31297709923664124,-1.5954198473282444
5269045029603,11.046755152,2,8.106766821289062,5.791573815917968,0.7003039855957031,-1.7404580152671756,0.26717557251908397,-1.633587786259542
5269064988717,11.066714266,2,8.072050897216796,5.780799908447265,0.6643909606933593,-1.7709923664122138,0.29770992366412213,-1.5190839694656488
5269084985280,11.086710829,2,8.141482745361328,5.805939025878906,0.6476315490722656,-1.7709923664122138,0.2595419847328244,-1.5801526717557253
5269104971894,11.106697443,2,8.10197841796875,5.698199951171874,0.7505822204589844,-1.748091603053435,0.26717557251908397,-1.5877862595419847
5269124977675,11.126703224,2,8.177395770263672,5.761646295166015,0.7577648254394531,-1.7633587786259541,0.3053435114503817,-1.5954198473282444
5269145024342,11.146749891,2,8.130708837890625,5.749675286865234,0.7218518005371093,-1.7709923664122138,0.2748091603053435,-1.5954198473282444
5269164972936,11.166698485,2,8.122329132080077,5.793968017578124,0.7050923889160156,-1.7633587786259541,0.2366412213740458,-1.5877862595419847
5269184965592,11.186691141,2,8.129511737060547,5.76523759765625,0.7206546997070312,-1.7709923664122138,0.25190839694656486,-1.6030534351145038
5269204964759,11.206690308,2,8.143876947021484,5.776011505126953,0.7338228088378905,-1.7709923664122138,0.22900763358778625,-1.6106870229007633
5269224974811,11.22670036,2,8.17141026611328,5.743689782714843,0.7003039855957031,-1.7633587786259541,0.2595419847328244,-1.5877862595419847
5269245039550,11.246765099,2,8.119934930419921,5.77122310180664,0.679953271484375,-1.7557251908396947,0.24427480916030533,-1.633587786259542
5269264969759,11.266695308,2,8.074445098876952,5.7077767578125,0.7709329345703124,-1.7557251908396947,0.1984732824427481,-1.6106870229007633
5269284967675,11.286693224,2,8.12711753540039,5.753266589355468,0.7050923889160156,-1.748091603053435,0.33587786259541985,-1.618320610687023
5269304969915,11.306695464,2,8.145074047851562,5.793968017578124,0.709880792236328,-1.7557251908396947,0.2595419847328244,-1.5725190839694656
5269325018977,11.326744526,2,8.105569720458984,5.7317187744140625,0.7553706237792969,-1.717557251908397,0.2748091603053435,-1.633587786259542
5269345012884,11.346738433,2,8.109161022949218,5.758054992675781,0.7230489013671875,-1.748091603053435,0.2366412213740458,-1.5954198473282444
5269364977467,11.366703016,2,8.116343627929687,5.7317187744140625,0.7242460021972655,-1.7251908396946565,0.25190839694656486,-1.5725190839694656
5269384970904,11.386696453,2,8.113949426269532,5.760449194335937,0.7733271362304687,-1.7786259541984732,0.2824427480916031,-1.6564885496183206
5269404959498,11.406685047,2,8.123526232910155,5.734112976074218,0.7146691955566405,-1.7709923664122138,0.2824427480916031,-1.5572519083969465
5269424966477,11.426692026,2,8.160636358642577,5.801150622558594,0.7266402038574218,-1.7404580152671756,0.2366412213740458,-1.6412213740458015
5269444971269,11.446696818,2,8.06367119140625,5.776011505126953,0.7733271362304687,-1.7557251908396947,0.21374045801526717,-1.5572519083969465
5269464953196,11.466678745,2,8.135497241210937,5.783194110107422,0.7218518005371093,-1.702290076335878,0.25190839694656486,-1.5801526717557253
5269484974602,11.486700151,2,8.091204510498047,5.748478186035156,0.6703764648437499,-1.7633587786259541,0.26717557251908397,-1.6106870229007633
5269504963717,11.506689266,2,8.099584216308592,5.7843912109375,0.7422025146484375,-1.786259541984733,0.17557251908396945,-1.5572519083969465
5269524972675,11.526698224,2,8.084021905517577,5.77122310180664,0.7852981445312499,-1.7709923664122138,0.2748091603053435,-1.5725190839694656
5269545248665,11.546974214,2,8.087613208007811,5.777208605957031,0.7685387329101562,-1.7786259541984732,0.29770992366412213,-1.5801526717557253
5269565010071,11.56673562,2,8.106766821289062,5.756857891845703,0.7493851196289062,-1.8396946564885497,0.22137404580152673,-1.6259541984732824
5269584983509,11.586709058,2,8.098387115478515,5.692214447021484,0.7553706237792969,-1.7633587786259541,0.24427480916030533,-1.5877862595419847
5269604984863,11.606710412,2,8.116343627929687,5.77122310180664,0.6775590698242188,-1.748091603053435,0.2748091603053435,-1.5954198473282444
5269624982779,11.626708328,2,8.119934930419921,5.7508723876953125,0.7517793212890624,-1.7786259541984732,0.2595419847328244,-1.6259541984732824
5269644983352,11.646708901,2,8.105569720458984,5.773617303466796,0.74699091796875,-1.786259541984733,0.2595419847328244,-1.5725190839694656
5269664986009,11.666711558,2,8.091204510498047,5.767631799316406,0.7350199096679687,-1.7709923664122138,0.2595419847328244,-1.5954198473282444
5269684991269,11.686716818,2,8.12711753540039,5.780799908447265,0.7134720947265625,-1.748091603053435,0.2824427480916031,-1.5190839694656488
5269704984811,11.70671036,2,8.109161022949218,5.7149593627929685,0.6404489440917969,-1.7938931297709924,0.29770992366412213,-1.5954198473282444
5269724981581,11.72670713,2,8.079233502197265,5.729324572753906,0.7398083129882812,-1.7709923664122138,0.1984732824427481,-1.6030534351145038
5269744988509,11.746714058,2,8.141482745361328,5.746083984375,0.7493851196289062,-1.6793893129770991,0.26717557251908397,-1.549618320610687
5269764991581,11.76671713,2,8.122329132080077,5.761646295166015,0.6679822631835937,-1.786259541984733,0.26717557251908397,-1.549618320610687
5269784976686,11.786702235,2,8.125920434570313,5.756857891845703,0.6667851623535156,-1.702290076335878,0.2595419847328244,-1.5572519083969465
5269804976946,11.806702495,2,8.099584216308592,5.778405706787109,0.7733271362304687,-1.7328244274809161,0.2366412213740458,-1.6106870229007633
5269824975540,11.826701089,2,8.08881030883789,5.724536169433593,0.7457938171386719,-1.717557251908397,0.3053435114503817,-1.6106870229007633
5269844995279,11.846720828,2,8.128314636230469,5.737704278564453,0.6452373474121094,-1.7709923664122138,0.2824427480916031,-1.5648854961832062
5269864986946,11.866712495,2,8.131905938720703,5.72693037109375,0.6452373474121094,-1.748091603053435,0.3053435114503817,-1.549618320610687
5269884983665,11.886709214,2,8.11514652709961,5.748478186035156,0.718260498046875,-1.7786259541984732,0.25190839694656486,-1.5877862595419847
5269904983248,11.906708797,2,8.097190014648437,5.741295581054687,0.7565677246093749,-1.8244274809160306,0.2595419847328244,-1.618320610687023
5269924987831,11.92671338,2,8.097190014648437,5.764040496826172,0.7026981872558593,-1.7709923664122138,0.24427480916030533,-1.5725190839694656
5269944980071,11.94670562,2,8.128314636230469,5.735310076904296,0.7422025146484375,-1.7404580152671756,0.2595419847328244,-1.5954198473282444
5269964984342,11.966709891,2,8.092401611328125,5.683834741210937,0.679953271484375,-1.7709923664122138,0.22900763358778625,-1.6106870229007633
5269984982779,11.986708328,2,8.112752325439452,5.768828900146484,0.719457598876953,-1.748091603053435,0.26717557251908397,-1.5648854961832062
5270005000696,12.006726245,2,8.091204510498047,5.7317187744140625,0.7445967163085937,-1.7786259541984732,0.22137404580152673,-1.5877862595419847
5270024991738,12.026717287,2,8.109161022949218,5.755660791015624,0.6452373474121094,-1.7557251908396947,0.22137404580152673,-1.5572519083969465
5270044993508,12.046719057,2,8.135497241210937,5.740098480224609,0.7206546997070312,-1.7786259541984732,0.25190839694656486,-1.6259541984732824
5270064989550,12.066715099,2,8.098387115478515,5.762843395996094,0.6931213806152343,-1.816793893129771,0.25190839694656486,-1.5572519083969465
5270084996165,12.086721714,2,8.111555224609374,5.7317187744140625,0.7278373046875,-1.7786259541984732,0.24427480916030533,-1.5725190839694656
5270104974133,12.106699682,2,8.074445098876952,5.749675286865234,0.7445967163085937,-1.7557251908396947,0.2824427480916031,-1.618320610687023
5270124991113,12.126716662,2,8.129511737060547,5.740098480224609,0.8259995727539062,-1.7328244274809161,0.25190839694656486,-1.5954198473282444
5270145002102,12.146727651,2,8.058882788085937,5.717353564453124,0.7146691955566405,-1.786259541984733,0.25190839694656486,-1.6106870229007633
5270165005800,12.166731349,2,8.111555224609374,5.725733270263672,0.6380547424316406,-1.786259541984733,0.2366412213740458,-1.5572519083969465
5270184982415,12.186707964,2,8.105569720458984,5.754463690185546,0.7517793212890624,-1.7404580152671756,0.26717557251908397,-1.6641221374045803
5270204981060,12.206706609,2,8.161833459472655,5.754463690185546,0.6871358764648438,-1.7633587786259541,0.2595419847328244,-1.5877862595419847
5270225019394,12.226744943,2,8.109161022949218,5.756857891845703,0.7314286071777343,-1.7251908396946565,0.2824427480916031,-1.5877862595419847
5270245007258,12.246732807,2,8.12711753540039,5.7520694885253905,0.7709329345703124,-1.7251908396946565,0.25190839694656486,-1.5954198473282444
5270264984498,12.266710047,2,8.095992913818359,5.728127471923828,0.679953271484375,-1.7099236641221374,0.2595419847328244,-1.5954198473282444
5270284977206,12.286702755,2,8.085219006347655,5.728127471923828,0.7733271362304687,-1.7709923664122138,0.25190839694656486,-1.5801526717557253
5270304985331,12.30671088,2,8.060079888916015,5.768828900146484,0.6775590698242188,-1.748091603053435,0.25190839694656486,-1.5725190839694656
5270324978508,12.326704057,2,8.081627703857421,5.744886883544922,0.7541735229492187,-1.7404580152671756,0.22900763358778625,-1.5648854961832062
5270344980540,12.346706089,2,8.135497241210937,5.725733270263672,0.7134720947265625,-1.748091603053435,0.2748091603053435,-1.6259541984732824
5270364985748,12.366711297,2,8.128314636230469,5.729324572753906,0.7134720947265625,-1.7938931297709924,0.2824427480916031,-1.5267175572519085
5270384985592,12.386711141,2,8.125920434570313,5.722141967773437,0.6907271789550781,-1.7709923664122138,0.24427480916030533,-1.5572519083969465
5270404980383,12.406705932,2,8.095992913818359,5.744886883544922,0.7553706237792969,-1.7709923664122138,0.26717557251908397,-1.5801526717557253
5270424984706,12.426710255,2,8.103175518798828,5.717353564453124,0.6548141540527344,-1.7633587786259541,0.25190839694656486,-1.5954198473282444
5270444986008,12.446711557,2,8.08881030883789,5.742492681884765,0.7529764221191406,-1.7938931297709924,0.2824427480916031,-1.5954198473282444
5270464989654,12.466715203,2,8.064868292236328,5.738901379394531,0.7900865478515624,-1.748091603053435,0.24427480916030533,-1.6106870229007633
5270484990175,12.486715724,2,8.14028564453125,5.773617303466796,0.7445967163085937,-1.7938931297709924,0.2824427480916031,-1.6259541984732824
5270504984967,12.506710516,2,8.070853796386718,5.724536169433593,0.8200140686035156,-1.7557251908396947,0.2748091603053435,-1.5725190839694656
5270524981112,12.526706661,2,8.098387115478515,5.719747766113281,0.6835445739746093,-1.748091603053435,0.2748091603053435,-1.5419847328244274
5270544984967,12.546710516,2,8.050503082275391,5.759252093505859,0.7206546997070312,-1.702290076335878,0.2366412213740458,-1.6259541984732824
5270564990227,12.566715776,2,8.148665350341796,5.730521673583984,0.7888894470214843,-1.786259541984733,0.2366412213740458,-1.618320610687023
5270584962258,12.586687807,2,8.13310303955078,5.749675286865234,0.7314286071777343,-1.7633587786259541,0.24427480916030533,-1.5954198473282444
5270604974133,12.606699682,2,8.075642199707032,5.747281085205078,0.7206546997070312,-1.7938931297709924,0.2595419847328244,-1.5725190839694656
5270624982779,12.626708328,2,8.093598712158203,5.766434698486328,0.7565677246093749,-1.7557251908396947,0.25190839694656486,-1.6259541984732824
5270644963664,12.646689213,2,8.099584216308592,5.743689782714843,0.7062894897460937,-1.7404580152671756,0.26717557251908397,-1.6106870229007633
5270664992467,12.666718016,2,8.07683930053711,5.7508723876953125,0.7230489013671875,-1.7328244274809161,0.19083969465648856,-1.6488549618320612
5270684986477,12.686712026,2,8.092401611328125,5.766434698486328,0.7553706237792969,-1.7709923664122138,0.3053435114503817,-1.549618320610687
5270704981998,12.706707547,2,8.093598712158203,5.744886883544922,0.737414111328125,-1.748091603053435,0.22900763358778625,-1.5801526717557253
5270724987206,12.726712755,2,8.111555224609374,5.735310076904296,0.6512228515624999,-1.7786259541984732,0.2595419847328244,-1.5954198473282444
5270744979289,12.746704838,2,8.099584216308592,5.718550665283203,0.7709329345703124,-1.7328244274809161,0.2366412213740458,-1.534351145038168
5270764996216,12.766721765,2,8.103175518798828,5.758054992675781,0.7242460021972655,-1.7709923664122138,0.2900763358778626,-1.6106870229007633
5270784996581,12.78672213,2,8.078036401367187,5.708973858642578,0.689530078125,-1.7938931297709924,0.26717557251908397,-1.5801526717557253
5270804999654,12.806725203,2,8.104372619628906,5.7137622619628905,0.7242460021972655,-1.717557251908397,0.22137404580152673,-1.633587786259542
5270824988925,12.826714474,2,8.12711753540039,5.718550665283203,0.7003039855957031,-1.7328244274809161,0.24427480916030533,-1.5725190839694656
5270844989394,12.846714943,2,8.0828248046875,5.698199951171874,0.6332663391113281,-1.748091603053435,0.26717557251908397,-1.633587786259542
5270864991841,12.86671739,2,8.078036401367187,5.735310076904296,0.852335791015625,-1.6870229007633588,0.22900763358778625,-1.5801526717557253
5270884998039,12.886723588,2,8.14028564453125,5.776011505126953,0.6703764648437499,-1.8091603053435115,0.2824427480916031,-1.6030534351145038
5270904995123,12.906720672,2,8.125920434570313,5.724536169433593,0.718260498046875,-1.7557251908396947,0.25190839694656486,-1.5877862595419847
5270924986321,12.92671187,2,8.098387115478515,5.728127471923828,0.6631938598632812,-1.7633587786259541,0.2595419847328244,-1.6106870229007633
5270944990123,12.946715672,2,8.118737829589843,5.759252093505859,0.7685387329101562,-1.7633587786259541,0.25190839694656486,-1.6641221374045803
5270964997206,12.966722755,2,8.139088543701172,5.723339068603515,0.699106884765625,-1.748091603053435,0.22137404580152673,-1.5648854961832062
5270984992675,12.986718224,2,8.14028564453125,5.7508723876953125,0.7625532287597656,-1.7709923664122138,0.3053435114503817,-1.5801526717557253
5271004990748,13.006716297,2,8.131905938720703,5.768828900146484,0.7493851196289062,-1.7404580152671756,0.2366412213740458,-1.6641221374045803
5271024988352,13.026713901,2,8.12113203125,5.764040496826172,0.737414111328125,-1.7938931297709924,0.29770992366412213,-1.5801526717557253
5271044996737,13.046722286,2,8.128314636230469,5.723339068603515,0.7625532287597656,-1.7404580152671756,0.2824427480916031,-1.618320610687023
5271064984550,13.066710099,2,8.134300140380859,5.7508723876953125,0.7362170104980469,-1.7938931297709924,0.19083969465648856,-1.5725190839694656
5271084992414,13.086717963,2,8.097190014648437,5.796362219238281,0.7781155395507812,-1.7557251908396947,0.26717557251908397,-1.633587786259542
5271104995852,13.106721401,2,8.099584216308592,5.698199951171874,0.7122749938964843,-1.8015267175572518,0.2595419847328244,-1.5877862595419847
5271124984810,13.126710359,2,8.119934930419921,5.7843912109375,0.7146691955566405,-1.7633587786259541,0.24427480916030533,-1.5877862595419847
5271144992102,13.146717651,2,8.095992913818359,5.744886883544922,0.7230489013671875,-1.7557251908396947,0.2824427480916031,-1.6564885496183206
5271164986945,13.166712494,2,8.14028564453125,5.7329158752441405,0.7326257080078125,-1.7404580152671756,0.22900763358778625,-1.5725190839694656
5271184985123,13.186710672,2,8.139088543701172,5.778405706787109,0.7026981872558593,-1.7633587786259541,0.24427480916030533,-1.6030534351145038
5271204989393,13.206714942,2,8.14028564453125,5.710170959472656,0.719457598876953,-1.816793893129771,0.22900763358778625,-1.6259541984732824
5271224987675,13.226713224,2,8.103175518798828,5.735310076904296,0.737414111328125,-1.748091603053435,0.2366412213740458,-1.618320610687023
5271244975591,13.24670114,2,8.122329132080077,5.716156463623046,0.7003039855957031,-1.7633587786259541,0.29770992366412213,-1.5877862595419847
5271264995331,13.26672088,2,8.152256652832031,5.791573815917968,0.7242460021972655,-1.7328244274809161,0.22137404580152673,-1.5877862595419847
5271284992102,13.286717651,2,8.08881030883789,5.768828900146484,0.7230489013671875,-1.7786259541984732,0.26717557251908397,-1.6488549618320612
5271305009550,13.306735099,2,8.129511737060547,5.772420202636718,0.7110778930664062,-1.7786259541984732,0.1984732824427481,-1.5954198473282444
5271324993143,13.326718692,2,8.10197841796875,5.762843395996094,0.6691793640136718,-1.717557251908397,0.22137404580152673,-1.6030534351145038
5271345044185,13.346769734,2,8.097190014648437,5.772420202636718,0.6823474731445313,-1.786259541984733,0.22137404580152673,-1.5572519083969465
5271364996216,13.366721765,2,8.142679846191406,5.766434698486328,0.7864952453613281,-1.7251908396946565,0.2824427480916031,-1.6106870229007633
5271384964758,13.386690307,2,8.19176098022461,5.762843395996094,0.7398083129882812,-1.748091603053435,0.25190839694656486,-1.549618320610687
5271404989445,13.406714994,2,8.12711753540039,5.734112976074218,0.7350199096679687,-1.7786259541984732,0.22137404580152673,-1.5572519083969465
5271424981997,13.426707546,2,8.109161022949218,5.76523759765625,0.7122749938964843,-1.7786259541984732,0.2748091603053435,-1.6106870229007633
5271444980904,13.446706453,2,8.0828248046875,5.755660791015624,0.70868369140625,-1.7557251908396947,0.2748091603053435,-1.5267175572519085
5271465037987,13.466763536,2,8.122329132080077,5.753266589355468,0.7326257080078125,-1.7404580152671756,0.22900763358778625,-1.633587786259542
5271484983039,13.486708588,2,8.066065393066406,5.704185455322265,0.7218518005371093,-1.7633587786259541,0.25190839694656486,-1.6259541984732824
5271504980122,13.506705671,2,8.123526232910155,5.80953032836914,0.6907271789550781,-1.7099236641221374,0.25190839694656486,-1.618320610687023
5271524991633,13.526717182,2,8.110358123779296,5.754463690185546,0.689530078125,-1.7709923664122138,0.24427480916030533,-1.6259541984732824
5271544981477,13.546707026,2,8.124723333740233,5.692214447021484,0.7003039855957031,-1.7404580152671756,0.22137404580152673,-1.618320610687023
5271565031789,13.566757338,2,8.104372619628906,5.740098480224609,0.7422025146484375,-1.748091603053435,0.26717557251908397,-1.6106870229007633
5271584983404,13.586708953,2,8.095992913818359,5.741295581054687,0.7134720947265625,-1.7557251908396947,0.19083969465648856,-1.5954198473282444
5271604981060,13.606706609,2,8.090007409667969,5.76523759765625,0.6296750366210937,-1.8015267175572518,0.24427480916030533,-1.6030534351145038
5271624985695,13.626711244,2,8.098387115478515,5.776011505126953,0.7673416320800781,-1.7328244274809161,0.2595419847328244,-1.6259541984732824
5271644984341,13.64670989,2,8.105569720458984,5.753266589355468,0.7050923889160156,-1.748091603053435,0.24427480916030533,-1.549618320610687
5271665028039,13.666753588,2,8.080430603027343,5.729324572753906,0.6572083557128906,-1.8015267175572518,0.2748091603053435,-1.6412213740458015
5271684997154,13.686722703,2,8.130708837890625,5.729324572753906,0.7649474304199219,-1.7328244274809161,0.21374045801526717,-1.5877862595419847
5271704981164,13.706706713,2,8.111555224609374,5.742492681884765,0.6751648681640625,-1.748091603053435,0.2900763358778626,-1.6030534351145038
5271724989810,13.726715359,2,8.10796392211914,5.724536169433593,0.729034405517578,-1.7633587786259541,0.22137404580152673,-1.5877862595419847
5271744979445,13.746704994,2,8.104372619628906,5.737704278564453,0.7170633972167968,-1.7786259541984732,0.21374045801526717,-1.5877862595419847
5271765043143,13.766768692,2,8.161833459472655,5.761646295166015,0.7661445312499999,-1.7709923664122138,0.2366412213740458,-1.6564885496183206
5271784976060,13.786701609,2,8.12711753540039,5.783194110107422,0.8200140686035156,-1.717557251908397,0.25190839694656486,-1.5877862595419847
5271804984133,13.806709682,2,8.143876947021484,5.766434698486328,0.6823474731445313,-1.717557251908397,0.21374045801526717,-1.6870229007633588
5271824990539,13.826716088,2,8.064868292236328,5.730521673583984,0.709880792236328,-1.786259541984733,0.26717557251908397,-1.6106870229007633
5271844989758,13.846715307,2,8.123526232910155,5.760449194335937,0.7493851196289062,-1.786259541984733,0.24427480916030533,-1.6030534351145038
5271865016893,13.866742442,2,8.105569720458984,5.755660791015624,0.6967126831054687,-1.7786259541984732,0.25190839694656486,-1.5877862595419847
5271884974914,13.886700463,2,8.117540728759765,5.831078143310546,0.7493851196289062,-1.7938931297709924,0.1984732824427481,-1.6106870229007633
5271904988768,13.906714317,2,8.129511737060547,5.718550665283203,0.6907271789550781,-1.7557251908396947,0.25190839694656486,-1.6564885496183206
5271924996841,13.92672239,2,8.122329132080077,5.72693037109375,0.6643909606933593,-1.7786259541984732,0.19083969465648856,-1.5954198473282444
5271944982674,13.946708223,2,8.116343627929687,5.746083984375,0.7110778930664062,-1.8015267175572518,0.2595419847328244,-1.5801526717557253
5271964990956,13.966716505,2,8.099584216308592,5.7520694885253905,0.7410054138183594,-1.7557251908396947,0.2748091603053435,-1.5801526717557253
5271984987414,13.986712963,2,8.117540728759765,5.744886883544922,0.8104372619628906,-1.7404580152671756,0.2366412213740458,-1.549618320610687
5272004996528,14.006722077,2,8.106766821289062,5.795165118408203,0.6823474731445313,-1.7786259541984732,0.22137404580152673,-1.6259541984732824
5272025064081,14.02678963,2,8.100781317138672,5.7700260009765625,0.7015010864257812,-1.748091603053435,0.21374045801526717,-1.5572519083969465
5272045010122,14.046735671,2,8.109161022949218,5.753266589355468,0.6200982299804687,-1.7099236641221374,0.22900763358778625,-1.6259541984732824
5272064984393,14.066709942,2,8.12711753540039,5.795165118408203,0.7817068420410156,-1.7633587786259541,0.29770992366412213,-1.5877862595419847
5272084998664,14.086724213,2,8.12113203125,5.76523759765625,0.7529764221191406,-1.7404580152671756,0.24427480916030533,-1.5877862595419847
5272105007987,14.106733536,2,8.112752325439452,5.798756420898437,0.7254431030273437,-1.702290076335878,0.25190839694656486,-1.6030534351145038
5272124994237,14.126719786,2,8.116343627929687,5.7329158752441405,0.6356605407714844,-1.7557251908396947,0.3053435114503817,-1.5648854961832062
5272145018820,14.146744369,2,8.07683930053711,5.767631799316406,0.7050923889160156,-1.7633587786259541,0.26717557251908397,-1.633587786259542
5272165002883,14.166728432,2,8.135497241210937,5.778405706787109,0.6368576416015624,-1.7633587786259541,0.22900763358778625,-1.5648854961832062
5272184992049,14.186717598,2,8.122329132080077,5.780799908447265,0.7326257080078125,-1.7786259541984732,0.22900763358778625,-1.6641221374045803
5272204994341,14.20671989,2,8.125920434570313,5.811924530029296,0.7817068420410156,-1.7328244274809161,0.2748091603053435,-1.5725190839694656
5272225047622,14.226773171,2,8.111555224609374,5.7329158752441405,0.7266402038574218,-1.7557251908396947,0.26717557251908397,-1.5801526717557253
5272245003143,14.246728692,2,8.084021905517577,5.759252093505859,0.6165069274902344,-1.7251908396946565,0.22900763358778625,-1.618320610687023
5272264993455,14.266719004,2,8.097190014648437,5.756857891845703,0.7362170104980469,-1.7786259541984732,0.24427480916030533,-1.5801526717557253
5272284991476,14.286717025,2,8.136694342041014,5.781997009277344,0.7074865905761718,-1.7938931297709924,0.24427480916030533,-1.6030534351145038
5272304988872,14.306714421,2,8.109161022949218,5.805939025878906,0.7338228088378905,-1.7557251908396947,0.2824427480916031,-1.6106870229007633
5272324998560,14.326724109,2,8.085219006347655,5.737704278564453,0.7350199096679687,-1.7404580152671756,0.26717557251908397,-1.6106870229007633
5272344987622,14.346713171,2,8.09479581298828,5.746083984375,0.6871358764648438,-1.7709923664122138,0.2824427480916031,-1.549618320610687
5272364997987,14.366723536,2,8.139088543701172,5.754463690185546,0.7589619262695312,-1.7404580152671756,0.2366412213740458,-1.5572519083969465
5272384974966,14.386700515,2,8.118737829589843,5.743689782714843,0.737414111328125,-1.7938931297709924,0.2595419847328244,-1.6106870229007633
5272404996841,14.40672239,2,8.13310303955078,5.754463690185546,0.7003039855957031,-1.748091603053435,0.2748091603053435,-1.6030534351145038
5272424999289,14.426724838,2,8.103175518798828,5.711368060302734,0.7481880187988281,-1.7938931297709924,0.2748091603053435,-1.6030534351145038
5272445000799,14.446726348,2,8.125920434570313,5.749675286865234,0.70868369140625,-1.7404580152671756,0.21374045801526717,-1.633587786259542
5272464999185,14.466724734,2,8.103175518798828,5.725733270263672,0.7445967163085937,-1.7938931297709924,0.2595419847328244,-1.633587786259542
5272485000539,14.486726088,2,8.091204510498047,5.742492681884765,0.709880792236328,-1.7557251908396947,0.2595419847328244,-1.6412213740458015
5272504991216,14.506716765,2,8.078036401367187,5.710170959472656,0.7445967163085937,-1.702290076335878,0.2900763358778626,-1.5725190839694656
5272524993872,14.526719421,2,8.106766821289062,5.746083984375,0.7146691955566405,-1.717557251908397,0.31297709923664124,-1.6259541984732824
5272544985435,14.546710984,2,8.14028564453125,5.760449194335937,0.7218518005371093,-1.748091603053435,0.22137404580152673,-1.5572519083969465
5272565001893,14.566727442,2,8.128314636230469,5.728127471923828,0.8068459594726562,-1.7328244274809161,0.25190839694656486,-1.6106870229007633
5272584996893,14.586722442,2,8.129511737060547,5.7317187744140625,0.7565677246093749,-1.7709923664122138,0.2366412213740458,-1.5954198473282444
5272604997935,14.606723484,2,8.104372619628906,5.749675286865234,0.74699091796875,-1.748091603053435,0.22137404580152673,-1.5877862595419847
5272624994445,14.626719994,2,8.08881030883789,5.7317187744140625,0.7422025146484375,-1.748091603053435,0.26717557251908397,-1.6106870229007633
5272645013768,14.646739317,2,8.129511737060547,5.748478186035156,0.7122749938964843,-1.7633587786259541,0.26717557251908397,-1.6106870229007633
5272664988351,14.6667139,2,8.09479581298828,5.747281085205078,0.6727706665039062,-1.7404580152671756,0.2595419847328244,-1.6030534351145038
5272684998299,14.686723848,2,8.125920434570313,5.760449194335937,0.7637503295898437,-1.786259541984733,0.24427480916030533,-1.5801526717557253
5272704988455,14.706714004,2,8.124723333740233,5.722141967773437,0.7314286071777343,-1.7938931297709924,0.26717557251908397,-1.5572519083969465
5272724995799,14.726721348,2,8.092401611328125,5.7149593627929685,0.6476315490722656,-1.7633587786259541,0.2366412213740458,-1.618320610687023
5272744992934,14.746718483,2,8.079233502197265,5.8083332275390624,0.6428431457519531,-1.7557251908396947,0.21374045801526717,-1.633587786259542
5272764993559,14.766719108,2,8.10796392211914,5.737704278564453,0.7003039855957031,-1.748091603053435,0.26717557251908397,-1.633587786259542
5272784991424,14.786716973,2,8.110358123779296,5.7508723876953125,0.7146691955566405,-1.7557251908396947,0.25190839694656486,-1.5419847328244274
5272804998195,14.806723744,2,8.118737829589843,5.719747766113281,0.6859387756347656,-1.7328244274809161,0.26717557251908397,-1.5877862595419847
5272824987309,14.826712858,2,8.100781317138672,5.698199951171874,0.7170633972167968,-1.7404580152671756,0.29770992366412213,-1.534351145038168
5272844994080,14.846719629,2,8.105569720458984,5.717353564453124,0.6727706665039062,-1.786259541984733,0.2748091603053435,-1.5725190839694656
5272864994237,14.866719786,2,8.044517578125,5.737704278564453,0.719457598876953,-1.748091603053435,0.2595419847328244,-1.618320610687023
5272884991164,14.886716713,2,8.095992913818359,5.7508723876953125,0.6907271789550781,-1.748091603053435,0.21374045801526717,-1.6259541984732824
5272905002049,14.906727598,2,8.08881030883789,5.741295581054687,0.8008604553222656,-1.7709923664122138,0.21374045801526717,-1.6488549618320612
5272924981424,14.926706973,2,8.12113203125,5.742492681884765,0.7266402038574218,-1.7709923664122138,0.2824427480916031,-1.5954198473282444
5272944984132,14.946709681,2,8.157045056152343,5.797559320068359,0.7050923889160156,-1.748091603053435,0.22900763358778625,-1.633587786259542
5272964990955,14.966716504,2,8.098387115478515,5.719747766113281,0.7242460021972655,-1.7557251908396947,0.25190839694656486,-1.5801526717557253
5272984985903,14.986711452,2,8.110358123779296,5.76523759765625,0.6691793640136718,-1.748091603053435,0.3053435114503817,-1.618320610687023
5273004983611,15.00670916,2,8.105569720458984,5.777208605957031,0.7134720947265625,-1.7786259541984732,0.33587786259541985,-1.5725190839694656
5273024983716,15.026709265,2,8.106766821289062,5.767631799316406,0.7278373046875,-1.7709923664122138,0.21374045801526717,-1.5954198473282444
5273044984809,15.046710358,2,8.093598712158203,5.760449194335937,0.699106884765625,-1.7633587786259541,0.22137404580152673,-1.6488549618320612
5273064985486,15.066711035,2,8.097190014648437,5.760449194335937,0.6751648681640625,-1.7709923664122138,0.2824427480916031,-1.5648854961832062
5273084986580,15.086712129,2,8.154650854492187,5.717353564453124,0.6763619689941406,-1.7557251908396947,0.25190839694656486,-1.6030534351145038
5273104982882,15.106708431,2,8.111555224609374,5.821501336669922,0.699106884765625,-1.7328244274809161,0.2595419847328244,-1.5725190839694656
5273125000122,15.126725671,2,8.122329132080077,5.716156463623046,0.7302315063476562,-1.7557251908396947,0.25190839694656486,-1.5725190839694656
5273144979080,15.146704629,2,8.109161022949218,5.742492681884765,0.6943184814453125,-1.7328244274809161,0.24427480916030533,-1.534351145038168
5273164998195,15.166723744,2,8.131905938720703,5.736507177734374,0.7697358337402344,-1.748091603053435,0.26717557251908397,-1.5648854961832062
