timestamp_ns,t_s,sensor_id,ax,ay,az,gx,gy,gz
3792865854957,0.074894739,1,0.2262520568847656,1.7465701110839842,-11.209652172851563,-1.6412213740458015,1.1068702290076335,-2.50381679389313
3792885815843,0.094855625,1,0.24660277099609373,1.744175909423828,-11.201272467041015,-0.8549618320610687,0.5954198473282443,-1.3282442748091603
3792905813447,0.114853229,1,0.24779987182617186,1.7298106994628906,-11.179724652099608,-0.8473282442748091,0.549618320610687,-1.3129770992366412
3792925815426,0.134855208,1,0.20949264526367187,1.7106570861816406,-11.218031878662108,-0.8320610687022901,0.5572519083969466,-1.3435114503816794
3792945810166,0.154849948,1,0.19991583862304688,1.7322049011230467,-11.195286962890624,-0.8396946564885496,0.5419847328244275,-1.297709923664122
3792965808811,0.174848593,1,0.20470424194335937,1.7286135986328124,-11.161768139648437,-0.8015267175572519,0.5877862595419847,-1.3206106870229009
3792985807353,0.194847135,1,0.23702596435546874,1.7190367919921874,-11.194089862060546,-0.8015267175572519,0.549618320610687,-1.3206106870229009
3793005807666,0.214847448,1,0.1975216369628906,1.734599102783203,-11.196484063720703,-0.8396946564885496,0.5419847328244275,-1.297709923664122
3793025807301,0.234847083,1,0.21068974609375,1.7465701110839842,-11.206060870361327,-0.8549618320610687,0.5419847328244275,-1.2900763358778626
3793045805686,0.254845468,1,0.20709844360351562,1.695094775390625,-11.190498559570312,-0.8244274809160306,0.5725190839694656,-1.3129770992366412
3793065804489,0.274844271,1,0.22744915771484372,1.7106570861816406,-11.195286962890624,-0.7862595419847328,0.5648854961832062,-1.3435114503816794
3793085808134,0.294847916,1,0.2166752502441406,1.7226280944824217,-11.180921752929686,-0.8320610687022901,0.6183206106870229,-1.3206106870229009
3793105806676,0.314846458,1,0.2154781494140625,1.7525556152343749,-11.16057103881836,-0.8091603053435115,0.5648854961832062,-1.3358778625954197
3793125806311,0.334846093,1,0.1975216369628906,1.7166425903320313,-11.186907257080078,-0.7938931297709924,0.5648854961832062,-1.3282442748091603
3793145806624,0.354846406,1,0.22744915771484372,1.7274164978027342,-11.17852755126953,-0.8091603053435115,0.5801526717557252,-1.3206106870229009
3793165806936,0.374846718,1,0.23223756103515625,1.7525556152343749,-11.195286962890624,-0.8244274809160306,0.6335877862595419,-1.3129770992366412
3793185807197,0.394846979,1,0.20829554443359374,1.714248388671875,-11.206060870361327,-0.8015267175572519,0.6106870229007634,-1.3511450381679388
3793205807249,0.414847031,1,0.22744915771484372,1.7477672119140624,-11.179724652099608,-0.8473282442748091,0.5801526717557252,-1.3358778625954197
3793225806832,0.434846614,1,0.2154781494140625,1.7214309936523438,-11.202469567871093,-0.7938931297709924,0.6335877862595419,-1.3053435114503817
3793245807613,0.454847395,1,0.201112939453125,1.715445489501953,-11.171344946289063,-0.8473282442748091,0.5801526717557252,-1.2748091603053435
3793265808916,0.474848698,1,0.25139117431640623,1.7166425903320313,-11.176133349609374,-0.8244274809160306,0.6106870229007634,-1.3129770992366412
3793285807718,0.4948475,1,0.2214636535644531,1.7190367919921874,-11.220426080322264,-0.8091603053435115,0.5725190839694656,-1.3358778625954197
3793305806832,0.514846614,1,0.22744915771484372,1.7381904052734374,-11.171344946289063,-0.8091603053435115,0.5801526717557252,-1.3282442748091603
3793325806676,0.534846458,1,0.19871873779296872,1.7130512878417967,-11.231199987792968,-0.8244274809160306,0.6106870229007634,-1.3282442748091603
3793345808134,0.554847916,1,0.22266075439453123,1.7405846069335937,-11.192892761230468,-0.816793893129771,0.6106870229007634,-1.2748091603053435
3793365806728,0.57484651,1,0.23582886352539062,1.7082628845214842,-11.213243475341796,-0.8625954198473282,0.5572519083969466,-1.2900763358778626
3793385807197,0.594846979,1,0.22744915771484372,1.7094599853515624,-11.222820281982422,-0.8396946564885496,0.5572519083969466,-1.3053435114503817
3793405806155,0.614845937,1,0.2154781494140625,1.7573440185546874,-11.243170996093749,-0.8473282442748091,0.6335877862595419,-1.3282442748091603
3793425807301,0.634847083,1,0.239420166015625,1.7202338928222656,-11.192892761230468,-0.8549618320610687,0.5954198473282443,-1.3587786259541985
3793445807145,0.654846927,1,0.19991583862304688,1.7334020019531249,-11.213243475341796,-0.8473282442748091,0.5725190839694656,-1.3511450381679388
3793465807926,0.674847708,1,0.23822306518554687,1.7262193969726563,-11.179724652099608,-0.8473282442748091,0.5572519083969466,-1.3282442748091603
3793485806676,0.694846458,1,0.24181436767578124,1.7489643127441405,-11.189301458740234,-0.8244274809160306,0.6030534351145038,-1.3206106870229009
3793505806363,0.714846145,1,0.23582886352539062,1.707065783691406,-11.1474029296875,-0.8473282442748091,0.5877862595419847,-1.3206106870229009
3793525806311,0.734846093,1,0.2166752502441406,1.7094599853515624,-11.21084927368164,-0.8244274809160306,0.5419847328244275,-1.297709923664122
3793545805374,0.754845156,1,0.19153613281249998,1.7298106994628906,-11.202469567871093,-0.8396946564885496,0.5114503816793893,-1.282442748091603
3793565806103,0.774845885,1,0.2154781494140625,1.7381904052734374,-11.176133349609374,-0.8473282442748091,0.5954198473282443,-1.3206106870229009
3793585806520,0.794846302,1,0.22026655273437498,1.7381904052734374,-11.184513055419922,-0.8549618320610687,0.5954198473282443,-1.2900763358778626
3793605806884,0.814846666,1,0.22026655273437498,1.7453730102539062,-11.183315954589844,-0.8931297709923665,0.5877862595419847,-1.3053435114503817
3793625806311,0.834846093,1,0.23223756103515625,1.734599102783203,-11.196484063720703,-0.7709923664122137,0.5801526717557252,-1.297709923664122
3793645806103,0.854845885,1,0.2214636535644531,1.7381904052734374,-11.188104357910156,-0.8320610687022901,0.5267175572519084,-1.3358778625954197
3793665805061,0.874844843,1,0.2262520568847656,1.7393875061035156,-11.209652172851563,-0.8320610687022901,0.5725190839694656,-1.3206106870229009
3793685806415,0.894846197,1,0.24301146850585936,1.7238251953125,-11.166556542968749,-0.8015267175572519,0.5648854961832062,-1.3129770992366412
3793705805478,0.91484526,1,0.20949264526367187,1.744175909423828,-11.18571015625,-0.8320610687022901,0.5801526717557252,-1.3053435114503817
3793725805634,0.934845416,1,0.22744915771484372,1.7322049011230467,-11.194089862060546,-0.816793893129771,0.6030534351145038,-1.3129770992366412
3793745806415,0.954846197,1,0.2454056701660156,1.725022296142578,-11.176133349609374,-0.7633587786259542,0.5801526717557252,-1.3358778625954197
3793765807144,0.974846926,1,0.23582886352539062,1.753752716064453,-11.158176837158203,-0.8320610687022901,0.6106870229007634,-1.3358778625954197
3793785806728,0.99484651,1,0.24779987182617186,1.7190367919921874,-11.194089862060546,-0.8549618320610687,0.5954198473282443,-1.3129770992366412
3793805806311,1.014846093,1,0.1975216369628906,1.7322049011230467,-11.213243475341796,-0.8778625954198473,0.5954198473282443,-1.3053435114503817
3793825805947,1.034845729,1,0.22864625854492185,1.714248388671875,-11.190498559570312,-0.8396946564885496,0.5419847328244275,-1.3053435114503817
3793845806415,1.054846197,1,0.20829554443359374,1.7369933044433592,-11.164162341308593,-0.816793893129771,0.5877862595419847,-1.2900763358778626
3793865806415,1.074846197,1,0.21787235107421873,1.7334020019531249,-11.203666668701171,-0.8396946564885496,0.5725190839694656,-1.3435114503816794
3793885807144,1.094846926,1,0.21188684692382811,1.7465701110839842,-11.234791290283203,-0.8244274809160306,0.5725190839694656,-1.2900763358778626
3793905806259,1.114846041,1,0.24061726684570311,1.715445489501953,-11.201272467041015,-0.8625954198473282,0.5877862595419847,-1.3282442748091603
3793925806363,1.134846145,1,0.20231004028320312,1.7286135986328124,-11.197681164550781,-0.8702290076335878,0.5648854961832062,-1.297709923664122
3793945806103,1.154845885,1,0.23104046020507812,1.7238251953125,-11.196484063720703,-0.8320610687022901,0.5725190839694656,-1.3053435114503817
3793965806988,1.17484677,1,0.21308394775390624,1.7178396911621092,-11.190498559570312,-0.8396946564885496,0.6030534351145038,-1.3282442748091603
3793985811780,1.194851562,1,0.21308394775390624,1.7178396911621092,-11.186907257080078,-0.8015267175572519,0.5725190839694656,-1.3206106870229009
3794005809280,1.214849062,1,0.23822306518554687,1.715445489501953,-11.176133349609374,-0.8702290076335878,0.6030534351145038,-1.3435114503816794
3794025803551,1.234843333,1,0.21787235107421873,1.7286135986328124,-11.16057103881836,-0.8091603053435115,0.5572519083969466,-1.3282442748091603
3794045807405,1.254847187,1,0.22744915771484372,1.7190367919921874,-11.218031878662108,-0.816793893129771,0.6183206106870229,-1.3053435114503817
3794065807144,1.274846926,1,0.23702596435546874,1.7417817077636717,-11.189301458740234,-0.8473282442748091,0.6259541984732825,-1.3129770992366412
3794085806780,1.294846562,1,0.2537853759765625,1.7357962036132812,-11.214440576171874,-0.8473282442748091,0.5725190839694656,-1.3358778625954197
3794105806467,1.314846249,1,0.22026655273437498,1.7369933044433592,-11.235988391113281,-0.8320610687022901,0.5419847328244275,-1.3206106870229009
3794125806155,1.334845937,1,0.2154781494140625,1.7477672119140624,-11.18571015625,-0.8091603053435115,0.5954198473282443,-1.3435114503816794
3794145806415,1.354846197,1,0.2154781494140625,1.7094599853515624,-11.189301458740234,-0.7862595419847328,0.5648854961832062,-1.3511450381679388
3794165807144,1.374846926,1,0.21308394775390624,1.7393875061035156,-11.19887826538086,-0.8320610687022901,0.5190839694656488,-1.2748091603053435
3794185806363,1.394846145,1,0.23702596435546874,1.7226280944824217,-11.215637677001952,-0.8473282442748091,0.5954198473282443,-1.3129770992366412
3794205808342,1.414848124,1,0.2214636535644531,1.7298106994628906,-11.213243475341796,-0.8091603053435115,0.5954198473282443,-1.3511450381679388
3794225807040,1.434846822,1,0.23104046020507812,1.7034744812011717,-11.195286962890624,-0.8549618320610687,0.6106870229007634,-1.297709923664122
3794245807144,1.454846926,1,0.20829554443359374,1.7274164978027342,-11.209652172851563,-0.8091603053435115,0.549618320610687,-1.3358778625954197
3794265807769,1.474847551,1,0.229843359375,1.7202338928222656,-11.177330450439452,-0.8549618320610687,0.5877862595419847,-1.381679389312977
3794285806936,1.494846718,1,0.23582886352539062,1.7334020019531249,-11.201272467041015,-0.7938931297709924,0.5801526717557252,-1.3435114503816794
3794305804644,1.514844426,1,0.22385785522460935,1.7357962036132812,-11.180921752929686,-0.8320610687022901,0.5801526717557252,-1.3129770992366412
3794325807978,1.53484776,1,0.20231004028320312,1.7310078002929687,-11.188104357910156,-0.8244274809160306,0.5877862595419847,-1.3129770992366412
3794345806415,1.554846197,1,0.2214636535644531,1.7202338928222656,-11.200075366210937,-0.8015267175572519,0.5725190839694656,-1.3129770992366412
3794365807248,1.57484703,1,0.22026655273437498,1.744175909423828,-11.232397088623046,-0.816793893129771,0.5877862595419847,-1.3358778625954197
3794385805582,1.594845364,1,0.23582886352539062,1.7310078002929687,-11.180921752929686,-0.8091603053435115,0.5267175572519084,-1.3206106870229009
3794405806675,1.614846457,1,0.22266075439453123,1.7405846069335937,-11.201272467041015,-0.8244274809160306,0.6335877862595419,-1.3129770992366412
3794425806363,1.634846145,1,0.22505495605468748,1.7190367919921874,-11.212046374511718,-0.8015267175572519,0.5877862595419847,-1.3206106870229009
3794445806832,1.654846614,1,0.2214636535644531,1.7286135986328124,-11.189301458740234,-0.8702290076335878,0.5343511450381679,-1.3282442748091603
3794465810165,1.674849947,1,0.25139117431640623,1.7369933044433592,-11.184513055419922,-0.8320610687022901,0.6183206106870229,-1.3358778625954197
3794485807509,1.694847291,1,0.22385785522460935,1.7369933044433592,-11.171344946289063,-0.7938931297709924,0.5725190839694656,-1.3282442748091603
3794505807196,1.714846978,1,0.20470424194335937,1.734599102783203,-11.17254204711914,-0.8244274809160306,0.5648854961832062,-1.3282442748091603
3794525806988,1.73484677,1,0.23822306518554687,1.7166425903320313,-11.228805786132812,-0.8015267175572519,0.5725190839694656,-1.2900763358778626
3794545806988,1.75484677,1,0.20709844360351562,1.7465701110839842,-11.23000288696289,-0.8549618320610687,0.5877862595419847,-1.3358778625954197
3794565807769,1.774847551,1,0.21068974609375,1.7477672119140624,-11.183315954589844,-0.8473282442748091,0.6106870229007634,-1.3129770992366412
3794585807978,1.79484776,1,0.1927332336425781,1.7525556152343749,-11.192892761230468,-0.8625954198473282,0.5190839694656488,-1.3435114503816794
3794605806415,1.814846197,1,0.2346317626953125,1.7286135986328124,-11.209652172851563,-0.8091603053435115,0.5954198473282443,-1.3129770992366412
3794625806571,1.834846353,1,0.22385785522460935,1.7357962036132812,-11.196484063720703,-0.8320610687022901,0.5954198473282443,-1.3206106870229009
3794645805477,1.854845259,1,0.23343466186523437,1.7322049011230467,-11.167753643798827,-0.7786259541984732,0.6106870229007634,-1.3587786259541985
3794665808394,1.874848176,1,0.2154781494140625,1.7405846069335937,-11.186907257080078,-0.8320610687022901,0.5954198473282443,-1.3435114503816794
3794685808446,1.894848228,1,0.21308394775390624,1.7405846069335937,-11.19169566040039,-0.816793893129771,0.5877862595419847,-1.3282442748091603
3794705807665,1.914847447,1,0.2154781494140625,1.7262193969726563,-11.176133349609374,-0.8473282442748091,0.5801526717557252,-1.3129770992366412
3794725806415,1.934846197,1,0.23343466186523437,1.7286135986328124,-11.170147845458983,-0.8091603053435115,0.6106870229007634,-1.3129770992366412
3794745806884,1.954846666,1,0.22505495605468748,1.6998831787109374,-11.159373937988281,-0.8549618320610687,0.6106870229007634,-1.3435114503816794
3794765807196,1.974846978,1,0.23702596435546874,1.725022296142578,-11.174936248779296,-0.8396946564885496,0.5725190839694656,-1.3206106870229009
3794785808811,1.994848593,1,0.2454056701660156,1.7202338928222656,-11.180921752929686,-0.8778625954198473,0.5725190839694656,-1.297709923664122
3794805807873,2.014847655,1,0.24061726684570311,1.7585411193847655,-11.146205828857422,-0.8473282442748091,0.5877862595419847,-1.3053435114503817
3794825807665,2.034847447,1,0.22266075439453123,1.7082628845214842,-11.213243475341796,-0.8473282442748091,0.5725190839694656,-1.3206106870229009
3794845806884,2.054846666,1,0.23343466186523437,1.7417817077636717,-11.23718549194336,-0.8625954198473282,0.5267175572519084,-1.3129770992366412
3794865812717,2.074852499,1,0.2154781494140625,1.7573440185546874,-11.179724652099608,-0.8549618320610687,0.5801526717557252,-1.3587786259541985
3794885807977,2.094847759,1,0.23343466186523437,1.7477672119140624,-11.183315954589844,-0.8625954198473282,0.6030534351145038,-1.3587786259541985
3794905806884,2.114846666,1,0.2262520568847656,1.7322049011230467,-11.19169566040039,-0.8396946564885496,0.5648854961832062,-1.3358778625954197
3794925807457,2.134847239,1,0.21308394775390624,1.725022296142578,-11.19887826538086,-0.8473282442748091,0.6030534351145038,-1.3282442748091603
3794945807300,2.154847082,1,0.23702596435546874,1.7417817077636717,-11.17254204711914,-0.8702290076335878,0.5801526717557252,-1.2900763358778626
3794965806936,2.174846718,1,0.20231004028320312,1.7310078002929687,-11.176133349609374,-0.8320610687022901,0.6106870229007634,-1.2748091603053435
3794985806936,2.194846718,1,0.21428104858398436,1.7381904052734374,-11.19169566040039,-0.8091603053435115,0.5877862595419847,-1.282442748091603
3795005805113,2.214844895,1,0.22864625854492185,1.7166425903320313,-11.17852755126953,-0.8320610687022901,0.6030534351145038,-1.3053435114503817
3795025807457,2.234847239,1,0.2454056701660156,1.7357962036132812,-11.188104357910156,-0.8320610687022901,0.6106870229007634,-1.3282442748091603
3795045806519,2.254846301,1,0.23702596435546874,1.7310078002929687,-11.19169566040039,-0.8625954198473282,0.5877862595419847,-1.3282442748091603
3795065807300,2.274847082,1,0.22744915771484372,1.7298106994628906,-11.190498559570312,-0.8320610687022901,0.5572519083969466,-1.3587786259541985
3795085807092,2.294846874,1,0.22505495605468748,1.7202338928222656,-11.246762298583985,-0.7938931297709924,0.6106870229007634,-1.3129770992366412
3795105807144,2.314846926,1,0.23822306518554687,1.7705121276855467,-11.21084927368164,-0.8396946564885496,0.5954198473282443,-1.3511450381679388
3795125806363,2.334846145,1,0.23104046020507812,1.7238251953125,-11.17254204711914,-0.8625954198473282,0.5725190839694656,-1.3358778625954197
3795145807144,2.354846926,1,0.2262520568847656,1.7286135986328124,-11.18571015625,-0.8320610687022901,0.5801526717557252,-1.3358778625954197
3795165805477,2.374845259,1,0.22385785522460935,1.7429788085937499,-11.173739147949219,-0.816793893129771,0.6106870229007634,-1.3587786259541985
3795185806102,2.394845884,1,0.22026655273437498,1.7082628845214842,-11.18571015625,-0.8091603053435115,0.5801526717557252,-1.3053435114503817
3795205806571,2.414846353,1,0.23104046020507812,1.7310078002929687,-11.167753643798827,-0.816793893129771,0.5877862595419847,-1.3053435114503817
3795225807561,2.434847343,1,0.24899697265624998,1.744175909423828,-11.203666668701171,-0.7709923664122137,0.5954198473282443,-1.2748091603053435
3795245806363,2.454846145,1,0.24061726684570311,1.7393875061035156,-11.180921752929686,-0.8244274809160306,0.5572519083969466,-1.282442748091603
3795265807144,2.474846926,1,0.22385785522460935,1.70467158203125,-11.168950744628905,-0.8549618320610687,0.5801526717557252,-1.3129770992366412
3795285807300,2.494847082,1,0.21787235107421873,1.7118541870117185,-11.208455072021483,-0.816793893129771,0.5572519083969466,-1.2900763358778626
3795305808863,2.514848645,1,0.22744915771484372,1.7465701110839842,-11.202469567871093,-0.816793893129771,0.5725190839694656,-1.3358778625954197
3795325808133,2.534847915,1,0.23822306518554687,1.7262193969726563,-11.189301458740234,-0.8320610687022901,0.5725190839694656,-1.297709923664122
3795345807404,2.554847186,1,0.2154781494140625,1.7190367919921874,-11.167753643798827,-0.8091603053435115,0.6106870229007634,-1.3358778625954197
3795365806988,2.57484677,1,0.21787235107421873,1.7417817077636717,-11.219228979492186,-0.8091603053435115,0.6259541984732825,-1.3358778625954197
3795385806519,2.594846301,1,0.25737667846679685,1.7106570861816406,-11.225214483642578,-0.8320610687022901,0.5572519083969466,-1.3053435114503817
3795405807769,2.614847551,1,0.22744915771484372,1.7034744812011717,-11.19887826538086,-0.8396946564885496,0.5877862595419847,-1.3053435114503817
3795425807613,2.634847395,1,0.2442085693359375,1.7310078002929687,-11.221623181152344,-0.7938931297709924,0.5954198473282443,-1.3358778625954197
3795445806415,2.654846197,1,0.19393033447265623,1.7417817077636717,-11.202469567871093,-0.816793893129771,0.5877862595419847,-1.3129770992366412
3795465807665,2.674847447,1,0.20470424194335937,1.7274164978027342,-11.183315954589844,-0.8244274809160306,0.5954198473282443,-1.2900763358778626
3795485806154,2.694845936,1,0.22505495605468748,1.744175909423828,-11.189301458740234,-0.8320610687022901,0.5725190839694656,-1.3206106870229009
3795505807821,2.714847603,1,0.19871873779296872,1.7549498168945312,-11.170147845458983,-0.8473282442748091,0.5954198473282443,-1.3206106870229009
3795525808342,2.734848124,1,0.21787235107421873,1.7393875061035156,-11.19887826538086,-0.8320610687022901,0.5343511450381679,-1.3129770992366412
3795545805477,2.754845259,1,0.2154781494140625,1.734599102783203,-11.1474029296875,-0.8244274809160306,0.549618320610687,-1.3129770992366412
3795565806675,2.774846457,1,0.24061726684570311,1.7381904052734374,-11.221623181152344,-0.7938931297709924,0.6106870229007634,-1.297709923664122
3795585807560,2.794847342,1,0.20470424194335937,1.7238251953125,-11.212046374511718,-0.8473282442748091,0.5648854961832062,-1.3435114503816794
3795605806623,2.814846405,1,0.25258827514648435,1.7429788085937499,-11.18571015625,-0.8396946564885496,0.5725190839694656,-1.3511450381679388
3795625805842,2.834845624,1,0.22744915771484372,1.714248388671875,-11.201272467041015,-0.8091603053435115,0.5572519083969466,-1.3129770992366412
3795645806363,2.854846145,1,0.19512743530273435,1.705868682861328,-11.17852755126953,-0.8244274809160306,0.5648854961832062,-1.3282442748091603
3795665807040,2.874846822,1,0.2166752502441406,1.734599102783203,-11.207257971191405,-0.8091603053435115,0.5648854961832062,-1.3282442748091603
3795685808602,2.894848384,1,0.22505495605468748,1.7417817077636717,-11.208455072021483,-0.8473282442748091,0.5801526717557252,-1.3511450381679388
3795705807456,2.914847238,1,0.2501940734863281,1.7573440185546874,-11.186907257080078,-0.8091603053435115,0.5877862595419847,-1.3206106870229009
3795725805946,2.934845728,1,0.22385785522460935,1.7417817077636717,-11.19169566040039,-0.8549618320610687,0.5572519083969466,-1.3282442748091603
3795745806258,2.95484604,1,0.25139117431640623,1.7274164978027342,-11.197681164550781,-0.8396946564885496,0.5954198473282443,-1.3358778625954197
3795765845321,2.974885103,1,0.22385785522460935,1.7274164978027342,-11.189301458740234,-0.8320610687022901,0.5648854961832062,-1.3129770992366412
3795785812404,2.994852186,1,0.21906945190429686,1.7489643127441405,-11.214440576171874,-0.8320610687022901,0.549618320610687,-1.3129770992366412
3795805808915,3.014848697,1,0.21428104858398436,1.725022296142578,-11.180921752929686,-0.8320610687022901,0.6183206106870229,-1.3282442748091603
3795825808602,3.034848384,1,0.20949264526367187,1.7334020019531249,-11.195286962890624,-0.816793893129771,0.5648854961832062,-1.3740458015267176
3795845807560,3.054847342,1,0.2059013427734375,1.7262193969726563,-11.189301458740234,-0.8320610687022901,0.6030534351145038,-1.3282442748091603
3795865806050,3.074845832,1,0.2454056701660156,1.7429788085937499,-11.182118853759764,-0.8473282442748091,0.6030534351145038,-1.3053435114503817
3795885807508,3.09484729,1,0.2214636535644531,1.7262193969726563,-11.215637677001952,-0.8396946564885496,0.6183206106870229,-1.3282442748091603
3795905806519,3.114846301,1,0.21068974609375,1.695094775390625,-11.164162341308593,-0.8244274809160306,0.5954198473282443,-1.3129770992366412
3795925806623,3.134846405,1,0.2059013427734375,1.7166425903320313,-11.15338843383789,-0.8625954198473282,0.5648854961832062,-1.2900763358778626
3795945806310,3.154846092,1,0.24061726684570311,1.7597382202148437,-11.197681164550781,-0.8778625954198473,0.5801526717557252,-1.3053435114503817
3795965807248,3.17484703,1,0.22385785522460935,1.7082628845214842,-11.207257971191405,-0.816793893129771,0.5801526717557252,-1.3129770992366412
3795985806206,3.194845988,1,0.23822306518554687,1.7357962036132812,-11.203666668701171,-0.816793893129771,0.5343511450381679,-1.3206106870229009
3796005827664,3.214867446,1,0.21906945190429686,1.7322049011230467,-11.168950744628905,-0.7786259541984732,0.5725190839694656,-1.3282442748091603
3796025826935,3.234866717,1,0.23343466186523437,1.7381904052734374,-11.21683477783203,-0.8320610687022901,0.6106870229007634,-1.3053435114503817
3796045813446,3.254853228,1,0.2442085693359375,1.7405846069335937,-11.190498559570312,-0.8320610687022901,0.549618320610687,-1.3053435114503817
3796065808081,3.274847863,1,0.21787235107421873,1.7310078002929687,-11.21084927368164,-0.8091603053435115,0.5877862595419847,-1.297709923664122
3796085806571,3.294846353,1,0.23582886352539062,1.6998831787109374,-11.222820281982422,-0.816793893129771,0.5954198473282443,-1.3206106870229009
3796105806154,3.314845936,1,0.21906945190429686,1.7298106994628906,-11.17254204711914,-0.8015267175572519,0.5954198473282443,-1.297709923664122
3796125806779,3.334846561,1,0.20709844360351562,1.7130512878417967,-11.21084927368164,-0.8015267175572519,0.5954198473282443,-1.3129770992366412
3796145806883,3.354846665,1,0.22266075439453123,1.7334020019531249,-11.195286962890624,-0.8091603053435115,0.5419847328244275,-1.3053435114503817
3796165806466,3.374846248,1,0.22744915771484372,1.715445489501953,-11.201272467041015,-0.8091603053435115,0.5648854961832062,-1.3358778625954197
3796185805789,3.394845571,1,0.22385785522460935,1.7118541870117185,-11.177330450439452,-0.8091603053435115,0.6259541984732825,-1.3129770992366412
3796205806050,3.414845832,1,0.22026655273437498,1.7238251953125,-11.203666668701171,-0.8320610687022901,0.5954198473282443,-1.3129770992366412
3796225806414,3.434846196,1,0.22505495605468748,1.7369933044433592,-11.161768139648437,-0.8015267175572519,0.5954198473282443,-1.3435114503816794
3796245808602,3.454848384,1,0.21906945190429686,1.7310078002929687,-11.195286962890624,-0.8473282442748091,0.5572519083969466,-1.297709923664122
3796265807300,3.474847082,1,0.20829554443359374,1.7238251953125,-11.174936248779296,-0.8396946564885496,0.5877862595419847,-1.3053435114503817
3796285804904,3.494844686,1,0.24301146850585936,1.725022296142578,-11.226411584472656,-0.8244274809160306,0.6106870229007634,-1.3358778625954197
3796305807404,3.514847186,1,0.23343466186523437,1.7202338928222656,-11.190498559570312,-0.8549618320610687,0.6183206106870229,-1.297709923664122
3796325808237,3.534848019,1,0.20350714111328125,1.7214309936523438,-11.154585534667968,-0.8778625954198473,0.6030534351145038,-1.3511450381679388
3796345883341,3.554923123,1,0.22744915771484372,1.7298106994628906,-11.212046374511718,-0.8015267175572519,0.5801526717557252,-1.3053435114503817
3796365822456,3.574862238,1,0.22266075439453123,1.7118541870117185,-11.18571015625,-0.8320610687022901,0.5954198473282443,-1.3206106870229009
3796385822196,3.594861978,1,0.21428104858398436,1.7310078002929687,-11.190498559570312,-0.8473282442748091,0.5954198473282443,-1.297709923664122
3796405819123,3.614858905,1,0.1975216369628906,1.734599102783203,-11.183315954589844,-0.8320610687022901,0.549618320610687,-1.297709923664122
3796425821310,3.634861092,1,0.2454056701660156,1.7298106994628906,-11.19887826538086,-0.8320610687022901,0.5801526717557252,-1.3358778625954197
3796445893185,3.654932967,1,0.239420166015625,1.7429788085937499,-11.18571015625,-0.8320610687022901,0.6335877862595419,-1.3282442748091603
3796465833914,3.674873696,1,0.22026655273437498,1.7310078002929687,-11.183315954589844,-0.8015267175572519,0.5725190839694656,-1.3587786259541985
3796485830477,3.694870259,1,0.2154781494140625,1.7262193969726563,-11.213243475341796,-0.8091603053435115,0.5572519083969466,-1.3587786259541985
3796505827821,3.714867603,1,0.2561795776367187,1.7334020019531249,-11.156979736328124,-0.8702290076335878,0.5419847328244275,-1.2900763358778626
3796525831935,3.734871717,1,0.20470424194335937,1.7214309936523438,-11.220426080322264,-0.7862595419847328,0.5954198473282443,-1.3587786259541985
3796545871206,3.754910988,1,0.22864625854492185,1.7238251953125,-11.190498559570312,-0.8549618320610687,0.5725190839694656,-1.3282442748091603
3796565831050,3.774870832,1,0.2346317626953125,1.7202338928222656,-11.206060870361327,-0.8473282442748091,0.549618320610687,-1.3511450381679388
3796585828081,3.794867863,1,0.22864625854492185,1.7094599853515624,-11.203666668701171,-0.8091603053435115,0.5954198473282443,-1.3129770992366412
3796605829227,3.814869009,1,0.229843359375,1.7357962036132812,-11.17852755126953,-0.8244274809160306,0.5877862595419847,-1.3053435114503817
3796625828185,3.834867967,1,0.24660277099609373,1.7334020019531249,-11.174936248779296,-0.816793893129771,0.5572519083969466,-1.2900763358778626
3796645828498,3.85486828,1,0.21906945190429686,1.7166425903320313,-11.196484063720703,-0.816793893129771,0.5877862595419847,-1.2748091603053435
3796665829227,3.874869009,1,0.24061726684570311,1.7381904052734374,-11.179724652099608,-0.816793893129771,0.5954198473282443,-1.2900763358778626
3796685829643,3.894869425,1,0.22505495605468748,1.7334020019531249,-11.195286962890624,-0.7938931297709924,0.4961832061068702,-1.3358778625954197
3796705828237,3.914868019,1,0.21068974609375,1.7214309936523438,-11.170147845458983,-0.8244274809160306,0.5725190839694656,-1.3206106870229009
3796725829018,3.9348688,1,0.20949264526367187,1.7561469177246092,-11.207257971191405,-0.8091603053435115,0.6106870229007634,-1.297709923664122
3796745827352,3.954867134,1,0.20709844360351562,1.7094599853515624,-11.212046374511718,-0.8244274809160306,0.5725190839694656,-1.3587786259541985
3796765830060,3.974869842,1,0.22266075439453123,1.7286135986328124,-11.209652172851563,-0.8015267175572519,0.5572519083969466,-1.282442748091603
3796785825112,3.994864894,1,0.22026655273437498,1.744175909423828,-11.176133349609374,-0.8702290076335878,0.5877862595419847,-1.282442748091603
3796805830737,4.014870519,1,0.2454056701660156,1.7262193969726563,-11.177330450439452,-0.8549618320610687,0.5877862595419847,-1.3206106870229009
3796825830841,4.034870623,1,0.24660277099609373,1.7262193969726563,-11.18571015625,-0.8549618320610687,0.5725190839694656,-1.297709923664122
3796845832039,4.054871821,1,0.229843359375,1.7513585144042967,-11.203666668701171,-0.8015267175572519,0.5419847328244275,-1.297709923664122
3796865838654,4.074878436,1,0.22385785522460935,1.7369933044433592,-11.176133349609374,-0.816793893129771,0.5954198473282443,-1.3053435114503817
3796885832404,4.094872186,1,0.23822306518554687,1.753752716064453,-11.164162341308593,-0.816793893129771,0.6030534351145038,-1.3282442748091603
3796905829539,4.114869321,1,0.2442085693359375,1.7298106994628906,-11.180921752929686,-0.8091603053435115,0.549618320610687,-1.3129770992366412
3796925829487,4.134869269,1,0.20829554443359374,1.744175909423828,-11.190498559570312,-0.8396946564885496,0.5954198473282443,-1.3358778625954197
3796945828237,4.154868019,1,0.21068974609375,1.7405846069335937,-11.206060870361327,-0.8320610687022901,0.6259541984732825,-1.3587786259541985
3796965829487,4.174869269,1,0.2214636535644531,1.753752716064453,-11.21084927368164,-0.8320610687022901,0.549618320610687,-1.3358778625954197
3796985828133,4.194867915,1,0.23223756103515625,1.7214309936523438,-11.200075366210937,-0.8396946564885496,0.5648854961832062,-1.3129770992366412
3797005828237,4.214868019,1,0.22266075439453123,1.7501614135742187,-11.194089862060546,-0.8473282442748091,0.5954198473282443,-1.3206106870229009
3797025828341,4.234868123,1,0.24660277099609373,1.7381904052734374,-11.173739147949219,-0.8396946564885496,0.5801526717557252,-1.3129770992366412
3797045829799,4.254869581,1,0.2454056701660156,1.715445489501953,-11.200075366210937,-0.8320610687022901,0.5801526717557252,-1.2671755725190839
3797065829122,4.274868904,1,0.21428104858398436,1.7094599853515624,-11.213243475341796,-0.8320610687022901,0.5877862595419847,-1.3129770992366412
3797085828654,4.294868436,1,0.19871873779296872,1.7274164978027342,-11.159373937988281,-0.8320610687022901,0.6030534351145038,-1.3129770992366412
3797105828081,4.314867863,1,0.21906945190429686,1.7106570861816406,-11.247959399414063,-0.8320610687022901,0.5725190839694656,-1.3282442748091603
3797125828549,4.334868331,1,0.2262520568847656,1.7166425903320313,-11.168950744628905,-0.8473282442748091,0.6030534351145038,-1.3282442748091603
3797145827612,4.354867394,1,0.2442085693359375,1.7405846069335937,-11.156979736328124,-0.8091603053435115,0.6106870229007634,-1.3511450381679388
3797165829904,4.374869686,1,0.239420166015625,1.734599102783203,-11.18571015625,-0.8396946564885496,0.5725190839694656,-1.3282442748091603
3797185829122,4.394868904,1,0.20829554443359374,1.6998831787109374,-11.164162341308593,-0.8091603053435115,0.6183206106870229,-1.3282442748091603
3797205828445,4.414868227,1,0.22505495605468748,1.734599102783203,-11.21084927368164,-0.8015267175572519,0.5954198473282443,-1.3206106870229009
3797225828966,4.434868748,1,0.1927332336425781,1.7274164978027342,-11.222820281982422,-0.8320610687022901,0.6183206106870229,-1.3129770992366412
3797245829851,4.454869633,1,0.2059013427734375,1.7369933044433592,-11.168950744628905,-0.7938931297709924,0.5648854961832062,-1.282442748091603
3797265828549,4.474868331,1,0.21787235107421873,1.7369933044433592,-11.189301458740234,-0.8473282442748091,0.5419847328244275,-1.3358778625954197
3797285829904,4.494869686,1,0.25258827514648435,1.7334020019531249,-11.159373937988281,-0.816793893129771,0.549618320610687,-1.3282442748091603
3797305827820,4.514867602,1,0.23582886352539062,1.714248388671875,-11.212046374511718,-0.8244274809160306,0.5954198473282443,-1.282442748091603
3797325830216,4.534869998,1,0.2214636535644531,1.7357962036132812,-11.159373937988281,-0.8244274809160306,0.5648854961832062,-1.3358778625954197
3797345839799,4.554879581,1,0.2442085693359375,1.763329522705078,-11.184513055419922,-0.8473282442748091,0.5572519083969466,-1.3358778625954197
3797365831987,4.574871769,1,0.22864625854492185,1.7226280944824217,-11.225214483642578,-0.8702290076335878,0.5801526717557252,-1.297709923664122
3797385830008,4.59486979,1,0.22266075439453123,1.714248388671875,-11.146205828857422,-0.8625954198473282,0.549618320610687,-1.2900763358778626
3797405826883,4.614866665,1,0.23223756103515625,1.7322049011230467,-11.18571015625,-0.8091603053435115,0.5725190839694656,-1.3053435114503817
3797425829643,4.634869425,1,0.23702596435546874,1.7393875061035156,-11.189301458740234,-0.8091603053435115,0.6183206106870229,-1.3358778625954197
3797445827872,4.654867654,1,0.2059013427734375,1.7094599853515624,-11.231199987792968,-0.8091603053435115,0.549618320610687,-1.3053435114503817
3797465875164,4.674914946,1,0.20470424194335937,1.7334020019531249,-11.18571015625,-0.8396946564885496,0.5572519083969466,-1.3129770992366412
3797485830060,4.694869842,1,0.20949264526367187,1.715445489501953,-11.180921752929686,-0.8625954198473282,0.5954198473282443,-1.3206106870229009
3797505828393,4.714868175,1,0.22744915771484372,1.7513585144042967,-11.168950744628905,-0.8549618320610687,0.5572519083969466,-1.3282442748091603
3797525828445,4.734868227,1,0.24301146850585936,1.7298106994628906,-11.234791290283203,-0.8244274809160306,0.549618320610687,-1.3129770992366412
3797545830164,4.754869946,1,0.239420166015625,1.7489643127441405,-11.209652172851563,-0.7862595419847328,0.5801526717557252,-1.3282442748091603
3797565826987,4.774866769,1,0.2214636535644531,1.7202338928222656,-11.219228979492186,-0.8320610687022901,0.5877862595419847,-1.2900763358778626
3797585828081,4.794867863,1,0.19393033447265623,1.7501614135742187,-11.159373937988281,-0.8396946564885496,0.5725190839694656,-1.3206106870229009
3797605828185,4.814867967,1,0.23582886352539062,1.7393875061035156,-11.190498559570312,-0.8549618320610687,0.6030534351145038,-1.3053435114503817
3797625828862,4.834868644,1,0.24181436767578124,1.7226280944824217,-11.250353601074218,-0.7633587786259542,0.5877862595419847,-1.2900763358778626
3797645828341,4.854868123,1,0.22505495605468748,1.7501614135742187,-11.164162341308593,-0.8320610687022901,0.6183206106870229,-1.3129770992366412
3797665828133,4.874867915,1,0.2214636535644531,1.7274164978027342,-11.19169566040039,-0.8015267175572519,0.5648854961832062,-1.3053435114503817
3797685829591,4.894869373,1,0.23582886352539062,1.734599102783203,-11.194089862060546,-0.8244274809160306,0.5877862595419847,-1.3206106870229009
3797705828497,4.914868279,1,0.21308394775390624,1.744175909423828,-11.173739147949219,-0.7938931297709924,0.549618320610687,-1.282442748091603
3797725827455,4.934867237,1,0.229843359375,1.7310078002929687,-11.184513055419922,-0.7862595419847328,0.5801526717557252,-1.3206106870229009
3797745829226,4.954869008,1,0.23702596435546874,1.7298106994628906,-11.197681164550781,-0.816793893129771,0.5572519083969466,-1.3206106870229009
3797765827664,4.974867446,1,0.23223756103515625,1.7369933044433592,-11.176133349609374,-0.8931297709923665,0.5954198473282443,-1.3358778625954197
3797785830633,4.994870415,1,0.2214636535644531,1.7094599853515624,-11.15338843383789,-0.816793893129771,0.549618320610687,-1.3587786259541985
3797805829018,5.0148688,1,0.23582886352539062,1.7357962036132812,-11.173739147949219,-0.8473282442748091,0.5648854961832062,-1.3206106870229009
3797825829851,5.034869633,1,0.21787235107421873,1.7310078002929687,-11.161768139648437,-0.8244274809160306,0.5725190839694656,-1.3358778625954197
3797845828653,5.054868435,1,0.2346317626953125,1.7214309936523438,-11.183315954589844,-0.8244274809160306,0.5954198473282443,-1.3129770992366412
3797865830737,5.074870519,1,0.22744915771484372,1.7202338928222656,-11.179724652099608,-0.8091603053435115,0.549618320610687,-1.3206106870229009
3797885831622,5.094871404,1,0.24061726684570311,1.725022296142578,-11.184513055419922,-0.8473282442748091,0.5648854961832062,-1.3053435114503817
3797905830164,5.114869946,1,0.24061726684570311,1.7298106994628906,-11.182118853759764,-0.8549618320610687,0.5648854961832062,-1.3358778625954197
3797925829278,5.13486906,1,0.239420166015625,1.7298106994628906,-11.164162341308593,-0.8549618320610687,0.5419847328244275,-1.3206106870229009
3797945828810,5.154868592,1,0.22026655273437498,1.7393875061035156,-11.149797131347656,-0.7633587786259542,0.5572519083969466,-1.3129770992366412
3797965828185,5.174867967,1,0.21188684692382811,1.7262193969726563,-11.192892761230468,-0.8091603053435115,0.5572519083969466,-1.3358778625954197
3797985848810,5.194888592,1,0.22505495605468748,1.7334020019531249,-11.232397088623046,-0.8473282442748091,0.549618320610687,-1.282442748091603
3798005838810,5.214878592,1,0.2442085693359375,1.7010802795410156,-11.165359442138671,-0.7862595419847328,0.5572519083969466,-1.3206106870229009
3798025824174,5.234863956,1,0.22505495605468748,1.7357962036132812,-11.162965240478515,-0.8320610687022901,0.6335877862595419,-1.3282442748091603
3798045830216,5.254869998,1,0.22864625854492185,1.7190367919921874,-11.165359442138671,-0.8320610687022901,0.6106870229007634,-1.3435114503816794
3798065830112,5.274869894,1,0.22026655273437498,1.7226280944824217,-11.168950744628905,-0.8015267175572519,0.5648854961832062,-1.3435114503816794
3798085831518,5.2948713,1,0.229843359375,1.7214309936523438,-11.176133349609374,-0.8473282442748091,0.5648854961832062,-1.282442748091603
3798105832247,5.314872029,1,0.22385785522460935,1.7286135986328124,-11.17254204711914,-0.8396946564885496,0.5343511450381679,-1.3206106870229009
3798125831466,5.334871248,1,0.27293898925781246,1.7130512878417967,-11.219228979492186,-0.816793893129771,0.6183206106870229,-1.3282442748091603
3798145832039,5.354871821,1,0.21906945190429686,1.7106570861816406,-11.180921752929686,-0.816793893129771,0.5801526717557252,-1.3129770992366412
3798165832351,5.374872133,1,0.23343466186523437,1.7609353210449217,-11.179724652099608,-0.8244274809160306,0.5801526717557252,-1.3129770992366412
3798185830841,5.394870623,1,0.2597708801269531,1.7549498168945312,-11.208455072021483,-0.8091603053435115,0.5801526717557252,-1.3129770992366412
3798205831622,5.414871404,1,0.2442085693359375,1.725022296142578,-11.209652172851563,-0.7938931297709924,0.5801526717557252,-1.2900763358778626
3798225832039,5.434871821,1,0.2346317626953125,1.7310078002929687,-11.186907257080078,-0.8244274809160306,0.6106870229007634,-1.3053435114503817
3798245831987,5.454871769,1,0.2346317626953125,1.734599102783203,-11.184513055419922,-0.7557251908396947,0.5572519083969466,-1.297709923664122
3798265832299,5.474872081,1,0.23343466186523437,1.7477672119140624,-11.19887826538086,-0.8396946564885496,0.6259541984732825,-1.297709923664122
3798285831362,5.494871144,1,0.20709844360351562,1.7226280944824217,-11.19887826538086,-0.816793893129771,0.5725190839694656,-1.3206106870229009
3798305833184,5.514872966,1,0.21906945190429686,1.7513585144042967,-11.218031878662108,-0.816793893129771,0.5648854961832062,-1.3282442748091603
3798325832143,5.534871925,1,0.23343466186523437,1.7010802795410156,-11.165359442138671,-0.8473282442748091,0.5954198473282443,-1.3053435114503817
3798345830164,5.554869946,1,0.22864625854492185,1.7561469177246092,-11.174936248779296,-0.816793893129771,0.6183206106870229,-1.3053435114503817
3798365833705,5.574873487,1,0.22385785522460935,1.7334020019531249,-11.21683477783203,-0.8091603053435115,0.5343511450381679,-1.3282442748091603
3798385849278,5.59488906,1,0.22385785522460935,1.7262193969726563,-11.206060870361327,-0.8625954198473282,0.549618320610687,-1.3129770992366412
3798405834486,5.614874268,1,0.2262520568847656,1.7166425903320313,-11.156979736328124,-0.8625954198473282,0.5877862595419847,-1.297709923664122
3798425831726,5.634871508,1,0.23343466186523437,1.7334020019531249,-11.195286962890624,-0.8778625954198473,0.5648854961832062,-1.2900763358778626
3798445831882,5.654871664,1,0.23582886352539062,1.7393875061035156,-11.146205828857422,-0.8091603053435115,0.5572519083969466,-1.3435114503816794
3798465832455,5.674872237,1,0.23223756103515625,1.7262193969726563,-11.179724652099608,-0.7938931297709924,0.5801526717557252,-1.3511450381679388
3798485831257,5.694871039,1,0.19632453613281248,1.7010802795410156,-11.196484063720703,-0.8549618320610687,0.5419847328244275,-1.3206106870229009
3798505832924,5.714872706,1,0.22744915771484372,1.7190367919921874,-11.171344946289063,-0.8549618320610687,0.5954198473282443,-1.3740458015267176
3798525830736,5.734870518,1,0.21787235107421873,1.7226280944824217,-11.190498559570312,-0.8091603053435115,0.5725190839694656,-1.3282442748091603
3798545831570,5.754871352,1,0.22385785522460935,1.7369933044433592,-11.159373937988281,-0.8091603053435115,0.6335877862595419,-1.3053435114503817
3798565830163,5.774869945,1,0.23104046020507812,1.7645266235351562,-11.183315954589844,-0.8473282442748091,0.5954198473282443,-1.3129770992366412
3798585831882,5.794871664,1,0.22505495605468748,1.7334020019531249,-11.19169566040039,-0.8396946564885496,0.5877862595419847,-1.2748091603053435
3798605833653,5.814873435,1,0.24779987182617186,1.7357962036132812,-11.21084927368164,-0.8549618320610687,0.6030534351145038,-1.2748091603053435
3798625831882,5.834871664,1,0.2501940734863281,1.7202338928222656,-11.184513055419922,-0.8549618320610687,0.5954198473282443,-1.3435114503816794
3798645831986,5.854871768,1,0.20949264526367187,1.714248388671875,-11.228805786132812,-0.8320610687022901,0.5419847328244275,-1.2900763358778626
3798665832299,5.874872081,1,0.22026655273437498,1.7405846069335937,-11.194089862060546,-0.8396946564885496,0.5801526717557252,-1.3282442748091603
3798685831205,5.894870987,1,0.25737667846679685,1.7417817077636717,-11.183315954589844,-0.8091603053435115,0.5725190839694656,-1.3358778625954197
3798705831778,5.91487156,1,0.24061726684570311,1.7357962036132812,-11.18571015625,-0.8244274809160306,0.4961832061068702,-1.3358778625954197
3798725831830,5.934871612,1,0.2561795776367187,1.7357962036132812,-11.201272467041015,-0.8244274809160306,0.6030534351145038,-1.3053435114503817
3798745831413,5.954871195,1,0.229843359375,1.7322049011230467,-11.154585534667968,-0.8625954198473282,0.5801526717557252,-1.3129770992366412
3798765832090,5.974871872,1,0.2166752502441406,1.7034744812011717,-11.188104357910156,-0.816793893129771,0.5267175572519084,-1.3206106870229009
3798785832351,5.994872133,1,0.24301146850585936,1.7322049011230467,-11.139023223876952,-0.8244274809160306,0.5572519083969466,-1.3129770992366412
3798805833340,6.014873122,1,0.24181436767578124,1.7322049011230467,-11.176133349609374,-0.7786259541984732,0.5877862595419847,-1.3511450381679388
3798825831778,6.03487156,1,0.21308394775390624,1.7298106994628906,-11.18571015625,-0.8625954198473282,0.5877862595419847,-1.3129770992366412
3798845825945,6.054865727,1,0.22744915771484372,1.7369933044433592,-11.179724652099608,-0.8473282442748091,0.6030534351145038,-1.3129770992366412
3798865843132,6.074882914,1,0.22505495605468748,1.7393875061035156,-11.186907257080078,-0.8091603053435115,0.5725190839694656,-1.3893129770992367
3798885832820,6.094872602,1,0.2262520568847656,1.7226280944824217,-11.167753643798827,-0.8625954198473282,0.5725190839694656,-1.381679389312977
3798905834122,6.114873904,1,0.23343466186523437,1.7369933044433592,-11.194089862060546,-0.8244274809160306,0.5725190839694656,-1.3511450381679388
3798925831465,6.134871247,1,0.22266075439453123,1.7274164978027342,-11.250353601074218,-0.8244274809160306,0.5725190839694656,-1.3129770992366412
3798945831361,6.154871143,1,0.23223756103515625,1.7417817077636717,-11.203666668701171,-0.8091603053435115,0.5954198473282443,-1.366412213740458
3798965831934,6.174871716,1,0.19991583862304688,1.734599102783203,-11.19887826538086,-0.8091603053435115,0.5877862595419847,-1.3129770992366412
3798985831413,6.194871195,1,0.21188684692382811,1.7262193969726563,-11.176133349609374,-0.8015267175572519,0.5725190839694656,-1.297709923664122
3799005832090,6.214871872,1,0.24181436767578124,1.705868682861328,-11.19169566040039,-0.8091603053435115,0.5572519083969466,-1.3053435114503817
3799025830997,6.234870779,1,0.2501940734863281,1.7393875061035156,-11.200075366210937,-0.8091603053435115,0.5648854961832062,-1.3053435114503817
3799045832299,6.254872081,1,0.21068974609375,1.734599102783203,-11.183315954589844,-0.8244274809160306,0.6259541984732825,-1.2900763358778626
3799065831570,6.274871352,1,0.21308394775390624,1.7238251953125,-11.180921752929686,-0.8320610687022901,0.5343511450381679,-1.3358778625954197
3799085832611,6.294872393,1,0.20829554443359374,1.7214309936523438,-11.190498559570312,-0.8549618320610687,0.5190839694656488,-1.2748091603053435
3799105829747,6.314869529,1,0.22266075439453123,1.7310078002929687,-11.197681164550781,-0.7786259541984732,0.549618320610687,-1.297709923664122
3799125833549,6.334873331,1,0.22505495605468748,1.7178396911621092,-11.186907257080078,-0.8091603053435115,0.5954198473282443,-1.282442748091603
3799145831934,6.354871716,1,0.2166752502441406,1.7417817077636717,-11.18571015625,-0.7938931297709924,0.549618320610687,-1.3435114503816794
3799165832767,6.374872549,1,0.23702596435546874,1.7298106994628906,-11.202469567871093,-0.8473282442748091,0.5419847328244275,-1.297709923664122
3799185832090,6.394871872,1,0.21787235107421873,1.7202338928222656,-11.219228979492186,-0.8549618320610687,0.5648854961832062,-1.282442748091603
3799205832299,6.414872081,1,0.2214636535644531,1.7405846069335937,-11.213243475341796,-0.8015267175572519,0.6030534351145038,-1.3511450381679388
3799225832663,6.434872445,1,0.21188684692382811,1.7357962036132812,-11.203666668701171,-0.8396946564885496,0.5954198473282443,-1.3435114503816794
3799245831413,6.454871195,1,0.23582886352539062,1.7477672119140624,-11.214440576171874,-0.8244274809160306,0.5954198473282443,-1.2748091603053435
3799265826622,6.474866404,1,0.22266075439453123,1.7238251953125,-11.177330450439452,-0.8396946564885496,0.5419847328244275,-1.3282442748091603
3799285832299,6.494872081,1,0.21068974609375,1.714248388671875,-11.19887826538086,-0.8473282442748091,0.5648854961832062,-1.3206106870229009
3799305847715,6.514887497,1,0.2501940734863281,1.7381904052734374,-11.188104357910156,-0.8549618320610687,0.6259541984732825,-1.3129770992366412
3799325832715,6.534872497,1,0.23702596435546874,1.7202338928222656,-11.19169566040039,-0.7862595419847328,0.5954198473282443,-1.3282442748091603
3799345831309,6.554871091,1,0.239420166015625,1.714248388671875,-11.195286962890624,-0.8015267175572519,0.5801526717557252,-1.3358778625954197
3799365830215,6.574869997,1,0.23104046020507812,1.7166425903320313,-11.197681164550781,-0.8244274809160306,0.5877862595419847,-1.3053435114503817
3799385833861,6.594873643,1,0.22505495605468748,1.7381904052734374,-11.189301458740234,-0.8320610687022901,0.5648854961832062,-1.3129770992366412
3799405832871,6.614872653,1,0.22864625854492185,1.7262193969726563,-11.165359442138671,-0.816793893129771,0.549618320610687,-1.3206106870229009
3799425831986,6.634871768,1,0.23343466186523437,1.7310078002929687,-11.23000288696289,-0.8396946564885496,0.6106870229007634,-1.3282442748091603
3799445833028,6.65487281,1,0.23104046020507812,1.7429788085937499,-11.196484063720703,-0.8244274809160306,0.5801526717557252,-1.2748091603053435
3799465832194,6.674871976,1,0.26336218261718747,1.705868682861328,-11.188104357910156,-0.8244274809160306,0.6030534351145038,-1.2900763358778626
3799485832299,6.694872081,1,0.23104046020507812,1.7429788085937499,-11.168950744628905,-0.8396946564885496,0.5648854961832062,-1.297709923664122
3799505831830,6.714871612,1,0.24779987182617186,1.7393875061035156,-11.184513055419922,-0.816793893129771,0.549618320610687,-1.3358778625954197
3799525832455,6.734872237,1,0.2214636535644531,1.7082628845214842,-11.189301458740234,-0.8244274809160306,0.6030534351145038,-1.3511450381679388
3799545832299,6.754872081,1,0.2166752502441406,1.7190367919921874,-11.177330450439452,-0.8244274809160306,0.5648854961832062,-1.3358778625954197
3799565831778,6.77487156,1,0.19991583862304688,1.707065783691406,-11.215637677001952,-0.8549618320610687,0.5801526717557252,-1.3129770992366412
3799585831361,6.794871143,1,0.239420166015625,1.7334020019531249,-11.18571015625,-0.8396946564885496,0.549618320610687,-1.3282442748091603
3799605833861,6.814873643,1,0.2154781494140625,1.7310078002929687,-11.182118853759764,-0.8015267175572519,0.5877862595419847,-1.3053435114503817
3799625829955,6.834869737,1,0.23822306518554687,1.7202338928222656,-11.196484063720703,-0.8396946564885496,0.6106870229007634,-1.3206106870229009
3799645832090,6.854871872,1,0.21906945190429686,1.7094599853515624,-11.208455072021483,-0.8396946564885496,0.5801526717557252,-1.3282442748091603
3799665831465,6.874871247,1,0.2059013427734375,1.714248388671875,-11.139023223876952,-0.8320610687022901,0.5648854961832062,-1.2900763358778626
3799685832298,6.89487208,1,0.21428104858398436,1.7369933044433592,-11.16057103881836,-0.8244274809160306,0.5801526717557252,-1.3358778625954197
3799705831830,6.914871612,1,0.20709844360351562,1.7369933044433592,-11.164162341308593,-0.8396946564885496,0.5419847328244275,-1.3358778625954197
3799725832663,6.934872445,1,0.2262520568847656,1.7334020019531249,-11.149797131347656,-0.8244274809160306,0.5725190839694656,-1.3129770992366412
3799745831153,6.954870935,1,0.2154781494140625,1.7310078002929687,-11.176133349609374,-0.8549618320610687,0.5877862595419847,-1.381679389312977
3799765830371,6.974870153,1,0.2454056701660156,1.7405846069335937,-11.180921752929686,-0.8015267175572519,0.5801526717557252,-1.3740458015267176
3799785857976,6.994897758,1,0.23702596435546874,1.744175909423828,-11.146205828857422,-0.8396946564885496,0.6030534351145038,-1.3435114503816794
3799805843861,7.014883643,1,0.21787235107421873,1.7238251953125,-11.21084927368164,-0.8702290076335878,0.5343511450381679,-1.3206106870229009
3799825834851,7.034874633,1,0.2454056701660156,1.7262193969726563,-11.156979736328124,-0.8396946564885496,0.5725190839694656,-1.297709923664122
3799845832767,7.054872549,1,0.21188684692382811,1.7310078002929687,-11.17254204711914,-0.8320610687022901,0.549618320610687,-1.2595419847328244
3799865833028,7.07487281,1,0.22385785522460935,1.7465701110839842,-11.203666668701171,-0.816793893129771,0.5954198473282443,-1.2748091603053435
3799885834173,7.094873955,1,0.22385785522460935,1.7166425903320313,-11.180921752929686,-0.8396946564885496,0.6106870229007634,-1.3053435114503817
3799905829382,7.114869164,1,0.239420166015625,1.7190367919921874,-11.220426080322264,-0.7938931297709924,0.5572519083969466,-1.3358778625954197
3799925832507,7.134872289,1,0.239420166015625,1.7178396911621092,-11.214440576171874,-0.7862595419847328,0.5954198473282443,-1.3129770992366412
3799945831986,7.154871768,1,0.22266075439453123,1.7214309936523438,-11.17852755126953,-0.8244274809160306,0.6030534351145038,-1.3053435114503817
3799965831986,7.174871768,1,0.22026655273437498,1.7226280944824217,-11.194089862060546,-0.8244274809160306,0.5648854961832062,-1.2900763358778626
3799985831621,7.194871403,1,0.239420166015625,1.7453730102539062,-11.202469567871093,-0.816793893129771,0.5648854961832062,-1.3358778625954197
3800005844642,7.214884424,1,0.20949264526367187,1.7178396911621092,-11.195286962890624,-0.7938931297709924,0.549618320610687,-1.2900763358778626
3800025834173,7.234873955,1,0.21308394775390624,1.7286135986328124,-11.190498559570312,-0.816793893129771,0.5648854961832062,-1.297709923664122
3800045832455,7.254872237,1,0.23343466186523437,1.705868682861328,-11.19887826538086,-0.816793893129771,0.5648854961832062,-1.3053435114503817
3800065832715,7.274872497,1,0.22385785522460935,1.7226280944824217,-11.170147845458983,-0.8244274809160306,0.549618320610687,-1.366412213740458
3800085832975,7.294872757,1,0.2262520568847656,1.7334020019531249,-11.188104357910156,-0.8244274809160306,0.5648854961832062,-1.3053435114503817
3800105832402,7.314872184,1,0.23104046020507812,1.7190367919921874,-11.195286962890624,-0.816793893129771,0.5572519083969466,-1.2900763358778626
3800125826934,7.334866716,1,0.23343466186523437,1.7286135986328124,-11.21683477783203,-0.8244274809160306,0.5343511450381679,-1.3358778625954197
3800145832246,7.354872028,1,0.24301146850585936,1.7262193969726563,-11.212046374511718,-0.8625954198473282,0.549618320610687,-1.3206106870229009
3800165832142,7.374871924,1,0.24181436767578124,1.7262193969726563,-11.201272467041015,-0.8091603053435115,0.5572519083969466,-1.3511450381679388
3800185830736,7.394870518,1,0.2346317626953125,1.7322049011230467,-11.17254204711914,-0.8702290076335878,0.5725190839694656,-1.3282442748091603
3800205831413,7.414871195,1,0.229843359375,1.7274164978027342,-11.16057103881836,-0.8015267175572519,0.5648854961832062,-1.3435114503816794
3800225848600,7.434888382,1,0.22505495605468748,1.715445489501953,-11.18571015625,-0.7633587786259542,0.5801526717557252,-1.3129770992366412
3800245833080,7.454872862,1,0.2214636535644531,1.7310078002929687,-11.18571015625,-0.8320610687022901,0.5954198473282443,-1.282442748091603
3800265829746,7.474869528,1,0.2549824768066406,1.7202338928222656,-11.183315954589844,-0.8244274809160306,0.549618320610687,-1.3358778625954197
3800285831882,7.494871664,1,0.19991583862304688,1.7106570861816406,-11.207257971191405,-0.8396946564885496,0.5572519083969466,-1.3435114503816794
3800305832246,7.514872028,1,0.22744915771484372,1.7262193969726563,-11.182118853759764,-0.8473282442748091,0.5419847328244275,-1.297709923664122
3800325832507,7.534872289,1,0.2442085693359375,1.7405846069335937,-11.162965240478515,-0.8396946564885496,0.6183206106870229,-1.2900763358778626
3800345832402,7.554872184,1,0.24660277099609373,1.7417817077636717,-11.184513055419922,-0.8320610687022901,0.549618320610687,-1.3206106870229009
3800365831725,7.574871507,1,0.19512743530273435,1.7130512878417967,-11.195286962890624,-0.8625954198473282,0.5572519083969466,-1.3129770992366412
3800385829069,7.594868851,1,0.22385785522460935,1.7238251953125,-11.168950744628905,-0.8015267175572519,0.5648854961832062,-1.3435114503816794
3800405834017,7.614873799,1,0.2059013427734375,1.7417817077636717,-11.177330450439452,-0.8244274809160306,0.6106870229007634,-1.3587786259541985
3800425831048,7.63487083,1,0.2549824768066406,1.7310078002929687,-11.208455072021483,-0.8320610687022901,0.5954198473282443,-1.3053435114503817
3800445832298,7.65487208,1,0.22744915771484372,1.7334020019531249,-11.189301458740234,-0.8244274809160306,0.6030534351145038,-1.3282442748091603
3800465832611,7.674872393,1,0.21308394775390624,1.753752716064453,-11.179724652099608,-0.816793893129771,0.5648854961832062,-1.3435114503816794
3800485832507,7.694872289,1,0.23343466186523437,1.725022296142578,-11.168950744628905,-0.8473282442748091,0.5114503816793893,-1.3053435114503817
3800505826204,7.714865986,1,0.20470424194335937,1.7357962036132812,-11.194089862060546,-0.8473282442748091,0.6106870229007634,-1.3053435114503817
3800525832506,7.734872288,1,0.25139117431640623,1.7262193969726563,-11.201272467041015,-0.8625954198473282,0.6259541984732825,-1.3206106870229009
3800545832194,7.754871976,1,0.23822306518554687,1.7322049011230467,-11.196484063720703,-0.8320610687022901,0.5801526717557252,-1.3587786259541985
3800565831621,7.774871403,1,0.20829554443359374,1.7010802795410156,-11.180921752929686,-0.8396946564885496,0.5572519083969466,-1.3129770992366412
3800585830944,7.794870726,1,0.21068974609375,1.7274164978027342,-11.213243475341796,-0.8854961832061069,0.549618320610687,-1.3053435114503817
3800605828236,7.814868018,1,0.23223756103515625,1.734599102783203,-11.197681164550781,-0.8320610687022901,0.5954198473282443,-1.297709923664122
3800625832663,7.834872445,1,0.229843359375,1.7226280944824217,-11.194089862060546,-0.8549618320610687,0.5419847328244275,-1.3129770992366412
3800645831204,7.854870986,1,0.239420166015625,1.7393875061035156,-11.176133349609374,-0.8320610687022901,0.5725190839694656,-1.2900763358778626
3800665832090,7.874871872,1,0.2154781494140625,1.7298106994628906,-11.228805786132812,-0.8549618320610687,0.5725190839694656,-1.3206106870229009
3800685832506,7.894872288,1,0.22864625854492185,1.7286135986328124,-11.182118853759764,-0.8396946564885496,0.5801526717557252,-1.3358778625954197
3800705832767,7.914872549,1,0.23104046020507812,1.7369933044433592,-11.209652172851563,-0.8015267175572519,0.6030534351145038,-1.2900763358778626
3800725833079,7.934872861,1,0.24899697265624998,1.744175909423828,-11.158176837158203,-0.8549618320610687,0.5725190839694656,-1.3358778625954197
3800745832819,7.954872601,1,0.23223756103515625,1.734599102783203,-11.201272467041015,-0.8549618320610687,0.5343511450381679,-1.3206106870229009
3800765831100,7.974870882,1,0.22744915771484372,1.7429788085937499,-11.201272467041015,-0.8396946564885496,0.5419847328244275,-1.3511450381679388
3800785871517,7.994911299,1,0.2166752502441406,1.7298106994628906,-11.234791290283203,-0.8320610687022901,0.6259541984732825,-1.3206106870229009
3800805839798,8.01487958,1,0.21428104858398436,1.7381904052734374,-11.215637677001952,-0.8091603053435115,0.5725190839694656,-1.3129770992366412
3800825834954,8.034874736,1,0.21787235107421873,1.7453730102539062,-11.182118853759764,-0.8396946564885496,0.5877862595419847,-1.2900763358778626
3800845832038,8.05487182,1,0.22266075439453123,1.7334020019531249,-11.186907257080078,-0.7938931297709924,0.6106870229007634,-1.3206106870229009
3800865832506,8.074872288,1,0.21308394775390624,1.753752716064453,-11.221623181152344,-0.8320610687022901,0.5725190839694656,-1.3435114503816794
3800885841881,8.094881663,1,0.18435352783203124,1.7405846069335937,-11.165359442138671,-0.8396946564885496,0.5801526717557252,-1.3435114503816794
3800905833444,8.114873226,1,0.23822306518554687,1.7585411193847655,-11.222820281982422,-0.8625954198473282,0.549618320610687,-1.3282442748091603
3800925827715,8.134867497,1,0.22385785522460935,1.7202338928222656,-11.227608685302734,-0.8091603053435115,0.6030534351145038,-1.2748091603053435
3800945832923,8.154872705,1,0.22385785522460935,1.70467158203125,-11.197681164550781,-0.816793893129771,0.5343511450381679,-1.3511450381679388
3800965833183,8.174872965,1,0.21906945190429686,1.7178396911621092,-11.203666668701171,-0.8091603053435115,0.5648854961832062,-1.3511450381679388
3800985831621,8.194871403,1,0.23582886352539062,1.7393875061035156,-11.189301458740234,-0.816793893129771,0.5419847328244275,-1.3206106870229009
3801005830267,8.214870049,1,0.21188684692382811,1.7262193969726563,-11.215637677001952,-0.8549618320610687,0.6106870229007634,-1.3206106870229009
3801025831204,8.234870986,1,0.20470424194335937,1.70467158203125,-11.19169566040039,-0.8549618320610687,0.5190839694656488,-1.3358778625954197
3801045831933,8.254871715,1,0.2442085693359375,1.734599102783203,-11.197681164550781,-0.8244274809160306,0.549618320610687,-1.3206106870229009
3801065831829,8.274871611,1,0.23702596435546874,1.753752716064453,-11.196484063720703,-0.7862595419847328,0.6106870229007634,-1.3206106870229009
3801085831985,8.294871767,1,0.20231004028320312,1.7310078002929687,-11.196484063720703,-0.8244274809160306,0.5725190839694656,-1.2671755725190839
3801105832246,8.314872028,1,0.2442085693359375,1.7369933044433592,-11.189301458740234,-0.8244274809160306,0.5419847328244275,-1.297709923664122
3801125827767,8.334867549,1,0.22864625854492185,1.7238251953125,-11.171344946289063,-0.816793893129771,0.549618320610687,-1.3129770992366412
3801145831881,8.354871663,1,0.21188684692382811,1.7334020019531249,-11.214440576171874,-0.8549618320610687,0.6030534351145038,-1.3206106870229009
3801165833079,8.374872861,1,0.21906945190429686,1.7477672119140624,-11.177330450439452,-0.8244274809160306,0.5419847328244275,-1.3053435114503817
3801185832090,8.394871872,1,0.24899697265624998,1.7178396911621092,-11.194089862060546,-0.8091603053435115,0.549618320610687,-1.3435114503816794
3801205831933,8.414871715,1,0.22266075439453123,1.7106570861816406,-11.209652172851563,-0.8244274809160306,0.5419847328244275,-1.3129770992366412
3801225832506,8.434872288,1,0.20829554443359374,1.7238251953125,-11.208455072021483,-0.7786259541984732,0.5801526717557252,-1.3206106870229009
3801245832662,8.454872444,1,0.22385785522460935,1.725022296142578,-11.17254204711914,-0.816793893129771,0.5954198473282443,-1.3282442748091603
3801265832142,8.474871924,1,0.22744915771484372,1.68551796875,-11.166556542968749,-0.816793893129771,0.5801526717557252,-1.2900763358778626
3801285830787,8.494870569,1,0.22744915771484372,1.7262193969726563,-11.200075366210937,-0.8244274809160306,0.6030534351145038,-1.3282442748091603
3801305831985,8.514871767,1,0.229843359375,1.7369933044433592,-11.213243475341796,-0.8549618320610687,0.5954198473282443,-1.3358778625954197
3801325831725,8.534871507,1,0.2214636535644531,1.7130512878417967,-11.220426080322264,-0.7709923664122137,0.5877862595419847,-1.3358778625954197
3801345830683,8.554870465,1,0.21068974609375,1.7369933044433592,-11.212046374511718,-0.8549618320610687,0.5343511450381679,-1.3435114503816794
3801365831777,8.574871559,1,0.239420166015625,1.7477672119140624,-11.19169566040039,-0.8320610687022901,0.5877862595419847,-1.3358778625954197
3801385832194,8.594871976,1,0.2262520568847656,1.715445489501953,-11.19169566040039,-0.816793893129771,0.5801526717557252,-1.3206106870229009
3801405827871,8.614867653,1,0.19991583862304688,1.7034744812011717,-11.179724652099608,-0.8396946564885496,0.5725190839694656,-1.3358778625954197
3801425833652,8.634873434,1,0.23104046020507812,1.7226280944824217,-11.220426080322264,-0.8625954198473282,0.5648854961832062,-1.3206106870229009
3801445831985,8.654871767,1,0.22266075439453123,1.7357962036132812,-11.222820281982422,-0.7938931297709924,0.5801526717557252,-1.3053435114503817
3801465833131,8.674872913,1,0.22744915771484372,1.7393875061035156,-11.194089862060546,-0.8396946564885496,0.5572519083969466,-1.3282442748091603
3801485831517,8.694871299,1,0.22505495605468748,1.714248388671875,-11.186907257080078,-0.8625954198473282,0.5572519083969466,-1.3129770992366412
3801505830058,8.71486984,1,0.23343466186523437,1.7381904052734374,-11.192892761230468,-0.8396946564885496,0.5801526717557252,-1.2900763358778626
3801525832142,8.734871924,1,0.22385785522460935,1.7322049011230467,-11.188104357910156,-0.8320610687022901,0.5877862595419847,-1.3511450381679388
3801545830996,8.754870778,1,0.26815058593749996,1.725022296142578,-11.190498559570312,-0.816793893129771,0.5877862595419847,-1.3206106870229009
3801565831569,8.774871351,1,0.2262520568847656,1.734599102783203,-11.183315954589844,-0.7938931297709924,0.5725190839694656,-1.297709923664122
3801585832246,8.794872028,1,0.2214636535644531,1.7118541870117185,-11.184513055419922,-0.7633587786259542,0.6259541984732825,-1.3053435114503817
3801605831516,8.814871298,1,0.19033903198242186,1.7357962036132812,-11.162965240478515,-0.8091603053435115,0.5877862595419847,-1.3282442748091603
3801625830683,8.834870465,1,0.2454056701660156,1.7513585144042967,-11.186907257080078,-0.8244274809160306,0.5419847328244275,-1.3053435114503817
3801645832610,8.854872392,1,0.22385785522460935,1.7322049011230467,-11.165359442138671,-0.8244274809160306,0.6335877862595419,-1.3282442748091603
3801665829954,8.874869736,1,0.23343466186523437,1.715445489501953,-11.18571015625,-0.8625954198473282,0.648854961832061,-1.3129770992366412
3801685832923,8.894872705,1,0.23223756103515625,1.7357962036132812,-11.188104357910156,-0.7938931297709924,0.5877862595419847,-1.3206106870229009
3801705831725,8.914871507,1,0.2166752502441406,1.7094599853515624,-11.208455072021483,-0.8702290076335878,0.5954198473282443,-1.3511450381679388
3801725830996,8.934870778,1,0.23822306518554687,1.7369933044433592,-11.159373937988281,-0.8396946564885496,0.5801526717557252,-1.3129770992366412
3801745826308,8.95486609,1,0.22744915771484372,1.7322049011230467,-11.19169566040039,-0.8549618320610687,0.6335877862595419,-1.3282442748091603
3801765832350,8.974872132,1,0.2154781494140625,1.7178396911621092,-11.192892761230468,-0.8015267175572519,0.5725190839694656,-1.3053435114503817
3801785831569,8.994871351,1,0.2262520568847656,1.714248388671875,-11.188104357910156,-0.8244274809160306,0.5801526717557252,-1.3358778625954197
3801805831829,9.014871611,1,0.24660277099609373,1.7334020019531249,-11.226411584472656,-0.7938931297709924,0.549618320610687,-1.3129770992366412
3801825831308,9.03487109,1,0.20949264526367187,1.7453730102539062,-11.17852755126953,-0.816793893129771,0.5877862595419847,-1.251908396946565
3801845848027,9.054887809,1,0.22026655273437498,1.7166425903320313,-11.145008728027342,-0.8396946564885496,0.5877862595419847,-1.3435114503816794
3801865832558,9.07487234,1,0.23822306518554687,1.7357962036132812,-11.225214483642578,-0.8778625954198473,0.5572519083969466,-1.2748091603053435
3801885830683,9.094870465,1,0.22026655273437498,1.7489643127441405,-11.17254204711914,-0.8396946564885496,0.5725190839694656,-1.3129770992366412
3801905831673,9.114871455,1,0.2346317626953125,1.7334020019531249,-11.215637677001952,-0.816793893129771,0.6412213740458015,-1.3282442748091603
3801925830579,9.134870361,1,0.22744915771484372,1.7166425903320313,-11.18571015625,-0.8396946564885496,0.6030534351145038,-1.3053435114503817
3801945869902,9.154909684,1,0.2154781494140625,1.7334020019531249,-11.19887826538086,-0.8625954198473282,0.5877862595419847,-1.3129770992366412
3801965833443,9.174873225,1,0.2059013427734375,1.7274164978027342,-11.190498559570312,-0.8549618320610687,0.5954198473282443,-1.3358778625954197
3801985832298,9.19487208,1,0.23104046020507812,1.697488977050781,-11.208455072021483,-0.7862595419847328,0.5801526717557252,-1.3206106870229009
3802005827454,9.214867236,1,0.24061726684570311,1.7286135986328124,-11.19169566040039,-0.816793893129771,0.5648854961832062,-1.3358778625954197
3802025883131,9.234922913,1,0.1975216369628906,1.7381904052734374,-11.17254204711914,-0.8396946564885496,0.5725190839694656,-1.3053435114503817
3802045888652,9.254928434,1,0.2166752502441406,1.7178396911621092,-11.1474029296875,-0.8473282442748091,0.5419847328244275,-1.3129770992366412
3802065831360,9.274871142,1,0.2166752502441406,1.7322049011230467,-11.209652172851563,-0.8625954198473282,0.6259541984732825,-1.3282442748091603
3802085829068,9.29486885,1,0.2166752502441406,1.7298106994628906,-11.189301458740234,-0.8473282442748091,0.6335877862595419,-1.3206106870229009
3802105829641,9.314869423,1,0.24899697265624998,1.7118541870117185,-11.173739147949219,-0.816793893129771,0.5954198473282443,-1.3282442748091603
3802125826725,9.334866507,1,0.2059013427734375,1.7178396911621092,-11.155782635498046,-0.8778625954198473,0.5648854961832062,-1.3129770992366412
3802145827506,9.354867288,1,0.20829554443359374,1.7298106994628906,-11.203666668701171,-0.8473282442748091,0.549618320610687,-1.3358778625954197
3802165830423,9.374870205,1,0.22385785522460935,1.7238251953125,-11.176133349609374,-0.8320610687022901,0.6030534351145038,-1.3129770992366412
3802185830995,9.394870777,1,0.2166752502441406,1.7262193969726563,-11.206060870361327,-0.7938931297709924,0.549618320610687,-1.297709923664122
3802205829225,9.414869007,1,0.22744915771484372,1.7178396911621092,-11.179724652099608,-0.8473282442748091,0.5725190839694656,-1.2900763358778626
3802225828704,9.434868486,1,0.22266075439453123,1.7334020019531249,-11.17852755126953,-0.7938931297709924,0.5725190839694656,-1.3282442748091603
3802245828912,9.454868694,1,0.2166752502441406,1.7094599853515624,-11.171344946289063,-0.8473282442748091,0.5877862595419847,-1.297709923664122
3802265829225,9.474869007,1,0.239420166015625,1.7214309936523438,-11.194089862060546,-0.8396946564885496,0.5343511450381679,-1.3053435114503817
3802285829068,9.49486885,1,0.22266075439453123,1.7202338928222656,-11.192892761230468,-0.8396946564885496,0.5801526717557252,-1.3053435114503817
3802305828912,9.514868694,1,0.229843359375,1.725022296142578,-11.197681164550781,-0.7786259541984732,0.5877862595419847,-1.3282442748091603
3802325826933,9.534866715,1,0.21906945190429686,1.714248388671875,-11.164162341308593,-0.8244274809160306,0.5725190839694656,-1.3282442748091603
3802345828235,9.554868017,1,0.22505495605468748,1.725022296142578,-11.159373937988281,-0.8396946564885496,0.5725190839694656,-1.3587786259541985
3802365828235,9.574868017,1,0.24779987182617186,1.7501614135742187,-11.19169566040039,-0.8396946564885496,0.5954198473282443,-1.3358778625954197
3802385828547,9.594868329,1,0.1975216369628906,1.7357962036132812,-11.203666668701171,-0.8091603053435115,0.6335877862595419,-1.2900763358778626
3802405827037,9.614866819,1,0.239420166015625,1.7322049011230467,-11.154585534667968,-0.8320610687022901,0.6183206106870229,-1.282442748091603
3802425828860,9.634868642,1,0.24181436767578124,1.7489643127441405,-11.201272467041015,-0.8473282442748091,0.5801526717557252,-1.3129770992366412
3802445831100,9.654870882,1,0.23582886352539062,1.734599102783203,-11.19169566040039,-0.8015267175572519,0.5419847328244275,-1.3435114503816794
3802465831047,9.674870829,1,0.2346317626953125,1.714248388671875,-11.213243475341796,-0.8778625954198473,0.5801526717557252,-1.282442748091603
3802485827974,9.694867756,1,0.21787235107421873,1.7214309936523438,-11.184513055419922,-0.8244274809160306,0.5648854961832062,-1.3129770992366412
3802505828339,9.714868121,1,0.1867477294921875,1.7405846069335937,-11.183315954589844,-0.8320610687022901,0.6030534351145038,-1.3129770992366412
3802525828183,9.734867965,1,0.22744915771484372,1.7393875061035156,-11.201272467041015,-0.8320610687022901,0.549618320610687,-1.3053435114503817
3802545827402,9.754867184,1,0.23582886352539062,1.7238251953125,-11.186907257080078,-0.8320610687022901,0.5954198473282443,-1.3358778625954197
3802565829381,9.774869163,1,0.2154781494140625,1.7130512878417967,-11.171344946289063,-0.8244274809160306,0.5725190839694656,-1.3206106870229009
3802585828495,9.794868277,1,0.19991583862304688,1.7262193969726563,-11.226411584472656,-0.8473282442748091,0.5954198473282443,-1.2671755725190839
3802605828235,9.814868017,1,0.2059013427734375,1.7417817077636717,-11.18571015625,-0.8320610687022901,0.5648854961832062,-1.3053435114503817
3802625828235,9.834868017,1,0.22026655273437498,1.7393875061035156,-11.188104357910156,-0.816793893129771,0.5572519083969466,-1.297709923664122
3802645827714,9.854867496,1,0.22385785522460935,1.7405846069335937,-11.192892761230468,-0.8625954198473282,0.549618320610687,-1.3206106870229009
3802665831256,9.874871038,1,0.2262520568847656,1.7226280944824217,-11.212046374511718,-0.8702290076335878,0.5725190839694656,-1.3129770992366412
3802685826672,9.894866454,1,0.21906945190429686,1.7597382202148437,-11.196484063720703,-0.8320610687022901,0.5190839694656488,-1.3053435114503817
3802705829537,9.914869319,1,0.24660277099609373,1.7310078002929687,-11.225214483642578,-0.8091603053435115,0.5572519083969466,-1.3282442748091603
3802725829433,9.934869215,1,0.201112939453125,1.7130512878417967,-11.213243475341796,-0.8244274809160306,0.5954198473282443,-1.3435114503816794
3802745829016,9.954868798,1,0.23343466186523437,1.7489643127441405,-11.234791290283203,-0.816793893129771,0.6030534351145038,-1.3358778625954197
3802765870006,9.974909788,1,0.23104046020507812,1.7286135986328124,-11.189301458740234,-0.8549618320610687,0.5877862595419847,-1.3358778625954197
3802785829120,9.994868902,1,0.22864625854492185,1.7238251953125,-11.209652172851563,-0.8396946564885496,0.6259541984732825,-1.3358778625954197
3802805827922,10.014867704,1,0.22864625854492185,1.7190367919921874,-11.195286962890624,-0.8244274809160306,0.6106870229007634,-1.3587786259541985
3802825828912,10.034868694,1,0.20949264526367187,1.734599102783203,-11.203666668701171,-0.8244274809160306,0.5954198473282443,-1.3129770992366412
3802845826985,10.054866767,1,0.2561795776367187,1.7286135986328124,-11.188104357910156,-0.8320610687022901,0.6030534351145038,-1.297709923664122
3802865828079,10.074867861,1,0.2262520568847656,1.7357962036132812,-11.183315954589844,-0.7938931297709924,0.5572519083969466,-1.282442748091603
3802885835787,10.094875569,1,0.22864625854492185,1.725022296142578,-11.190498559570312,-0.8015267175572519,0.5572519083969466,-1.3206106870229009
3802905830422,10.114870204,1,0.2262520568847656,1.7310078002929687,-11.159373937988281,-0.8396946564885496,0.549618320610687,-1.3282442748091603
3802925827610,10.134867392,1,0.22744915771484372,1.7465701110839842,-11.204863769531249,-0.816793893129771,0.5572519083969466,-1.3129770992366412
3802945828599,10.154868381,1,0.21906945190429686,1.7405846069335937,-11.158176837158203,-0.816793893129771,0.5572519083969466,-1.3206106870229009
3802965829849,10.174869631,1,0.22744915771484372,1.7310078002929687,-11.212046374511718,-0.8244274809160306,0.5954198473282443,-1.3206106870229009
3802985826724,10.194866506,1,0.24779987182617186,1.7262193969726563,-11.201272467041015,-0.816793893129771,0.5877862595419847,-1.3358778625954197
3803005830318,10.2148701,1,0.23104046020507812,1.7274164978027342,-11.186907257080078,-0.8396946564885496,0.5954198473282443,-1.3129770992366412
3803025829328,10.23486911,1,0.22266075439453123,1.7369933044433592,-11.213243475341796,-0.8320610687022901,0.5572519083969466,-1.2748091603053435
3803045829016,10.254868798,1,0.21068974609375,1.7286135986328124,-11.213243475341796,-0.8015267175572519,0.6183206106870229,-1.3129770992366412
3803065828599,10.274868381,1,0.27174188842773433,1.7322049011230467,-11.170147845458983,-0.816793893129771,0.5267175572519084,-1.3282442748091603
3803085831360,10.294871142,1,0.2501940734863281,1.6986860778808592,-11.161768139648437,-0.816793893129771,0.6106870229007634,-1.297709923664122
3803105829485,10.314869267,1,0.21906945190429686,1.744175909423828,-11.225214483642578,-0.8473282442748091,0.5801526717557252,-1.3206106870229009
3803125826880,10.334866662,1,0.2262520568847656,1.7274164978027342,-11.228805786132812,-0.8473282442748091,0.549618320610687,-1.3206106870229009
3803145829380,10.354869162,1,0.21428104858398436,1.7082628845214842,-11.183315954589844,-0.8244274809160306,0.5648854961832062,-1.3282442748091603
3803165827610,10.374867392,1,0.22744915771484372,1.7262193969726563,-11.183315954589844,-0.7862595419847328,0.5801526717557252,-1.3511450381679388
3803185830318,10.3948701,1,0.24061726684570311,1.7286135986328124,-11.196484063720703,-0.8549618320610687,0.5954198473282443,-1.2900763358778626
3803205830058,10.41486984,1,0.21068974609375,1.7226280944824217,-11.188104357910156,-0.8091603053435115,0.5419847328244275,-1.3129770992366412
3803225829172,10.434868954,1,0.2262520568847656,1.7298106994628906,-11.214440576171874,-0.816793893129771,0.5648854961832062,-1.3206106870229009
3803245829172,10.454868954,1,0.23582886352539062,1.7513585144042967,-11.206060870361327,-0.8473282442748091,0.5801526717557252,-1.3053435114503817
3803265829120,10.474868902,1,0.22026655273437498,1.7262193969726563,-11.19887826538086,-0.8549618320610687,0.5648854961832062,-1.3282442748091603
3803285830214,10.494869996,1,0.19632453613281248,1.7226280944824217,-11.194089862060546,-0.7862595419847328,0.5877862595419847,-1.3053435114503817
3803305827297,10.514867079,1,0.23822306518554687,1.7202338928222656,-11.174936248779296,-0.816793893129771,0.5801526717557252,-1.3206106870229009
3803325827974,10.534867756,1,0.2166752502441406,1.7405846069335937,-11.19169566040039,-0.8549618320610687,0.5648854961832062,-1.3282442748091603
3803345827610,10.554867392,1,0.2154781494140625,1.7226280944824217,-11.159373937988281,-0.8549618320610687,0.6335877862595419,-1.3053435114503817
3803365828807,10.574868589,1,0.24181436767578124,1.6998831787109374,-11.188104357910156,-0.8549618320610687,0.5419847328244275,-1.3435114503816794
3803385867557,10.594907339,1,0.22385785522460935,1.7274164978027342,-11.209652172851563,-0.8320610687022901,0.5343511450381679,-1.3511450381679388
3803405827870,10.614867652,1,0.1927332336425781,1.7597382202148437,-11.197681164550781,-0.8473282442748091,0.6183206106870229,-1.3511450381679388
3803425827245,10.634867027,1,0.22505495605468748,1.7118541870117185,-11.196484063720703,-0.8015267175572519,0.5572519083969466,-1.3282442748091603
3803445829016,10.654868798,1,0.25258827514648435,1.7178396911621092,-11.2240173828125,-0.7938931297709924,0.6335877862595419,-1.3511450381679388
3803465831828,10.67487161,1,0.22505495605468748,1.7178396911621092,-11.149797131347656,-0.816793893129771,0.5954198473282443,-1.3129770992366412
3803485869016,10.694908798,1,0.23582886352539062,1.7393875061035156,-11.189301458740234,-0.8320610687022901,0.6335877862595419,-1.3358778625954197
3803505829432,10.714869214,1,0.21787235107421873,1.7357962036132812,-11.243170996093749,-0.8473282442748091,0.6106870229007634,-1.3206106870229009
3803525829849,10.734869631,1,0.2549824768066406,1.7393875061035156,-11.154585534667968,-0.8091603053435115,0.5801526717557252,-1.282442748091603
3803545828130,10.754867912,1,0.20949264526367187,1.7130512878417967,-11.165359442138671,-0.8625954198473282,0.5801526717557252,-1.3129770992366412
3803565829849,10.774869631,1,0.22026655273437498,1.7130512878417967,-11.159373937988281,-0.8091603053435115,0.5343511450381679,-1.3435114503816794
3803585865318,10.7949051,1,0.22505495605468748,1.7357962036132812,-11.202469567871093,-0.8015267175572519,0.5725190839694656,-1.366412213740458
3803605835422,10.814875204,1,0.21068974609375,1.7429788085937499,-11.182118853759764,-0.8396946564885496,0.5648854961832062,-1.3282442748091603
3803625828234,10.834868016,1,0.23702596435546874,1.7190367919921874,-11.213243475341796,-0.8244274809160306,0.6030534351145038,-1.3053435114503817
3803645830370,10.854870152,1,0.2262520568847656,1.7214309936523438,-11.200075366210937,-0.8473282442748091,0.5572519083969466,-1.2900763358778626
3803665827818,10.8748676,1,0.23822306518554687,1.7286135986328124,-11.194089862060546,-0.8549618320610687,0.6030534351145038,-1.3129770992366412
3803685865266,10.894905048,1,0.22385785522460935,1.7178396911621092,-11.164162341308593,-0.8244274809160306,0.5572519083969466,-1.3587786259541985
3803705830474,10.914870256,1,0.2442085693359375,1.7429788085937499,-11.17852755126953,-0.8244274809160306,0.549618320610687,-1.3358778625954197
3803725829797,10.934869579,1,0.2166752502441406,1.734599102783203,-11.18571015625,-0.8015267175572519,0.5877862595419847,-1.3129770992366412
3803745828807,10.954868589,1,0.22385785522460935,1.7178396911621092,-11.194089862060546,-0.8244274809160306,0.6183206106870229,-1.3206106870229009
3803765828755,10.974868537,1,0.23343466186523437,1.7334020019531249,-11.148600030517578,-0.8473282442748091,0.5725190839694656,-1.3435114503816794
3803785828755,10.994868537,1,0.21428104858398436,1.7381904052734374,-11.167753643798827,-0.8396946564885496,0.5648854961832062,-1.3206106870229009
3803805830630,11.014870412,1,0.23582886352539062,1.6998831787109374,-11.17254204711914,-0.8244274809160306,0.5877862595419847,-1.3206106870229009
3803825828807,11.034868589,1,0.20470424194335937,1.697488977050781,-11.17852755126953,-0.8625954198473282,0.5572519083969466,-1.3206106870229009
3803845829849,11.054869631,1,0.20829554443359374,1.7286135986328124,-11.190498559570312,-0.8702290076335878,0.5877862595419847,-1.3129770992366412
3803865828130,11.074867912,1,0.23343466186523437,1.7310078002929687,-11.195286962890624,-0.8396946564885496,0.5648854961832062,-1.3358778625954197
3803885847766,11.094887548,1,0.22385785522460935,1.7393875061035156,-11.177330450439452,-0.7862595419847328,0.6030534351145038,-1.3206106870229009
3803905834380,11.114874162,1,0.24899697265624998,1.7298106994628906,-11.213243475341796,-0.8244274809160306,0.5572519083969466,-1.3282442748091603
3803925830786,11.134870568,1,0.20949264526367187,1.7561469177246092,-11.162965240478515,-0.8702290076335878,0.6183206106870229,-1.3358778625954197
3803945828443,11.154868225,1,0.20829554443359374,1.725022296142578,-11.200075366210937,-0.8320610687022901,0.5648854961832062,-1.3282442748091603
3803965824849,11.174864631,1,0.20470424194335937,1.7477672119140624,-11.219228979492186,-0.8473282442748091,0.5801526717557252,-1.297709923664122
3803985829120,11.194868902,1,0.23104046020507812,1.753752716064453,-11.220426080322264,-0.7938931297709924,0.5801526717557252,-1.3206106870229009
3804005837141,11.214876923,1,0.21308394775390624,1.715445489501953,-11.152191333007812,-0.8396946564885496,0.5572519083969466,-1.3206106870229009
3804025830786,11.234870568,1,0.22744915771484372,1.7226280944824217,-11.19887826538086,-0.8473282442748091,0.6106870229007634,-1.3053435114503817
3804045830161,11.254869943,1,0.24181436767578124,1.7214309936523438,-11.207257971191405,-0.8015267175572519,0.6030534351145038,-1.3129770992366412
3804065828026,11.274867808,1,0.21308394775390624,1.7417817077636717,-11.23000288696289,-0.8015267175572519,0.5648854961832062,-1.3206106870229009
3804085829120,11.294868902,1,0.21428104858398436,1.7190367919921874,-11.225214483642578,-0.8396946564885496,0.5877862595419847,-1.282442748091603
3804105829484,11.314869266,1,0.22385785522460935,1.7429788085937499,-11.189301458740234,-0.8931297709923665,0.5801526717557252,-1.3129770992366412
3804125826724,11.334866506,1,0.19991583862304688,1.7369933044433592,-11.164162341308593,-0.8396946564885496,0.5572519083969466,-1.3282442748091603
3804145830318,11.3548701,1,0.2154781494140625,1.744175909423828,-11.204863769531249,-0.8396946564885496,0.5419847328244275,-1.3053435114503817
3804165828599,11.374868381,1,0.21428104858398436,1.7477672119140624,-11.173739147949219,-0.8396946564885496,0.5572519083969466,-1.2748091603053435
3804185828963,11.394868745,1,0.2442085693359375,1.734599102783203,-11.201272467041015,-0.8320610687022901,0.5343511450381679,-1.3053435114503817
3804205829797,11.414869579,1,0.24061726684570311,1.7214309936523438,-11.164162341308593,-0.8625954198473282,0.5801526717557252,-1.282442748091603
3804225825370,11.434865152,1,0.23223756103515625,1.7513585144042967,-11.192892761230468,-0.8320610687022901,0.5725190839694656,-1.3129770992366412
3804245829068,11.45486885,1,0.21906945190429686,1.7357962036132812,-11.183315954589844,-0.8702290076335878,0.5648854961832062,-1.3206106870229009
3804265827922,11.474867704,1,0.2346317626953125,1.705868682861328,-11.177330450439452,-0.8473282442748091,0.6106870229007634,-1.3206106870229009
3804285830265,11.494870047,1,0.20470424194335937,1.7262193969726563,-11.204863769531249,-0.8091603053435115,0.5343511450381679,-1.3282442748091603
3804305828234,11.514868016,1,0.22744915771484372,1.7238251953125,-11.203666668701171,-0.816793893129771,0.6183206106870229,-1.297709923664122
3804325829588,11.53486937,1,0.201112939453125,1.7417817077636717,-11.184513055419922,-0.8396946564885496,0.5954198473282443,-1.3511450381679388
3804345828651,11.554868433,1,0.24181436767578124,1.7262193969726563,-11.171344946289063,-0.8320610687022901,0.5572519083969466,-1.3282442748091603
3804365828911,11.574868693,1,0.2166752502441406,1.7286135986328124,-11.207257971191405,-0.8549618320610687,0.5954198473282443,-1.3282442748091603
3804385827922,11.594867704,1,0.2346317626953125,1.7226280944824217,-11.174936248779296,-0.8396946564885496,0.5954198473282443,-1.3206106870229009
3804405829953,11.614869735,1,0.22505495605468748,1.7262193969726563,-11.21683477783203,-0.816793893129771,0.6106870229007634,-1.3587786259541985
3804425827922,11.634867704,1,0.21308394775390624,1.734599102783203,-11.18571015625,-0.8549618320610687,0.6106870229007634,-1.3053435114503817
3804445828495,11.654868277,1,0.20709844360351562,1.7082628845214842,-11.21683477783203,-0.8320610687022901,0.549618320610687,-1.3587786259541985
3804465829849,11.674869631,1,0.23822306518554687,1.7190367919921874,-11.18571015625,-0.8778625954198473,0.5648854961832062,-1.3206106870229009
3804485830682,11.694870464,1,0.2166752502441406,1.7262193969726563,-11.150994232177734,-0.8320610687022901,0.6183206106870229,-1.3206106870229009
3804505829692,11.714869474,1,0.23702596435546874,1.7178396911621092,-11.202469567871093,-0.8625954198473282,0.5725190839694656,-1.2900763358778626
3804525828859,11.734868641,1,0.24061726684570311,1.7417817077636717,-11.184513055419922,-0.8473282442748091,0.5954198473282443,-1.297709923664122
3804545828026,11.754867808,1,0.23702596435546874,1.715445489501953,-11.177330450439452,-0.8244274809160306,0.5801526717557252,-1.2748091603053435
3804565828390,11.774868172,1,0.24660277099609373,1.7238251953125,-11.179724652099608,-0.8015267175572519,0.5801526717557252,-1.3206106870229009
3804585828338,11.79486812,1,0.21428104858398436,1.7334020019531249,-11.197681164550781,-0.8244274809160306,0.5572519083969466,-1.3358778625954197
3804605829015,11.814868797,1,0.23223756103515625,1.7202338928222656,-11.227608685302734,-0.8625954198473282,0.5877862595419847,-1.297709923664122
3804625829849,11.834869631,1,0.25258827514648435,1.7214309936523438,-11.173739147949219,-0.8549618320610687,0.5725190839694656,-1.3129770992366412
3804645830369,11.854870151,1,0.22505495605468748,1.7573440185546874,-11.21683477783203,-0.8320610687022901,0.5801526717557252,-1.3587786259541985
3804665829067,11.874868849,1,0.22266075439453123,1.7381904052734374,-11.188104357910156,-0.8625954198473282,0.5725190839694656,-1.3206106870229009
3804685828547,11.894868329,1,0.24181436767578124,1.6903063720703124,-11.174936248779296,-0.8244274809160306,0.5877862595419847,-1.3129770992366412
3804705831099,11.914870881,1,0.21906945190429686,1.714248388671875,-11.179724652099608,-0.8320610687022901,0.6259541984732825,-1.3129770992366412
3804725829328,11.93486911,1,0.2262520568847656,1.7166425903320313,-11.206060870361327,-0.8015267175572519,0.5572519083969466,-1.3206106870229009
3804745830213,11.954869995,1,0.20949264526367187,1.714248388671875,-11.19169566040039,-0.8320610687022901,0.5343511450381679,-1.3282442748091603
3804765829640,11.974869422,1,0.22026655273437498,1.7286135986328124,-11.215637677001952,-0.8091603053435115,0.549618320610687,-1.2595419847328244
3804785828911,11.994868693,1,0.21787235107421873,1.7214309936523438,-11.18571015625,-0.8625954198473282,0.5877862595419847,-1.2900763358778626
3804805871203,12.014910985,1,0.2214636535644531,1.7334020019531249,-11.195286962890624,-0.8320610687022901,0.5343511450381679,-1.2900763358778626
3804825830474,12.034870256,1,0.21188684692382811,1.7549498168945312,-11.188104357910156,-0.8625954198473282,0.5190839694656488,-1.282442748091603
3804845828390,12.054868172,1,0.24779987182617186,1.7405846069335937,-11.158176837158203,-0.8015267175572519,0.5725190839694656,-1.3282442748091603
3804865829588,12.07486937,1,0.21906945190429686,1.7405846069335937,-11.186907257080078,-0.816793893129771,0.5954198473282443,-1.2900763358778626
3804885828286,12.094868068,1,0.229843359375,1.7405846069335937,-11.170147845458983,-0.8091603053435115,0.5877862595419847,-1.3206106870229009
3804905881046,12.114920828,1,0.2501940734863281,1.6927005737304686,-11.207257971191405,-0.8320610687022901,0.5801526717557252,-1.2900763358778626
3804925830942,12.134870724,1,0.2262520568847656,1.725022296142578,-11.196484063720703,-0.8778625954198473,0.549618320610687,-1.3206106870229009
3804945828234,12.154868016,1,0.21308394775390624,1.7645266235351562,-11.207257971191405,-0.8244274809160306,0.549618320610687,-1.3282442748091603
3804965830734,12.174870516,1,0.22266075439453123,1.725022296142578,-11.209652172851563,-0.8244274809160306,0.5343511450381679,-1.297709923664122
3804985829953,12.194869735,1,0.23822306518554687,1.734599102783203,-11.183315954589844,-0.8244274809160306,0.5801526717557252,-1.3129770992366412
3805005831255,12.214871037,1,0.23343466186523437,1.7405846069335937,-11.17254204711914,-0.816793893129771,0.6030534351145038,-1.3435114503816794
3805025830890,12.234870672,1,0.2346317626953125,1.7381904052734374,-11.18571015625,-0.7938931297709924,0.5572519083969466,-1.3129770992366412
3805045830630,12.254870412,1,0.25258827514648435,1.7262193969726563,-11.14022032470703,-0.8625954198473282,0.5572519083969466,-1.366412213740458
3805065827974,12.274867756,1,0.2442085693359375,1.7585411193847655,-11.200075366210937,-0.816793893129771,0.5648854961832062,-1.3053435114503817
3805085827557,12.294867339,1,0.19153613281249998,1.7202338928222656,-11.194089862060546,-0.7938931297709924,0.5725190839694656,-1.3206106870229009
3805105829432,12.314869214,1,0.20470424194335937,1.744175909423828,-11.197681164550781,-0.816793893129771,0.5801526717557252,-1.282442748091603
3805125829692,12.334869474,1,0.23343466186523437,1.7525556152343749,-11.197681164550781,-0.8091603053435115,0.5877862595419847,-1.3358778625954197
3805145830265,12.354870047,1,0.20829554443359374,1.734599102783203,-11.164162341308593,-0.7786259541984732,0.549618320610687,-1.3206106870229009
3805165849276,12.374889058,1,0.24181436767578124,1.7513585144042967,-11.195286962890624,-0.8702290076335878,0.549618320610687,-1.3206106870229009
3805185836203,12.394875985,1,0.25139117431640623,1.7106570861816406,-11.2240173828125,-0.8702290076335878,0.6030534351145038,-1.3206106870229009
3805205829744,12.414869526,1,0.22505495605468748,1.7286135986328124,-11.203666668701171,-0.7938931297709924,0.6030534351145038,-1.282442748091603
3805225830109,12.434869891,1,0.2346317626953125,1.7286135986328124,-11.225214483642578,-0.8396946564885496,0.5725190839694656,-1.3358778625954197
3805245825369,12.454865151,1,0.22385785522460935,1.7369933044433592,-11.213243475341796,-0.8320610687022901,0.5877862595419847,-1.3129770992366412
3805265830578,12.47487036,1,0.23702596435546874,1.7262193969726563,-11.173739147949219,-0.8244274809160306,0.5725190839694656,-1.2900763358778626
3805285828807,12.494868589,1,0.23104046020507812,1.7393875061035156,-11.161768139648437,-0.7938931297709924,0.5190839694656488,-1.3053435114503817
3805305828442,12.514868224,1,0.22744915771484372,1.7202338928222656,-11.192892761230468,-0.816793893129771,0.5725190839694656,-1.3587786259541985
3805325830734,12.534870516,1,0.2262520568847656,1.7357962036132812,-11.197681164550781,-0.8244274809160306,0.6030534351145038,-1.3053435114503817
3805345826932,12.554866714,1,0.22026655273437498,1.7190367919921874,-11.196484063720703,-0.816793893129771,0.5572519083969466,-1.282442748091603
3805365829275,12.574869057,1,0.201112939453125,1.7381904052734374,-11.196484063720703,-0.8244274809160306,0.5877862595419847,-1.297709923664122
3805385830109,12.594869891,1,0.23104046020507812,1.7489643127441405,-11.203666668701171,-0.8396946564885496,0.5572519083969466,-1.3053435114503817
3805405829744,12.614869526,1,0.21787235107421873,1.7178396911621092,-11.232397088623046,-0.8320610687022901,0.5648854961832062,-1.3358778625954197
3805425829015,12.634868797,1,0.2166752502441406,1.7489643127441405,-11.176133349609374,-0.7786259541984732,0.5877862595419847,-1.3282442748091603
3805445828703,12.654868485,1,0.21308394775390624,1.734599102783203,-11.186907257080078,-0.8549618320610687,0.5801526717557252,-1.282442748091603
3805465825786,12.674865568,1,0.21906945190429686,1.7274164978027342,-11.214440576171874,-0.8549618320610687,0.5954198473282443,-1.3206106870229009
3805485831671,12.694871453,1,0.23702596435546874,1.7274164978027342,-11.189301458740234,-0.8320610687022901,0.5648854961832062,-1.3206106870229009
3805505830213,12.714869995,1,0.23343466186523437,1.7381904052734374,-11.183315954589844,-0.8778625954198473,0.5877862595419847,-1.2748091603053435
3805525830890,12.734870672,1,0.22505495605468748,1.744175909423828,-11.184513055419922,-0.8549618320610687,0.5877862595419847,-1.3358778625954197
3805545828963,12.754868745,1,0.26216508178710934,1.7585411193847655,-11.183315954589844,-0.816793893129771,0.6106870229007634,-1.3129770992366412
3805565829171,12.774868953,1,0.22385785522460935,1.7262193969726563,-11.149797131347656,-0.8091603053435115,0.5801526717557252,-1.3206106870229009
3805585826984,12.794866766,1,0.22505495605468748,1.7310078002929687,-11.16057103881836,-0.8396946564885496,0.5801526717557252,-1.3206106870229009
3805605827713,12.814867495,1,0.239420166015625,1.7298106994628906,-11.192892761230468,-0.8320610687022901,0.6030534351145038,-1.3206106870229009
3805625828755,12.834868537,1,0.2262520568847656,1.7417817077636717,-11.189301458740234,-0.8396946564885496,0.5877862595419847,-1.3282442748091603
3805645829275,12.854869057,1,0.25139117431640623,1.7465701110839842,-11.196484063720703,-0.8320610687022901,0.5954198473282443,-1.3129770992366412
3805665826255,12.874866037,1,0.21188684692382811,1.714248388671875,-11.19169566040039,-0.8549618320610687,0.5801526717557252,-1.3206106870229009
3805685829848,12.89486963,1,0.2154781494140625,1.7381904052734374,-11.192892761230468,-0.8549618320610687,0.5954198473282443,-1.3129770992366412
3805705828755,12.914868537,1,0.25258827514648435,1.7453730102539062,-11.219228979492186,-0.8244274809160306,0.5572519083969466,-1.3587786259541985
3805725828494,12.934868276,1,0.22864625854492185,1.7130512878417967,-11.19169566040039,-0.8396946564885496,0.6030534351145038,-1.3053435114503817
3805745830109,12.954869891,1,0.22266075439453123,1.7369933044433592,-11.188104357910156,-0.8244274809160306,0.6030534351145038,-1.3282442748091603
3805765830786,12.974870568,1,0.2154781494140625,1.7381904052734374,-11.208455072021483,-0.816793893129771,0.5877862595419847,-1.3129770992366412
3805785839067,12.994878849,1,0.2262520568847656,1.7238251953125,-11.186907257080078,-0.7938931297709924,0.5877862595419847,-1.2900763358778626
3805805881359,13.014921141,1,0.21428104858398436,1.7381904052734374,-11.180921752929686,-0.8702290076335878,0.5648854961832062,-1.3358778625954197
3805825837557,13.034877339,1,0.2154781494140625,1.7202338928222656,-11.189301458740234,-0.8473282442748091,0.5725190839694656,-1.297709923664122
3805845832036,13.054871818,1,0.2154781494140625,1.7094599853515624,-11.225214483642578,-0.8625954198473282,0.5648854961832062,-1.297709923664122
3805865829379,13.074869161,1,0.239420166015625,1.7417817077636717,-11.200075366210937,-0.8091603053435115,0.5725190839694656,-1.297709923664122
3805885828598,13.09486838,1,0.22744915771484372,1.7238251953125,-11.17254204711914,-0.8473282442748091,0.6106870229007634,-1.297709923664122
3805905827817,13.114867599,1,0.22864625854492185,1.7465701110839842,-11.201272467041015,-0.8625954198473282,0.5877862595419847,-1.3129770992366412
3805925878754,13.134918536,1,0.21308394775390624,1.7274164978027342,-11.218031878662108,-0.8244274809160306,0.5725190839694656,-1.3129770992366412
3805945828754,13.154868536,1,0.21787235107421873,1.7262193969726563,-11.201272467041015,-0.8854961832061069,0.5572519083969466,-1.297709923664122
3805965828859,13.174868641,1,0.20709844360351562,1.7262193969726563,-11.161768139648437,-0.8320610687022901,0.5572519083969466,-1.3511450381679388
3805985829796,13.194869578,1,0.23223756103515625,1.7585411193847655,-11.218031878662108,-0.8396946564885496,0.5648854961832062,-1.3129770992366412
3806005827556,13.214867338,1,0.20231004028320312,1.7238251953125,-11.19887826538086,-0.816793893129771,0.5877862595419847,-1.3358778625954197
3806025834952,13.234874734,1,0.22505495605468748,1.7238251953125,-11.228805786132812,-0.8244274809160306,0.5572519083969466,-1.366412213740458
3806045830473,13.254870255,1,0.2214636535644531,1.7417817077636717,-11.17852755126953,-0.8702290076335878,0.5954198473282443,-1.3053435114503817
3806065830994,13.274870776,1,0.23104046020507812,1.7286135986328124,-11.218031878662108,-0.8473282442748091,0.5801526717557252,-1.3053435114503817
3806085829431,13.294869213,1,0.23582886352539062,1.7262193969726563,-11.209652172851563,-0.8702290076335878,0.5725190839694656,-1.3358778625954197
3806105828077,13.314867859,1,0.22026655273437498,1.715445489501953,-11.188104357910156,-0.7862595419847328,0.5267175572519084,-1.3511450381679388
3806125828390,13.334868172,1,0.21188684692382811,1.7369933044433592,-11.162965240478515,-0.8320610687022901,0.5801526717557252,-1.297709923664122
3806145828181,13.354867963,1,0.23223756103515625,1.7357962036132812,-11.164162341308593,-0.816793893129771,0.5877862595419847,-1.3129770992366412
3806165827921,13.374867703,1,0.2214636535644531,1.7238251953125,-11.204863769531249,-0.8473282442748091,0.5648854961832062,-1.3587786259541985
3806185828442,13.394868224,1,0.22266075439453123,1.7322049011230467,-11.203666668701171,-0.7862595419847328,0.5267175572519084,-1.3282442748091603
3806205828546,13.414868328,1,0.24301146850585936,1.7274164978027342,-11.189301458740234,-0.8549618320610687,0.5572519083969466,-1.3282442748091603
3806225830994,13.434870776,1,0.2454056701660156,1.734599102783203,-11.189301458740234,-0.8244274809160306,0.5419847328244275,-1.282442748091603
3806245832400,13.454872182,1,0.22744915771484372,1.7118541870117185,-11.192892761230468,-0.8625954198473282,0.549618320610687,-1.3206106870229009
3806265828858,13.47486864,1,0.21068974609375,1.7238251953125,-11.206060870361327,-0.7938931297709924,0.5190839694656488,-1.2900763358778626
3806285830838,13.49487062,1,0.22505495605468748,1.7298106994628906,-11.206060870361327,-0.8320610687022901,0.5954198473282443,-1.3358778625954197
3806305829640,13.514869422,1,0.2214636535644531,1.7286135986328124,-11.206060870361327,-0.8396946564885496,0.5343511450381679,-1.3435114503816794
3806325829327,13.534869109,1,0.19991583862304688,1.715445489501953,-11.164162341308593,-0.8778625954198473,0.549618320610687,-1.3129770992366412
3806345828233,13.554868015,1,0.21068974609375,1.7393875061035156,-11.173739147949219,-0.8396946564885496,0.5419847328244275,-1.297709923664122
3806365829848,13.57486963,1,0.2214636535644531,1.7525556152343749,-11.146205828857422,-0.8091603053435115,0.5877862595419847,-1.3206106870229009
3806385828129,13.594867911,1,0.24301146850585936,1.7214309936523438,-11.174936248779296,-0.7938931297709924,0.5572519083969466,-1.297709923664122
3806405828442,13.614868224,1,0.21308394775390624,1.763329522705078,-11.183315954589844,-0.7786259541984732,0.5877862595419847,-1.3053435114503817
3806425829171,13.634868953,1,0.25258827514648435,1.7477672119140624,-11.190498559570312,-0.8396946564885496,0.549618320610687,-1.3206106870229009
3806445830213,13.654869995,1,0.24061726684570311,1.7298106994628906,-11.052831964111327,-0.8473282442748091,0.6030534351145038,-1.3129770992366412
3806465831671,13.674871453,1,0.2154781494140625,1.7369933044433592,-11.209652172851563,-0.7862595419847328,0.5725190839694656,-1.3587786259541985
3806485830733,13.694870515,1,0.2154781494140625,1.707065783691406,-11.192892761230468,-0.8320610687022901,0.5725190839694656,-1.297709923664122
3806505828546,13.714868328,1,0.2597708801269531,1.7178396911621092,-11.188104357910156,-0.8396946564885496,0.549618320610687,-1.3053435114503817
3806525827504,13.734867286,1,0.22505495605468748,1.7286135986328124,-11.195286962890624,-0.8091603053435115,0.5725190839694656,-1.3282442748091603
3806545830577,13.754870359,1,0.21906945190429686,1.7274164978027342,-11.337741961669922,-0.8396946564885496,0.6259541984732825,-1.3435114503816794
3806565829952,13.774869734,1,0.22864625854492185,1.753752716064453,-11.040860955810546,-0.8320610687022901,0.5954198473282443,-1.297709923664122
3806585828077,13.794867859,1,0.24301146850585936,1.7357962036132812,-11.305420239257812,-0.8473282442748091,0.6183206106870229,-1.3053435114503817
3806605829692,13.814869474,1,0.2454056701660156,1.705868682861328,-11.05762036743164,-0.8320610687022901,0.549618320610687,-1.3053435114503817
3806625829744,13.834869526,1,0.22744915771484372,1.753752716064453,-11.200075366210937,-0.7938931297709924,0.549618320610687,-1.3129770992366412
3806645871983,13.854911765,1,0.25737667846679685,1.7262193969726563,-11.183315954589844,-0.8320610687022901,0.6030534351145038,-1.3206106870229009
3806665830577,13.874870359,1,0.21906945190429686,1.7190367919921874,-11.174936248779296,-0.8473282442748091,0.5877862595419847,-1.3358778625954197
3806685829744,13.894869526,1,0.229843359375,1.7286135986328124,-11.218031878662108,-0.8625954198473282,0.5572519083969466,-1.282442748091603
3806705827192,13.914866974,1,0.258573779296875,1.744175909423828,-11.201272467041015,-0.8854961832061069,0.6106870229007634,-1.3129770992366412
3806725831306,13.934871088,1,0.24779987182617186,1.7405846069335937,-11.182118853759764,-0.8625954198473282,0.6030534351145038,-1.282442748091603
3806745828858,13.95486864,1,0.24061726684570311,1.7369933044433592,-11.184513055419922,-0.8320610687022901,0.5954198473282443,-1.3511450381679388
3806765833129,13.974872911,1,0.229843359375,1.7453730102539062,-11.186907257080078,-0.7709923664122137,0.5725190839694656,-1.3129770992366412
3806785831410,13.994871192,1,0.23822306518554687,1.7262193969726563,-11.179724652099608,-0.8473282442748091,0.5801526717557252,-1.3053435114503817
3806805830004,14.014869786,1,0.1975216369628906,1.7334020019531249,-11.183315954589844,-0.8320610687022901,0.5801526717557252,-1.3282442748091603
3806825828494,14.034868276,1,0.24301146850585936,1.7238251953125,-11.21683477783203,-0.8396946564885496,0.5648854961832062,-1.3282442748091603
3806845830889,14.054870671,1,0.2454056701660156,1.7202338928222656,-11.195286962890624,-0.7633587786259542,0.5725190839694656,-1.297709923664122
3806865830160,14.074869942,1,0.22864625854492185,1.7202338928222656,-11.2240173828125,-0.8320610687022901,0.5343511450381679,-1.3511450381679388
3806885828442,14.094868224,1,0.2262520568847656,1.7226280944824217,-11.225214483642578,-0.8396946564885496,0.5572519083969466,-1.3358778625954197
3806905834535,14.114874317,1,0.20829554443359374,1.7178396911621092,-11.182118853759764,-0.8244274809160306,0.5877862595419847,-1.3511450381679388
3806925831098,14.13487088,1,0.22385785522460935,1.7429788085937499,-11.194089862060546,-0.8396946564885496,0.6030534351145038,-1.3053435114503817
3806945828702,14.154868484,1,0.2262520568847656,1.7405846069335937,-11.194089862060546,-0.816793893129771,0.6183206106870229,-1.2748091603053435
3806965831983,14.174871765,1,0.2442085693359375,1.7226280944824217,-11.196484063720703,-0.8778625954198473,0.5954198473282443,-1.3206106870229009
3806985830160,14.194869942,1,0.24779987182617186,1.734599102783203,-11.15338843383789,-0.8396946564885496,0.5877862595419847,-1.2900763358778626
3807005829796,14.214869578,1,0.23702596435546874,1.734599102783203,-11.226411584472656,-0.8549618320610687,0.5572519083969466,-1.297709923664122
3807025828077,14.234867859,1,0.2501940734863281,1.7118541870117185,-11.180921752929686,-0.8396946564885496,0.5648854961832062,-1.3282442748091603
3807045830056,14.254869838,1,0.21906945190429686,1.7381904052734374,-11.170147845458983,-0.8702290076335878,0.5648854961832062,-1.3129770992366412
3807065830369,14.274870151,1,0.2166752502441406,1.7274164978027342,-11.221623181152344,-0.8320610687022901,0.5190839694656488,-1.3206106870229009
3807085834066,14.294873848,1,0.2262520568847656,1.7190367919921874,-11.200075366210937,-0.8778625954198473,0.5877862595419847,-1.297709923664122
3807105828441,14.314868223,1,0.23822306518554687,1.7334020019531249,-11.212046374511718,-0.8091603053435115,0.5725190839694656,-1.3282442748091603
3807125829744,14.334869526,1,0.2154781494140625,1.7286135986328124,-11.203666668701171,-0.816793893129771,0.5954198473282443,-1.3053435114503817
3807145828494,14.354868276,1,0.2537853759765625,1.725022296142578,-11.192892761230468,-0.8320610687022901,0.549618320610687,-1.3358778625954197
3807165830160,14.374869942,1,0.2214636535644531,1.7298106994628906,-11.18571015625,-0.8091603053435115,0.5419847328244275,-1.3282442748091603
3807185828441,14.394868223,1,0.22266075439453123,1.7226280944824217,-11.180921752929686,-0.8549618320610687,0.5801526717557252,-1.3206106870229009
3807205829639,14.414869421,1,0.20949264526367187,1.7477672119140624,-11.189301458740234,-0.8702290076335878,0.5801526717557252,-1.3282442748091603
3807225828910,14.434868692,1,0.23104046020507812,1.7082628845214842,-11.173739147949219,-0.8549618320610687,0.5648854961832062,-1.3053435114503817
3807245829275,14.454869057,1,0.24181436767578124,1.7298106994628906,-11.186907257080078,-0.8473282442748091,0.5572519083969466,-1.2748091603053435
3807265829796,14.474869578,1,0.23582886352539062,1.7417817077636717,-11.218031878662108,-0.8320610687022901,0.5954198473282443,-1.3282442748091603
3807285829171,14.494868953,1,0.2214636535644531,1.7322049011230467,-11.21084927368164,-0.8473282442748091,0.5877862595419847,-1.3053435114503817
3807305830889,14.514870671,1,0.2346317626953125,1.7381904052734374,-11.17254204711914,-0.8015267175572519,0.5648854961832062,-1.297709923664122
3807325830421,14.534870203,1,0.24660277099609373,1.7334020019531249,-11.188104357910156,-0.8473282442748091,0.6106870229007634,-1.3282442748091603
3807345828650,14.554868432,1,0.229843359375,1.725022296142578,-11.220426080322264,-0.8625954198473282,0.5954198473282443,-1.366412213740458
3807365830733,14.574870515,1,0.22505495605468748,1.6938976745605467,-11.213243475341796,-0.8473282442748091,0.5801526717557252,-1.3511450381679388
3807385829275,14.594869057,1,0.22266075439453123,1.7238251953125,-11.219228979492186,-0.8320610687022901,0.5648854961832062,-1.3129770992366412
3807405828910,14.614868692,1,0.22744915771484372,1.7238251953125,-11.161768139648437,-0.7862595419847328,0.6030534351145038,-1.3129770992366412
3807425828181,14.634867963,1,0.23223756103515625,1.7369933044433592,-11.208455072021483,-0.8091603053435115,0.6030534351145038,-1.3053435114503817
3807445829275,14.654869057,1,0.21188684692382811,1.7262193969726563,-11.222820281982422,-0.8091603053435115,0.6259541984732825,-1.3282442748091603
3807465872348,14.67491213,1,0.229843359375,1.715445489501953,-11.2240173828125,-0.8473282442748091,0.5267175572519084,-1.297709923664122
3807485827139,14.694866921,1,0.19871873779296872,1.7393875061035156,-11.213243475341796,-0.816793893129771,0.5725190839694656,-1.3129770992366412
3807505830681,14.714870463,1,0.18555062866210936,1.7214309936523438,-11.203666668701171,-0.8244274809160306,0.5954198473282443,-1.3435114503816794
3807525828181,14.734867963,1,0.22505495605468748,1.734599102783203,-11.214440576171874,-0.8396946564885496,0.5954198473282443,-1.297709923664122
3807545829691,14.754869473,1,0.20829554443359374,1.7369933044433592,-11.145008728027342,-0.8244274809160306,0.6106870229007634,-1.297709923664122
3807565831254,14.774871036,1,0.2154781494140625,1.7226280944824217,-11.182118853759764,-0.8244274809160306,0.5572519083969466,-1.3282442748091603
3807585830733,14.794870515,1,0.2262520568847656,1.7238251953125,-11.170147845458983,-0.8473282442748091,0.5725190839694656,-1.2671755725190839
3807605830420,14.814870202,1,0.23582886352539062,1.7417817077636717,-11.190498559570312,-0.8320610687022901,0.5725190839694656,-1.3358778625954197
3807625830056,14.834869838,1,0.2609679809570312,1.7357962036132812,-11.23718549194336,-0.8625954198473282,0.5954198473282443,-1.3282442748091603
3807645829587,14.854869369,1,0.23582886352539062,1.7609353210449217,-11.154585534667968,-0.8244274809160306,0.5801526717557252,-1.3282442748091603
3807665828702,14.874868484,1,0.23343466186523437,1.7429788085937499,-11.176133349609374,-0.8549618320610687,0.5267175572519084,-1.3129770992366412
3807685830629,14.894870411,1,0.2166752502441406,1.7298106994628906,-11.190498559570312,-0.8320610687022901,0.5801526717557252,-1.3282442748091603
3807705829118,14.9148689,1,0.24301146850585936,1.725022296142578,-11.21084927368164,-0.8091603053435115,0.5343511450381679,-1.3129770992366412
3807725830577,14.934870359,1,0.2454056701660156,1.725022296142578,-11.162965240478515,-0.8549618320610687,0.6106870229007634,-1.3053435114503817
3807745828597,14.954868379,1,0.22385785522460935,1.7417817077636717,-11.171344946289063,-0.8091603053435115,0.6106870229007634,-1.3053435114503817
3807765829014,14.974868796,1,0.23104046020507812,1.7298106994628906,-11.173739147949219,-0.8320610687022901,0.5954198473282443,-1.282442748091603
3807785832035,14.994871817,1,0.2561795776367187,1.7286135986328124,-11.165359442138671,-0.8320610687022901,0.5801526717557252,-1.297709923664122
3807805828129,15.014867911,1,0.21068974609375,1.7226280944824217,-11.218031878662108,-0.8702290076335878,0.5725190839694656,-1.3129770992366412
3807825830629,15.034870411,1,0.21308394775390624,1.7417817077636717,-11.176133349609374,-0.8015267175572519,0.5648854961832062,-1.3129770992366412
3807845830472,15.054870254,1,0.23702596435546874,1.7465701110839842,-11.170147845458983,-0.8473282442748091,0.549618320610687,-1.3129770992366412
