timestamp_ns,t_s,sensor_id,ax,ay,az
3493627288196,0.061488177,1,0.19512743530273435,1.7226280944824217,-11.159373937988281
3493633913405,0.068113386,1,0.229843359375,1.7549498168945312,-11.200075366210937
3493640578926,0.074778907,1,0.22744915771484372,1.7417817077636717,-11.221623181152344
3493647250488,0.081450469,1,0.24660277099609373,1.7118541870117185,-11.204863769531249
3493653908769,0.08810875,1,0.21906945190429686,1.7286135986328124,-11.189301458740234
3493660575488,0.094775469,1,0.1975216369628906,1.7357962036132812,-11.212046374511718
3493667241894,0.101441875,1,0.23104046020507812,1.7381904052734374,-11.231199987792968
3493673908301,0.108108282,1,0.24660277099609373,1.7573440185546874,-11.209652172851563
3493680574863,0.114774844,1,0.23223756103515625,1.7465701110839842,-11.203666668701171
3493687240801,0.121440782,1,0.23223756103515625,1.7393875061035156,-11.220426080322264
3493693906582,0.128106563,1,0.2262520568847656,1.7393875061035156,-11.182118853759764
3493700574759,0.13477474,1,0.229843359375,1.7034744812011717,-11.182118853759764
3493707241165,0.141441146,1,0.23702596435546874,1.7465701110839842,-11.209652172851563
3493713907884,0.148107865,1,0.2609679809570312,1.7286135986328124,-11.221623181152344
3493720574863,0.154774844,1,0.23822306518554687,1.7274164978027342,-11.188104357910156
3493727239811,0.161439792,1,0.22505495605468748,1.70467158203125,-11.174936248779296
3493733908561,0.168108542,1,0.23104046020507812,1.7238251953125,-11.188104357910156
3493740575019,0.174775,1,0.23582886352539062,1.7429788085937499,-11.18571015625
3493747241113,0.181441094,1,0.239420166015625,1.7166425903320313,-11.203666668701171
3493753907676,0.188107657,1,0.239420166015625,1.7202338928222656,-11.206060870361327
3493760574915,0.194774896,1,0.24061726684570311,1.7166425903320313,-11.190498559570312
3493767241165,0.201441146,1,0.2262520568847656,1.7369933044433592,-11.213243475341796
3493773907728,0.208107709,1,0.21906945190429686,1.7094599853515624,-11.188104357910156
3493780575384,0.214775365,1,0.20709844360351562,1.7585411193847655,-11.142614526367186
3493787240801,0.221440782,1,0.23223756103515625,1.7130512878417967,-11.206060870361327
3493793907519,0.2281075,1,0.2262520568847656,1.7118541870117185,-11.177330450439452
3493800574551,0.234774532,1,0.2346317626953125,1.715445489501953,-11.19169566040039
3493807240853,0.241440834,1,0.22266075439453123,1.7190367919921874,-11.21084927368164
3493813907259,0.24810724,1,0.22266075439453123,1.7322049011230467,-11.182118853759764
3493820573926,0.254773907,1,0.2454056701660156,1.7393875061035156,-11.201272467041015
3493827241426,0.261441407,1,0.24779987182617186,1.714248388671875,-11.15338843383789
3493833908092,0.268108073,1,0.24779987182617186,1.7298106994628906,-11.170147845458983
3493840574030,0.274774011,1,0.22266075439453123,1.7298106994628906,-11.052831964111327
3493847241113,0.281441094,1,0.23223756103515625,1.7369933044433592,-11.206060870361327
3493853907311,0.288107292,1,0.24181436767578124,1.7501614135742187,-11.186907257080078
3493860573301,0.294773282,1,0.2346317626953125,1.7369933044433592,-11.232397088623046
3493867240748,0.301440729,1,0.20470424194335937,1.7082628845214842,-11.173739147949219
3493873910280,0.308110261,1,0.24061726684570311,1.7226280944824217,-11.152191333007812
3493880574238,0.314774219,1,0.22505495605468748,1.7453730102539062,-11.177330450439452
3493887240748,0.321440729,1,0.2346317626953125,1.7381904052734374,-11.204863769531249
3493893907571,0.328107552,1,0.22505495605468748,1.7214309936523438,-11.183315954589844
3493900575019,0.334775,1,0.2154781494140625,1.7238251953125,-11.162965240478515
3493907241790,0.341441771,1,0.2059013427734375,1.7405846069335937,-11.203666668701171
3493913907676,0.348107657,1,0.21188684692382811,1.7286135986328124,-11.18571015625
3493920574446,0.354774427,1,0.2154781494140625,1.734599102783203,-11.195286962890624
3493927241061,0.361441042,1,0.21428104858398436,1.7369933044433592,-11.200075366210937
3493933907467,0.368107448,1,0.22026655273437498,1.7262193969726563,-11.192892761230468
3493940573821,0.374773802,1,0.23822306518554687,1.7429788085937499,-11.174936248779296
3493947240540,0.381440521,1,0.22744915771484372,1.7381904052734374,-11.168950744628905
3493953910696,0.388110677,1,0.21188684692382811,1.7381904052734374,-11.171344946289063
3493960574551,0.394774532,1,0.21068974609375,1.7477672119140624,-11.189301458740234
3493967241582,0.401441563,1,0.20949264526367187,1.7417817077636717,-11.190498559570312
3493973908926,0.408108907,1,0.20949264526367187,1.7238251953125,-11.19887826538086
3493980575019,0.414775,1,0.23582886352539062,1.7238251953125,-11.19887826538086
3493987241113,0.421441094,1,0.23582886352539062,1.7501614135742187,-11.19887826538086
3493993907780,0.428107761,1,0.19393033447265623,1.7178396911621092,-11.156979736328124
3494000719238,0.434919219,1,0.20350714111328125,1.7334020019531249,-11.176133349609374
3494007237103,0.441437084,1,0.2454056701660156,1.7357962036132812,-11.17852755126953
3494013904759,0.44810474,1,0.19153613281249998,1.763329522705078,-11.190498559570312
3494020575800,0.454775781,1,0.22385785522460935,1.7381904052734374,-11.234791290283203
3494027241061,0.461441042,1,0.21428104858398436,1.7429788085937499,-11.158176837158203
3494033907675,0.468107656,1,0.19512743530273435,1.7202338928222656,-11.168950744628905
3494040574238,0.474774219,1,0.23822306518554687,1.725022296142578,-11.162965240478515
3494047241113,0.481441094,1,0.21428104858398436,1.744175909423828,-11.165359442138671
3494053907884,0.488107865,1,0.21428104858398436,1.7226280944824217,-11.213243475341796
3494060574342,0.494774323,1,0.22864625854492185,1.7453730102539062,-11.21084927368164
3494067240905,0.501440886,1,0.21428104858398436,1.6771382629394531,-11.182118853759764
3494073907780,0.508107761,1,0.22505495605468748,1.7417817077636717,-11.168950744628905
3494080574550,0.514774531,1,0.2346317626953125,1.753752716064453,-11.195286962890624
3494087242050,0.521442031,1,0.2154781494140625,1.7621324218749999,-11.207257971191405
3494093907207,0.528107188,1,0.21906945190429686,1.7405846069335937,-11.21683477783203
3494100574394,0.534774375,1,0.239420166015625,1.705868682861328,-11.221623181152344
3494107241061,0.541441042,1,0.2166752502441406,1.7178396911621092,-11.183315954589844
3494113907519,0.5481075,1,0.25139117431640623,1.7262193969726563,-11.202469567871093
3494120574290,0.554774271,1,0.25139117431640623,1.7298106994628906,-11.200075366210937
3494127241582,0.561441563,1,0.23582886352539062,1.7298106994628906,-11.215637677001952
3494133907571,0.568107552,1,0.21068974609375,1.7118541870117185,-11.215637677001952
3494140574498,0.574774479,1,0.23582886352539062,1.7010802795410156,-11.19887826538086
3494147240332,0.581440313,1,0.2454056701660156,1.7298106994628906,-11.213243475341796
3494153907415,0.588107396,1,0.258573779296875,1.7369933044433592,-11.170147845458983
3494160573978,0.594773959,1,0.2561795776367187,1.7525556152343749,-11.19887826538086
3494167241634,0.601441615,1,0.24301146850585936,1.734599102783203,-11.192892761230468
3494173907884,0.608107865,1,0.21308394775390624,1.7525556152343749,-11.24915650024414
3494180574394,0.614774375,1,0.2166752502441406,1.7429788085937499,-11.196484063720703
3494187240800,0.621440781,1,0.23104046020507812,1.7202338928222656,-11.194089862060546
3494193907884,0.628107865,1,0.21308394775390624,1.7322049011230467,-11.226411584472656
3494200573769,0.63477375,1,0.23582886352539062,1.7190367919921874,-11.204863769531249
3494207239394,0.641439375,1,0.2262520568847656,1.7405846069335937,-11.197681164550781
3494213907155,0.648107136,1,0.21906945190429686,1.7238251953125,-11.182118853759764
3494220574030,0.654774011,1,0.2154781494140625,1.7717092285156248,-11.204863769531249
3494227239446,0.661439427,1,0.22505495605468748,1.7501614135742187,-11.170147845458983
3494233909498,0.668109479,1,0.22026655273437498,1.7262193969726563,-11.149797131347656
3494240573873,0.674773854,1,0.22744915771484372,1.7561469177246092,-11.182118853759764
3494247240644,0.681440625,1,0.24061726684570311,1.734599102783203,-11.182118853759764
3494253916217,0.688116198,1,0.20470424194335937,1.7286135986328124,-11.19169566040039
3494260577050,0.694777031,1,0.20470424194335937,1.714248388671875,-11.168950744628905
3494267241269,0.70144125,1,0.2214636535644531,1.714248388671875,-11.174936248779296
3494273907988,0.708107969,1,0.22385785522460935,1.7393875061035156,-11.174936248779296
3494280574290,0.714774271,1,0.22266075439453123,1.7286135986328124,-11.165359442138671
3494287241009,0.72144099,1,0.2166752502441406,1.7429788085937499,-11.182118853759764
3494293907519,0.7281075,1,0.2154781494140625,1.7262193969726563,-11.188104357910156
3494300574186,0.734774167,1,0.23582886352539062,1.7322049011230467,-11.202469567871093
3494307240800,0.741440781,1,0.239420166015625,1.7405846069335937,-11.182118853759764
3494313907102,0.748107083,1,0.2262520568847656,1.734599102783203,-11.173739147949219
3494320574134,0.754774115,1,0.21068974609375,1.7178396911621092,-11.17852755126953
3494327240957,0.761440938,1,0.2262520568847656,1.7357962036132812,-11.162965240478515
3494333908092,0.768108073,1,0.23582886352539062,1.7681179260253905,-11.204863769531249
3494340574238,0.774774219,1,0.2262520568847656,1.7298106994628906,-11.168950744628905
3494347240957,0.781440938,1,0.21188684692382811,1.7310078002929687,-11.225214483642578
3494353907415,0.788107396,1,0.21428104858398436,1.7166425903320313,-11.17852755126953
3494360574082,0.794774063,1,0.239420166015625,1.7178396911621092,-11.19169566040039
3494367241373,0.801441354,1,0.2154781494140625,1.714248388671875,-11.197681164550781
3494373907623,0.808107604,1,0.2154781494140625,1.7274164978027342,-11.164162341308593
3494380574446,0.814774427,1,0.20350714111328125,1.7286135986328124,-11.179724652099608
3494387240280,0.821440261,1,0.22026655273437498,1.7262193969726563,-11.171344946289063
3494393908300,0.828108281,1,0.20470424194335937,1.7310078002929687,-11.201272467041015
3494400573561,0.834773542,1,0.20350714111328125,1.7274164978027342,-11.2240173828125
3494407240436,0.841440417,1,0.20350714111328125,1.7609353210449217,-11.180921752929686
3494413906894,0.848106875,1,0.23343466186523437,1.7609353210449217,-11.055226165771483
3494420575071,0.854775052,1,0.25737667846679685,1.7369933044433592,-11.208455072021483
3494427241634,0.861441615,1,0.2214636535644531,1.7369933044433592,-11.166556542968749
3494433910436,0.868110417,1,0.2059013427734375,1.7513585144042967,-11.173739147949219
3494440575071,0.874775052,1,0.21428104858398436,1.7453730102539062,-11.143811627197264
3494447241009,0.88144099,1,0.239420166015625,1.7322049011230467,-11.188104357910156
3494453907779,0.88810776,1,0.24301146850585936,1.763329522705078,-11.165359442138671
3494460572571,0.894772552,1,0.22266075439453123,1.7238251953125,-11.155782635498046
3494467242363,0.901442344,1,0.23104046020507812,1.7130512878417967,-11.189301458740234
3494473906217,0.908106198,1,0.2166752502441406,1.7405846069335937,-11.202469567871093
3494480574550,0.914774531,1,0.22385785522460935,1.7178396911621092,-11.189301458740234
3494487240800,0.921440781,1,0.2442085693359375,1.7334020019531249,-11.184513055419922
3494493908144,0.928108125,1,0.20350714111328125,1.7525556152343749,-11.174936248779296
3494500573925,0.934773906,1,0.24061726684570311,1.7405846069335937,-11.177330450439452
3494507241165,0.941441146,1,0.22744915771484372,1.7202338928222656,-11.177330450439452
3494513907727,0.948107708,1,0.2214636535644531,1.734599102783203,-11.16057103881836
3494520574863,0.954774844,1,0.1975216369628906,1.753752716064453,-11.170147845458983
3494527240852,0.961440833,1,0.2166752502441406,1.715445489501953,-11.165359442138671
3494533907727,0.968107708,1,0.23702596435546874,1.7130512878417967,-11.208455072021483
3494540574082,0.974774063,1,0.22026655273437498,1.7310078002929687,-11.194089862060546
3494547240175,0.981440156,1,0.22026655273437498,1.7334020019531249,-11.188104357910156
3494553907363,0.988107344,1,0.239420166015625,1.7334020019531249,-11.154585534667968
3494560574394,0.994774375,1,0.21787235107421873,1.7310078002929687,-11.154585534667968
3494567240592,1.001440573,1,0.23822306518554687,1.707065783691406,-11.170147845458983
3494573907571,1.008107552,1,0.22864625854492185,1.7226280944824217,-11.161768139648437
3494580575071,1.014775052,1,0.22385785522460935,1.7226280944824217,-11.161768139648437
3494587240852,1.021440833,1,0.2154781494140625,1.7298106994628906,-11.188104357910156
3494593907259,1.02810724,1,0.21787235107421873,1.7405846069335937,-11.186907257080078
3494600573665,1.034773646,1,0.19991583862304688,1.7513585144042967,-11.214440576171874
3494607240436,1.041440417,1,0.21308394775390624,1.734599102783203,-11.179724652099608
3494613907467,1.048107448,1,0.239420166015625,1.7130512878417967,-11.2240173828125
3494620574134,1.054774115,1,0.23822306518554687,1.734599102783203,-11.21683477783203
3494627240644,1.061440625,1,0.23822306518554687,1.7178396911621092,-11.174936248779296
3494633907988,1.068107969,1,0.2262520568847656,1.7262193969726563,-11.176133349609374
3494640573873,1.074773854,1,0.2154781494140625,1.7405846069335937,-11.21084927368164
3494647241686,1.081441667,1,0.20949264526367187,1.7214309936523438,-11.173739147949219
3494653908925,1.088108906,1,0.20231004028320312,1.715445489501953,-11.194089862060546
3494660574550,1.094774531,1,0.22505495605468748,1.753752716064453,-11.196484063720703
3494667240644,1.101440625,1,0.201112939453125,1.7465701110839842,-11.165359442138671
3494673907519,1.1081075,1,0.2154781494140625,1.7130512878417967,-11.19887826538086
3494680574446,1.114774427,1,0.24660277099609373,1.7298106994628906,-11.129446417236327
3494687241321,1.121441302,1,0.21068974609375,1.7130512878417967,-11.208455072021483
3494693906790,1.128106771,1,0.21068974609375,1.7226280944824217,-11.17852755126953
3494700574342,1.134774323,1,0.20829554443359374,1.7226280944824217,-11.044452258300781
3494707240071,1.141440052,1,0.21428104858398436,1.715445489501953,-11.197681164550781
3494713907363,1.148107344,1,0.229843359375,1.7214309936523438,-11.176133349609374
3494720573352,1.154773333,1,0.20231004028320312,1.7322049011230467,-11.162965240478515
3494727241894,1.161441875,1,0.21906945190429686,1.7334020019531249,-11.173739147949219
3494733907311,1.168107292,1,0.20470424194335937,1.7357962036132812,-11.182118853759764
3494740574498,1.174774479,1,0.22026655273437498,1.734599102783203,-11.225214483642578
3494747241321,1.181441302,1,0.21068974609375,1.7393875061035156,-11.182118853759764
3494753908144,1.188108125,1,0.2442085693359375,1.7214309936523438,-11.19169566040039
3494760573509,1.19477349,1,0.2262520568847656,1.715445489501953,-11.155782635498046
3494767240279,1.20144026,1,0.21068974609375,1.7166425903320313,-11.200075366210937
3494773907727,1.208107708,1,0.2154781494140625,1.744175909423828,-11.192892761230468
3494780574498,1.214774479,1,0.2501940734863281,1.7597382202148437,-11.196484063720703
3494787241581,1.221441562,1,0.21906945190429686,1.744175909423828,-11.155782635498046
3494793907623,1.228107604,1,0.2214636535644531,1.734599102783203,-11.177330450439452
3494800574029,1.23477401,1,0.22505495605468748,1.725022296142578,-11.17852755126953
3494807240904,1.241440885,1,0.2154781494140625,1.7022773803710936,-11.215637677001952
3494813908352,1.248108333,1,0.2154781494140625,1.734599102783203,-11.117475408935546
3494820574654,1.254774635,1,0.21906945190429686,1.714248388671875,-11.194089862060546
3494827240488,1.261440469,1,0.20709844360351562,1.725022296142578,-11.180921752929686
3494833908300,1.268108281,1,0.20709844360351562,1.7322049011230467,-11.16057103881836
3494840573977,1.274773958,1,0.22864625854492185,1.7322049011230467,-11.206060870361327
3494847241477,1.281441458,1,0.2262520568847656,1.725022296142578,-11.206060870361327
3494853908196,1.288108177,1,0.21308394775390624,1.715445489501953,-11.195286962890624
3494860574342,1.294774323,1,0.23582886352539062,1.7262193969726563,-11.142614526367186
3494867240852,1.301440833,1,0.2346317626953125,1.7286135986328124,-11.188104357910156
3494873907154,1.308107135,1,0.2442085693359375,1.7226280944824217,-11.204863769531249
3494880579550,1.314779531,1,0.20829554443359374,1.7465701110839842,-11.18571015625
3494887242883,1.321442864,1,0.19393033447265623,1.7322049011230467,-11.19169566040039
3494893907571,1.328107552,1,0.19512743530273435,1.734599102783203,-11.214440576171874
3494900575227,1.334775208,1,0.2166752502441406,1.7094599853515624,-11.208455072021483
3494907241008,1.341440989,1,0.22864625854492185,1.7238251953125,-11.154585534667968
3494913907363,1.348107344,1,0.23223756103515625,1.7178396911621092,-11.19169566040039
3494920574342,1.354774323,1,0.24061726684570311,1.7453730102539062,-11.183315954589844
3494927240383,1.361440364,1,0.22864625854492185,1.7298106994628906,-11.19887826538086
3494933906998,1.368106979,1,0.22026655273437498,1.7274164978027342,-11.218031878662108
3494940574133,1.374774114,1,0.2442085693359375,1.7334020019531249,-11.189301458740234
3494947241269,1.38144125,1,0.22505495605468748,1.734599102783203,-11.173739147949219
3494953907623,1.388107604,1,0.23582886352539062,1.7286135986328124,-11.189301458740234
3494960573821,1.394773802,1,0.24181436767578124,1.725022296142578,-11.214440576171874
3494967241217,1.401441198,1,0.2214636535644531,1.70467158203125,-11.162965240478515
3494973909394,1.408109375,1,0.2262520568847656,1.7381904052734374,-11.19169566040039
3494980575904,1.414775885,1,0.2262520568847656,1.7334020019531249,-11.166556542968749
3494987240331,1.421440312,1,0.22864625854492185,1.7334020019531249,-11.043255157470702
3494993907467,1.428107448,1,0.19871873779296872,1.7214309936523438,-11.196484063720703
3495000574706,1.434774687,1,0.23223756103515625,1.7202338928222656,-11.180921752929686
3495007241113,1.441441094,1,0.22266075439453123,1.7286135986328124,-11.203666668701171
3495013908456,1.448108437,1,0.24061726684570311,1.7334020019531249,-11.194089862060546
3495020620956,1.454820937,1,0.2705447875976562,1.7226280944824217,-11.196484063720703
3495027244863,1.461444844,1,0.23582886352539062,1.714248388671875,-11.195286962890624
3495033906738,1.468106719,1,0.19393033447265623,1.7453730102539062,-11.19887826538086
3495040571946,1.474771927,1,0.2154781494140625,1.725022296142578,-11.166556542968749
3495047243352,1.481443333,1,0.20470424194335937,1.7465701110839842,-11.15338843383789
3495053909967,1.488109948,1,0.2154781494140625,1.744175909423828,-11.186907257080078
3495060575175,1.494775156,1,0.21068974609375,1.7106570861816406,-11.212046374511718
3495067238092,1.501438073,1,0.2214636535644531,1.7286135986328124,-11.209652172851563
3495073909029,1.50810901,1,0.2561795776367187,1.7405846069335937,-11.183315954589844
3495080574706,1.514774687,1,0.22864625854492185,1.7214309936523438,-11.194089862060546
3495087241217,1.521441198,1,0.24301146850585936,1.7357962036132812,-11.227608685302734
3495093907727,1.528107708,1,0.2262520568847656,1.7130512878417967,-11.192892761230468
3495100574029,1.53477401,1,0.1927332336425781,1.7357962036132812,-11.220426080322264
3495107242363,1.541442344,1,0.2346317626953125,1.7178396911621092,-11.177330450439452
3495113908300,1.548108281,1,0.23702596435546874,1.7429788085937499,-11.174936248779296
3495120573977,1.554773958,1,0.23702596435546874,1.744175909423828,-11.220426080322264
3495127241113,1.561441094,1,0.2214636535644531,1.744175909423828,-11.170147845458983
3495133907310,1.568107291,1,0.2262520568847656,1.7310078002929687,-11.170147845458983
3495140575019,1.574775,1,0.22266075439453123,1.7286135986328124,-11.177330450439452
3495147241060,1.581441041,1,0.22505495605468748,1.7417817077636717,-11.18571015625
3495153907102,1.588107083,1,0.22026655273437498,1.7405846069335937,-11.190498559570312
3495160573925,1.594773906,1,0.21906945190429686,1.7310078002929687,-11.165359442138671
3495167240592,1.601440573,1,0.22864625854492185,1.7118541870117185,-11.177330450439452
3495173907727,1.608107708,1,0.2346317626953125,1.7178396911621092,-11.183315954589844
3495180574394,1.614774375,1,0.229843359375,1.7501614135742187,-11.196484063720703
3495187240800,1.621440781,1,0.22864625854492185,1.7465701110839842,-11.202469567871093
3495193907727,1.628107708,1,0.22744915771484372,1.7214309936523438,-11.196484063720703
3495200573977,1.634773958,1,0.22744915771484372,1.7226280944824217,-11.180921752929686
3495207241425,1.641441406,1,0.2454056701660156,1.7238251953125,-11.154585534667968
3495213907935,1.648107916,1,0.2154781494140625,1.7369933044433592,-11.170147845458983
3495220575331,1.654775312,1,0.1975216369628906,1.7585411193847655,-11.18571015625
3495227241633,1.661441614,1,0.23104046020507812,1.7214309936523438,-11.166556542968749
3495233909238,1.668109219,1,0.229843359375,1.7286135986328124,-11.173739147949219
3495240574758,1.674774739,1,0.23822306518554687,1.7310078002929687,-11.174936248779296
3495247240956,1.681440937,1,0.23582886352539062,1.7465701110839842,-11.192892761230468
3495253907623,1.688107604,1,0.24181436767578124,1.734599102783203,-11.154585534667968
3495260574446,1.694774427,1,0.2454056701660156,1.734599102783203,-11.176133349609374
3495267241113,1.701441094,1,0.2454056701660156,1.7082628845214842,-11.197681164550781
3495273907675,1.708107656,1,0.23822306518554687,1.7082628845214842,-11.326968054199218
3495280575227,1.714775208,1,0.2154781494140625,1.7214309936523438,-11.173739147949219
3495287241217,1.721441198,1,0.2549824768066406,1.7226280944824217,-11.166556542968749
3495293907675,1.728107656,1,0.258573779296875,1.715445489501953,-11.186907257080078
3495300573925,1.734773906,1,0.2346317626953125,1.7381904052734374,-11.204863769531249
3495307241060,1.741441041,1,0.2154781494140625,1.725022296142578,-11.206060870361327
3495313907883,1.748107864,1,0.23104046020507812,1.7130512878417967,-11.176133349609374
3495320574029,1.75477401,1,0.20949264526367187,1.7286135986328124,-11.174936248779296
3495327241060,1.761441041,1,0.20829554443359374,1.7334020019531249,-11.215637677001952
3495333908456,1.768108437,1,0.20949264526367187,1.7310078002929687,-11.184513055419922
3495340574237,1.774774218,1,0.2214636535644531,1.7310078002929687,-11.203666668701171
3495347241060,1.781441041,1,0.22385785522460935,1.7405846069335937,-11.177330450439452
3495353905540,1.788105521,1,0.26336218261718747,1.7513585144042967,-11.149797131347656
3495360574706,1.794774687,1,0.21906945190429686,1.7166425903320313,-11.14022032470703
3495367240696,1.801440677,1,0.22026655273437498,1.7262193969726563,-11.15338843383789
3495373907467,1.808107448,1,0.23104046020507812,1.7669208251953124,-11.183315954589844
3495380574810,1.814774791,1,0.2166752502441406,1.753752716064453,-11.204863769531249
3495387241008,1.821440989,1,0.22864625854492185,1.7334020019531249,-11.21084927368164
3495393907987,1.828107968,1,0.21428104858398436,1.744175909423828,-11.17852755126953
3495400573352,1.834773333,1,0.239420166015625,1.7405846069335937,-11.188104357910156
3495407241529,1.84144151,1,0.239420166015625,1.714248388671875,-11.180921752929686
3495413908092,1.848108073,1,0.2597708801269531,1.714248388671875,-11.14022032470703
3495420573769,1.85477375,1,0.22864625854492185,1.7274164978027342,-11.14022032470703
3495427240696,1.861440677,1,0.2442085693359375,1.7190367919921874,-11.202469567871093
3495433907727,1.868107708,1,0.2166752502441406,1.7334020019531249,-11.213243475341796
3495440573925,1.874773906,1,0.239420166015625,1.7274164978027342,-11.186907257080078
3495447240904,1.881440885,1,0.24779987182617186,1.7310078002929687,-11.189301458740234
3495453907310,1.888107291,1,0.2262520568847656,1.7453730102539062,-11.202469567871093
3495460574342,1.894774323,1,0.21787235107421873,1.7417817077636717,-11.207257971191405
3495467239602,1.901439583,1,0.21787235107421873,1.7310078002929687,-11.173739147949219
3495473908508,1.908108489,1,0.23223756103515625,1.7477672119140624,-11.192892761230468
3495480573873,1.914773854,1,0.21428104858398436,1.7453730102539062,-11.232397088623046
3495487239810,1.921439791,1,0.22026655273437498,1.7226280944824217,-11.182118853759764
3495493907727,1.928107708,1,0.2262520568847656,1.744175909423828,-11.184513055419922
3495500574446,1.934774427,1,0.23822306518554687,1.7166425903320313,-11.17852755126953
3495507245800,1.941445781,1,0.21068974609375,1.7238251953125,-11.189301458740234
3495513909394,1.948109375,1,0.23223756103515625,1.7393875061035156,-11.186907257080078
3495520573769,1.95477375,1,0.23582886352539062,1.7310078002929687,-11.182118853759764
3495527241529,1.96144151,1,0.21068974609375,1.7334020019531249,-11.188104357910156
3495533907258,1.968107239,1,0.2262520568847656,1.7381904052734374,-11.238382592773437
3495540575019,1.974775,1,0.21068974609375,1.744175909423828,-11.21084927368164
3495547240956,1.981440937,1,0.22026655273437498,1.7357962036132812,-11.158176837158203
3495553907571,1.988107552,1,0.22026655273437498,1.7585411193847655,-11.207257971191405
3495560573508,1.994773489,1,0.21068974609375,1.7585411193847655,-11.214440576171874
3495567240852,2.001440833,1,0.28371289672851563,1.7262193969726563,-11.214440576171874
3495573908196,2.008108177,1,0.21308394775390624,1.7369933044433592,-11.207257971191405
3495580574602,2.014774583,1,0.20709844360351562,1.7202338928222656,-11.202469567871093
3495587239185,2.021439166,1,0.2442085693359375,1.6927005737304686,-11.173739147949219
3495593908560,2.028108541,1,0.2166752502441406,1.7298106994628906,-11.23000288696289
3495600573873,2.034773854,1,0.2262520568847656,1.7334020019531249,-11.19169566040039
3495607240904,2.041440885,1,0.2166752502441406,1.7298106994628906,-11.162965240478515
3495613907935,2.048107916,1,0.23223756103515625,1.7262193969726563,-11.192892761230468
3495620574654,2.054774635,1,0.2454056701660156,1.695094775390625,-11.186907257080078
3495627245175,2.061445156,1,0.22026655273437498,1.7357962036132812,-11.176133349609374
3495633908508,2.068108489,1,0.23582886352539062,1.7369933044433592,-11.19169566040039
3495640575279,2.07477526,1,0.22385785522460935,1.7322049011230467,-11.183315954589844
3495647242050,2.081442031,1,0.2166752502441406,1.734599102783203,-11.194089862060546
3495653908039,2.08810802,1,0.22266075439453123,1.7238251953125,-11.167753643798827
3495660574550,2.094774531,1,0.22505495605468748,1.7190367919921874,-11.218031878662108
3495667240696,2.101440677,1,0.22026655273437498,1.7202338928222656,-11.186907257080078
3495673907883,2.108107864,1,0.21188684692382811,1.7286135986328124,-11.194089862060546
3495680574081,2.114774062,1,0.21906945190429686,1.7214309936523438,-11.200075366210937
3495687240592,2.121440573,1,0.21308394775390624,1.7274164978027342,-11.142614526367186
3495693906842,2.128106823,1,0.21308394775390624,1.7286135986328124,-11.215637677001952
3495700573821,2.134773802,1,0.2645592834472656,1.7286135986328124,-11.244368096923827
3495707241477,2.141441458,1,0.22385785522460935,1.7130512878417967,-11.244368096923827
3495713906321,2.148106302,1,0.22505495605468748,1.7393875061035156,-11.186907257080078
3495720574133,2.154774114,1,0.2262520568847656,1.7334020019531249,-11.174936248779296
3495727241633,2.161441614,1,0.22864625854492185,1.7166425903320313,-11.18571015625
3495733907467,2.168107448,1,0.22505495605468748,1.7286135986328124,-11.158176837158203
3495740572414,2.174772395,1,0.2166752502441406,1.7298106994628906,-11.203666668701171
3495747240696,2.181440677,1,0.1975216369628906,1.7118541870117185,-11.166556542968749
3495753907310,2.188107291,1,0.22385785522460935,1.725022296142578,-11.194089862060546
3495760574133,2.194774114,1,0.24301146850585936,1.7477672119140624,-11.201272467041015
3495767240539,2.20144052,1,0.23343466186523437,1.7298106994628906,-11.159373937988281
3495773906373,2.208106354,1,0.22744915771484372,1.7322049011230467,-11.234791290283203
3495780575487,2.214775468,1,0.239420166015625,1.7513585144042967,-11.166556542968749
3495787240696,2.221440677,1,0.22385785522460935,1.7130512878417967,-11.167753643798827
3495793907623,2.228107604,1,0.21787235107421873,1.7477672119140624,-11.189301458740234
3495800574862,2.234774843,1,0.18315642700195311,1.7322049011230467,-11.164162341308593
3495807240435,2.241440416,1,0.21787235107421873,1.7525556152343749,-11.183315954589844
3495813907519,2.2481075,1,0.2214636535644531,1.7405846069335937,-11.170147845458983
3495820575644,2.254775625,1,0.22026655273437498,1.7310078002929687,-11.155782635498046
3495827240852,2.261440833,1,0.22864625854492185,1.7477672119140624,-11.17254204711914
3495833907206,2.268107187,1,0.2166752502441406,1.7489643127441405,-11.201272467041015
3495840573977,2.274773958,1,0.2166752502441406,1.7405846069335937,-11.227608685302734
3495847240748,2.281440729,1,0.23223756103515625,1.7405846069335937,-11.190498559570312
3495853907623,2.288107604,1,0.24899697265624998,1.7405846069335937,-11.190498559570312
3495860573977,2.294773958,1,0.24779987182617186,1.7226280944824217,-11.167753643798827
3495867240591,2.301440572,1,0.229843359375,1.7202338928222656,-11.188104357910156
3495873907831,2.308107812,1,0.24660277099609373,1.7501614135742187,-11.202469567871093
3495880573560,2.314773541,1,0.22505495605468748,1.7417817077636717,-11.17254204711914
3495887240852,2.321440833,1,0.22744915771484372,1.7489643127441405,-11.184513055419922
3495893907206,2.328107187,1,0.22026655273437498,1.7298106994628906,-11.196484063720703
3495900574498,2.334774479,1,0.24061726684570311,1.7226280944824217,-11.176133349609374
3495907240487,2.341440468,1,0.23343466186523437,1.7202338928222656,-11.173739147949219
3495913908196,2.348108177,1,0.22505495605468748,1.7226280944824217,-11.190498559570312
3495920574498,2.354774479,1,0.229843359375,1.7178396911621092,-11.184513055419922
3495927240019,2.36144,1,0.21428104858398436,1.7262193969726563,-11.174936248779296
3495933907206,2.368107187,1,0.23582886352539062,1.7202338928222656,-11.166556542968749
3495940574133,2.374774114,1,0.22026655273437498,1.7501614135742187,-11.18571015625
3495947240591,2.381440572,1,0.2214636535644531,1.7477672119140624,-11.180921752929686
3495953908560,2.388108541,1,0.23104046020507812,1.7214309936523438,-11.1474029296875
3495960575227,2.394775208,1,0.2657563842773437,1.734599102783203,-11.192892761230468
3495967243091,2.401443072,1,0.22026655273437498,1.7405846069335937,-11.202469567871093
3495973908456,2.408108437,1,0.21068974609375,1.725022296142578,-11.208455072021483
3495980574758,2.414774739,1,0.21068974609375,1.7190367919921874,-11.179724652099608
3495987240643,2.421440624,1,0.22505495605468748,1.7190367919921874,-11.206060870361327
3495993908248,2.428108229,1,0.23582886352539062,1.7298106994628906,-11.206060870361327
3496000576060,2.434776041,1,0.20709844360351562,1.7298106994628906,-11.206060870361327
3496007262310,2.441462291,1,0.239420166015625,1.7393875061035156,-11.168950744628905
3496013924133,2.448124114,1,0.2214636535644531,1.7322049011230467,-11.180921752929686
3496020574341,2.454774322,1,0.21428104858398436,1.7322049011230467,-11.177330450439452
3496027241321,2.461441302,1,0.239420166015625,1.7465701110839842,-11.177330450439452
3496033907727,2.468107708,1,0.22385785522460935,1.7369933044433592,-11.207257971191405
3496040575071,2.474775052,1,0.22026655273437498,1.7429788085937499,-11.17852755126953
3496047241164,2.481441145,1,0.2346317626953125,1.7094599853515624,-11.176133349609374
3496053905227,2.488105208,1,0.22385785522460935,1.7298106994628906,-11.186907257080078
3496060573508,2.494773489,1,0.2454056701660156,1.7393875061035156,-11.161768139648437
3496067240331,2.501440312,1,0.2346317626953125,1.734599102783203,-11.159373937988281
3496073906841,2.508106822,1,0.22505495605468748,1.7202338928222656,-11.190498559570312
3496080573873,2.514773854,1,0.20470424194335937,1.7621324218749999,-11.215637677001952
3496087240956,2.521440937,1,0.23702596435546874,1.7429788085937499,-11.204863769531249
3496093906789,2.52810677,1,0.2454056701660156,1.7501614135742187,-11.218031878662108
3496100573612,2.534773593,1,0.24779987182617186,1.715445489501953,-11.174936248779296
3496107240487,2.541440468,1,0.2537853759765625,1.7166425903320313,-11.148600030517578
3496113906998,2.548106979,1,0.2442085693359375,1.6998831787109374,-11.19169566040039
3496120573768,2.554773749,1,0.2166752502441406,1.7238251953125,-11.221623181152344
3496127240748,2.561440729,1,0.2166752502441406,1.725022296142578,-11.197681164550781
3496133907883,2.568107864,1,0.22385785522460935,1.725022296142578,-11.203666668701171
3496140574289,2.57477427,1,0.229843359375,1.7010802795410156,-11.203666668701171
3496147240487,2.581440468,1,0.24061726684570311,1.7357962036132812,-11.196484063720703
3496153907675,2.588107656,1,0.25139117431640623,1.7334020019531249,-11.195286962890624
3496160573716,2.594773697,1,0.23702596435546874,1.7573440185546874,-11.196484063720703
3496167240904,2.601440885,1,0.2346317626953125,1.7357962036132812,-11.200075366210937
3496173907206,2.608107187,1,0.239420166015625,1.7334020019531249,-11.215637677001952
3496180574081,2.614774062,1,0.23822306518554687,1.7238251953125,-11.176133349609374
3496187239706,2.621439687,1,0.22744915771484372,1.7393875061035156,-11.190498559570312
3496193907675,2.628107656,1,0.2214636535644531,1.7298106994628906,-11.202469567871093
3496200574654,2.634774635,1,0.2454056701660156,1.744175909423828,-11.231199987792968
3496207241737,2.641441718,1,0.24899697265624998,1.7525556152343749,-11.234791290283203
3496213908456,2.648108437,1,0.22026655273437498,1.7369933044433592,-11.246762298583985
3496220574237,2.654774218,1,0.23223756103515625,1.7262193969726563,-11.171344946289063
3496227240800,2.661440781,1,0.24899697265624998,1.7369933044433592,-11.184513055419922
3496233907623,2.668107604,1,0.2214636535644531,1.7238251953125,-11.188104357910156
3496240575018,2.674774999,1,0.22026655273437498,1.7357962036132812,-11.156979736328124
3496247240748,2.681440729,1,0.20350714111328125,1.7465701110839842,-11.188104357910156
3496253904810,2.688104791,1,0.22744915771484372,1.7465701110839842,-11.162965240478515
3496260579862,2.694779843,1,0.21787235107421873,1.7381904052734374,-11.173739147949219
3496267242310,2.701442291,1,0.21787235107421873,1.7238251953125,-11.196484063720703
3496273908873,2.708108854,1,0.21428104858398436,1.7238251953125,-11.218031878662108
3496280574498,2.714774479,1,0.24061726684570311,1.7214309936523438,-11.218031878662108
3496287240591,2.721440572,1,0.2549824768066406,1.7429788085937499,-11.208455072021483
3496293908300,2.728108281,1,0.23822306518554687,1.7417817077636717,-11.190498559570312
3496300574237,2.734774218,1,0.23822306518554687,1.7334020019531249,-11.174936248779296
3496307240748,2.741440729,1,0.22864625854492185,1.7214309936523438,-11.179724652099608
3496313907518,2.748107499,1,0.2154781494140625,1.714248388671875,-11.166556542968749
3496320574133,2.754774114,1,0.24779987182617186,1.7405846069335937,-11.180921752929686
3496327241477,2.761441458,1,0.2442085693359375,1.7513585144042967,-11.176133349609374
3496333907466,2.768107447,1,0.2537853759765625,1.7214309936523438,-11.18571015625
3496340574341,2.774774322,1,0.23582886352539062,1.7202338928222656,-11.18571015625
3496347240800,2.781440781,1,0.23702596435546874,1.7357962036132812,-11.201272467041015
3496353907831,2.788107812,1,0.22744915771484372,1.7214309936523438,-11.200075366210937
3496360574654,2.794774635,1,0.23822306518554687,1.7489643127441405,-11.174936248779296
3496367241112,2.801441093,1,0.2214636535644531,1.7381904052734374,-11.182118853759764
3496373907258,2.808107239,1,0.20949264526367187,1.7262193969726563,-11.18571015625
3496380574498,2.814774479,1,0.2454056701660156,1.7274164978027342,-11.17852755126953
3496387241164,2.821441145,1,0.24181436767578124,1.734599102783203,-11.192892761230468
3496393907570,2.828107551,1,0.2166752502441406,1.7226280944824217,-11.186907257080078
3496400574393,2.834774374,1,0.21428104858398436,1.7357962036132812,-11.190498559570312
3496407240904,2.841440885,1,0.19632453613281248,1.7202338928222656,-11.21084927368164
3496413907206,2.848107187,1,0.19632453613281248,1.7298106994628906,-11.18571015625
3496420574341,2.854774322,1,0.2154781494140625,1.7298106994628906,-11.048043560791015
3496427241320,2.861441301,1,0.22744915771484372,1.734599102783203,-11.201272467041015
3496433908247,2.868108228,1,0.22744915771484372,1.7405846069335937,-11.197681164550781
3496440575070,2.874775051,1,0.20949264526367187,1.7549498168945312,-11.162965240478515
3496447240695,2.881440676,1,0.2442085693359375,1.7525556152343749,-11.188104357910156
3496453907570,2.888107551,1,0.239420166015625,1.707065783691406,-11.195286962890624
3496460574914,2.894774895,1,0.24899697265624998,1.7310078002929687,-11.183315954589844
3496467242570,2.901442551,1,0.22026655273437498,1.7501614135742187,-11.165359442138671
3496473908247,2.908108228,1,0.2059013427734375,1.7393875061035156,-11.190498559570312
3496480575227,2.914775208,1,0.2154781494140625,1.707065783691406,-11.214440576171874
3496487240904,2.921440885,1,0.23104046020507812,1.7357962036132812,-11.17852755126953
3496493907050,2.928107031,1,0.23343466186523437,1.7489643127441405,-11.183315954589844
3496500574706,2.934774687,1,0.21188684692382811,1.7262193969726563,-11.225214483642578
3496507240122,2.941440103,1,0.19033903198242186,1.7465701110839842,-11.209652172851563
3496513909654,2.948109635,1,0.21068974609375,1.7310078002929687,-11.179724652099608
3496520574497,2.954774478,1,0.26336218261718747,1.7489643127441405,-11.17254204711914
3496527241008,2.961440989,1,0.25258827514648435,1.695094775390625,-11.192892761230468
3496533907622,2.968107603,1,0.23702596435546874,1.7166425903320313,-11.201272467041015
3496540573820,2.974773801,1,0.21188684692382811,1.707065783691406,-11.184513055419922
3496547241112,2.981441093,1,0.22266075439453123,1.7429788085937499,-11.18571015625
3496553908300,2.988108281,1,0.22266075439453123,1.7298106994628906,-11.207257971191405
3496560574550,2.994774531,1,0.2346317626953125,1.7298106994628906,-11.180921752929686
3496567240904,3.001440885,1,0.24301146850585936,1.7489643127441405,-11.180921752929686
3496573907675,3.008107656,1,0.20829554443359374,1.7393875061035156,-11.15338843383789
3496580573872,3.014773853,1,0.24779987182617186,1.7405846069335937,-11.19887826538086
3496587240383,3.021440364,1,0.21428104858398436,1.7214309936523438,-11.206060870361327
3496593905070,3.028105051,1,0.20470424194335937,1.7477672119140624,-11.183315954589844
3496600575747,3.034775728,1,0.21308394775390624,1.753752716064453,-11.19887826538086
3496607241529,3.04144151,1,0.22385785522460935,1.7262193969726563,-11.208455072021483
3496613907883,3.048107864,1,0.20949264526367187,1.7525556152343749,-11.148600030517578
3496620574706,3.054774687,1,0.22864625854492185,1.7178396911621092,-11.200075366210937
3496627240956,3.061440937,1,0.22505495605468748,1.715445489501953,-11.190498559570312
3496633907518,3.068107499,1,0.21188684692382811,1.7226280944824217,-11.196484063720703
3496640574237,3.074774218,1,0.22744915771484372,1.7369933044433592,-11.192892761230468
3496647241216,3.081441197,1,0.2537853759765625,1.7286135986328124,-11.170147845458983
3496653908039,3.08810802,1,0.2346317626953125,1.7501614135742187,-11.202469567871093
3496660573768,3.094773749,1,0.23582886352539062,1.7118541870117185,-11.17852755126953
3496667240852,3.101440833,1,0.23582886352539062,1.7369933044433592,-11.162965240478515
3496673908612,3.108108593,1,0.23223756103515625,1.725022296142578,-11.143811627197264
3496680574185,3.114774166,1,0.21906945190429686,1.7357962036132812,-11.180921752929686
3496687240643,3.121440624,1,0.23822306518554687,1.7322049011230467,-11.167753643798827
3496693907883,3.128107864,1,0.21906945190429686,1.7274164978027342,-11.246762298583985
3496700575539,3.13477552,1,0.21906945190429686,1.7274164978027342,-11.228805786132812
3496707239341,3.141439322,1,0.239420166015625,1.7274164978027342,-11.189301458740234
3496713907831,3.148107812,1,0.23223756103515625,1.7214309936523438,-11.189301458740234
3496720573977,3.154773958,1,0.22744915771484372,1.7381904052734374,-11.19169566040039
3496727240591,3.161440572,1,0.229843359375,1.734599102783203,-11.192892761230468
3496733907674,3.168107655,1,0.21428104858398436,1.725022296142578,-11.18571015625
3496740575070,3.174775051,1,0.2166752502441406,1.7453730102539062,-11.189301458740234
3496747240487,3.181440468,1,0.23822306518554687,1.7334020019531249,-11.17852755126953
3496753908091,3.188108072,1,0.21787235107421873,1.7381904052734374,-11.188104357910156
3496760574081,3.194774062,1,0.2442085693359375,1.734599102783203,-11.156979736328124
3496767239029,3.20143901,1,0.229843359375,1.7178396911621092,-11.165359442138671
3496773908508,3.208108489,1,0.24899697265624998,1.7238251953125,-11.16057103881836
3496780574497,3.214774478,1,0.2154781494140625,1.7082628845214842,-11.158176837158203
3496787240227,3.221440208,1,0.21188684692382811,1.7381904052734374,-11.214440576171874
3496793907310,3.228107291,1,0.21068974609375,1.7561469177246092,-11.166556542968749
3496800575487,3.234775468,1,0.2154781494140625,1.7286135986328124,-11.215637677001952
3496807241789,3.24144177,1,0.22864625854492185,1.7202338928222656,-11.190498559570312
3496813907206,3.248107187,1,0.2262520568847656,1.7274164978027342,-11.180921752929686
3496820574549,3.25477453,1,0.24181436767578124,1.7034744812011717,-11.189301458740234
3496827240435,3.261440416,1,0.22505495605468748,1.7310078002929687,-11.195286962890624
3496833907570,3.268107551,1,0.20350714111328125,1.7274164978027342,-11.167753643798827
3496840574758,3.274774739,1,0.20350714111328125,1.725022296142578,-11.149797131347656
3496847240018,3.281439999,1,0.2262520568847656,1.725022296142578,-11.171344946289063
3496853908976,3.288108957,1,0.24181436767578124,1.7310078002929687,-11.171344946289063
3496860573976,3.294773957,1,0.22266075439453123,1.7298106994628906,-11.17254204711914
3496867240851,3.301440832,1,0.23104046020507812,1.7381904052734374,-11.171344946289063
3496873908404,3.308108385,1,0.22864625854492185,1.7393875061035156,-11.171344946289063
3496880573768,3.314773749,1,0.23343466186523437,1.725022296142578,-11.200075366210937
3496887247101,3.321447082,1,0.2346317626953125,1.7238251953125,-11.190498559570312
3496893908976,3.328108957,1,0.21308394775390624,1.7274164978027342,-11.168950744628905
3496900574654,3.334774635,1,0.2059013427734375,1.7262193969726563,-11.182118853759764
3496907241164,3.341441145,1,0.20350714111328125,1.7262193969726563,-11.168950744628905
3496913907570,3.348107551,1,0.2561795776367187,1.7405846069335937,-11.182118853759764
3496920574341,3.354774322,1,0.20949264526367187,1.7226280944824217,-11.156979736328124
3496927240799,3.36144078,1,0.2214636535644531,1.7202338928222656,-11.167753643798827
3496933907310,3.368107291,1,0.20350714111328125,1.7262193969726563,-11.17254204711914
3496940574706,3.374774687,1,0.22385785522460935,1.714248388671875,-11.202469567871093
3496947240435,3.381440416,1,0.22026655273437498,1.734599102783203,-11.189301458740234
3496953908716,3.388108697,1,0.22744915771484372,1.7393875061035156,-11.161768139648437
3496960576008,3.394775989,1,0.239420166015625,1.7298106994628906,-11.13423482055664
3496967241060,3.401441041,1,0.2214636535644531,1.7465701110839842,-11.190498559570312
3496973908612,3.408108593,1,0.20350714111328125,1.7214309936523438,-11.17852755126953
3496980574706,3.414774687,1,0.23343466186523437,1.7166425903320313,-11.196484063720703
3496987240331,3.421440312,1,0.23343466186523437,1.714248388671875,-11.17254204711914
3496993909289,3.42810927,1,0.21188684692382811,1.714248388671875,-11.034875451660156
3497000574341,3.434774322,1,0.22266075439453123,1.7274164978027342,-11.188104357910156
3497007240539,3.44144052,1,0.2549824768066406,1.734599102783203,-11.221623181152344
3497013907466,3.448107447,1,0.24899697265624998,1.7094599853515624,-11.212046374511718
3497020574341,3.454774322,1,0.23104046020507812,1.7369933044433592,-11.208455072021483
3497027242466,3.461442447,1,0.23702596435546874,1.7381904052734374,-11.194089862060546
3497033907518,3.468107499,1,0.2214636535644531,1.7106570861816406,-11.21084927368164
3497040573872,3.474773853,1,0.23822306518554687,1.7334020019531249,-11.192892761230468
3497047240122,3.481440103,1,0.24181436767578124,1.7310078002929687,-11.23000288696289
3497053907674,3.488107655,1,0.21428104858398436,1.7286135986328124,-11.188104357910156
3497060574445,3.494774426,1,0.20709844360351562,1.7238251953125,-11.19169566040039
3497067241320,3.501441301,1,0.22385785522460935,1.714248388671875,-11.207257971191405
3497073907570,3.508107551,1,0.23223756103515625,1.707065783691406,-11.171344946289063
3497080574289,3.51477427,1,0.19871873779296872,1.7178396911621092,-11.17852755126953
3497087241841,3.521441822,1,0.22385785522460935,1.7214309936523438,-11.164162341308593
3497093907831,3.528107812,1,0.2262520568847656,1.7190367919921874,-11.180921752929686
3497100573456,3.534773437,1,0.2214636535644531,1.70467158203125,-11.212046374511718
3497107240278,3.541440259,1,0.23582886352539062,1.7310078002929687,-11.197681164550781
3497113906737,3.548106718,1,0.23223756103515625,1.7597382202148437,-11.166556542968749
3497120574601,3.554774582,1,0.2166752502441406,1.714248388671875,-11.161768139648437
3497127240591,3.561440572,1,0.2166752502441406,1.7262193969726563,-11.18571015625
3497133906737,3.568106718,1,0.2214636535644531,1.7262193969726563,-11.220426080322264
3497140574445,3.574774426,1,0.21068974609375,1.7274164978027342,-11.220426080322264
3497147240643,3.581440624,1,0.24181436767578124,1.7226280944824217,-11.203666668701171
3497153907101,3.588107082,1,0.23223756103515625,1.7022773803710936,-11.186907257080078
3497160573924,3.594773905,1,0.2154781494140625,1.68551796875,-11.176133349609374
3497167240851,3.601440832,1,0.239420166015625,1.707065783691406,-11.201272467041015
3497173907674,3.608107655,1,0.25139117431640623,1.725022296142578,-11.17852755126953
3497180574289,3.61477427,1,0.22026655273437498,1.7393875061035156,-11.219228979492186
3497187240747,3.621440728,1,0.22864625854492185,1.734599102783203,-11.243170996093749
3497193925278,3.628125259,1,0.23822306518554687,1.7322049011230467,-11.182118853759764
3497200586581,3.634786562,1,0.23702596435546874,1.705868682861328,-11.180921752929686
3497207258872,3.641458853,1,0.2166752502441406,1.7334020019531249,-11.19169566040039
3497213924341,3.648124322,1,0.23223756103515625,1.7453730102539062,-11.179724652099608
3497220591424,3.654791405,1,0.2262520568847656,1.7501614135742187,-11.24915650024414
3497227257518,3.661457499,1,0.24301146850585936,1.7214309936523438,-11.214440576171874
3497233925070,3.668125051,1,0.23822306518554687,1.7477672119140624,-11.238382592773437
3497240591216,3.674791197,1,0.18914193115234373,1.7262193969726563,-11.190498559570312
3497247258612,3.681458593,1,0.21428104858398436,1.7405846069335937,-11.18571015625
3497253924810,3.688124791,1,0.2442085693359375,1.7322049011230467,-11.184513055419922
3497260590956,3.694790937,1,0.23702596435546874,1.7286135986328124,-11.182118853759764
3497267257153,3.701457134,1,0.22385785522460935,1.714248388671875,-11.167753643798827
3497273924289,3.70812427,1,0.22385785522460935,1.715445489501953,-11.165359442138671
3497280589393,3.714789374,1,0.2166752502441406,1.715445489501953,-11.176133349609374
3497287259237,3.721459218,1,0.22026655273437498,1.7573440185546874,-11.033678350830078
3497293933351,3.728133332,1,0.23702596435546874,1.7298106994628906,-11.186907257080078
3497300601112,3.734801093,1,0.23822306518554687,1.7322049011230467,-11.194089862060546
3497307264237,3.741464218,1,0.25139117431640623,1.7226280944824217,-11.184513055419922
3497313933143,3.748133124,1,0.21787235107421873,1.7381904052734374,-11.182118853759764
3497320599237,3.754799218,1,0.2214636535644531,1.7429788085937499,-11.164162341308593
3497327266008,3.761465989,1,0.23343466186523437,1.7393875061035156,-11.182118853759764
3497333932778,3.768132759,1,0.2154781494140625,1.7334020019531249,-11.155782635498046
3497340598872,3.774798853,1,0.23582886352539062,1.7513585144042967,-11.212046374511718
3497347265487,3.781465468,1,0.22266075439453123,1.7286135986328124,-11.17852755126953
3497353933247,3.788133228,1,0.239420166015625,1.7226280944824217,-11.19887826538086
3497360600018,3.794799999,1,0.2214636535644531,1.7286135986328124,-11.19169566040039
3497367267205,3.801467186,1,0.2262520568847656,1.7274164978027342,-11.2240173828125
3497373933299,3.80813328,1,0.1975216369628906,1.7310078002929687,-11.184513055419922
3497380600122,3.814800103,1,0.22864625854492185,1.7214309936523438,-11.18571015625
3497387265070,3.821465051,1,0.23223756103515625,1.7405846069335937,-11.182118853759764
3497393926945,3.828126926,1,0.23343466186523437,1.7226280944824217,-11.18571015625
3497400591945,3.834791926,1,0.22505495605468748,1.7226280944824217,-11.177330450439452
3497407257258,3.841457239,1,0.23104046020507812,1.7166425903320313,-11.168950744628905
3497413924289,3.84812427,1,0.23104046020507812,1.7357962036132812,-11.190498559570312
3497420590070,3.854790051,1,0.2166752502441406,1.7334020019531249,-11.146205828857422
3497427256633,3.861456614,1,0.2262520568847656,1.7334020019531249,-11.17254204711914
3497433925695,3.868125676,1,0.2166752502441406,1.753752716064453,-11.17254204711914
3497440593247,3.874793228,1,0.2262520568847656,1.7334020019531249,-11.21084927368164
3497447258247,3.881458228,1,0.24061726684570311,1.734599102783203,-11.2240173828125
3497453926476,3.888126457,1,0.21428104858398436,1.7549498168945312,-11.219228979492186
3497460590695,3.894790676,1,0.22026655273437498,1.7405846069335937,-11.159373937988281
3497467259341,3.901459322,1,0.22864625854492185,1.7417817077636717,-11.189301458740234
3497473924705,3.908124686,1,0.2262520568847656,1.7585411193847655,-11.207257971191405
3497480590591,3.914790572,1,0.23104046020507812,1.7489643127441405,-11.190498559570312
3497487257570,3.921457551,1,0.23343466186523437,1.753752716064453,-11.139023223876952
3497493941268,3.928141249,1,0.2262520568847656,1.7190367919921874,-11.214440576171874
3497500595330,3.934795311,1,0.239420166015625,1.7405846069335937,-11.192892761230468
3497507267101,3.941467082,1,0.23104046020507812,1.7262193969726563,-11.184513055419922
3497513942674,3.948142655,1,0.24899697265624998,1.7202338928222656,-11.243170996093749
3497520600799,3.95480078,1,0.25258827514648435,1.707065783691406,-11.200075366210937
3497527266372,3.961466353,1,0.24301146850585936,1.7286135986328124,-11.206060870361327
3497533927882,3.968127863,1,0.24779987182617186,1.7322049011230467,-11.21084927368164
3497540599445,3.974799426,1,0.24301146850585936,1.7357962036132812,-11.183315954589844
3497547266060,3.981466041,1,0.23104046020507812,1.7453730102539062,-11.186907257080078
3497553932570,3.988132551,1,0.22505495605468748,1.7489643127441405,-11.184513055419922
3497560598664,3.994798645,1,0.22505495605468748,1.7286135986328124,-11.241973895263671
3497567265851,4.001465832,1,0.22744915771484372,1.7334020019531249,-11.188104357910156
3497573932205,4.008132186,1,0.24061726684570311,1.7334020019531249,-11.314997045898437
3497580599393,4.014799374,1,0.24779987182617186,1.7334020019531249,-11.161768139648437
3497587266112,4.021466093,1,0.20829554443359374,1.7118541870117185,-11.17852755126953
3497593955278,4.028155259,1,0.24181436767578124,1.7214309936523438,-11.183315954589844
3497600592674,4.034792655,1,0.2537853759765625,1.7393875061035156,-11.184513055419922
3497607255122,4.041455103,1,0.24779987182617186,1.7226280944824217,-11.152191333007812
3497613925539,4.04812552,1,0.24061726684570311,1.7166425903320313,-11.18571015625
3497620591945,4.054791926,1,0.26216508178710934,1.7106570861816406,-11.184513055419922
3497627262726,4.061462707,1,0.22744915771484372,1.744175909423828,-11.206060870361327
3497633925435,4.068125416,1,0.229843359375,1.7369933044433592,-11.189301458740234
3497640591268,4.074791249,1,0.23343466186523437,1.7405846069335937,-11.170147845458983
3497647258664,4.081458645,1,0.2442085693359375,1.7130512878417967,-11.195286962890624
3497653924549,4.08812453,1,0.21188684692382811,1.7322049011230467,-11.200075366210937
3497660591320,4.094791301,1,0.22505495605468748,1.734599102783203,-11.195286962890624
3497667258768,4.101458749,1,0.19871873779296872,1.7549498168945312,-11.166556542968749
3497673924497,4.108124478,1,0.2166752502441406,1.7178396911621092,-11.148600030517578
3497680590695,4.114790676,1,0.22744915771484372,1.7190367919921874,-11.159373937988281
3497687257882,4.121457863,1,0.22744915771484372,1.7393875061035156,-11.189301458740234
3497693924810,4.128124791,1,0.2346317626953125,1.744175909423828,-11.23718549194336
3497700590747,4.134790728,1,0.2346317626953125,1.7286135986328124,-11.219228979492186
3497707258560,4.141458541,1,0.20949264526367187,1.7465701110839842,-11.155782635498046
3497713923872,4.148123853,1,0.21906945190429686,1.7465701110839842,-11.133037719726563
3497720592101,4.154792082,1,0.19871873779296872,1.725022296142578,-11.133037719726563
3497727257205,4.161457186,1,0.21428104858398436,1.725022296142578,-11.15338843383789
3497733924132,4.168124113,1,0.22864625854492185,1.7357962036132812,-11.214440576171874
3497740591007,4.174790988,1,0.2154781494140625,1.715445489501953,-11.19169566040039
3497747257934,4.181457915,1,0.23343466186523437,1.7190367919921874,-11.220426080322264
3497753924601,4.188124582,1,0.239420166015625,1.7082628845214842,-11.17852755126953
3497760591372,4.194791353,1,0.24301146850585936,1.705868682861328,-11.208455072021483
3497767257205,4.201457186,1,0.2154781494140625,1.715445489501953,-11.188104357910156
3497773924445,4.208124426,1,0.25139117431640623,1.734599102783203,-11.166556542968749
3497780592153,4.214792134,1,0.21308394775390624,1.7334020019531249,-11.201272467041015
3497787258247,4.221458228,1,0.22266075439453123,1.7621324218749999,-11.164162341308593
3497793924809,4.22812479,1,0.21068974609375,1.7202338928222656,-11.168950744628905
3497800602205,4.234802186,1,0.229843359375,1.7405846069335937,-11.194089862060546
3497807267049,4.24146703,1,0.23582886352539062,1.7298106994628906,-11.192892761230468
3497813933299,4.24813328,1,0.22505495605468748,1.725022296142578,-11.158176837158203
3497820594445,4.254794426,1,0.2346317626953125,1.734599102783203,-11.166556542968749
3497827267622,4.261467603,1,0.20350714111328125,1.7489643127441405,-11.194089862060546
3497833933716,4.268133697,1,0.21787235107421873,1.7310078002929687,-11.238382592773437
3497840599445,4.274799426,1,0.2166752502441406,1.7286135986328124,-11.213243475341796
3497847266112,4.281466093,1,0.2166752502441406,1.7369933044433592,-11.19169566040039
3497853932882,4.288132863,1,0.239420166015625,1.7465701110839842,-11.206060870361327
3497860599914,4.294799895,1,0.2214636535644531,1.7465701110839842,-11.311405743408203
3497867265955,4.301465936,1,0.19871873779296872,1.7525556152343749,-11.158176837158203
3497873933195,4.308133176,1,0.23104046020507812,1.7369933044433592,-11.16057103881836
3497880598559,4.31479854,1,0.22266075439453123,1.7334020019531249,-11.189301458740234
3497887266841,4.321466822,1,0.229843359375,1.7262193969726563,-11.180921752929686
3497893933195,4.328133176,1,0.2166752502441406,1.7214309936523438,-11.197681164550781
3497900592934,4.334792915,1,0.2059013427734375,1.696291876220703,-11.192892761230468
3497907258039,4.34145802,1,0.21428104858398436,1.7573440185546874,-11.176133349609374
3497913925487,4.348125468,1,0.2262520568847656,1.734599102783203,-11.171344946289063
3497920592205,4.354792186,1,0.24061726684570311,1.7393875061035156,-11.186907257080078
3497927257882,4.361457863,1,0.23822306518554687,1.7357962036132812,-11.195286962890624
3497933924132,4.368124113,1,0.23223756103515625,1.7226280944824217,-11.197681164550781
3497940591424,4.374791405,1,0.22505495605468748,1.7214309936523438,-11.17254204711914
3497947249184,4.381449165,1,0.239420166015625,1.7429788085937499,-11.200075366210937
3497953926268,4.388126249,1,0.24899697265624998,1.7262193969726563,-11.180921752929686
3497960590382,4.394790363,1,0.22505495605468748,1.7334020019531249,-11.159373937988281
3497967257726,4.401457707,1,0.22385785522460935,1.7322049011230467,-11.176133349609374
3497973924184,4.408124165,1,0.23702596435546874,1.7334020019531249,-11.168950744628905
3497980591216,4.414791197,1,0.24181436767578124,1.7226280944824217,-11.162965240478515
3497987257830,4.421457811,1,0.24181436767578124,1.7166425903320313,-11.19887826538086
3497993924757,4.428124738,1,0.21428104858398436,1.7477672119140624,-11.214440576171874
3498000591789,4.43479177,1,0.22744915771484372,1.7477672119140624,-11.195286962890624
3498007258299,4.44145828,1,0.21068974609375,1.7334020019531249,-11.195286962890624
3498013918716,4.448118697,1,0.22026655273437498,1.7178396911621092,-11.125855114746093
3498020590486,4.454790467,1,0.21906945190429686,1.70467158203125,-11.188104357910156
3498027259809,4.46145979,1,0.2166752502441406,1.7202338928222656,-11.202469567871093
3498033925539,4.46812552,1,0.2214636535644531,1.7357962036132812,-11.196484063720703
3498040590851,4.474790832,1,0.20470424194335937,1.7453730102539062,-11.176133349609374
3498047253768,4.481453749,1,0.22744915771484372,1.7310078002929687,-11.195286962890624
3498053925486,4.488125467,1,0.22385785522460935,1.7561469177246092,-11.18571015625
3498060591580,4.494791561,1,0.21787235107421873,1.7525556152343749,-11.165359442138671
3498067258143,4.501458124,1,0.22026655273437498,1.7393875061035156,-11.13423482055664
3498073923872,4.508123853,1,0.24061726684570311,1.7477672119140624,-11.17254204711914
3498080591059,4.51479104,1,0.2346317626953125,1.7357962036132812,-11.209652172851563
3498087258403,4.521458384,1,0.20350714111328125,1.7489643127441405,-11.21683477783203
3498093924497,4.528124478,1,0.22864625854492185,1.7178396911621092,-11.215637677001952
3498100592414,4.534792395,1,0.2454056701660156,1.7393875061035156,-11.209652172851563
3498107258091,4.541458072,1,0.258573779296875,1.705868682861328,-11.17852755126953
3498113924705,4.548124686,1,0.21428104858398436,1.725022296142578,-11.19169566040039
3498120591476,4.554791457,1,0.21428104858398436,1.7274164978027342,-11.173739147949219
3498127258403,4.561458384,1,0.23223756103515625,1.7322049011230467,-11.195286962890624
3498133924601,4.568124582,1,0.23223756103515625,1.7238251953125,-11.194089862060546
3498140591632,4.574791613,1,0.21308394775390624,1.7238251953125,-11.214440576171874
3498147258507,4.581458488,1,0.21787235107421873,1.7322049011230467,-11.214440576171874
3498153924757,4.588124738,1,0.23582886352539062,1.714248388671875,-11.16057103881836
3498160591163,4.594791144,1,0.23822306518554687,1.70467158203125,-11.164162341308593
3498167258924,4.601458905,1,0.2346317626953125,1.707065783691406,-11.1474029296875
3498173925226,4.608125207,1,0.2214636535644531,1.7190367919921874,-11.197681164550781
3498180591268,4.614791249,1,0.2166752502441406,1.7334020019531249,-11.180921752929686
3498187258195,4.621458176,1,0.2454056701660156,1.7310078002929687,-11.201272467041015
3498193921163,4.628121144,1,0.22266075439453123,1.7322049011230467,-11.186907257080078
3498200600278,4.634800259,1,0.22026655273437498,1.7322049011230467,-11.214440576171874
3498207263507,4.641463488,1,0.21308394775390624,1.7310078002929687,-11.197681164550781
3498213933195,4.648133176,1,0.25139117431640623,1.7286135986328124,-11.204863769531249
3498220599653,4.654799634,1,0.22266075439453123,1.7274164978027342,-11.17852755126953
3498227266841,4.661466822,1,0.22864625854492185,1.7226280944824217,-11.197681164550781
3498233933976,4.668133957,1,0.20949264526367187,1.7393875061035156,-11.15338843383789
3498240599236,4.674799217,1,0.21068974609375,1.7381904052734374,-11.232397088623046
3498247266476,4.681466457,1,0.21906945190429686,1.7525556152343749,-11.182118853759764
3498253933403,4.688133384,1,0.23223756103515625,1.7238251953125,-11.180921752929686
3498260608559,4.69480854,1,0.229843359375,1.7238251953125,-11.196484063720703
3498267267413,4.701467394,1,0.2346317626953125,1.7214309936523438,-11.19887826538086
3498273932934,4.708132915,1,0.2346317626953125,1.7417817077636717,-11.195286962890624
3498280599757,4.714799738,1,0.19153613281249998,1.7381904052734374,-11.206060870361327
3498287266163,4.721466144,1,0.2262520568847656,1.7381904052734374,-11.228805786132812
3498293933091,4.728133072,1,0.22864625854492185,1.70467158203125,-11.196484063720703
3498300589236,4.734789217,1,0.23822306518554687,1.7417817077636717,-11.196484063720703
3498307259861,4.741459842,1,0.22744915771484372,1.7082628845214842,-11.212046374511718
3498313924184,4.748124165,1,0.2059013427734375,1.7334020019531249,-11.204863769531249
3498320591059,4.75479104,1,0.2346317626953125,1.7501614135742187,-11.23000288696289
3498327258403,4.761458384,1,0.24899697265624998,1.7190367919921874,-11.221623181152344
3498333923976,4.768123957,1,0.23104046020507812,1.734599102783203,-11.208455072021483
3498340591580,4.774791561,1,0.2214636535644531,1.7489643127441405,-11.149797131347656
3498347258091,4.781458072,1,0.2262520568847656,1.7573440185546874,-11.179724652099608
3498353924757,4.788124738,1,0.2154781494140625,1.7357962036132812,-11.186907257080078
3498360591580,4.794791561,1,0.22026655273437498,1.7525556152343749,-11.174936248779296
3498367258872,4.801458853,1,0.23702596435546874,1.7477672119140624,-11.162965240478515
3498373924913,4.808124894,1,0.23582886352539062,1.7369933044433592,-11.15338843383789
3498380591268,4.814791249,1,0.24660277099609373,1.7585411193847655,-11.148600030517578
3498387257726,4.821457707,1,0.2262520568847656,1.7357962036132812,-11.19169566040039
3498393925070,4.828125051,1,0.23343466186523437,1.7334020019531249,-11.165359442138671
3498400609601,4.834809582,1,0.22266075439453123,1.744175909423828,-11.174936248779296
3498407269184,4.841469165,1,0.22864625854492185,1.7381904052734374,-11.208455072021483
3498413934028,4.848134009,1,0.19871873779296872,1.7681179260253905,-11.214440576171874
3498420600695,4.854800676,1,0.19871873779296872,1.7034744812011717,-11.17254204711914
3498427265799,4.86146578,1,0.20829554443359374,1.7322049011230467,-11.186907257080078
3498433933715,4.868133696,1,0.24061726684570311,1.7322049011230467,-11.195286962890624
3498440594809,4.87479479,1,0.24301146850585936,1.7393875061035156,-11.195286962890624
3498447266684,4.881466665,1,0.2154781494140625,1.7417817077636717,-11.189301458740234
3498453932205,4.888132186,1,0.2166752502441406,1.7357962036132812,-11.202469567871093
3498460599393,4.894799374,1,0.21308394775390624,1.7310078002929687,-11.190498559570312
3498467266840,4.901466821,1,0.2454056701660156,1.7094599853515624,-11.186907257080078
3498473933403,4.908133384,1,0.24061726684570311,1.734599102783203,-11.197681164550781
3498480600382,4.914800363,1,0.22385785522460935,1.7178396911621092,-11.202469567871093
3498487265903,4.921465884,1,0.23582886352539062,1.7178396911621092,-11.184513055419922
3498493932882,4.928132863,1,0.21787235107421873,1.7202338928222656,-11.17852755126953
3498500690955,4.934890936,1,0.22026655273437498,1.7034744812011717,-11.190498559570312
3498507260330,4.941460311,1,0.23223756103515625,1.714248388671875,-11.231199987792968
3498513925382,4.948125363,1,0.24301146850585936,1.7094599853515624,-11.168950744628905
3498520591059,4.95479104,1,0.239420166015625,1.725022296142578,-11.184513055419922
3498527254757,4.961454738,1,0.2262520568847656,1.7214309936523438,-11.18571015625
3498533923820,4.968123801,1,0.22864625854492185,1.734599102783203,-11.18571015625
3498540590434,4.974790415,1,0.20949264526367187,1.7381904052734374,-11.208455072021483
3498547257465,4.981457446,1,0.2166752502441406,1.7405846069335937,-11.208455072021483
3498553924757,4.988124738,1,0.24061726684570311,1.734599102783203,-11.188104357910156
3498560590695,4.994790676,1,0.24061726684570311,1.7322049011230467,-11.177330450439452
3498567258820,5.001458801,1,0.20470424194335937,1.7381904052734374,-11.192892761230468
3498573925278,5.008125259,1,0.2346317626953125,1.7381904052734374,-11.3389390625
3498580592205,5.014792186,1,0.21787235107421873,1.7393875061035156,-11.18571015625
3498587257986,5.021457967,1,0.21068974609375,1.7178396911621092,-11.207257971191405
3498593924809,5.02812479,1,0.22026655273437498,1.7465701110839842,-11.214440576171874
3498600590747,5.034790728,1,0.22385785522460935,1.7286135986328124,-11.2240173828125
3498607258715,5.041458696,1,0.22864625854492185,1.7274164978027342,-11.197681164550781
3498613921267,5.048121248,1,0.23104046020507812,1.7118541870117185,-11.201272467041015
3498620592257,5.054792238,1,0.23343466186523437,1.715445489501953,-11.176133349609374
3498627259288,5.061459269,1,0.24779987182617186,1.715445489501953,-11.186907257080078
3498633925382,5.068125363,1,0.23702596435546874,1.7262193969726563,-11.195286962890624
3498640591007,5.074790988,1,0.22026655273437498,1.7298106994628906,-11.196484063720703
3498647258403,5.081458384,1,0.22385785522460935,1.734599102783203,-11.162965240478515
3498653924913,5.088124894,1,0.22505495605468748,1.744175909423828,-11.207257971191405
3498660590747,5.094790728,1,0.20949264526367187,1.7118541870117185,-11.201272467041015
3498667257570,5.101457551,1,0.20949264526367187,1.7118541870117185,-11.213243475341796
3498673924497,5.108124478,1,0.23343466186523437,1.7310078002929687,-11.228805786132812
3498680591111,5.114791092,1,0.2166752502441406,1.714248388671875,-11.204863769531249
3498687258455,5.121458436,1,0.23223756103515625,1.7310078002929687,-11.214440576171874
3498693925434,5.128125415,1,0.24061726684570311,1.7322049011230467,-11.204863769531249
3498700590851,5.134790832,1,0.2059013427734375,1.7417817077636717,-11.212046374511718
3498707265642,5.141465623,1,0.2059013427734375,1.7262193969726563,-11.202469567871093
3498713932726,5.148132707,1,0.24660277099609373,1.7262193969726563,-11.165359442138671
3498720652361,5.154852342,1,0.2214636535644531,1.7465701110839842,-11.174936248779296
3498727275747,5.161475728,1,0.20949264526367187,1.7525556152343749,-11.174936248779296
3498733936997,5.168136978,1,0.20709844360351562,1.7322049011230467,-11.194089862060546
3498740599757,5.174799738,1,0.23104046020507812,1.725022296142578,-11.18571015625
3498747265955,5.181465936,1,0.24181436767578124,1.7286135986328124,-11.189301458740234
3498753932882,5.188132863,1,0.21906945190429686,1.7190367919921874,-11.2240173828125
3498760598090,5.194798071,1,0.21787235107421873,1.7525556152343749,-11.232397088623046
3498767265538,5.201465519,1,0.21068974609375,1.7417817077636717,-11.166556542968749
3498773932205,5.208132186,1,0.22385785522460935,1.7334020019531249,-11.17254204711914
3498780599757,5.214799738,1,0.2166752502441406,1.7262193969726563,-11.18571015625
3498787266632,5.221466613,1,0.2501940734863281,1.7298106994628906,-11.162965240478515
3498793933247,5.228133228,1,0.21428104858398436,1.7369933044433592,-11.182118853759764
3498800599236,5.234799217,1,0.229843359375,1.7226280944824217,-11.183315954589844
3498807259497,5.241459478,1,0.2609679809570312,1.7130512878417967,-11.189301458740234
3498813921319,5.2481213,1,0.21906945190429686,1.7274164978027342,-11.170147845458983
3498820591736,5.254791717,1,0.22026655273437498,1.7381904052734374,-11.190498559570312
3498827258351,5.261458332,1,0.25139117431640623,1.725022296142578,-11.167753643798827
3498833924444,5.268124425,1,0.2262520568847656,1.7489643127441405,-11.170147845458983
3498840590590,5.274790571,1,0.2154781494140625,1.7322049011230467,-11.176133349609374
3498847255851,5.281455832,1,0.2154781494140625,1.715445489501953,-11.136629022216797
3498853926528,5.288126509,1,0.22744915771484372,1.7262193969726563,-11.170147845458983
3498860591997,5.294791978,1,0.22744915771484372,1.7262193969726563,-11.05762036743164
3498867258142,5.301458123,1,0.22744915771484372,1.7322049011230467,-11.21084927368164
3498873924080,5.308124061,1,0.22385785522460935,1.7465701110839842,-11.188104357910156
3498880591007,5.314790988,1,0.2454056701660156,1.7405846069335937,-11.19169566040039
3498887266997,5.321466978,1,0.2346317626953125,1.7381904052734374,-11.173739147949219
3498893925851,5.328125832,1,0.23582886352539062,1.7513585144042967,-11.186907257080078
3498900591372,5.334791353,1,0.20470424194335937,1.7489643127441405,-11.166556542968749
3498907275122,5.341475103,1,0.19632453613281248,1.7465701110839842,-11.204863769531249
3498913933455,5.348133436,1,0.22026655273437498,1.7214309936523438,-11.177330450439452
3498920599340,5.354799321,1,0.2549824768066406,1.7274164978027342,-11.207257971191405
3498927261788,5.361461769,1,0.24181436767578124,1.7369933044433592,-11.19169566040039
3498933932934,5.368132915,1,0.239420166015625,1.7405846069335937,-11.184513055419922
3498940598767,5.374798748,1,0.2262520568847656,1.7501614135742187,-11.17852755126953
3498947265747,5.381465728,1,0.2741360900878906,1.7561469177246092,-11.17254204711914
3498953933090,5.388133071,1,0.23822306518554687,1.744175909423828,-11.152191333007812
3498960598872,5.394798853,1,0.21308394775390624,1.7082628845214842,-11.200075366210937
3498967265434,5.401465415,1,0.22385785522460935,1.7262193969726563,-11.209652172851563
3498973932205,5.408132186,1,0.2657563842773437,1.7202338928222656,-11.188104357910156
3498980600017,5.414799998,1,0.24301146850585936,1.7010802795410156,-11.225214483642578
3498987266059,5.42146604,1,0.23223756103515625,1.7214309936523438,-11.200075366210937
3498993933194,5.428133175,1,0.23223756103515625,1.7705121276855467,-11.203666668701171
3499000598976,5.434798957,1,0.20231004028320312,1.7705121276855467,-11.241973895263671
3499007351892,5.441551873,1,0.21428104858398436,1.744175909423828,-11.206060870361327
3499013925799,5.44812578,1,0.22744915771484372,1.7238251953125,-11.206060870361327
3499020591840,5.454791821,1,0.19871873779296872,1.7405846069335937,-11.183315954589844
3499027258038,5.461458019,1,0.23582886352539062,1.7286135986328124,-11.17254204711914
3499033925278,5.468125259,1,0.2214636535644531,1.7166425903320313,-11.168950744628905
3499040600226,5.474800207,1,0.22864625854492185,1.7286135986328124,-11.19887826538086
3499047260486,5.481460467,1,0.239420166015625,1.7369933044433592,-11.180921752929686
3499053925069,5.48812505,1,0.24779987182617186,1.7322049011230467,-11.167753643798827
3499060590590,5.494790571,1,0.22744915771484372,1.7262193969726563,-11.19169566040039
3499067257257,5.501457238,1,0.23343466186523437,1.734599102783203,-11.184513055419922
3499073925538,5.508125519,1,0.201112939453125,1.7417817077636717,-11.218031878662108
3499080591007,5.514790988,1,0.2214636535644531,1.7549498168945312,-11.192892761230468
3499087257517,5.521457498,1,0.239420166015625,1.7298106994628906,-11.220426080322264
3499093924288,5.528124269,1,0.23104046020507812,1.7357962036132812,-11.188104357910156
3499100591215,5.534791196,1,0.23702596435546874,1.7405846069335937,-11.196484063720703
3499107256424,5.541456405,1,0.23702596435546874,1.7286135986328124,-11.19169566040039
3499113924809,5.54812479,1,0.2442085693359375,1.7381904052734374,-11.202469567871093
3499120590746,5.554790727,1,0.22505495605468748,1.734599102783203,-11.189301458740234
3499127257361,5.561457342,1,0.2262520568847656,1.7429788085937499,-11.17254204711914
3499133923455,5.568123436,1,0.2262520568847656,1.707065783691406,-11.220426080322264
3499140590069,5.57479005,1,0.21428104858398436,1.7226280944824217,-11.19887826538086
3499147256840,5.581456821,1,0.24779987182617186,1.7226280944824217,-11.19169566040039
3499153924549,5.58812453,1,0.22026655273437498,1.734599102783203,-11.19169566040039
3499160591163,5.594791144,1,0.21906945190429686,1.7094599853515624,-11.207257971191405
3499167257465,5.601457446,1,0.21906945190429686,1.7190367919921874,-11.168950744628905
3499173923976,5.608123957,1,0.22864625854492185,1.7334020019531249,-11.173739147949219
3499180591476,5.614791457,1,0.21188684692382811,1.7489643127441405,-11.17852755126953
3499187253299,5.62145328,1,0.22864625854492185,1.7429788085937499,-11.16057103881836
3499193925226,5.628125207,1,0.2262520568847656,1.7262193969726563,-11.215637677001952
3499200591580,5.634791561,1,0.24899697265624998,1.7489643127441405,-11.204863769531249
3499207258090,5.641458071,1,0.2262520568847656,1.7501614135742187,-11.184513055419922
3499213933871,5.648133852,1,0.20829554443359374,1.7513585144042967,-11.173739147949219
3499220599653,5.654799634,1,0.22385785522460935,1.7489643127441405,-11.19887826538086
3499227265434,5.661465415,1,0.20350714111328125,1.7453730102539062,-11.170147845458983
3499233931580,5.668131561,1,0.20350714111328125,1.744175909423828,-11.158176837158203
3499240598767,5.674798748,1,0.2166752502441406,1.7429788085937499,-11.17852755126953
3499247265538,5.681465519,1,0.239420166015625,1.7393875061035156,-11.158176837158203
3499253932101,5.688132082,1,0.22864625854492185,1.7202338928222656,-11.16057103881836
3499260598611,5.694798592,1,0.19991583862304688,1.7118541870117185,-11.203666668701171
3499267267309,5.70146729,1,0.258573779296875,1.7369933044433592,-11.156979736328124
3499273931996,5.708131977,1,0.22744915771484372,1.7274164978027342,-11.179724652099608
3499280599496,5.714799477,1,0.22744915771484372,1.7310078002929687,-11.17254204711914
3499287266267,5.721466248,1,0.20829554443359374,1.7310078002929687,-11.167753643798827
3499293931319,5.7281313,1,0.21906945190429686,1.7465701110839842,-11.15338843383789
3499300598923,5.734798904,1,0.26336218261718747,1.7034744812011717,-11.15338843383789
3499307263819,5.7414638,1,0.22744915771484372,1.7310078002929687,-11.179724652099608
3499313925642,5.748125623,1,0.24779987182617186,1.7334020019531249,-11.176133349609374
3499320591007,5.754790988,1,0.21787235107421873,1.725022296142578,-11.220426080322264
3499327253246,5.761453227,1,0.23343466186523437,1.7226280944824217,-11.208455072021483
3499333923351,5.768123332,1,0.20470424194335937,1.7334020019531249,-11.226411584472656
3499340590955,5.774790936,1,0.2166752502441406,1.7513585144042967,-11.214440576171874
3499347256840,5.781456821,1,0.21188684692382811,1.7357962036132812,-11.17254204711914
3499353923976,5.788123957,1,0.21188684692382811,1.7202338928222656,-11.18571015625
3499360590851,5.794790832,1,0.22026655273437498,1.7334020019531249,-11.189301458740234
3499367257621,5.801457602,1,0.22266075439453123,1.7034744812011717,-11.201272467041015
3499373924288,5.808124269,1,0.24061726684570311,1.7417817077636717,-11.228805786132812
3499380590642,5.814790623,1,0.2537853759765625,1.7453730102539062,-11.183315954589844
3499387257517,5.821457498,1,0.2645592834472656,1.7501614135742187,-11.182118853759764
3499393924548,5.828124529,1,0.22864625854492185,1.7561469177246092,-11.202469567871093
3499400589965,5.834789946,1,0.22505495605468748,1.7334020019531249,-11.194089862060546
3499407257361,5.841457342,1,0.2346317626953125,1.7226280944824217,-11.19169566040039
3499413933663,5.848133644,1,0.2154781494140625,1.7130512878417967,-11.18571015625
3499420600955,5.854800936,1,0.2154781494140625,1.7357962036132812,-11.17852755126953
3499427265903,5.861465884,1,0.22505495605468748,1.7369933044433592,-11.173739147949219
3499433926632,5.868126613,1,0.23822306518554687,1.7369933044433592,-11.171344946289063
3499440600121,5.874800102,1,0.23822306518554687,1.7298106994628906,-11.171344946289063
3499447265330,5.881465311,1,0.2346317626953125,1.7429788085937499,-11.218031878662108
3499453932361,5.888132342,1,0.229843359375,1.715445489501953,-11.194089862060546
3499460598871,5.894798852,1,0.2262520568847656,1.7501614135742187,-11.16057103881836
3499467266580,5.901466561,1,0.20829554443359374,1.734599102783203,-11.149797131347656
3499473932517,5.908132498,1,0.19991583862304688,1.7286135986328124,-11.171344946289063
3499480595746,5.914795727,1,0.1975216369628906,1.7465701110839842,-11.221623181152344
3499487265330,5.921465311,1,0.23223756103515625,1.7405846069335937,-11.239579693603515
3499493931736,5.928131717,1,0.22026655273437498,1.7190367919921874,-11.17852755126953
3499500599340,5.934799321,1,0.23343466186523437,1.7465701110839842,-11.194089862060546
3499507265434,5.941465415,1,0.22026655273437498,1.7369933044433592,-11.209652172851563
3499513933559,5.94813354,1,0.2442085693359375,1.7405846069335937,-11.225214483642578
3499520593246,5.954793227,1,0.2214636535644531,1.7681179260253905,-11.186907257080078
3499527257048,5.961457029,1,0.24779987182617186,1.7274164978027342,-11.209652172851563
3499533924288,5.968124269,1,0.22385785522460935,1.7369933044433592,-11.207257971191405
3499540591111,5.974791092,1,0.26695348510742184,1.7573440185546874,-11.149797131347656
3499547257205,5.981457186,1,0.2501940734863281,1.7489643127441405,-11.152191333007812
3499553925798,5.988125779,1,0.23702596435546874,1.7417817077636717,-11.19887826538086
3499560591423,5.994791404,1,0.25139117431640623,1.7477672119140624,-11.201272467041015
3499567258246,6.001458227,1,0.25139117431640623,1.7513585144042967,-11.171344946289063
3499573924965,6.008124946,1,0.2166752502441406,1.7513585144042967,-11.206060870361327
3499580586007,6.014785988,1,0.21308394775390624,1.7322049011230467,-11.206060870361327
3499587258142,6.021458123,1,0.22026655273437498,1.7369933044433592,-11.183315954589844
3499593924913,6.028124894,1,0.24061726684570311,1.7298106994628906,-11.228805786132812
3499600591371,6.034791352,1,0.23223756103515625,1.7286135986328124,-11.213243475341796
3499607256840,6.041456821,1,0.19632453613281248,1.7298106994628906,-11.197681164550781
3499614000382,6.048200363,1,0.24061726684570311,1.7334020019531249,-11.19887826538086
3499620601528,6.054801509,1,0.23582886352539062,1.7226280944824217,-11.182118853759764
3499627267048,6.061467029,1,0.20470424194335937,1.7322049011230467,-11.197681164550781
3499633934496,6.068134477,1,0.22266075439453123,1.7166425903320313,-11.18571015625
3499640599132,6.074799113,1,0.24061726684570311,1.7286135986328124,-11.165359442138671
3499647264705,6.081464686,1,0.23104046020507812,1.7417817077636717,-11.189301458740234
3499653932517,6.088132498,1,0.21787235107421873,1.7106570861816406,-11.173739147949219
3499660598298,6.094798279,1,0.22266075439453123,1.705868682861328,-11.214440576171874
3499667264548,6.101464529,1,0.25258827514648435,1.7118541870117185,-11.177330450439452
3499673932621,6.108132602,1,0.23223756103515625,1.7298106994628906,-11.143811627197264
3499680592778,6.114792759,1,0.2154781494140625,1.7453730102539062,-11.159373937988281
3499687266215,6.121466196,1,0.25258827514648435,1.7453730102539062,-11.183315954589844
3499693932152,6.128132133,1,0.23582886352539062,1.7178396911621092,-11.179724652099608
3499700599548,6.134799529,1,0.22864625854492185,1.7118541870117185,-11.18571015625
3499707265017,6.141464998,1,0.22864625854492185,1.7262193969726563,-11.167753643798827
3499713952309,6.14815229,1,0.229843359375,1.7334020019531249,-11.206060870361327
3499720592621,6.154792602,1,0.24061726684570311,1.7334020019531249,-11.195286962890624
3499727257777,6.161457758,1,0.23223756103515625,1.753752716064453,-11.195286962890624
3499733924132,6.168124113,1,0.23223756103515625,1.7357962036132812,-11.171344946289063
3499740591059,6.17479104,1,0.23104046020507812,1.734599102783203,-11.182118853759764
3499747256840,6.181456821,1,0.22864625854492185,1.7274164978027342,-11.212046374511718
3499753924288,6.188124269,1,0.2346317626953125,1.7298106994628906,-11.165359442138671
3499760591163,6.194791144,1,0.21906945190429686,1.7405846069335937,-11.200075366210937
3499767257569,6.20145755,1,0.24181436767578124,1.7429788085937499,-11.171344946289063
3499773924340,6.208124321,1,0.22385785522460935,1.7310078002929687,-11.16057103881836
3499780591215,6.214791196,1,0.23104046020507812,1.7357962036132812,-11.189301458740234
3499787256996,6.221456977,1,0.23343466186523437,1.7214309936523438,-11.189301458740234
3499793924913,6.228124894,1,0.2657563842773437,1.7525556152343749,-11.209652172851563
3499800590121,6.234790102,1,0.23223756103515625,1.7381904052734374,-11.197681164550781
3499807257673,6.241457654,1,0.24181436767578124,1.7214309936523438,-11.189301458740234
3499813924340,6.248124321,1,0.22864625854492185,1.7322049011230467,-11.162965240478515
3499820602673,6.254802654,1,0.20829554443359374,1.7262193969726563,-11.186907257080078
3499827265642,6.261465623,1,0.21068974609375,1.7202338928222656,-11.213243475341796
3499833932413,6.268132394,1,0.2166752502441406,1.7357962036132812,-11.179724652099608
3499840599600,6.274799581,1,0.22026655273437498,1.7310078002929687,-11.179724652099608
3499847266944,6.281466925,1,0.23822306518554687,1.7274164978027342,-11.186907257080078
3499853932882,6.288132863,1,0.23822306518554687,1.7166425903320313,-11.188104357910156
3499860599184,6.294799165,1,0.21906945190429686,1.7166425903320313,-11.194089862060546
3499867265330,6.301465311,1,0.20949264526367187,1.705868682861328,-11.188104357910156
3499873934132,6.308134113,1,0.23702596435546874,1.7298106994628906,-11.188104357910156
3499880598767,6.314798748,1,0.21787235107421873,1.7118541870117185,-11.158176837158203
3499887266111,6.321466092,1,0.23582886352539062,1.7298106994628906,-11.183315954589844
3499893932517,6.328132498,1,0.239420166015625,1.7334020019531249,-11.206060870361327
3499900599288,6.334799269,1,0.2154781494140625,1.7429788085937499,-11.17852755126953
3499907265225,6.341465206,1,0.229843359375,1.734599102783203,-11.200075366210937
3499913932934,6.348132915,1,0.258573779296875,1.7429788085937499,-11.21683477783203
3499920591632,6.354791613,1,0.23582886352539062,1.7166425903320313,-11.189301458740234
3499927257517,6.361457498,1,0.21068974609375,1.7393875061035156,-11.208455072021483
3499933924444,6.368124425,1,0.2214636535644531,1.714248388671875,-11.171344946289063
3499940591736,6.374791717,1,0.21787235107421873,1.7130512878417967,-11.184513055419922
3499947256892,6.381456873,1,0.24301146850585936,1.707065783691406,-11.214440576171874
3499953924809,6.38812479,1,0.2166752502441406,1.7178396911621092,-11.209652172851563
3499960591059,6.39479104,1,0.229843359375,1.7178396911621092,-11.200075366210937
3499967256840,6.401456821,1,0.23223756103515625,1.7178396911621092,-11.192892761230468
3499973923559,6.40812354,1,0.24301146850585936,1.695094775390625,-11.188104357910156
3499980590642,6.414790623,1,0.18914193115234373,1.7118541870117185,-11.226411584472656
3499987257465,6.421457446,1,0.21068974609375,1.7525556152343749,-11.186907257080078
3499993924496,6.428124477,1,0.21068974609375,1.7501614135742187,-11.196484063720703
3500000591007,6.434790988,1,0.19871873779296872,1.6986860778808592,-11.17852755126953
3500007257257,6.441457238,1,0.2214636535644531,1.6986860778808592,-11.034875451660156
3500013923715,6.448123696,1,0.23223756103515625,1.7681179260253905,-11.188104357910156
3500020600017,6.454799998,1,0.22744915771484372,1.7453730102539062,-11.212046374511718
3500027732673,6.461932654,1,0.24899697265624998,1.7322049011230467,-11.330559356689452
3500033982777,6.468182758,1,0.23343466186523437,1.7393875061035156,-11.177330450439452
3500040595694,6.474795675,1,0.22266075439453123,1.7369933044433592,-11.161768139648437
3500047257465,6.481457446,1,0.23702596435546874,1.7286135986328124,-11.154585534667968
3500053929704,6.488129685,1,0.23104046020507812,1.7453730102539062,-11.168950744628905
3500060599079,6.49479906,1,0.22744915771484372,1.7417817077636717,-11.179724652099608
3500067260225,6.501460206,1,0.24301146850585936,1.7310078002929687,-11.164162341308593
3500073930069,6.50813005,1,0.21308394775390624,1.7082628845214842,-11.184513055419922
3500080594965,6.514794946,1,0.229843359375,1.7214309936523438,-11.184513055419922
3500087263142,6.521463123,1,0.22385785522460935,1.7274164978027342,-11.176133349609374
3500093925798,6.528125779,1,0.21188684692382811,1.7357962036132812,-11.207257971191405
3500100596632,6.534796613,1,0.23822306518554687,1.7166425903320313,-11.188104357910156
3500107262048,6.541462029,1,0.2549824768066406,1.7417817077636717,-11.21683477783203
3500113930121,6.548130102,1,0.21308394775390624,1.7298106994628906,-11.190498559570312
3500120592204,6.554792185,1,0.2549824768066406,1.6998831787109374,-11.18571015625
3500127255381,6.561455362,1,0.2537853759765625,1.7202338928222656,-11.196484063720703
3500133921267,6.568121248,1,0.2442085693359375,1.7298106994628906,-11.18571015625
3500140587986,6.574787967,1,0.2442085693359375,1.7286135986328124,-11.186907257080078
3500147254704,6.581454685,1,0.24061726684570311,1.7286135986328124,-11.173739147949219
3500153921475,6.588121456,1,0.21308394775390624,1.7190367919921874,-11.173739147949219
3500160589184,6.594789165,1,0.2214636535644531,1.7166425903320313,-11.196484063720703
3500167254496,6.601454477,1,0.20949264526367187,1.7214309936523438,-11.186907257080078
3500173920694,6.608120675,1,0.19512743530273435,1.7369933044433592,-11.21084927368164
3500180586163,6.614786144,1,0.21787235107421873,1.7214309936523438,-11.158176837158203
3500187255329,6.62145531,1,0.24660277099609373,1.7226280944824217,-11.174936248779296
3500193922621,6.628122602,1,0.2561795776367187,1.7322049011230467,-11.209652172851563
3500200587777,6.634787758,1,0.2657563842773437,1.7369933044433592,-11.233594189453123
3500207255173,6.641455154,1,0.24301146850585936,1.7202338928222656,-11.170147845458983
3500213921267,6.648121248,1,0.22266075439453123,1.7369933044433592,-11.219228979492186
3500220600954,6.654800935,1,0.22026655273437498,1.7453730102539062,-11.189301458740234
3500227266736,6.661466717,1,0.22266075439453123,1.7477672119140624,-11.167753643798827
3500233929444,6.668129425,1,0.23822306518554687,1.7453730102539062,-11.182118853759764
3500240599340,6.674799321,1,0.229843359375,1.7429788085937499,-11.15338843383789
3500247265954,6.681465935,1,0.229843359375,1.7357962036132812,-11.139023223876952
3500253933090,6.688133071,1,0.23343466186523437,1.7393875061035156,-11.244368096923827
3500260603506,6.694803487,1,0.2059013427734375,1.725022296142578,-11.202469567871093
3500267267309,6.70146729,1,0.20709844360351562,1.7369933044433592,-11.16057103881836
3500273933611,6.708133592,1,0.23702596435546874,1.7226280944824217,-11.215637677001952
3500280598663,6.714798644,1,0.23702596435546874,1.7429788085937499,-11.184513055419922
3500287266736,6.721466717,1,0.21308394775390624,1.715445489501953,-11.196484063720703
3500293933142,6.728133123,1,0.22266075439453123,1.715445489501953,-11.194089862060546
3500300600069,6.73480005,1,0.22505495605468748,1.7094599853515624,-11.194089862060546
3500307265381,6.741465362,1,0.2154781494140625,1.715445489501953,-11.159373937988281
3500313933194,6.748133175,1,0.2549824768066406,1.7262193969726563,-11.170147845458983
3500320591944,6.754791925,1,0.23104046020507812,1.7178396911621092,-11.168950744628905
3500327258663,6.761458644,1,0.23223756103515625,1.7082628845214842,-11.170147845458983
3500333923975,6.768123956,1,0.19871873779296872,1.7477672119140624,-11.166556542968749
3500340590642,6.774790623,1,0.24301146850585936,1.7190367919921874,-11.176133349609374
3500347257100,6.781457081,1,0.24181436767578124,1.7417817077636717,-11.173739147949219
3500353926111,6.788126092,1,0.23702596435546874,1.7334020019531249,-11.19887826538086
3500360591267,6.794791248,1,0.24660277099609373,1.7381904052734374,-11.179724652099608
3500367258454,6.801458435,1,0.24660277099609373,1.7298106994628906,-11.194089862060546
3500373924496,6.808124477,1,0.24779987182617186,1.7405846069335937,-11.188104357910156
3500380591058,6.814791039,1,0.25139117431640623,1.7525556152343749,-11.150994232177734
3500387258194,6.821458175,1,0.23582886352539062,1.7489643127441405,-11.155782635498046
3500393924808,6.828124789,1,0.21068974609375,1.7513585144042967,-11.150994232177734
3500400591788,6.834791769,1,0.23702596435546874,1.7286135986328124,-11.196484063720703
3500407257308,6.841457289,1,0.20231004028320312,1.7214309936523438,-11.166556542968749
3500413923975,6.848123956,1,0.2262520568847656,1.7190367919921874,-11.183315954589844
3500420591319,6.8547913,1,0.22744915771484372,1.7034744812011717,-11.234791290283203
3500427252777,6.861452758,1,0.22744915771484372,1.7118541870117185,-11.219228979492186
3500433925277,6.868125258,1,0.22385785522460935,1.7118541870117185,-11.21683477783203
3500440590277,6.874790258,1,0.23223756103515625,1.707065783691406,-11.21683477783203
3500447257621,6.881457602,1,0.2214636535644531,1.70467158203125,-11.17254204711914
3500453924496,6.888124477,1,0.19991583862304688,1.715445489501953,-11.19169566040039
3500460590642,6.894790623,1,0.23343466186523437,1.7477672119140624,-11.184513055419922
3500467258715,6.901458696,1,0.22266075439453123,1.7453730102539062,-11.18571015625
3500473924131,6.908124112,1,0.2346317626953125,1.7393875061035156,-11.218031878662108
3500480590694,6.914790675,1,0.2346317626953125,1.7214309936523438,-11.166556542968749
3500487258246,6.921458227,1,0.23702596435546874,1.6927005737304686,-11.189301458740234
3500493923663,6.928123644,1,0.22385785522460935,1.7489643127441405,-11.170147845458983
3500500590277,6.934790258,1,0.25258827514648435,1.7405846069335937,-11.18571015625
3500507258038,6.941458019,1,0.24899697265624998,1.7286135986328124,-11.17254204711914
3500513923611,6.948123592,1,0.21188684692382811,1.7310078002929687,-11.180921752929686
3500520606058,6.954806039,1,0.23822306518554687,1.725022296142578,-11.196484063720703
3500527269079,6.96146906,1,0.22266075439453123,1.7082628845214842,-11.196484063720703
3500533932621,6.968132602,1,0.239420166015625,1.6998831787109374,-11.202469567871093
3500540599808,6.974799789,1,0.21308394775390624,1.725022296142578,-11.214440576171874
3500547266215,6.981466196,1,0.19871873779296872,1.7130512878417967,-11.184513055419922
3500553932152,6.988132133,1,0.21308394775390624,1.7573440185546874,-11.171344946289063
3500560599860,6.994799841,1,0.18914193115234373,1.7405846069335937,-11.213243475341796
3500567265902,7.001465883,1,0.18914193115234373,1.725022296142578,-11.21084927368164
3500573928298,7.008128279,1,0.21068974609375,1.7166425903320313,-11.204863769531249
3500580601215,7.014801196,1,0.22864625854492185,1.7166425903320313,-11.164162341308593
3500587265590,7.021465571,1,0.24899697265624998,1.7357962036132812,-11.164162341308593
3500593932465,7.028132446,1,0.22864625854492185,1.7262193969726563,-11.177330450439452
3500600598715,7.034798696,1,0.2214636535644531,1.7214309936523438,-11.195286962890624
3500607260850,7.041460831,1,0.1975216369628906,1.7322049011230467,-11.182118853759764
3500613931892,7.048131873,1,0.24181436767578124,1.7238251953125,-11.17852755126953
3500620691631,7.054891612,1,0.24660277099609373,1.7202338928222656,-11.17852755126953
3500627258298,7.061458279,1,0.23223756103515625,1.7310078002929687,-11.17852755126953
3500633921944,7.068121925,1,0.20470424194335937,1.7166425903320313,-11.17852755126953
3500640591527,7.074791508,1,0.2501940734863281,1.714248388671875,-11.192892761230468
3500647257725,7.081457706,1,0.2442085693359375,1.734599102783203,-11.208455072021483
3500653924079,7.08812406,1,0.21906945190429686,1.734599102783203,-11.174936248779296
3500660590902,7.094790883,1,0.2454056701660156,1.7262193969726563,-11.159373937988281
3500667257621,7.101457602,1,0.23822306518554687,1.7238251953125,-11.170147845458983
3500673920173,7.108120154,1,0.24061726684570311,1.7597382202148437,-11.207257971191405
3500680591579,7.11479156,1,0.2346317626953125,1.7549498168945312,-11.21084927368164
3500687258246,7.121458227,1,0.23343466186523437,1.725022296142578,-11.154585534667968
3500693924183,7.128124164,1,0.22385785522460935,1.7202338928222656,-11.176133349609374
3500700590590,7.134790571,1,0.2154781494140625,1.7274164978027342,-11.133037719726563
3500707257621,7.141457602,1,0.23104046020507812,1.7322049011230467,-11.13423482055664
3500713924496,7.148124477,1,0.23104046020507812,1.7082628845214842,-11.161768139648437
3500720590694,7.154790675,1,0.2346317626953125,1.7082628845214842,-11.148600030517578
3500727259027,7.161459008,1,0.22026655273437498,1.7238251953125,-11.148600030517578
3500733924496,7.168124477,1,0.22744915771484372,1.7322049011230467,-11.195286962890624
3500740592204,7.174792185,1,0.20709844360351562,1.7118541870117185,-11.180921752929686
3500747258038,7.181458019,1,0.21428104858398436,1.7405846069335937,-11.156979736328124
3500753924600,7.188124581,1,0.2262520568847656,1.7310078002929687,-11.177330450439452
3500760590954,7.194790935,1,0.21308394775390624,1.7274164978027342,-11.19887826538086
3500767257413,7.201457394,1,0.2214636535644531,1.725022296142578,-11.208455072021483
3500773924756,7.208124737,1,0.21188684692382811,1.7226280944824217,-11.162965240478515
3500780591683,7.214791664,1,0.20829554443359374,1.7202338928222656,-11.18571015625
3500787259027,7.221459008,1,0.22864625854492185,1.7214309936523438,-11.190498559570312
3500793924808,7.228124789,1,0.21428104858398436,1.725022296142578,-11.158176837158203
3500800591267,7.234791248,1,0.24660277099609373,1.7274164978027342,-11.200075366210937
3500807257465,7.241457446,1,0.239420166015625,1.7501614135742187,-11.15338843383789
3500813924079,7.24812406,1,0.23702596435546874,1.7202338928222656,-11.194089862060546
3500820591631,7.254791612,1,0.22385785522460935,1.7202338928222656,-11.171344946289063
3500827267048,7.261467029,1,0.2442085693359375,1.7190367919921874,-11.139023223876952
3500833933142,7.268133123,1,0.20709844360351562,1.70467158203125,-11.146205828857422
3500840598819,7.2747988,1,0.22864625854492185,1.7274164978027342,-11.195286962890624
3500847266579,7.28146656,1,0.229843359375,1.7405846069335937,-11.194089862060546
3500853933558,7.288133539,1,0.229843359375,1.7357962036132812,-11.166556542968749
3500860593558,7.294793539,1,0.23223756103515625,1.7334020019531249,-11.179724652099608
3500867265642,7.301465623,1,0.22505495605468748,1.7334020019531249,-11.16057103881836
3500873933090,7.308133071,1,0.21787235107421873,1.7561469177246092,-11.16057103881836
3500880599496,7.314799477,1,0.25139117431640623,1.7393875061035156,-11.167753643798827
3500887277985,7.321477966,1,0.24779987182617186,1.7082628845214842,-11.212046374511718
3500893930694,7.328130675,1,0.22505495605468748,1.70467158203125,-11.195286962890624
3500900602152,7.334802133,1,0.28490999755859375,1.7130512878417967,-11.190498559570312
3500907265537,7.341465518,1,0.2346317626953125,1.7405846069335937,-11.180921752929686
3500913932829,7.34813281,1,0.22864625854492185,1.714248388671875,-11.21084927368164
3500920593662,7.354793643,1,0.23702596435546874,1.7489643127441405,-11.186907257080078
3500927259652,7.361459633,1,0.22744915771484372,1.7369933044433592,-11.186907257080078
3500933925225,7.368125206,1,0.21906945190429686,1.7238251953125,-11.176133349609374
3500940591475,7.374791456,1,0.22026655273437498,1.6986860778808592,-11.164162341308593
3500947257829,7.38145781,1,0.2154781494140625,1.7298106994628906,-11.212046374511718
3500953924392,7.388124373,1,0.22266075439453123,1.734599102783203,-11.183315954589844
3500960591267,7.394791248,1,0.22385785522460935,1.7501614135742187,-11.156979736328124
3500967258402,7.401458383,1,0.23223756103515625,1.7369933044433592,-11.19169566040039
3500973924860,7.408124841,1,0.2346317626953125,1.7106570861816406,-11.184513055419922
3500980591006,7.414790987,1,0.22864625854492185,1.7118541870117185,-11.186907257080078
3500987258037,7.421458018,1,0.20470424194335937,1.715445489501953,-11.161768139648437
3500993925017,7.428124998,1,0.2454056701660156,1.7034744812011717,-11.19887826538086
3501000591267,7.434791248,1,0.2454056701660156,1.7214309936523438,-11.19887826538086
3501007259079,7.44145906,1,0.22266075439453123,1.7214309936523438,-11.167753643798827
3501013925069,7.44812505,1,0.21428104858398436,1.7357962036132812,-11.167753643798827
3501020591110,7.454791091,1,0.25139117431640623,1.725022296142578,-11.17852755126953
3501027258402,7.461458383,1,0.23582886352539062,1.7369933044433592,-11.208455072021483
3501033924600,7.468124581,1,0.22026655273437498,1.7369933044433592,-11.190498559570312
3501040591214,7.474791195,1,0.21068974609375,1.7274164978027342,-11.200075366210937
3501047258923,7.481458904,1,0.2454056701660156,1.7262193969726563,-11.182118853759764
3501053920798,7.488120779,1,0.2262520568847656,1.7357962036132812,-11.16057103881836
3501060591631,7.494791612,1,0.22385785522460935,1.725022296142578,-11.189301458740234
3501067256787,7.501456768,1,0.2262520568847656,1.7178396911621092,-11.18571015625
3501073925121,7.508125102,1,0.23223756103515625,1.7525556152343749,-11.19169566040039
3501080590017,7.514789998,1,0.2442085693359375,1.734599102783203,-11.21084927368164
3501087258142,7.521458123,1,0.23104046020507812,1.7453730102539062,-11.209652172851563
3501093924392,7.528124373,1,0.23582886352539062,1.7334020019531249,-11.192892761230468
3501100591267,7.534791248,1,0.21308394775390624,1.7226280944824217,-11.177330450439452
3501107257048,7.541457029,1,0.21787235107421873,1.7417817077636717,-11.182118853759764
3501113923767,7.548123748,1,0.24061726684570311,1.7429788085937499,-11.201272467041015
3501120589808,7.554789789,1,0.2059013427734375,1.7465701110839842,-11.174936248779296
3501127266475,7.561466456,1,0.22385785522460935,1.7561469177246092,-11.192892761230468
3501133934339,7.56813432,1,0.1975216369628906,1.7082628845214842,-11.220426080322264
3501140598350,7.574798331,1,0.1975216369628906,1.7393875061035156,-11.180921752929686
3501147264496,7.581464477,1,0.22744915771484372,1.7322049011230467,-11.189301458740234
3501153934235,7.588134216,1,0.22505495605468748,1.7322049011230467,-11.165359442138671
3501160599808,7.594799789,1,0.2454056701660156,1.7501614135742187,-11.165359442138671
3501167265798,7.601465779,1,0.2549824768066406,1.7405846069335937,-11.174936248779296
3501173934235,7.608134216,1,0.22266075439453123,1.7298106994628906,-11.19887826538086
3501180600069,7.61480005,1,0.201112939453125,1.7310078002929687,-11.189301458740234
3501187266267,7.621466248,1,0.23223756103515625,1.7274164978027342,-11.19887826538086
3501193933767,7.628133748,1,0.24061726684570311,1.7477672119140624,-11.220426080322264
3501200599548,7.634799529,1,0.20829554443359374,1.7453730102539062,-11.164162341308593
3501207266683,7.641466664,1,0.21308394775390624,1.7501614135742187,-11.17254204711914
3501213932517,7.648132498,1,0.22864625854492185,1.7417817077636717,-11.16057103881836
3501220599131,7.654799112,1,0.23582886352539062,1.725022296142578,-11.18571015625
3501227255016,7.661454997,1,0.2346317626953125,1.7405846069335937,-11.17852755126953
3501233925850,7.668125831,1,0.22744915771484372,1.7262193969726563,-11.194089862060546
3501240591735,7.674791716,1,0.23223756103515625,1.7226280944824217,-11.186907257080078
3501247257985,7.681457966,1,0.27293898925781246,1.7381904052734374,-11.202469567871093
3501253924704,7.688124685,1,0.2454056701660156,1.7429788085937499,-11.215637677001952
3501260590537,7.694790518,1,0.2537853759765625,1.725022296142578,-11.21084927368164
3501267257881,7.701457862,1,0.25258827514648435,1.725022296142578,-11.204863769531249
3501273925121,7.708125102,1,0.2442085693359375,1.7238251953125,-11.194089862060546
3501280591371,7.714791352,1,0.22026655273437498,1.7417817077636717,-11.184513055419922
3501287257516,7.721457497,1,0.22026655273437498,1.7357962036132812,-11.201272467041015
3501293924339,7.72812432,1,0.19871873779296872,1.7357962036132812,-11.19887826538086
3501300591162,7.734791143,1,0.23223756103515625,1.7298106994628906,-11.19887826538086
3501307258298,7.741458279,1,0.24181436767578124,1.7369933044433592,-11.19169566040039
3501313924912,7.748124893,1,0.23702596435546874,1.7573440185546874,-11.182118853759764
3501320590902,7.754790883,1,0.229843359375,1.7310078002929687,-11.21683477783203
3501327276266,7.761476247,1,0.21906945190429686,1.7286135986328124,-11.190498559570312
3501333934964,7.768134945,1,0.22744915771484372,1.7477672119140624,-11.213243475341796
3501340599704,7.774799685,1,0.21906945190429686,1.7238251953125,-11.17852755126953
3501347266058,7.781466039,1,0.22744915771484372,1.7405846069335937,-11.220426080322264
3501353933402,7.788133383,1,0.21068974609375,1.7334020019531249,-11.183315954589844
3501360599496,7.794799477,1,0.2346317626953125,1.7130512878417967,-11.197681164550781
3501367266683,7.801466664,1,0.21428104858398436,1.7238251953125,-11.186907257080078
3501373927256,7.808127237,1,0.21188684692382811,1.7262193969726563,-11.168950744628905
3501380599912,7.814799893,1,0.22744915771484372,1.7034744812011717,-11.173739147949219
3501387266631,7.821466612,1,0.22864625854492185,1.7178396911621092,-11.173739147949219
3501393933506,7.828133487,1,0.2059013427734375,1.7298106994628906,-11.218031878662108
3501400599444,7.834799425,1,0.229843359375,1.7262193969726563,-11.218031878662108
3501407266058,7.841466039,1,0.23582886352539062,1.7286135986328124,-11.19887826538086
3501413932673,7.848132654,1,0.20949264526367187,1.7405846069335937,-11.207257971191405
3501420597725,7.854797706,1,0.22026655273437498,1.7334020019531249,-11.196484063720703
3501427346058,7.861546039,1,0.22026655273437498,1.7405846069335937,-11.213243475341796
3501433926110,7.868126091,1,0.23343466186523437,1.7405846069335937,-11.162965240478515
3501440591475,7.874791456,1,0.21906945190429686,1.7513585144042967,-11.176133349609374
3501447258350,7.881458331,1,0.2166752502441406,1.7130512878417967,-11.176133349609374
3501453925225,7.888125206,1,0.22864625854492185,1.7334020019531249,-11.189301458740234
3501460591058,7.894791039,1,0.24301146850585936,1.7597382202148437,-11.179724652099608
3501467258975,7.901458956,1,0.2214636535644531,1.7369933044433592,-11.19887826538086
3501473924235,7.908124216,1,0.21428104858398436,1.7310078002929687,-11.170147845458983
3501480590433,7.914790414,1,0.23104046020507812,1.7118541870117185,-11.174936248779296
3501487258714,7.921458695,1,0.24899697265624998,1.7274164978027342,-11.19169566040039
3501493924496,7.928124477,1,0.229843359375,1.7202338928222656,-11.192892761230468
3501500590641,7.934790622,1,0.229843359375,1.7561469177246092,-11.19169566040039
3501507258037,7.941458018,1,0.23343466186523437,1.7369933044433592,-11.19887826538086
3501513933975,7.948133956,1,0.23702596435546874,1.7369933044433592,-11.179724652099608
3501520593193,7.954793174,1,0.23343466186523437,1.715445489501953,-11.208455072021483
3501527258662,7.961458643,1,0.2645592834472656,1.7513585144042967,-11.213243475341796
3501533925329,7.96812531,1,0.22266075439453123,1.7178396911621092,-11.203666668701171
3501540590485,7.974790466,1,0.21428104858398436,1.707065783691406,-11.202469567871093
3501547256943,7.981456924,1,0.2262520568847656,1.7322049011230467,-11.179724652099608
3501553924756,7.988124737,1,0.22266075439453123,1.7322049011230467,-11.195286962890624
3501560591475,7.994791456,1,0.2214636535644531,1.7286135986328124,-11.162965240478515
3501567258454,8.001458435,1,0.20470424194335937,1.715445489501953,-11.192892761230468
3501573923871,8.008123852,1,0.20470424194335937,1.7034744812011717,-11.207257971191405
3501580591787,8.014791768,1,0.21308394775390624,1.7034744812011717,-11.202469567871093
3501587258193,8.021458174,1,0.2214636535644531,1.7166425903320313,-11.202469567871093
3501593924860,8.028124841,1,0.2442085693359375,1.7298106994628906,-11.158176837158203
3501600590381,8.034790362,1,0.25737667846679685,1.7106570861816406,-11.17254204711914
3501607258871,8.041458852,1,0.2597708801269531,1.7214309936523438,-11.207257971191405
3501613924183,8.048124164,1,0.24061726684570311,1.7178396911621092,-11.218031878662108
3501620590850,8.054790831,1,0.22026655273437498,1.7214309936523438,-11.176133349609374
3501627257673,8.061457654,1,0.23223756103515625,1.734599102783203,-11.21683477783203
3501633939756,8.068139737,1,0.2262520568847656,1.7381904052734374,-11.246762298583985
3501640600798,8.074800779,1,0.24061726684570311,1.7477672119140624,-11.173739147949219
3501647261579,8.08146156,1,0.2454056701660156,1.7262193969726563,-11.158176837158203
3501653933714,8.088133695,1,0.2262520568847656,1.7310078002929687,-11.165359442138671
3501660599652,8.094799633,1,0.26336218261718747,1.7310078002929687,-11.184513055419922
3501667261110,8.101461091,1,0.24181436767578124,1.7190367919921874,-11.21683477783203
3501673933089,8.10813307,1,0.22266075439453123,1.7166425903320313,-11.209652172851563
3501680600068,8.114800049,1,0.2166752502441406,1.705868682861328,-11.202469567871093
3501687265745,8.121465726,1,0.21906945190429686,1.7202338928222656,-11.189301458740234
3501693932516,8.128132497,1,0.20829554443359374,1.7322049011230467,-11.180921752929686
3501700599600,8.134799581,1,0.22864625854492185,1.7417817077636717,-11.196484063720703
3501707266527,8.141466508,1,0.23343466186523437,1.70467158203125,-11.189301458740234
3501713932256,8.148132237,1,0.23343466186523437,1.7238251953125,-11.161768139648437
3501720599600,8.154799581,1,0.21906945190429686,1.744175909423828,-11.196484063720703
3501727266110,8.161466091,1,0.22505495605468748,1.744175909423828,-11.194089862060546
3501733926891,8.168126872,1,0.22505495605468748,1.7334020019531249,-11.194089862060546
3501740592464,8.174792445,1,0.258573779296875,1.7286135986328124,-11.182118853759764
3501747258662,8.181458643,1,0.24061726684570311,1.7262193969726563,-11.195286962890624
3501753924235,8.188124216,1,0.20709844360351562,1.7334020019531249,-11.215637677001952
3501760591162,8.194791143,1,0.21308394775390624,1.6927005737304686,-11.16057103881836
3501767257725,8.201457706,1,0.24301146850585936,1.7573440185546874,-11.23000288696289
3501773924964,8.208124945,1,0.19632453613281248,1.744175909423828,-11.201272467041015
3501780591110,8.214791091,1,0.24061726684570311,1.7226280944824217,-11.180921752929686
3501787257829,8.22145781,1,0.229843359375,1.7226280944824217,-11.200075366210937
3501793925173,8.228125154,1,0.23822306518554687,1.7381904052734374,-11.182118853759764
3501800591266,8.234791247,1,0.24301146850585936,1.7322049011230467,-11.183315954589844
3501807259235,8.241459216,1,0.19991583862304688,1.734599102783203,-11.220426080322264
3501813925120,8.248125101,1,0.20949264526367187,1.7334020019531249,-11.17254204711914
3501820591943,8.254791924,1,0.22864625854492185,1.7166425903320313,-11.188104357910156
3501827258714,8.261458695,1,0.23582886352539062,1.734599102783203,-11.168950744628905
3501833941527,8.268141508,1,0.23822306518554687,1.7238251953125,-11.119869610595703
3501840601370,8.274801351,1,0.21428104858398436,1.7645266235351562,-11.168950744628905
3501847266735,8.281466716,1,0.21906945190429686,1.7369933044433592,-11.18571015625
3501853932204,8.288132185,1,0.24061726684570311,1.7214309936523438,-11.201272467041015
3501860600068,8.294800049,1,0.24061726684570311,1.7381904052734374,-11.17254204711914
3501867265381,8.301465362,1,0.24061726684570311,1.7381904052734374,-11.164162341308593
3501873932620,8.308132601,1,0.21787235107421873,1.7130512878417967,-11.046846459960937
3501880598766,8.314798747,1,0.21428104858398436,1.7429788085937499,-11.200075366210937
3501887261839,8.32146182,1,0.23223756103515625,1.7310078002929687,-11.186907257080078
3501893933818,8.328133799,1,0.25258827514648435,1.7178396911621092,-11.189301458740234
3501900598350,8.334798331,1,0.22026655273437498,1.7310078002929687,-11.189301458740234
3501907264756,8.341464737,1,0.2154781494140625,1.714248388671875,-11.161768139648437
3501913922464,8.348122445,1,0.2693476867675781,1.7369933044433592,-11.234791290283203
3501920598089,8.35479807,1,0.21906945190429686,1.7405846069335937,-11.180921752929686
3501927266579,8.36146656,1,0.21787235107421873,1.7513585144042967,-11.192892761230468
3501933949600,8.368149581,1,0.2501940734863281,1.7298106994628906,-11.137826123046874
3501940592985,8.374792966,1,0.2262520568847656,1.7393875061035156,-11.203666668701171
3501947258506,8.381458487,1,0.24899697265624998,1.7489643127441405,-11.177330450439452
3501953923870,8.388123851,1,0.2154781494140625,1.715445489501953,-11.18571015625
3501960590537,8.394790518,1,0.2346317626953125,1.7166425903320313,-11.202469567871093
3501967257620,8.401457601,1,0.24899697265624998,1.734599102783203,-11.209652172851563
3501973923193,8.408123174,1,0.2154781494140625,1.7513585144042967,-11.188104357910156
3501980589912,8.414789893,1,0.21068974609375,1.7357962036132812,-11.177330450439452
3501987258141,8.421458122,1,0.2166752502441406,1.7214309936523438,-11.201272467041015
3501993924339,8.42812432,1,0.21308394775390624,1.7238251953125,-11.182118853759764
3502000591110,8.434791091,1,0.21308394775390624,1.7202338928222656,-11.195286962890624
3502007304964,8.441504945,1,0.21906945190429686,1.707065783691406,-11.190498559570312
3502013963245,8.448163226,1,0.22864625854492185,1.707065783691406,-11.166556542968749
3502020594860,8.454794841,1,0.22385785522460935,1.7429788085937499,-11.166556542968749
3502027254756,8.461454737,1,0.22864625854492185,1.7274164978027342,-11.162965240478515
3502033924808,8.468124789,1,0.20709844360351562,1.7453730102539062,-11.17254204711914
3502040586527,8.474786508,1,0.22864625854492185,1.7417817077636717,-11.184513055419922
3502047258975,8.481458956,1,0.23343466186523437,1.7465701110839842,-11.196484063720703
3502053926891,8.488126872,1,0.23822306518554687,1.7489643127441405,-11.190498559570312
3502060590693,8.494790674,1,0.22266075439453123,1.7334020019531249,-11.136629022216797
3502067257672,8.501457653,1,0.22385785522460935,1.7381904052734374,-11.165359442138671
3502073924079,8.50812406,1,0.20470424194335937,1.7381904052734374,-11.149797131347656
3502080590641,8.514790622,1,0.20949264526367187,1.7501614135742187,-11.166556542968749
3502087258037,8.521458018,1,0.21188684692382811,1.7286135986328124,-11.196484063720703
3502093924287,8.528124268,1,0.22385785522460935,1.7226280944824217,-11.182118853759764
3502100590016,8.534789997,1,0.23104046020507812,1.7453730102539062,-11.213243475341796
3502107256110,8.541456091,1,0.22266075439453123,1.734599102783203,-11.186907257080078
3502113923558,8.548123539,1,0.201112939453125,1.714248388671875,-11.218031878662108
3502120590641,8.554790622,1,0.23104046020507812,1.7274164978027342,-11.188104357910156
3502127256891,8.561456872,1,0.20350714111328125,1.7262193969726563,-11.21084927368164
3502133924704,8.568124685,1,0.22505495605468748,1.7118541870117185,-11.167753643798827
3502140585745,8.574785726,1,0.22505495605468748,1.7310078002929687,-11.218031878662108
3502147257620,8.581457601,1,0.2262520568847656,1.7369933044433592,-11.19887826538086
3502153924704,8.588124685,1,0.22864625854492185,1.7369933044433592,-11.19169566040039
3502160585277,8.594785258,1,0.23343466186523437,1.7274164978027342,-11.19169566040039
3502167257724,8.601457705,1,0.22026655273437498,1.7106570861816406,-11.166556542968749
3502173923922,8.608123903,1,0.23822306518554687,1.7429788085937499,-11.188104357910156
3502180590902,8.614790883,1,0.2442085693359375,1.7262193969726563,-11.171344946289063
3502187257620,8.621457601,1,0.22505495605468748,1.7334020019531249,-11.197681164550781
3502193924235,8.628124216,1,0.2214636535644531,1.734599102783203,-11.188104357910156
3502200590954,8.634790935,1,0.20350714111328125,1.7214309936523438,-11.227608685302734
3502207257412,8.641457393,1,0.22266075439453123,1.7262193969726563,-11.201272467041015
3502213923662,8.648123643,1,0.2262520568847656,1.695094775390625,-11.214440576171874
3502220590641,8.654790622,1,0.2262520568847656,1.7381904052734374,-11.196484063720703
3502227257360,8.661457341,1,0.2059013427734375,1.725022296142578,-11.209652172851563
3502233924443,8.668124424,1,0.20949264526367187,1.734599102783203,-11.14022032470703
3502240591162,8.674791143,1,0.23822306518554687,1.7298106994628906,-11.159373937988281
3502247257724,8.681457705,1,0.23822306518554687,1.7417817077636717,-11.158176837158203
3502253923818,8.688123799,1,0.2705447875976562,1.753752716064453,-11.196484063720703
3502260592152,8.694792133,1,0.2262520568847656,1.7334020019531249,-11.177330450439452
3502267266943,8.701466924,1,0.229843359375,1.7381904052734374,-11.222820281982422
3502273926006,8.708125987,1,0.21906945190429686,1.7334020019531249,-11.180921752929686
3502280590120,8.714790101,1,0.2154781494140625,1.70467158203125,-11.142614526367186
3502287256995,8.721456976,1,0.2154781494140625,1.7322049011230467,-11.171344946289063
3502293924079,8.72812406,1,0.24779987182617186,1.7322049011230467,-11.202469567871093
3502300590589,8.73479057,1,0.239420166015625,1.725022296142578,-11.192892761230468
3502307257776,8.741457757,1,0.21068974609375,1.7190367919921874,-11.192892761230468
3502313923766,8.748123747,1,0.23343466186523437,1.7369933044433592,-11.189301458740234
3502320590954,8.754790935,1,0.23343466186523437,1.7597382202148437,-11.135431921386719
3502327257151,8.761457132,1,0.1879448303222656,1.7274164978027342,-11.168950744628905
3502333923297,8.768123278,1,0.21787235107421873,1.725022296142578,-11.192892761230468
3502340599547,8.774799528,1,0.2154781494140625,1.7262193969726563,-11.162965240478515
3502347266474,8.781466455,1,0.21428104858398436,1.734599102783203,-11.190498559570312
3502353932985,8.788132966,1,0.23223756103515625,1.7226280944824217,-11.171344946289063
3502360599026,8.794799007,1,0.23582886352539062,1.6998831787109374,-11.162965240478515
3502367265172,8.801465153,1,0.23582886352539062,1.734599102783203,-11.168950744628905
3502373932099,8.80813208,1,0.2549824768066406,1.7381904052734374,-11.17852755126953
3502380599287,8.814799268,1,0.23582886352539062,1.7501614135742187,-11.222820281982422
3502387266318,8.821466299,1,0.22385785522460935,1.7369933044433592,-11.206060870361327
3502393932256,8.828132237,1,0.21787235107421873,1.7166425903320313,-11.21084927368164
3502400596422,8.834796403,1,0.20350714111328125,1.7405846069335937,-11.23000288696289
3502407265224,8.841465205,1,0.239420166015625,1.7178396911621092,-11.186907257080078
3502413932829,8.84813281,1,0.22744915771484372,1.7322049011230467,-11.190498559570312
3502420598922,8.854798903,1,0.22266075439453123,1.7286135986328124,-11.167753643798827
3502427265120,8.861465101,1,0.2346317626953125,1.7681179260253905,-11.156979736328124
3502433931839,8.86813182,1,0.2346317626953125,1.7357962036132812,-11.201272467041015
3502440590849,8.87479083,1,0.21308394775390624,1.7357962036132812,-11.3389390625
3502447258610,8.881458591,1,0.24660277099609373,1.7262193969726563,-11.18571015625
3502453924443,8.888124424,1,0.2561795776367187,1.7130512878417967,-11.203666668701171
3502460591110,8.894791091,1,0.23822306518554687,1.7178396911621092,-11.18571015625
3502467253454,8.901453435,1,0.22385785522460935,1.7334020019531249,-11.190498559570312
3502473923766,8.908123747,1,0.20949264526367187,1.7310078002929687,-11.21084927368164
3502480589964,8.914789945,1,0.24301146850585936,1.7166425903320313,-11.188104357910156
3502487257568,8.921457549,1,0.23343466186523437,1.7369933044433592,-11.207257971191405
3502493923922,8.928123903,1,0.22385785522460935,1.7298106994628906,-11.14022032470703
3502500590797,8.934790778,1,0.22266075439453123,1.744175909423828,-11.192892761230468
3502507256995,8.941456976,1,0.21068974609375,1.7274164978027342,-11.250353601074218
3502513923818,8.948123799,1,0.25139117431640623,1.7334020019531249,-11.184513055419922
3502520590954,8.954790935,1,0.21308394775390624,1.7405846069335937,-11.21683477783203
3502527257724,8.961457705,1,0.21308394775390624,1.7357962036132812,-11.171344946289063
3502533924339,8.96812432,1,0.22385785522460935,1.7465701110839842,-11.188104357910156
3502540606943,8.974806924,1,0.20350714111328125,1.7417817077636717,-11.23718549194336
3502547267620,8.981467601,1,0.20949264526367187,1.7274164978027342,-11.177330450439452
3502553932776,8.988132757,1,0.22864625854492185,1.715445489501953,-11.18571015625
3502560598349,8.99479833,1,0.23582886352539062,1.7393875061035156,-11.16057103881836
3502567265224,9.001465205,1,0.22266075439453123,1.7262193969726563,-11.204863769531249
3502573931787,9.008131768,1,0.22266075439453123,1.70467158203125,-11.21683477783203
3502580598506,9.014798487,1,0.21906945190429686,1.7190367919921874,-11.186907257080078
3502587264235,9.021464216,1,0.24061726684570311,1.7190367919921874,-11.194089862060546
3502593931839,9.02813182,1,0.23104046020507812,1.7202338928222656,-11.194089862060546
3502600599339,9.03479932,1,0.201112939453125,1.734599102783203,-11.170147845458983
3502607266735,9.041466716,1,0.201112939453125,1.715445489501953,-11.17254204711914
3502613932203,9.048132184,1,0.21188684692382811,1.7190367919921874,-11.166556542968749
3502620594235,9.054794216,1,0.21428104858398436,1.7501614135742187,-11.196484063720703
3502627265120,9.061465101,1,0.18435352783203124,1.7429788085937499,-11.200075366210937
3502633930797,9.068130778,1,0.22266075439453123,1.7657237243652342,-11.17254204711914
3502640617151,9.074817132,1,0.23582886352539062,1.753752716064453,-11.184513055419922
3502647257620,9.081457601,1,0.19033903198242186,1.7669208251953124,-11.19887826538086
3502653917099,9.08811708,1,0.22266075439453123,1.7322049011230467,-11.171344946289063
3502660588922,9.094788903,1,0.2214636535644531,1.7369933044433592,-11.190498559570312
3502667257985,9.101457966,1,0.23702596435546874,1.7381904052734374,-11.179724652099608
3502673924183,9.108124164,1,0.24660277099609373,1.7585411193847655,-11.190498559570312
3502680590693,9.114790674,1,0.23702596435546874,1.744175909423828,-11.200075366210937
3502687257151,9.121457132,1,0.229843359375,1.7393875061035156,-11.228805786132812
3502693924287,9.128124268,1,0.229843359375,1.7082628845214842,-11.195286962890624
3502700590693,9.134790674,1,0.24301146850585936,1.7525556152343749,-11.17254204711914
3502707256839,9.14145682,1,0.19991583862304688,1.7226280944824217,-11.167753643798827
3502713923453,9.148123434,1,0.19991583862304688,1.7298106994628906,-11.17852755126953
3502720590328,9.154790309,1,0.22385785522460935,1.7417817077636717,-11.171344946289063
3502727256683,9.161456664,1,0.20350714111328125,1.7417817077636717,-11.054029064941405
3502733923870,9.168123851,1,0.2454056701660156,1.7322049011230467,-11.207257971191405
3502740591214,9.174791195,1,0.2166752502441406,1.7262193969726563,-11.162965240478515
3502747265745,9.181465726,1,0.19512743530273435,1.7262193969726563,-11.235988391113281
3502753933401,9.188133382,1,0.2442085693359375,1.7310078002929687,-11.196484063720703
3502760598193,9.194798174,1,0.22864625854492185,1.7226280944824217,-11.173739147949219
3502767265797,9.201465778,1,0.22505495605468748,1.7214309936523438,-11.17852755126953
3502773931995,9.208131976,1,0.2059013427734375,1.7525556152343749,-11.21084927368164
3502780598349,9.21479833,1,0.23104046020507812,1.7429788085937499,-11.209652172851563
3502787264599,9.22146458,1,0.2154781494140625,1.7226280944824217,-11.186907257080078
3502793932151,9.228132132,1,0.20231004028320312,1.7609353210449217,-11.23000288696289
3502800598714,9.234798695,1,0.22744915771484372,1.7465701110839842,-11.176133349609374
3502807266318,9.241466299,1,0.21428104858398436,1.715445489501953,-11.184513055419922
3502813932568,9.248132549,1,0.22266075439453123,1.725022296142578,-11.19887826538086
3502820599078,9.254799059,1,0.23702596435546874,1.7369933044433592,-11.15338843383789
3502827264912,9.261464893,1,0.21787235107421873,1.7405846069335937,-11.170147845458983
3502833931526,9.268131507,1,0.22026655273437498,1.7417817077636717,-11.152191333007812
3502840598766,9.274798747,1,0.21906945190429686,1.7214309936523438,-11.156979736328124
3502847258505,9.281458486,1,0.22505495605468748,1.7286135986328124,-11.195286962890624
3502853923818,9.288123799,1,0.23343466186523437,1.734599102783203,-11.23000288696289
3502860589808,9.294789789,1,0.23343466186523437,1.7322049011230467,-11.188104357910156
3502867256943,9.301456924,1,0.24061726684570311,1.7322049011230467,-11.188104357910156
3502873924078,9.308124059,1,0.23702596435546874,1.7286135986328124,-11.32577095336914
3502880590068,9.314790049,1,0.20949264526367187,1.7262193969726563,-11.17254204711914
3502887257828,9.321457809,1,0.24181436767578124,1.725022296142578,-11.200075366210937
3502893933714,9.328133695,1,0.22026655273437498,1.7190367919921874,-11.204863769531249
3502900592516,9.334792497,1,0.21787235107421873,1.7417817077636717,-11.202469567871093
3502907248714,9.341448695,1,0.21428104858398436,1.7357962036132812,-11.207257971191405
3502913925797,9.348125778,1,0.24301146850585936,1.715445489501953,-11.200075366210937
3502920591110,9.354791091,1,0.22026655273437498,1.6938976745605467,-11.194089862060546
3502927257933,9.361457914,1,0.21308394775390624,1.7262193969726563,-11.227608685302734
