timestamp_ns,t_s,sensor_id,ax,ay,az
5891082663636,0.061444739,1,-3.046621612548828,5.7077767578125,4.052186309814453
5891089292022,0.068073125,1,-2.996343377685547,6.218938812255859,4.389768743896484
5891095959209,0.074740312,1,-3.0609868225097654,6.909665991210937,4.589684582519531
5891102630042,0.081411145,1,-3.056198419189453,7.314286071777343,4.784812017822265
5891109288532,0.088069635,1,-3.228580938720703,7.837419134521484,4.876988781738281
5891115952959,0.094734062,1,-3.3973721557617185,8.20373198852539,4.940435125732422
5891122619053,0.101400156,1,-3.563769171142578,8.513781103515624,4.84586416015625
5891129287074,0.108068177,1,-3.5889082885742187,8.633491186523438,4.802768530273437
5891135950563,0.114731666,1,-3.7421371948242186,8.672995513916016,4.723759875488281
5891142619157,0.12140026,1,-3.749319799804687,8.519766607666016,4.73094248046875
5891149284417,0.12806552,1,-4.101267443847656,8.437166650390624,4.271255761718749
5891155951657,0.13473276,1,-4.686649749755859,8.198943585205077,4.004302276611328
5891162617490,0.141398593,1,-5.4707507934570305,8.158242156982421,3.7385458923339843
5891169285563,0.148066666,1,-6.023811376953125,8.254010223388672,3.928884924316406
5891175950771,0.154731874,1,-6.119579443359375,8.646659295654297,4.256890551757812
5891182618219,0.161399322,1,-5.966350537109375,9.06564458618164,4.672284539794922
5891189284001,0.168065104,1,-5.829881042480468,9.330203869628905,4.983530755615234
5891195950719,0.174731822,1,-5.710170959472656,9.315838659667968,4.944026428222656
5891202617542,0.181398645,1,-5.923254907226562,9.212887988281249,4.6351744140625
5891209284678,0.188065781,1,-6.156689569091797,8.978256225585938,4.291606475830078
5891215950511,0.194731614,1,-6.212953308105468,9.051279376220702,4.161122485351562
5891222618167,0.20139927,1,-5.992686755371094,9.19971987915039,4.350264416503906
5891229284365,0.208065468,1,-5.534197137451171,9.400832818603515,4.44962378540039
5891235951865,0.214732968,1,-5.070919116210937,9.447519750976562,4.441244079589843
5891242617594,0.221398697,1,-4.7022120605468745,9.230844500732422,4.33470210571289
5891249284782,0.228065885,1,-4.436455676269531,8.796296899414061,4.128800762939453
5891255951240,0.234732343,1,-4.2868180725097655,8.373720306396484,3.8103719421386715
5891262616969,0.241398072,1,-4.125209460449218,8.012195855712891,3.5517981628417967
5891269284938,0.248066041,1,-3.6918589599609373,7.844601739501953,3.7289690856933593
5891275950563,0.254731666,1,-3.6918589599609373,7.675810522460937,3.9564182434082027
5891282618792,0.261399895,1,-3.465606903076172,7.675810522460937,4.174290594482422
5891289285199,0.268066302,1,-3.327940307617187,7.532158422851562,4.174290594482422
5891295951188,0.274732291,1,-3.3387142150878906,7.3669585083007805,4.384980340576171
5891302617751,0.281398854,1,-3.0550013183593747,7.315483172607421,4.782417816162109
5891309284938,0.288066041,1,-2.7365724975585937,7.256825231933593,5.27322915649414
5891315951136,0.294732239,1,-2.4480711975097655,7.16943687133789,5.57370146484375
5891322617334,0.301398437,1,-2.0649989318847655,7.038952880859375,5.844246252441406
5891329283584,0.308064687,1,-1.8195932617187498,6.76122548828125,5.949591125488281
5891335951344,0.314732447,1,-1.6077064147949218,6.433219860839843,5.889736083984375
5891342617490,0.321398593,1,-1.5406687683105469,5.953182427978516,5.851428857421874
5891349284469,0.328065572,1,-1.4879963317871092,5.558139154052734,5.671863732910156
5891355951396,0.334732499,1,-1.2785036865234374,5.371391424560547,5.632359405517578
5891362670251,0.341451354,1,-0.8918401184082031,5.203797308349609,5.6383449096679685
5891369328584,0.348109687,1,-0.4848258361816406,5.2444987365722655,5.674257934570313
5891375956501,0.354737604,1,-0.11133037719726561,5.260061047363281,5.776011505126953
5891382617698,0.361398801,1,0.051475335693359374,5.201403106689453,5.810727429199218
5891389282803,0.368063906,1,0.0143652099609375,5.182249493408203,5.856217260742187
5891395946605,0.374727708,1,-0.4321533996582031,5.176263989257812,5.832275244140624
5891402619001,0.381400104,1,-0.8200140686035156,5.242104534912109,5.821501336669922
5891409284365,0.388065468,1,-1.045069024658203,5.480327600097656,5.893327386474609
5891415949365,0.394730468,1,-1.0534487304687499,5.823895538330078,5.992686755371094
5891422618011,0.401399114,1,-1.20667763671875,5.843049151611328,6.069301208496094
5891429284521,0.408065624,1,-1.3311761230468748,6.149506964111327,6.0884548217773435
5891435950563,0.414731666,1,-1.6412252380371093,6.509834313964843,5.935225915527344
5891442617698,0.421398801,1,-1.926135235595703,6.688202337646484,5.728127471923828
5891449285146,0.428066249,1,-2.0374656127929685,6.928819604492187,5.444414575195312
5891455950719,0.434731822,1,-2.099714855957031,7.205349896240234,5.366603021240234
5891462617542,0.441398645,1,-1.9979612854003905,7.498639599609374,5.31153638305664
5891469286553,0.448067656,1,-1.8267758666992187,7.78235249633789,5.307945080566406
5891475950511,0.454731614,1,-1.7717092285156248,7.809885815429687,5.269637854003906
5891482619782,0.461400885,1,-1.7489643127441405,7.6087728759765625,4.837484454345703
5891489284938,0.468066041,1,-1.8375497741699218,7.258022332763671,4.41131655883789
5891495950771,0.474731874,1,-2.038662713623047,6.738480572509765,3.863044378662109
5891502617959,0.481399062,1,-2.0266917053222655,6.4667386840820305,3.1208418640136717
5891509284417,0.48806552,1,-2.91134921875,5.776011505126953,2.808398547363281
5891515951813,0.494732916,1,-2.9364883361816405,5.930437512207031,2.194285821533203
5891522617907,0.50139901,1,-2.8095956481933593,5.955576629638672,2.1452046874999997
5891529284157,0.50806526,1,-2.692279766845703,6.391321331787109,2.04943662109375
5891535950355,0.514731458,1,-2.8287492614746093,6.956352923583984,2.080561242675781
5891542617021,0.521398124,1,-2.29843359375,7.292738256835937,1.935712042236328
5891549282959,0.528064062,1,-2.565387078857422,7.678204724121093,1.6053122131347655
5891555951240,0.534732343,1,-2.8119898498535156,7.942764007568359,1.4975731384277342
5891562618167,0.54139927,1,-2.8119898498535156,8.281543542480469,1.6986860778808592
5891569284573,0.548065676,1,-2.6324247253417967,8.281543542480469,2.062604730224609
5891575950355,0.554731458,1,-2.2661118713378903,8.692149127197265,2.062604730224609
5891582617803,0.561398906,1,-2.2589292663574216,8.998606939697265,2.2744915771484373
5891589283688,0.568064791,1,-2.596511700439453,9.093177905273437,2.2349872497558594
5891595950928,0.574732031,1,-2.8479028747558592,9.010577947998046,2.3139959045410157
5891602617282,0.581398385,1,-2.935291235351562,8.878896856689453,2.463633508300781
5891609283740,0.588064843,1,-2.9376854370117185,8.736441857910156,2.6671406494140624
5891615949678,0.594730781,1,-2.952050646972656,8.45991156616211,2.8526912780761715
5891622618323,0.601399426,1,-3.3075895935058592,8.054094384765625,2.8311434631347656
5891629284313,0.608065416,1,-3.6343981201171873,7.606378674316406,2.7629087158203123
5891635950667,0.61473177,1,-3.8367081604003905,7.279570147705078,2.798821740722656
5891642613011,0.621394114,1,-3.859453076171875,7.199364392089843,2.8790274963378906
5891649285407,0.62806651,1,-3.7098154724121093,7.230489013671875,3.039439007568359
5891655952334,0.634733437,1,-3.4452561889648434,7.213729602050781,3.3219548034667965
5891662618532,0.641399635,1,-3.1100679565429687,7.3669585083007805,3.545812658691406
5891669283792,0.648064895,1,-2.786850732421875,7.038952880859375,3.793612530517578
5891675950355,0.654731458,1,-2.6408044311523438,7.031770275878906,3.6750995483398436
5891682617490,0.661398593,1,-2.4947581298828125,7.0102224609374995,3.7481226989746093
5891689285042,0.668066145,1,-2.454056701660156,7.018602166748046,3.8103719421386715
5891695950094,0.674731197,1,-2.3439234252929686,6.955155822753905,3.921702319335937
5891702617230,0.681398333,1,-2.370259643554687,6.834248638916015,4.094084838867187
5891709284365,0.688065468,1,-2.370259643554687,6.886921075439453,4.058171813964844
5891715950667,0.69473177,1,-2.512714642333984,6.733692169189453,4.076128326416016
5891722618480,0.701399583,1,-2.5809493896484375,6.477512591552734,3.7696705139160156
5891729294157,0.70807526,1,-3.299209887695312,6.063315704345703,3.3303345092773435
5891735953896,0.714734999,1,-4.151545678710937,6.166266375732421,3.1028853515624997
5891742618011,0.721399114,1,-4.554968658447265,6.335057592773437,3.2225954345703123
5891749284521,0.728065624,1,-4.525041137695312,7.017405065917968,3.806780639648437
5891755951448,0.734732551,1,-4.302380383300781,7.808688714599609,4.3622354248046875
5891762617125,0.741398228,1,-4.2521021484374995,8.441955053710936,4.882974285888672
5891769284521,0.748065624,1,-4.13718046875,8.914809881591797,5.187037896728516
5891775950042,0.754731145,1,-3.9037458068847655,9.270348828125,5.378574029541015
5891782618480,0.761399583,1,-4.537012145996093,9.236830004882812,5.755660791015624
5891789283584,0.768064687,1,-4.660313531494141,9.83777462158203,5.585672473144531
5891795951032,0.774732135,1,-5.121197351074218,9.619902270507811,6.003460662841796
5891802616552,0.781397655,1,-5.444414575195312,9.830592016601562,6.0525417968749995
5891809283480,0.788064583,1,-5.711368060302734,9.794678991699218,6.426037255859375
5891815951396,0.794732499,1,-5.431246466064453,9.781510882568359,6.788758807373046
5891822617907,0.80139901,1,-4.9069163024902345,9.588777648925781,7.109581829833984
5891829284052,0.808065155,1,-4.491522314453125,9.022548956298827,7.086836914062499
5891835951240,0.814732343,1,-4.265270257568359,8.213308795166014,6.742071875
5891842617334,0.821398437,1,-4.351461517333984,7.286752752685547,6.193799694824218
5891849285094,0.828066197,1,-4.351461517333984,6.639121203613281,5.783194110107422
5891855950511,0.834731614,1,-4.2880151733398435,6.639121203613281,5.759252093505859
5891862616552,0.841397655,1,-3.6858734558105466,6.0345852844238275,5.759252093505859
5891869283375,0.848064478,1,-3.039439007568359,5.801150622558594,5.493495709228515
5891875950719,0.854731822,1,-2.8610709838867185,5.310339282226562,5.106832141113281
5891882617698,0.861398801,1,-2.971204260253906,5.097255334472656,4.61602080078125
5891889283219,0.868064322,1,-3.104082452392578,4.944026428222656,4.094084838867187
5891895952021,0.874733124,1,-2.929305731201172,5.183446594238281,3.886986395263672
5891902617230,0.881398333,1,-2.596511700439453,5.785588311767578,3.8175545471191406
5891909286292,0.888067395,1,-2.3786393493652342,6.287173559570312,3.7804444213867185
5891916037907,0.89481901,1,-2.519897247314453,6.710947253417968,3.475183709716797
5891922619209,0.901400312,1,-2.682702960205078,7.0832456115722655,3.1352070739746094
5891929283948,0.908065051,1,-2.636016027832031,7.487865692138671,3.0238766967773434
5891935949521,0.914730624,1,-2.5941174987792968,7.7799582946777335,3.027467999267578
5891942618011,0.921399114,1,-2.3391350219726563,7.860164050292968,3.1028853515624997
5891949284573,0.928065676,1,-2.4205378784179685,7.841010437011718,2.8239608581542965
5891955950875,0.934731978,1,-2.7569232116699216,7.615955480957031,2.612074011230469
5891962616865,0.941397968,1,-3.095702746582031,7.510610607910156,2.6503812377929687
5891969284365,0.948065468,1,-3.1783027038574216,7.4699091796875,2.7964275390625
5891975950615,0.954731718,1,-3.219004132080078,7.472303381347656,3.1376012756347653
5891982618063,0.961399166,1,-3.2740707702636715,7.451952667236328,3.508702532958984
5891989284625,0.968065728,1,-3.3303345092773435,7.323862878417969,3.7924154296875
5891995950563,0.974731666,1,-3.4835634155273434,7.28435855102539,3.912125512695312
5892002617646,0.981398749,1,-3.5972879943847653,7.28435855102539,3.867832781982422
5892009284417,0.98806552,1,-3.6379894226074216,7.204152795410156,4.021061688232422
5892015950823,0.994731926,1,-3.494337322998047,7.204152795410156,4.091690637207031
5892022618011,1.001399114,1,-3.3351229125976563,7.113173132324218,4.1766847961425775
5892029283427,1.00806453,1,-3.239354846191406,7.091625317382812,4.083310931396484
5892035949104,1.014730207,1,-3.190273712158203,7.056909393310547,3.994725469970703
5892042617177,1.02139828,1,-3.0992940490722654,7.03536157836914,3.909731311035156
5892049284261,1.028065364,1,-2.929305731201172,6.8976949829101555,3.649960430908203
5892055950615,1.034731718,1,-2.849099975585937,6.811503723144531,3.4871547180175777
5892062617438,1.041398541,1,-2.8227637573242186,6.7037646484375,3.210624426269531
5892069283271,1.048064374,1,-2.8658593872070313,6.5038488098144525,2.935291235351562
5892075950719,1.054731822,1,-2.7437551025390623,6.481103894042969,2.645592834472656
5892082617802,1.061398905,1,-2.606088507080078,6.639121203613281,2.6958710693359373
5892089283948,1.068065051,1,-2.5761609863281247,6.736086370849609,2.6479870361328124
5892095950823,1.074731926,1,-2.7521348083496093,6.84382544555664,2.6599580444335937
5892102618948,1.081400051,1,-2.8024130432128906,7.040149981689453,2.8945898071289062
5892109283792,1.088064895,1,-2.8311434631347656,7.319074475097656,3.2237925354003902
5892115950667,1.09473177,1,-3.0406361083984375,7.448361364746093,3.5494039611816404
5892122617334,1.101398437,1,-3.1196447631835937,7.633911993408202,3.7301661865234372
5892129284313,1.108065416,1,-3.3195606018066406,7.659051110839843,3.9564182434082027
5892135950823,1.114731926,1,-3.3195606018066406,7.742848168945312,4.217386224365234
5892142617594,1.121398697,1,-3.4332851806640625,7.742848168945312,4.401739752197265
5892149283948,1.128065051,1,-3.5482068603515624,7.771578588867187,4.401739752197265
5892155951604,1.134732707,1,-3.651157531738281,7.902062579345703,4.836287353515624
5892162617750,1.141398853,1,-3.6822821533203123,8.019378460693359,5.124788653564453
5892169284625,1.148065728,1,-3.7888241271972656,7.9858596374511714,5.347449407958984
5892175950979,1.154732082,1,-3.976768957519531,7.9643118225097655,5.406107348632812
5892182622386,1.161403489,1,-4.011484881591796,7.9463553100585935,5.452794281005859
5892189284834,1.168065937,1,-3.860650177001953,7.89727417602539,5.607220288085937
5892195951031,1.174732134,1,-3.640383624267578,7.9295958984374995,5.7077767578125
5892202616709,1.181397812,1,-3.5984850952148437,7.8912886718749995,5.802347723388672
5892209284000,1.188065103,1,-3.775656018066406,7.742848168945312,5.772420202636718
5892215951344,1.194732447,1,-3.88818349609375,7.684190228271484,5.661089825439452
5892222618375,1.201399478,1,-3.906140008544922,7.728482958984374,5.831078143310546
5892229284261,1.208065364,1,-3.9707834533691404,7.793126403808594,5.9783215454101555
5892235951188,1.214732291,1,-4.071339923095703,7.866149554443359,5.878962176513672
5892242617177,1.22139828,1,-3.877409588623047,7.607575775146484,5.774814404296874
5892249284677,1.22806578,1,-3.9564182434082027,7.700949639892578,5.84185205078125
5892255950667,1.23473177,1,-4.046200805664062,7.6470801025390625,5.687426043701172
5892262617438,1.241398541,1,-3.842693664550781,7.9092451843261715,5.479130499267578
5892269284573,1.248065676,1,-3.5218706420898434,8.050503082275391,5.634753607177734
5892275950406,1.254731509,1,-3.3782185424804685,8.05648858642578,5.468356591796875
5892282618375,1.261399478,1,-3.2249896362304686,8.0828248046875,5.232527728271484
5892289285198,1.268066301,1,-3.0538042175292968,7.7763669921875,5.361814617919921
5892295950823,1.274731926,1,-3.0023288818359375,7.501033801269531,4.902127899169922
5892302617906,1.281399009,1,-3.393780853271484,7.0832456115722655,4.504690423583984
5892309284156,1.288065259,1,-3.1830911071777344,6.833051538085937,4.393360046386719
5892315950927,1.29473203,1,-3.151966485595703,6.7037646484375,4.052186309814453
5892322618219,1.301399322,1,-3.1543606872558594,6.396109735107421,3.8103719421386715
5892329283740,1.308064843,1,-2.863465185546875,6.349422802734375,3.5302503479003904
5892335951448,1.314732551,1,-2.8335376647949215,6.205770703124999,3.327940307617187
5892342616604,1.321397707,1,-2.798821740722656,6.069301208496094,2.972401361083984
5892349285198,1.328066301,1,-2.6479870361328124,5.974730242919922,2.816778253173828
5892355951448,1.334732551,1,-2.4576480041503905,5.963956335449218,2.4911668273925778
5892362616656,1.341397759,1,-2.3630770385742186,6.002263562011718,2.3403321228027343
5892369284625,1.348065728,1,-2.3223756103515623,6.101622930908203,2.1404162841796874
5892375957021,1.354738124,1,-2.2876596862792966,6.1267620483398435,1.8291700683593748
5892382620250,1.361401353,1,-2.327164013671875,6.224924316406249,1.696291876220703
5892389284365,1.368065468,1,-2.300827795410156,6.455964776611328,1.5705962890624998
5892395951448,1.374732551,1,-2.1164742675781247,6.683413934326172,1.5598223815917969
5892402618115,1.381399218,1,-2.1966800231933594,6.858190655517578,1.4209586853027343
5892409284886,1.388065989,1,-2.309207501220703,6.980294940185546,1.2737152832031249
5892415949313,1.394730416,1,-2.5007436340332028,7.126341241455077,1.2413935607910156
5892422617802,1.401398905,1,-2.5007436340332028,7.1395093505859375,1.2761094848632812
5892429284365,1.408065468,1,-2.673126153564453,7.1395093505859375,1.504755743408203
5892435950875,1.414731978,1,-2.8419173706054686,7.510610607910156,1.504755743408203
5892442618011,1.421399114,1,-3.1483751831054687,7.813477117919922,1.7681179260253905
5892449284990,1.428066093,1,-3.450044592285156,8.048108880615233,2.070984436035156
5892455950823,1.434731926,1,-3.3255461059570313,8.352172491455077,2.6132711120605467
5892462617386,1.441398489,1,-3.2441432495117186,8.66940421142578,3.3171664001464842
5892469285354,1.448066457,1,-2.8945898071289062,8.9255837890625,3.8271313537597655
5892475951448,1.454732551,1,-2.919728924560547,8.66940421142578,4.203021014404297
5892482618219,1.461399322,1,-3.318363500976562,8.328230474853514,4.242525341796875
5892489284573,1.468065676,1,-3.7481226989746093,8.0062103515625,4.3442789123535155
5892495950458,1.474731561,1,-4.12401235961914,7.912836486816405,4.638765716552734
5892502618115,1.481399218,1,-4.340687609863281,7.933187200927734,5.176263989257812
5892509283583,1.488064686,1,-4.649539624023437,8.158242156982421,5.641936212158202
5892515950875,1.494731978,1,-4.8650177734375,8.28633194580078,6.321889483642578
5892522617386,1.501398489,1,-4.859032269287109,8.514978204345702,6.788758807373046
5892529283323,1.508064426,1,-4.885368487548828,8.632294085693358,7.223306408691406
5892535950458,1.514731561,1,-4.7752352111816405,8.598775262451172,7.357381701660156
5892542617698,1.521398801,1,-4.9069163024902345,8.517372406005858,7.4591352722167965
5892549283844,1.528064947,1,-4.847061260986328,8.328230474853514,7.332242584228515
5892555951083,1.534732186,1,-4.4568063903808595,8.095992913818359,7.274781744384765
5892562617750,1.541398853,1,-4.572925170898437,7.681796026611328,7.003039855957031
5892569284052,1.548065155,1,-3.9600095458984375,7.682993127441406,6.530185028076171
5892575950511,1.554731614,1,-3.833116857910156,7.376535314941406,6.460753179931641
5892582618323,1.561399426,1,-3.8295255554199215,6.961141326904296,5.84783755493164
5892589284781,1.568065884,1,-3.6762966491699216,6.590040069580078,5.232527728271484
5892595950615,1.574731718,1,-3.436876483154297,6.495469104003906,4.837484454345703
5892602617229,1.581398332,1,-3.143586779785156,6.448782171630859,4.352658618164062
5892609284156,1.588065259,1,-3.1184476623535153,6.495469104003906,3.9049429077148434
5892615951292,1.594732395,1,-3.1567548889160153,6.647500909423828,3.4823663146972654
5892622617906,1.601399009,1,-3.323151904296875,6.912060192871094,3.2166099304199216
5892629283740,1.608064843,1,-3.27526787109375,7.258022332763671,3.0442274108886718
5892635945198,1.614726301,1,-3.1208418640136717,7.666233715820312,3.0310593017578125
5892642618115,1.621399218,1,-2.9855694702148434,7.903259680175781,2.89219560546875
5892649284417,1.62806552,1,-3.1675287963867187,7.904456781005859,2.674323254394531
5892655952021,1.634733124,1,-3.2537200561523436,7.903259680175781,2.3116017028808593
5892662618063,1.641399166,1,-3.1447838806152344,7.924807495117187,2.2373814514160153
5892669282021,1.648063124,1,-2.881421697998047,7.933187200927734,2.100911956787109
5892675952177,1.65473328,1,-2.8024130432128906,7.842207537841796,2.1823148132324217
5892682617698,1.661398801,1,-2.750937707519531,7.659051110839843,2.070984436035156
5892689284469,1.668065572,1,-2.7940333374023436,7.517793212890624,1.9967641845703124
5892695950406,1.674731509,1,-2.8514941772460936,7.325059979248047,2.003946789550781
5892702617385,1.681398488,1,-2.7186159851074216,7.163451367187499,2.114080065917969
5892709284000,1.688065103,1,-2.7186159851074216,6.987477545166016,2.118868469238281
5892715951188,1.694732291,1,-2.5258827514648434,6.987477545166016,2.195482922363281
5892722618219,1.701399322,1,-2.370259643554687,6.776787799072265,2.195482922363281
5892729284573,1.708065676,1,-2.3882161560058592,6.5577183471679685,2.1871032165527344
5892735951292,1.714732395,1,-2.499546533203125,6.400898138427734,2.123656872558594
5892742617177,1.72139828,1,-2.6204537170410154,6.4272343566894525,2.1631611999511717
5892749285094,1.728066197,1,-2.493561029052734,6.579266162109374,2.3044190979003907
5892755951760,1.734732863,1,-2.3499089294433593,6.807912420654296,2.615665313720703
5892762618115,1.741399218,1,-2.440888592529297,7.0281789733886715,2.8407202697753906
5892769283896,1.748064999,1,-2.5570073730468748,7.09282241821289,2.9747955627441405
5892775951083,1.754732186,1,-2.7820623291015623,7.107187628173827,2.9544448486328125
5892782617698,1.761398801,1,-2.9664158569335934,7.165845568847656,2.9927520751953125
5892789284833,1.768065936,1,-3.2213983337402343,7.320271575927734,3.039439007568359
5892795950667,1.77473177,1,-3.3099837951660156,7.551312036132812,3.268085266113281
5892802617490,1.781398593,1,-3.392583752441406,7.880514764404296,3.5218706420898434
5892809283948,1.788065051,1,-3.258508459472656,8.048108880615233,3.886986395263672
5892815950719,1.794731822,1,-3.172317199707031,8.316259466552735,3.9037458068847655
5892822617646,1.801398749,1,-3.353079425048828,8.350975390624999,4.242525341796875
5892829284781,1.808065884,1,-3.379415643310547,8.188169677734374,4.309562988281249
5892835950094,1.814731197,1,-3.4644098022460934,7.945158209228516,4.478354205322265
5892842617021,1.821398124,1,-3.5338416503906247,7.633911993408202,4.489128112792969
5892849284104,1.828065207,1,-3.5302503479003904,7.410054138183593,4.412513659667969
5892855951344,1.834732447,1,-3.6834792541503902,7.382520819091797,4.316745593261719
5892862616917,1.84139802,1,-3.612850305175781,7.229291912841797,4.3251252990722655
5892869284208,1.848065311,1,-3.5625720703124997,7.216123803710937,4.3251252990722655
5892875950875,1.854731978,1,-3.5960908935546874,7.088034014892577,4.491522314453125
5892882616083,1.861397186,1,-3.7768531188964842,7.16943687133789,4.416104962158203
5892889284729,1.868065832,1,-3.870226983642578,7.3094976684570305,4.534617944335937
5892895950406,1.874731509,1,-3.834313958740234,7.660248211669922,4.721365673828124
5892902617229,1.881398332,1,-3.6727053466796873,7.967903124999999,4.973953948974609
5892909283375,1.888064478,1,-3.6559459350585937,8.313865264892577,5.0769046203613275
5892915951187,1.89473229,1,-3.6343981201171873,8.508992700195313,5.063736511230468
5892922618062,1.901399165,1,-3.766079211425781,8.650250598144531,4.983530755615234
5892929285094,1.908066197,1,-3.8762124877929685,8.72087954711914,4.977545251464844
5892935953583,1.914734686,1,-3.83072265625,8.762778076171875,5.098452435302734
5892942618635,1.921399738,1,-3.708618371582031,8.817844714355468,5.354632012939453
5892949285302,1.928066405,1,-3.5721488769531247,8.804676605224609,5.386953735351562
5892955950927,1.93473203,1,-3.6056677001953124,8.501810095214843,5.4515971801757805
5892962618219,1.941399322,1,-3.5673604736328124,8.240842114257813,5.449202978515625
5892969285146,1.948066249,1,-3.584119885253906,7.9283987976074215,5.438429071044921
5892975950927,1.95473203,1,-3.324349005126953,7.679401824951172,5.540182641601562
5892982618635,1.961399738,1,-3.3710359375,7.569268548583984,5.645527514648437
5892989283844,1.968064947,1,-3.4584242980957027,7.295132458496093,5.566518859863281
5892995950927,1.97473203,1,-3.4584242980957027,7.372944012451171,5.685031842041015
5893002616604,1.981397707,1,-3.421314172363281,7.372944012451171,5.80354482421875
5893009284625,1.988065728,1,-3.342305517578125,7.44357296142578,5.80354482421875
5893015958167,1.99473927,1,-3.2824504760742186,7.44357296142578,5.774814404296874
5893022620979,2.001402082,1,-3.3099837951660156,7.3669585083007805,5.609614489746093
5893029284469,2.008065572,1,-3.1591490905761717,7.171831072998047,5.427655163574219
5893035950667,2.01473177,1,-2.948459344482422,7.127538342285156,5.175066888427734
5893042616292,2.021397395,1,-2.7257985900878903,6.871358764648437,4.754884497070313
5893049285458,2.028066561,1,-2.6527754394531247,6.6905965393066404,4.235342736816406
5893055950510,2.034731613,1,-2.6575638427734374,6.386532928466797,3.649960430908203
5893062617073,2.041398176,1,-2.4756045166015626,6.1638721740722655,3.1016882507324217
5893069284364,2.048065467,1,-2.3582886352539063,5.961562133789062,2.568978381347656
5893075951031,2.054732134,1,-2.1068974609374997,5.817910034179687,2.1894974182128903
5893082623739,2.061404842,1,-1.8698714965820311,5.834669445800781,1.9488801513671874
5893089286239,2.068067342,1,-1.7908628417968748,5.767631799316406,1.697488977050781
5893095951187,2.07473229,1,-1.7681179260253905,5.759252093505859,1.4437036010742186
5893102618687,2.08139979,1,-1.6268600280761718,5.791573815917968,1.1695675109863282
5893109284000,2.088065103,1,-1.6112977172851561,5.971138940429687,0.9445125549316405
5893115951604,2.094732707,1,-1.7118541870117185,6.150704064941406,0.9014169250488281
5893122617229,2.101398332,1,-1.8698714965820311,6.424840155029297,0.7841010437011718
5893129282542,2.108063645,1,-2.1487959899902345,6.782773303222656,0.8822633117675781
5893135951396,2.114732499,1,-2.242169854736328,7.168239770507812,1.1695675109863282
5893142617750,2.121398853,1,-2.395398760986328,7.1203557373046875,1.1324573852539062
5893149284989,2.128066092,1,-2.7533319091796873,7.580042456054687,1.1324573852539062
5893155950719,2.134731822,1,-3.0119056884765625,7.802703210449218,1.2880804931640624
5893162617021,2.141398124,1,-3.1399954772949217,8.147468249511718,1.448492004394531
5893169283844,2.148064947,1,-3.049015814208984,8.507795599365235,1.7417817077636717
5893175950406,2.154731509,1,-3.172317199707031,8.681375219726561,2.2876596862792966
5893182616760,2.161397863,1,-3.0358477050781247,8.609549169921875,2.634818927001953
5893189285510,2.168066613,1,-3.151966485595703,8.601169464111328,3.009511486816406
5893195951187,2.17473229,1,-3.362656231689453,8.779537487792968,3.342305517578125
5893202617385,2.181398488,1,-3.5015199279785154,8.781931689453124,3.688267657470703
5893209284156,2.188065259,1,-3.784035723876953,8.635885388183594,4.171896392822266
5893215951031,2.194732134,1,-3.9049429077148434,8.531737615966797,4.586093280029297
5893222617021,2.201398124,1,-3.901351605224609,8.43956085205078,4.96677134399414
5893229284104,2.208065207,1,-3.9887399658203124,8.21690009765625,5.404910247802734
5893235950875,2.214731978,1,-4.3622354248046875,8.008604553222655,5.603628985595702
5893242616864,2.221397967,1,-4.754884497070313,7.886500268554687,5.831078143310546
5893249284417,2.22806552,1,-4.967968444824218,7.979874133300781,6.178237384033203
5893255951031,2.234732134,1,-4.528632440185547,8.249221820068358,6.788758807373046
5893262618219,2.241399322,1,-4.096479040527344,8.525752111816406,7.413645440673828
5893269283792,2.248064895,1,-3.7193922790527343,8.626308581542968,7.7033438415527336
5893275951083,2.254732186,1,-3.6954502624511716,8.386888415527343,7.6099699768066404
5893282617437,2.26139854,1,-3.6954502624511716,8.099584216308592,7.308300567626953
5893289285198,2.268066301,1,-3.909731311035156,8.099584216308592,7.143100653076171
5893295951291,2.274732394,1,-4.021061688232422,7.734468463134765,7.143100653076171
5893302617125,2.281398228,1,-3.6260184143066403,7.505822204589843,6.924031201171875
5893309283948,2.288065051,1,-2.81558115234375,7.39928023071289,6.6331356994628905
5893315950458,2.294731561,1,-2.864662286376953,6.980294940185546,6.212953308105468
5893322616864,2.301397967,1,-2.906560815429687,6.743268975830078,5.568913061523437
5893329283739,2.308064842,1,-2.986766571044922,6.433219860839843,5.009866973876953
5893335950094,2.314731197,1,-3.0705636291503904,6.291961962890625,4.5693338684082025
5893342629104,2.321410207,1,-3.084928839111328,6.381744525146484,4.317942694091797
5893349291916,2.328073019,1,-2.9759926635742184,6.635529901123046,4.186261602783203
5893355957021,2.334738124,1,-2.943670941162109,7.076063006591797,4.070142822265625
5893362617698,2.341398801,1,-2.9843723693847655,7.522581616210937,3.9935283691406247
5893369283323,2.348064426,1,-3.0047230834960934,7.788338000488281,3.8462849670410155
5893375950614,2.354731717,1,-3.047818713378906,7.91642778930664,3.7241806823730466
5893382618739,2.361399842,1,-3.0597897216796874,7.987056738281249,3.5529952636718747
5893389284312,2.368065415,1,-3.0705636291503904,8.037334973144532,3.287238879394531
5893395951396,2.374732499,1,-2.967612957763672,8.00022484741211,3.0609868225097654
5893402617489,2.381398592,1,-2.9508535461425778,7.715314849853515,2.8024130432128906
5893409283948,2.388065051,1,-2.925714428710937,7.4399816589355465,2.608482708740234
5893415950614,2.394731717,1,-2.8993782104492185,7.1407064514160155,2.310404602050781
5893422618062,2.401399165,1,-2.7904420349121093,6.880935571289062,2.2026655273437497
5893429283531,2.408064634,1,-2.7904420349121093,6.797138513183594,1.8411410766601561
5893435950927,2.41473203,1,-2.770091320800781,6.643909606933593,1.8411410766601561
5893442618166,2.421399269,1,-2.7461493041992187,6.312312677001953,1.6160861206054686
5893449284573,2.428065676,1,-2.6779145568847653,6.081272216796875,1.4724340209960938
5893455951239,2.434732342,1,-2.512714642333984,5.890933184814453,1.2952630981445312
5893462617281,2.441398384,1,-2.418143676757812,5.876567974853515,1.1695675109863282
5893469283739,2.448064842,1,-2.3906103576660156,6.010643267822266,1.112106671142578
5893475951135,2.454732238,1,-2.4576480041503905,6.263231542968749,1.1264718811035155
5893482618739,2.461399842,1,-2.4061726684570313,6.6714429260253905,1.1468225952148436
5893489284937,2.46806604,1,-2.4349030883789062,7.019799267578125,1.407790576171875
5893495950614,2.474731717,1,-2.39420166015625,7.364564306640625,1.5215151550292967
5893502617906,2.481399009,1,-2.6503812377929687,7.563283044433593,1.6053122131347655
5893509284104,2.488065207,1,-3.094505645751953,7.706935144042968,1.610100616455078
5893515950614,2.494731717,1,-3.1196447631835937,7.631517791748046,1.848323681640625
5893522617489,2.501398592,1,-3.0238766967773434,8.02536396484375,2.1691467041015624
5893529283531,2.508064634,1,-2.8886043029785156,8.285134844970703,2.6336218261718747
5893535951239,2.514732342,1,-2.972401361083984,8.582015850830077,3.034650604248047
5893542617906,2.521399009,1,-2.893392706298828,8.626308581542968,3.2561142578125
5893549285198,2.528066301,1,-3.573345977783203,8.604760766601562,3.8391023620605464
5893555951291,2.534732394,1,-3.554192364501953,8.465897070312499,4.2868180725097655
5893562617437,2.54139854,1,-3.7289690856933593,8.177395770263672,4.614823699951172
5893569284208,2.548065311,1,-3.7289690856933593,8.10796392211914,4.8686090759277345
5893575950666,2.554731769,1,-3.821145849609375,8.10796392211914,4.805162731933594
5893582617854,2.561398957,1,-4.027047192382812,7.9834654357910155,5.2648494506835934
5893589283114,2.568064217,1,-4.080916729736328,7.978677032470703,5.633556506347656
5893595951343,2.574732446,1,-4.3825861389160155,8.060079888916015,5.92445200805664
5893602617073,2.581398176,1,-4.632780212402343,8.288726147460936,6.344634399414062
5893609284156,2.588065259,1,-4.848258361816406,8.51018980102539,7.017405065917968
5893615951135,2.594732238,1,-5.084087225341796,8.875305554199219,7.447164263916015
5893622616656,2.601397759,1,-5.1714755859374995,9.112331518554686,7.8553756469726554
5893629283791,2.608064894,1,-4.674678741455078,9.431957440185545,8.167818963623047
5893635950875,2.614731978,1,-4.389768743896484,9.344569079589844,8.412027532958984
5893642617593,2.621398696,1,-4.310760089111328,9.09796630859375,8.185775476074218
5893649284573,2.628065676,1,-4.407725256347656,8.650250598144531,7.660248211669922
5893655950250,2.634731353,1,-4.203021014404297,8.210914593505859,7.133523846435547
5893662616083,2.641397186,1,-3.77326181640625,7.726088757324218,6.5218053222656245
5893669285041,2.648066144,1,-3.3506852233886715,7.071274603271484,5.84783755493164
5893675950614,2.654731717,1,-3.134009973144531,6.500257507324219,5.092466931152344
5893682618791,2.661399894,1,-3.094505645751953,5.941211419677734,4.331110803222656
5893689285354,2.668066457,1,-2.940079638671875,5.577292767333984,3.536235852050781
5893695948948,2.674730051,1,-2.940079638671875,5.416881256103515,2.9281086303710935
5893702618166,2.681399269,1,-2.8024130432128906,5.394136340332031,2.612074011230469
5893709284521,2.688065624,1,-2.7820623291015623,5.634753607177734,2.270900274658203
5893715951343,2.694732446,1,-2.7820623291015623,5.634753607177734,2.1152771667480468
5893722617437,2.70139854,1,-2.8622680847167965,6.102820031738281,2.1152771667480468
5893729293218,2.708074321,1,-3.3016040893554686,6.715735656738281,2.0781670410156248
5893735954364,2.714735467,1,-3.228580938720703,7.709329345703124,1.8734627990722654
5893742617802,2.721398905,1,-3.134009973144531,8.189366778564453,2.2685060729980466
5893749284781,2.728065884,1,-3.0645781249999997,8.930372192382812,2.1871032165527344
5893755950250,2.734731353,1,-3.1411925781249996,9.178172064208983,2.2649147705078123
5893762617802,2.741398905,1,-3.1555577880859373,9.288305340576171,2.1906945190429687
5893769284781,2.748065884,1,-3.0992940490722654,9.176974963378905,2.0470424194335934
5893775950406,2.754731509,1,-3.1747114013671873,8.932766394042968,1.954865655517578
5893782617854,2.761398957,1,-3.5338416503906247,7.9104422851562495,1.9500772521972656
5893789284260,2.768065363,1,-2.6420015319824217,8.093598712158203,2.360682836914062
5893795951604,2.774732707,1,-2.04943662109375,7.613561279296874,2.518700146484375
5893802616916,2.781398019,1,-1.8722656982421875,7.060500695800781,2.2780828796386716
5893809283687,2.78806479,1,-2.0638018310546875,6.513425616455078,1.763329522705078
5893815950510,2.794731613,1,-2.1440075866699217,6.027402679443359,1.5059528442382812
5893822617177,2.80139828,1,-2.080561242675781,5.705382556152343,1.39821376953125
5893829284364,2.808065467,1,-1.9093758239746093,5.700594152832031,1.5514426757812498
5893835950770,2.814731873,1,-1.7513585144042967,5.817910034179687,1.687912170410156
5893842617489,2.821398592,1,-1.6927005737304686,5.699397052001952,1.4975731384277342
5893849284729,2.828065832,1,-1.916558428955078,5.815515832519531,1.5933412048339843
5893855950562,2.834731665,1,-1.916558428955078,5.720944866943359,1.6328455322265625
5893862617229,2.841398332,1,-2.019509100341797,6.180631585693359,1.5598223815917969
5893869283843,2.848064946,1,-2.105700360107422,6.611587884521484,2.019509100341797
5893875949468,2.854730571,1,-2.1966800231933594,7.1778165771484375,2.469619012451172
5893882618583,2.861399686,1,-2.501940734863281,7.5153990112304685,2.943670941162109
5893889283739,2.868064842,1,-2.519897247314453,7.844601739501953,3.2058360229492187
5893895949573,2.874730676,1,-2.6288334228515624,7.995436444091796,3.3877953491210935
5893902618166,2.881399269,1,-2.9927520751953125,8.321047869873047,3.7529111022949215
5893909284000,2.888065103,1,-3.2692823669433593,8.537723120117187,4.144363073730468
5893915950927,2.89473203,1,-3.411737365722656,8.735244757080078,4.402936853027343
5893922617906,2.901399009,1,-3.7050270690917966,8.789114294433594,4.820725042724609
5893929284208,2.908065311,1,-3.8953661010742184,8.936357696533202,5.176263989257812
5893935950875,2.914731978,1,-4.074931225585937,8.865728747558594,5.467159490966797
5893942618427,2.92139953,1,-4.116829754638672,8.97705912475586,5.777208605957031
5893949284156,2.928065259,1,-4.13718046875,8.955511309814453,6.0896519226074215
5893955952281,2.934733384,1,-4.163516687011718,8.97705912475586,6.36498511352539
5893962616968,2.941398071,1,-4.319139794921875,8.86094034423828,6.768408093261718
5893969284052,2.948065155,1,-4.563348364257812,8.769960681152343,7.040149981689453
5893975950093,2.954731196,1,-4.667496136474609,8.767566479492187,7.406462835693359
5893982616083,2.961397186,1,-4.1563340820312495,8.755595471191405,7.544129431152343
5893989285093,2.968066196,1,-3.801992236328125,8.550891229248046,7.687781530761718
5893995951812,2.974732915,1,-3.7409400939941406,8.270769635009765,7.358578802490234
5894002617958,2.981399061,1,-3.5877111877441403,8.270769635009765,7.0102224609374995
5894009285510,2.988066613,1,-3.6523546325683593,7.805097412109374,7.0102224609374995
5894015949416,2.994730519,1,-3.707421270751953,7.3861121215820305,6.496666204833984
5894022615822,3.001396925,1,-3.5015199279785154,7.017405065917968,6.1267620483398435
5894029281916,3.008063019,1,-3.071760729980469,6.835445739746094,5.647921716308593
5894035951447,3.01473255,1,-2.7820623291015623,6.734889270019531,5.194220501708984
5894042616812,3.021397915,1,-2.7844565307617186,6.603208178710937,4.653130926513672
5894049282906,3.028064009,1,-2.8323405639648436,6.460753179931641,4.189852905273438
5894055949833,3.034730936,1,-2.9939491760253905,6.356605407714843,3.731363287353515
5894062618739,3.041399842,1,-3.1483751831054687,6.551732843017578,3.306392492675781
5894069283895,3.048064998,1,-3.1603461914062496,6.8569935546875,3.1663316955566403
5894075951187,3.05473229,1,-3.0071172851562498,7.314286071777343,3.0837317382812497
5894082617177,3.06139828,1,-2.912546319580078,7.709329345703124,2.932897033691406
5894089283947,3.06806505,1,-2.912546319580078,7.924807495117187,2.7042507751464844
5894095951395,3.074732498,1,-2.942473840332031,8.105569720458984,2.5713725830078125
5894102617437,3.08139854,1,-2.9664158569335934,8.173804467773436,2.424129180908203
5894109284677,3.08806578,1,-2.9089550170898435,8.24203921508789,2.2170307373046874
5894115951187,3.09473229,1,-2.9640216552734375,8.348581188964843,2.1224597717285154
5894122615302,3.101396405,1,-2.971204260253906,8.368931903076172,2.0266917053222655
5894129284156,3.108065259,1,-2.8311434631347656,8.265981231689453,1.9632453613281249
5894135950510,3.114731613,1,-2.664746447753906,8.131905938720703,1.9895815795898437
5894142617697,3.1213988,1,-2.664746447753906,8.183381274414062,2.0254946044921875
5894149283947,3.12806505,1,-2.5474305664062498,7.876923461914062,2.067393133544922
5894155951135,3.134732238,1,-2.395398760986328,7.564480145263672,1.9141642272949217
5894162617802,3.141398905,1,-2.2756886779785157,7.088034014892577,1.8543091857910154
5894169283999,3.148065102,1,-2.051830822753906,6.622361791992187,1.5658078857421873
5894175951031,3.154732134,1,-1.7585411193847655,6.256048937988281,1.5322890624999999
5894182618166,3.161399269,1,-1.5538368774414062,5.96275923461914,1.4125789794921875
5894189284468,3.168065571,1,-1.5346832641601562,5.742492681884765,1.2689268798828124
5894195950666,3.174731769,1,-1.6699556579589843,5.647921716308593,1.2294225524902342
5894202618114,3.181399217,1,-1.6771382629394531,5.680243438720702,1.177947216796875
5894209284624,3.188065727,1,-1.7357962036132812,5.813121630859374,1.140837091064453
5894215951968,3.194733071,1,-1.944091748046875,6.123170745849609,1.1552023010253905
5894222618270,3.201399373,1,-1.9488801513671874,6.5218053222656245,1.3084312072753905
5894229284156,3.208065259,1,-2.3499089294433593,6.672640026855468,1.7669208251953124
5894235951187,3.21473229,1,-2.39420166015625,7.190984686279297,1.9381062438964842
5894242617906,3.221399009,1,-2.2290017456054687,7.556100439453124,2.4253262817382812
5894249284729,3.228065832,1,-2.1835119140624997,8.238447912597655,2.770091320800781
5894255951239,3.234732342,1,-2.2732944763183593,8.512584002685546,3.075352032470703
5894262617020,3.241398123,1,-2.6372131286621094,8.664615808105468,3.2788591735839843
5894269283166,3.248064269,1,-2.941276739501953,8.71489404296875,3.6858734558105466
5894275950927,3.25473203,1,-2.9891607727050777,8.735244757080078,4.078522528076172
5894282617489,3.261398592,1,-2.9891607727050777,8.608352069091797,4.522646936035156
5894289284104,3.268065207,1,-3.1208418640136717,8.608352069091797,4.803965631103515
5894295950562,3.274731665,1,-3.4332851806640625,8.467094171142577,4.803965631103515
5894302617124,3.281398227,1,-4.112041351318359,8.249221820068358,5.064933612060546
5894309284677,3.28806578,1,-4.882974285888672,8.176198669433592,5.199008905029297
5894315950562,3.294731665,1,-5.287594366455078,8.265981231689453,5.754463690185546
5894322616708,3.301397811,1,-5.250484240722656,8.710105639648438,6.354211206054687
5894329283999,3.308065102,1,-4.915296008300781,9.16141265258789,7.076063006591797
5894335950354,3.314731457,1,-4.489128112792969,9.418789331054686,7.712920648193359
5894342619052,3.321400155,1,-4.206612316894531,9.522937103271484,7.979874133300781
5894349284156,3.328065259,1,-4.3251252990722655,9.290699542236327,7.807491613769531
5894355949729,3.334730832,1,-4.548983154296875,8.741230261230468,7.40526573486328
5894362616760,3.341397863,1,-4.551377355957031,8.37012900390625,7.240065820312499
5894369287593,3.348068696,1,-4.248510845947266,8.008604553222655,6.892906579589844
5894375954260,3.354735363,1,-3.7672763122558592,7.762001782226562,6.451176373291015
5894382618479,3.361399582,1,-3.5613749694824217,7.358578802490234,5.97592734375
5894389284156,3.368065259,1,-3.3315316101074215,7.029376074218749,5.287594366455078
5894395950770,3.374731873,1,-2.990357873535156,6.793547210693359,4.799177227783203
5894402617020,3.381398123,1,-2.7329811950683593,6.736086370849609,4.314351391601562
5894409284312,3.388065415,1,-2.385821954345703,6.659471917724609,4.040215301513672
5894415950406,3.394731509,1,-1.9309236389160156,6.827066033935546,3.708618371582031
5894422617801,3.401398904,1,-1.9680337646484374,6.932410906982422,3.5996821960449217
5894429283166,3.408064269,1,-1.8148048583984373,6.994660150146484,3.3303345092773435
5894435950301,3.414731404,1,-1.917755529785156,6.994660150146484,3.326743206787109
5894442617385,3.421398488,1,-1.983596075439453,7.127538342285156,3.1735143005371094
5894449284729,3.428065832,1,-2.024297503662109,7.219715106201171,3.1783027038574216
5894455950510,3.434731613,1,-2.085349645996094,7.244854223632812,3.1507693847656246
5894462615718,3.441396821,1,-2.1511901916503904,7.1407064514160155,3.208230224609375
5894469285874,3.448066977,1,-2.3523031311035156,7.082048510742187,3.1208418640136717
5894475951395,3.454732498,1,-2.536656658935547,6.852205151367187,3.008314385986328
5894482617697,3.4613988,1,-2.4899697265625,6.664260321044922,2.910152117919922
5894489283426,3.468064529,1,-2.4516625,6.440402465820312,2.7198130859375
5894495950562,3.474731665,1,-2.4863784240722655,6.174646081542968,2.518700146484375
5894502617541,3.481398644,1,-2.4971523315429685,5.953182427978516,2.2685060729980466
5894509359624,3.488140727,1,-2.577358087158203,5.88015927734375,2.2074539306640624
5894515967854,3.494748957,1,-2.6192566162109374,5.896918688964844,2.0374656127929685
5894522632645,3.501413748,1,-2.5857377929687497,6.035782385253906,1.8758570007324218
5894529298739,3.508079842,1,-2.6515783386230467,6.275202551269531,1.7286135986328124
5894535964156,3.514745259,1,-2.7964275390625,6.641515405273437,1.4975731384277342
5894542632176,3.521413279,1,-2.906560815429687,6.775590698242187,1.227028350830078
5894549296812,3.528077915,1,-2.967612957763672,7.231686114501953,1.209071838378906
5894555964833,3.534745936,1,-3.151966485595703,7.721300354003906,1.3970166687011718
5894562630406,3.541411509,1,-3.1794998046874996,8.001421948242188,1.6328455322265625
5894569298531,3.548079634,1,-3.199850518798828,8.534131817626953,1.5921441040039062
5894575965301,3.554746404,1,-3.046621612548828,8.547299926757812,2.029085906982422
5894582631812,3.561412915,1,-3.1962592163085937,8.853757739257812,2.445676995849609
5894589297749,3.568078852,1,-3.4105402648925778,9.026140258789061,2.445676995849609
5894595965822,3.574746925,1,-3.6547488342285153,9.102754711914063,2.825157958984375
5894602631864,3.581412967,1,-3.7672763122558592,9.137470635986327,3.3255461059570313
5894609373166,3.588154269,1,-4.013879083251953,9.095572106933593,3.718195178222656
5894615974572,3.594755675,1,-4.183867401123047,9.214085089111327,4.25808765258789
5894622639520,3.601420623,1,-4.139574670410156,9.273940130615234,4.918887310791015
5894629306499,3.608087602,1,-4.00310517578125,9.327809667968749,5.578489868164062
5894635973114,3.614754217,1,-4.029441394042968,9.229647399902344,6.153098266601562
5894642640041,3.621421144,1,-4.055777612304687,9.160215551757812,6.673837127685546
5894649304937,3.62808604,1,-4.429273071289062,8.817844714355468,7.1407064514160155
5894655972020,3.634753123,1,-4.748898992919922,8.535328918457031,7.376535314941406
5894662639468,3.641420571,1,-4.6651019348144525,8.321047869873047,7.800309008789062
5894669304520,3.648085623,1,-3.9145197143554684,8.16542476196289,8.365340600585936
5894675973531,3.654754634,1,-3.712209674072265,7.64827720336914,8.420407238769531
5894682640458,3.661421561,1,-3.764882110595703,7.107187628173827,8.157045056152343
5894689307853,3.668088956,1,-3.708618371582031,6.477512591552734,7.805097412109374
5894695972124,3.674753227,1,-3.4775779113769527,6.0896519226074215,7.511807708740234
5894702639312,3.681420415,1,-2.9281086303710935,5.834669445800781,7.205349896240234
5894709344937,3.68812604,1,-2.6096798095703124,5.758054992675781,6.817489227294922
5894715972958,3.694754061,1,-2.616862414550781,5.641936212158202,6.2392895263671875
5894722641239,3.701422342,1,-2.463633508300781,5.553350750732421,5.397727642822265
5894729304103,3.708085206,1,-2.551021868896484,5.400121844482421,4.727351177978515
5894735972437,3.71475354,1,-2.6671406494140624,5.371391424560547,4.722562774658203
5894742640718,3.721421821,1,-2.6503812377929687,5.385756634521484,4.109647149658203
5894749306916,3.728088019,1,-2.682702960205078,5.475539196777343,3.5338416503906247
5894755972958,3.734754061,1,-2.768894219970703,5.6958057495117185,2.932897033691406
5894762638166,3.741419269,1,-2.7952304382324216,5.917269403076172,2.4301146850585935
5894769304103,3.748085206,1,-2.7820623291015623,6.186617089843749,1.9416975463867185
5894775973374,3.754754477,1,-2.7353753967285153,6.420051751708984,1.5286977600097655
5894782639051,3.761420154,1,-2.6815058593749996,6.7277066650390625,1.1480196960449218
5894789304156,3.768085259,1,-2.8275521606445313,7.049726788330077,0.8451531860351562
5894795971083,3.774752186,1,-2.91134921875,7.308300567626953,0.5710170959472656
5894802639468,3.781420571,1,-3.0609868225097654,7.714117749023437,0.55545478515625
5894809346083,3.788127186,1,-3.2213983337402343,8.032546569824218,0.49679684448242184
5894815973739,3.794754842,1,-3.384204046630859,8.404844927978516,0.6428431457519531
5894822641760,3.801422863,1,-3.805583538818359,8.347384088134765,1.0534487304687499
5894829306603,3.808087706,1,-3.5290532470703124,9.119514123535156,1.4125789794921875
5894835971708,3.814752811,1,-3.39018955078125,9.351751684570312,1.89620771484375
5894842640822,3.821421925,1,-3.372233038330078,9.277531433105468,2.1799206115722654
5894849305093,3.828086196,1,-3.7816415222167965,9.101557611083983,2.4205378784179685
5894855971187,3.83475229,1,-3.72178648071289,8.920795385742187,2.683900061035156
5894862637905,3.841419008,1,-4.02824429321289,8.637082489013672,3.1926679138183593
5894869308374,3.848089477,1,-3.9181110168457027,8.637082489013672,3.67749375
5894875973270,3.854754373,1,-3.6906618591308593,8.541314422607421,3.712209674072265
5894882638218,3.861419321,1,-3.6547488342285153,8.35696089477539,4.171896392822266
5894889305562,3.868086665,1,-3.5146880371093747,8.210914593505859,4.593275885009765
5894895971968,3.874753071,1,-3.5494039611816404,7.97388862915039,4.978742352294922
5894902639833,3.881420936,1,-3.4093431640625,7.621940985107422,5.3199160888671875
5894909306916,3.888088019,1,-3.286041778564453,7.3837179199218745,5.742492681884765
5894915973635,3.894754738,1,-3.2740707702636715,7.125144140624999,5.907692596435546
5894922640718,3.901421821,1,-3.3004069885253906,6.813897924804687,5.972336041259766
5894929304885,3.908085988,1,-3.3099837951660156,6.470329986572265,5.993883856201172
5894935972385,3.914753488,1,-3.402160559082031,6.241683728027343,5.965153436279296
5894942640458,3.921421561,1,-3.446453289794922,6.141127258300781,5.863399865722656
5894949305718,3.928086821,1,-3.398569256591797,6.092046124267577,5.9400143188476555
5894955971864,3.934752967,1,-3.537432952880859,6.284779357910156,6.013037469482422
5894962639155,3.941420258,1,-3.6667198425292966,6.555324145507812,6.0154316711425775
5894969304885,3.948085988,1,-3.6104561035156246,6.931213806152344,5.989095452880859
5894975970770,3.954751873,1,-3.5482068603515624,7.406462835693359,5.871779571533203
5894982641760,3.961422863,1,-3.1316157714843746,7.74404526977539,5.6203883972167965
5894989305510,3.968086613,1,-3.2213983337402343,7.802703210449218,5.172672686767577
5894995972280,3.974753383,1,-3.306392492675781,7.717709051513672,4.560954162597656
5895002639624,3.981420727,1,-3.306392492675781,7.643488800048828,4.115632653808594
5895009307020,3.988088123,1,-3.365050433349609,7.5716627502441405,3.70263286743164
5895015984103,3.994765206,1,-3.27526787109375,7.5716627502441405,3.3494881225585935
5895022644155,4.001425258,1,-3.1950621154785153,7.430404852294921,3.3494881225585935
5895029305457,4.00808656,1,-3.3028011901855465,7.26520493774414,2.987963671875
5895035971968,4.014753071,1,-3.2453403503417966,7.198167291259765,2.748543505859375
5895042638947,4.02142005,1,-3.087323040771484,7.2532339294433585,2.6683377502441403
5895049304885,4.028085988,1,-3.0645781249999997,7.252036828613281,2.786850732421875
5895055973374,4.034754477,1,-3.1974563171386716,7.258022332763671,2.6910826660156246
5895062637593,4.041418696,1,-3.4811692138671875,7.108384729003906,2.5522189697265625
5895069306343,4.048087446,1,-3.725377783203125,6.842628344726562,2.3127988037109373
5895075973426,4.054754529,1,-3.4644098022460934,6.590040069580078,1.8447323791503905
5895082643687,4.06142479,1,-3.42849677734375,6.432022760009765,1.2868833923339842
5895089308114,4.068089217,1,-2.8993782104492185,6.035782385253906,0.93852705078125
5895095971447,4.07475255,1,-2.408566870117187,5.596446380615234,0.7218518005371093
5895102640301,4.081421404,1,-2.1487959899902345,5.5832782714843745,0.45010991210937495
5895109306030,4.088087133,1,-2.0925322509765625,5.410895751953125,0.5913678100585937
5895115972280,4.094753383,1,-2.4863784240722655,5.737704278564453,0.7553706237792969
5895122644937,4.10142604,1,-2.902969512939453,6.190208392333984,1.2725181823730467
5895129310197,4.1080913,1,-3.394977954101562,6.847416748046874,1.8734627990722654
5895135976864,4.114757967,1,-3.398569256591797,7.8709379577636716,2.5043349365234375
5895142642541,4.121423644,1,-3.4452561889648434,8.110358123779296,3.678690850830078
5895149310301,4.128091404,1,-3.5984850952148437,8.951920007324219,4.030638494873046
5895155976968,4.134758071,1,-3.8367081604003905,8.951920007324219,4.557362860107421
5895162643114,4.141424217,1,-4.4376527770996095,9.052476477050782,4.5693338684082025
5895169309728,4.148090831,1,-5.383362432861328,9.350554583740234,4.722562774658203
5895175976187,4.15475729,1,-5.832275244140624,9.616310968017578,5.307945080566406
5895182640457,4.16142156,1,-5.5078609191894525,10.141838232421874,6.078878015136718
5895189307749,4.168088852,1,-4.975151049804687,10.447098944091795,7.005434057617187
5895195972801,4.174753904,1,-4.6830584472656245,10.491391674804687,7.6231380859375
5895202640926,4.181422029,1,-4.809951135253906,10.000580334472655,8.020575561523437
5895209305666,4.188086769,1,-5.2073886108398435,9.513360296630859,8.123526232910155
5895215968270,4.194749373,1,-5.352237811279297,8.748412866210938,8.21690009765625
5895222635457,4.20141656,1,-4.444835382080078,8.09479581298828,8.60595786743164
5895229297541,4.208078644,1,-4.224568829345703,7.635109094238281,8.79749400024414
5895235968062,4.214749165,1,-3.9719805541992184,6.7277066650390625,8.742427362060546
5895242632437,4.22141354,1,-3.7768531188964842,5.989095452880859,8.368931903076172
5895249299312,4.228080415,1,-3.670311145019531,5.069722015380859,7.726088757324218
5895255965718,4.234746821,1,-3.411737365722656,4.3622354248046875,6.99705435180664
5895262632124,4.241413227,1,-3.0837317382812497,3.9516298400878904,6.402095239257812
5895269298895,4.248079998,1,-2.6408044311523438,3.7002386657714843,5.628768103027343
5895275964364,4.254745467,1,-2.480392919921875,3.5709517761230467,4.8889597900390624
5895282632020,4.261413123,1,-2.5007436340332028,3.494337322998047,4.049792108154296
5895289298426,4.268079529,1,-2.5007436340332028,3.6762966491699216,3.3195606018066406
5895295964676,4.274745779,1,-2.596511700439453,3.6679169433593746,2.7712884216308593
5895302633009,4.281414112,1,-2.8287492614746093,4.127603662109375,2.893392706298828
5895309296968,4.288078071,1,-3.0406361083984375,4.686649749755859,2.280477081298828
5895316088634,4.294869737,1,-3.2357635437011716,5.5844753723144525,1.9728221679687499
5895322646082,4.301427185,1,-3.604470599365234,6.533776330566406,1.62805712890625
5895329309937,4.30809104,1,-3.9360675292968748,7.444770062255859,1.6172832214355468
5895335973530,4.314754633,1,-4.229357232666016,8.340201483154296,1.5059528442382812
5895342643218,4.321424321,1,-4.319139794921875,9.203311181640624,1.6244658264160154
5895349308791,4.328089894,1,-4.554968658447265,9.86291373901367,1.659181750488281
5895355976707,4.33475781,1,-4.627991809082031,10.394426507568358,1.8088193542480469
5895362637176,4.341418279,1,-4.637568615722656,10.625466967773438,2.0554221252441405
5895369308791,4.348089894,1,-4.790797521972656,10.663774194335938,2.2673089721679687
5895375975405,4.354756508,1,-4.827907647705078,10.556035119628906,2.5378537597656248
5895382642437,4.36142354,1,-4.614823699951172,10.018536846923828,2.962824554443359
5895389309676,4.368090779,1,-4.406528155517578,9.715670336914062,3.190273712158203
5895395976082,4.374757185,1,-4.320336895751953,9.072827191162109,3.4261025756835934
5895402641968,4.381423071,1,-4.073734124755859,8.394071020507813,3.6918589599609373
5895409308634,4.388089737,1,-3.8235400512695312,7.700949639892578,3.9420530334472654
5895415993739,4.394774842,1,-3.5314474487304683,7.029376074218749,4.177881896972656
5895422636343,4.401417446,1,-3.385401147460937,6.392518432617187,4.388571643066406
5895429299780,4.408080883,1,-3.484760516357422,5.961562133789062,4.503493322753906
5895435965197,4.4147463,1,-3.1783027038574216,5.840654949951172,4.821922143554687
5895442631551,4.421412654,1,-2.990357873535156,5.534197137451171,4.853046765136718
5895449330770,4.428111873,1,-2.882618798828125,5.157110375976562,4.853046765136718
5895455963426,4.434744529,1,-2.858676782226562,5.042188696289062,4.921281512451172
5895462631187,4.44141229,1,-2.826355059814453,4.993107562255859,4.957194537353515
5895469296916,4.448078019,1,-2.8658593872070313,5.157110375976562,5.080495922851562
5895475964520,4.454745623,1,-3.0334535034179684,5.366603021240234,5.04338579711914
5895482631603,4.461412706,1,-3.2800562744140622,5.759252093505859,5.070919116210937
5895489297436,4.468078539,1,-3.412934466552734,6.262034442138671,5.147533569335937
5895495964364,4.474745467,1,-3.408146063232422,6.74805737915039,5.2253451232910155
5895502630874,4.481411977,1,-3.4524387939453125,7.295132458496093,5.140350964355468
5895509321655,4.488102758,1,-3.6272155151367187,7.570465649414062,5.117606048583984
5895515963270,4.494744373,1,-3.69664736328125,7.83981333618164,4.944026428222656
5895522643061,4.501424164,1,-3.6954502624511716,8.007407452392577,4.7560815979003905
5895529306707,4.50808781,1,-3.699041564941406,7.958326318359375,4.44962378540039
5895535971186,4.514752289,1,-3.7014357666015623,7.8529814453124995,4.145560174560547
5895542638843,4.521419946,1,-3.6260184143066403,7.64229169921875,3.834313958740234
5895549301239,4.528082342,1,-3.5494039611816404,7.413645440673828,3.6475662292480466
5895555971759,4.534752862,1,-3.3159692993164063,7.210138299560547,3.508702532958984
5895562639832,4.541420935,1,-3.1028853515624997,7.037755780029296,3.470395306396484
5895569305509,4.548086612,1,-3.0837317382812497,6.773196496582031,3.3123779968261715
5895575971134,4.554752237,1,-2.93050283203125,6.507440112304687,3.1842882080078123
5895582638634,4.561419737,1,-2.7533319091796873,6.548141540527343,3.1364041748046874
5895589305041,4.568086144,1,-2.8431144714355465,6.241683728027343,3.005920184326172
5895595972332,4.574753435,1,-2.7808652282714843,6.008249066162109,3.005920184326172
5895602639936,4.581421039,1,-2.5151088439941405,5.98191284790039,3.19865341796875
5895609302124,4.588083227,1,-2.1739351074218747,5.661089825439452,3.0909143432617188
5895615972489,4.594753592,1,-2.6671406494140624,5.424063861083984,2.548627667236328
5895622639936,4.601421039,1,-2.6850971618652344,4.332307904052734,2.3295582153320313
5895629305926,4.608087029,1,-2.942473840332031,4.589684582519531,2.2062568298339844
5895635971291,4.614752394,1,-2.919728924560547,4.997895965576172,3.0633810241699218
5895642638478,4.621419581,1,-2.427720483398437,6.436811163330078,3.6056677001953124
5895649303791,4.628084894,1,-1.9405004455566406,7.388506323242187,4.672284539794922
5895655971707,4.63475281,1,-1.9321207397460936,7.997830645751953,5.406107348632812
5895662638843,4.641419946,1,-2.3618799377441406,8.451531860351562,5.3953334411621094
5895669304780,4.648085883,1,-3.614047406005859,8.202534887695313,5.125985754394531
5895675972072,4.654753175,1,-4.789600421142578,8.092401611328125,4.784812017822265
5895682639051,4.661420154,1,-5.550956549072265,7.972691528320312,4.7584757995605464
5895689304363,4.668085466,1,-5.79037671508789,8.099584216308592,5.05655390625
5895695972957,4.67475406,1,-6.007051965332031,8.392873919677735,5.33068999633789
5895702638843,4.681419946,1,-6.591237170410156,8.25520732421875,5.438429071044921
5895709303322,4.688084425,1,-7.36097300415039,7.995436444091796,5.336675500488281
5895715973478,4.694754581,1,-7.416039642333984,8.196549383544921,5.2073886108398435
5895722640457,4.70142156,1,-7.875726361083984,8.276755139160155,5.354632012939453
5895729315093,4.708096196,1,-7.905653881835937,8.276755139160155,5.42047255859375
5895735974936,4.714756039,1,-7.694964135742187,8.719682446289061,5.400121844482421
5895742635197,4.7214163,1,-7.096413720703125,9.220070593261719,5.246892938232421
5895749306082,4.728087185,1,-6.830657336425781,9.132682232666015,4.902127899169922
5895755972488,4.734753591,1,-6.514622717285156,9.119514123535156,4.483142608642578
5895762638061,4.741419164,1,-6.283582257080078,8.766369378662109,3.6918589599609373
5895769305041,4.748086144,1,-5.869385369873046,8.574833245849609,3.2788591735839843
5895775972593,4.754753696,1,-4.961982940673828,8.573636145019531,3.009511486816406
5895782637853,4.761418956,1,-4.168305090332031,8.361749298095702,2.8718448913574215
5895789304780,4.768085883,1,-3.6846763549804686,8.15345375366211,2.501940734863281
5895795971916,4.774753019,1,-3.2836475769042965,7.735665563964844,2.2026655273437497
5895802638738,4.781419841,1,-3.087323040771484,7.437587457275391,2.1320365783691404
5895809304832,4.788085935,1,-2.7186159851074216,7.157465863037109,2.1260510742187497
5895815970613,4.794751716,1,-2.3977929626464842,6.853402252197265,2.2565350646972653
5895822641291,4.801422394,1,-2.1033061584472654,6.691793640136718,2.5905261962890624
5895829305301,4.808086404,1,-1.8195932617187498,6.216544610595703,2.7246014892578123
5895835971707,4.81475281,1,-1.7836802368164062,5.810727429199218,2.961627453613281
5895842637853,4.821418956,1,-1.8351555725097655,5.412092852783203,3.125630267333984
5895849305457,4.82808656,1,-1.9823989746093749,5.167884283447266,3.3578678283691406
5895855970613,4.834751716,1,-1.8136077575683593,4.935646722412109,3.8199487487792965
5895862640874,4.841421977,1,-1.8136077575683593,4.930858319091796,4.407725256347656
5895869305457,4.84808656,1,-1.6508020446777343,5.014655377197266,4.8698061767578125
5895875972176,4.854753279,1,-1.7106570861816406,5.014655377197266,5.1894320983886715
5895882638843,4.861419946,1,-1.8567033874511718,4.970362646484375,5.1894320983886715
5895889305301,4.868086404,1,-2.1320365783691404,5.013458276367187,5.436034869384765
5895895971655,4.874752758,1,-2.403778466796875,5.15830747680664,5.7149593627929685
5895902638790,4.881419893,1,-2.558204473876953,5.299565374755859,5.883750579833984
5895909304624,4.888085727,1,-2.6372131286621094,5.416881256103515,5.985504150390625
5895915971707,4.89475281,1,-2.8610709838867185,5.461173986816406,5.759252093505859
5895922640353,4.901421456,1,-3.143586779785156,5.4779333984375,5.578489868164062
5895929305770,4.908086873,1,-3.421314172363281,5.594052178955078,5.250484240722656
5895935970665,4.914751768,1,-3.5805285827636717,5.728127471923828,4.789600421142578
5895942638790,4.921419893,1,-3.592499591064453,6.045359191894531,4.4184991638183595
5895949305718,4.928086821,1,-3.6750995483398436,6.4475850708007805,4.101267443847656
5895955970770,4.934751873,1,-3.678690850830078,6.904877587890625,3.861847277832031
5895962638999,4.941420102,1,-3.6810850524902343,7.24605132446289,3.77326181640625
5895969304155,4.948085258,1,-3.5673604736328124,7.630320690917968,3.6834792541503902
5895975972072,4.954753175,1,-3.5960908935546874,7.851784344482422,3.478775012207031
5895982639728,4.961420831,1,-3.912125512695312,8.014590057373047,3.411737365722656
5895989304259,4.968085362,1,-4.152742779541016,8.305485559082031,3.246537451171875
5895995971238,4.974752341,1,-4.183867401123047,8.43956085205078,3.257311358642578
5896003028165,4.981809268,1,-4.3622354248046875,8.412027532958984,3.499125726318359
5896009339155,4.988120258,1,-4.3622354248046875,8.57962164916992,3.727771984863281
5896015976343,4.994757446,1,-4.564545465087891,8.500612994384765,4.043806604003906
5896022632124,5.001413227,1,-4.880580084228515,8.500612994384765,4.043806604003906
5896029297697,5.0080788,1,-5.428852264404297,8.435969549560546,4.311957189941406
5896035967124,5.014748227,1,-5.634753607177734,8.447940557861328,4.763264202880859
5896042633165,5.021414268,1,-5.6311623046875,8.54849702758789,5.304353778076171
5896049299051,5.028080154,1,-5.4779333984375,8.589198455810546,5.738901379394531
5896055965665,5.034746768,1,-5.414487054443359,8.513781103515624,5.944802722167968
5896062633270,5.041414373,1,-5.383362432861328,8.220491400146484,6.013037469482422
5896069298009,5.048079112,1,-5.385756634521484,8.099584216308592,5.868188269042968
5896075961395,5.054742498,1,-5.1702784851074215,8.048108880615233,5.899312890625
5896082632436,5.061413539,1,-4.4819455078125,8.042123376464843,5.779602807617187
5896089297957,5.06807906,1,-4.1575311828613275,7.900865478515625,5.881356378173828
5896095966238,5.074747341,1,-4.144363073730468,7.621940985107422,5.646724615478515
5896102631863,5.081412966,1,-4.165910888671875,7.072471704101562,5.19661470336914
5896109298113,5.088079216,1,-3.9181110168457027,6.5960255737304685,4.791994622802734
5896115964468,5.094745571,1,-3.518279339599609,6.275202551269531,4.390965844726562
5896122640457,5.10142156,1,-3.153163586425781,6.007051965332031,3.9911341674804683
5896129306030,5.108087133,1,-2.8095956481933593,5.725733270263672,3.6008792968749996
5896135972645,5.114753748,1,-2.5953145996093747,5.440823272705078,3.2405519470214843
5896142639780,5.121420883,1,-2.5821464904785154,5.270834954833984,2.919728924560547
5896149305874,5.128086977,1,-2.2756886779785157,5.05655390625,2.7665000183105466
5896155971915,5.134753018,1,-2.051830822753906,5.0769046203613275,2.461239306640625
5896162639832,5.141420935,1,-1.8100164550781248,4.923675714111328,2.4193407775878906
5896169305092,5.148086195,1,-1.6891092712402342,4.841075756835937,2.4193407775878906
5896175971863,5.154752966,1,-1.5167267517089842,4.898536596679687,2.281674182128906
5896182638895,5.161419998,1,-1.7298106994628906,4.8877626892089845,2.1068974609374997
5896189305405,5.168086508,1,-2.041056915283203,4.915296008300781,1.89620771484375
5896195973478,5.174754581,1,-2.31758720703125,5.145139367675781,2.012326495361328
5896202639936,5.181421039,1,-2.5234885498046875,5.5461681457519525,2.2026655273437497
5896209304936,5.188086039,1,-2.8622680847167965,5.9376201171875,2.567781280517578
5896215972592,5.194753695,1,-3.3387142150878906,6.508637213134765,2.7545290100097652
5896222640822,5.201421925,1,-4.120421057128906,6.9719152343749995,3.075352032470703
5896229307488,5.208088591,1,-4.7884033203125,7.407659936523437,3.497928625488281
5896235972957,5.21475406,1,-4.898536596679687,8.319850769042969,4.097676141357422
5896242639207,5.22142031,1,-4.722562774658203,9.100360510253905,4.734533782958984
5896249305613,5.228086716,1,-4.653130926513672,9.338583575439452,5.2648494506835934
5896255968842,5.234749945,1,-4.780023614501953,9.6151138671875,5.549759448242187
5896262639780,5.241420883,1,-5.08169302368164,9.419986431884766,5.632359405517578
5896269305092,5.248086195,1,-5.304353778076171,9.277531433105468,5.610811590576172
5896275970197,5.2547513,1,-5.315127685546875,8.987833032226561,5.759252093505859
5896282638165,5.261419268,1,-5.080495922851562,8.688557824707031,5.872976672363281
5896289305353,5.268086456,1,-5.087678527832031,8.227674005126953,5.888538983154296
5896295971603,5.274752706,1,-4.627991809082031,7.673416320800781,5.747281085205078
5896302639103,5.281420206,1,-4.3239281982421875,7.673416320800781,5.492298608398437
5896309304520,5.288085623,1,-4.115632653808594,7.053318090820312,5.498284112548828
5896315972228,5.294753331,1,-4.187458703613281,6.410474945068359,5.191826300048827
5896322639832,5.301420935,1,-4.167107989501953,5.945999822998046,4.897339495849609
5896329306759,5.308087862,1,-3.9276878234863277,5.65031591796875,4.685452648925781
5896335972592,5.314753695,1,-3.3674446350097655,5.679046337890624,4.547786053466797
5896342640926,5.321422029,1,-3.2225954345703123,5.592855078125,4.405331054687499
5896349305874,5.328086977,1,-3.1974563171386716,5.578489868164062,4.083310931396484
5896355970040,5.334751143,1,-3.1352070739746094,5.626373901367187,3.852270471191406
5896362639936,5.341421039,1,-3.1507693847656246,5.807136126708984,3.5314474487304683
5896369304780,5.348085883,1,-3.201047619628906,6.054935998535156,3.4440590881347655
5896376104363,5.354885466,1,-3.246537451171875,6.257246038818359,3.2417490478515623
5896382646186,5.361427289,1,-3.3075895935058592,6.572083557128906,3.0921114440917967
5896389312540,5.368093643,1,-3.400963458251953,6.8031240173339835,3.017891192626953
5896395973738,5.374754841,1,-3.5529952636718747,7.1395093505859375,2.9831752685546875
5896402640926,5.381422029,1,-3.5984850952148437,7.395688928222656,3.1124621582031247
5896409303790,5.388084893,1,-3.6379894226074216,7.46272657470703,3.374627239990234
5896415974415,5.394755518,1,-3.7995980346679685,7.643488800048828,3.2249896362304686
5896422638582,5.401419685,1,-4.082113830566406,7.521384515380859,3.4105402648925778
5896429301655,5.408082758,1,-4.134786267089844,7.588422161865234,3.4680011047363277
5896435967436,5.414748539,1,-4.2880151733398435,7.513004809570312,3.6739024475097652
5896442635769,5.421416872,1,-4.390965844726562,7.513004809570312,3.928884924316406
5896449299780,5.428080883,1,-4.422090466308593,7.588422161865234,3.919308117675781
5896455965197,5.4347463,1,-4.499902020263671,7.581239556884765,4.072537023925781
5896462631759,5.441412862,1,-4.574122271728515,7.558494641113281,4.3059716857910155
5896469297644,5.448078747,1,-4.560954162597656,7.554903338623046,4.522646936035156
5896475963738,5.454744841,1,-4.7560815979003905,7.544129431152343,4.627991809082031
5896482632072,5.461413175,1,-4.876988781738281,7.588422161865234,4.7584757995605464
5896489296499,5.468077602,1,-4.605246893310547,7.520187414550781,4.809951135253906
5896495964415,5.474745518,1,-4.33470210571289,7.6099699768066404,5.000290167236328
5896502631863,5.481412966,1,-4.276044165039062,7.612364178466796,4.98592495727539
5896509295197,5.4880763,1,-4.25808765258789,7.38012661743164,4.945223529052734
5896515965405,5.494746508,1,-4.088099334716796,7.3094976684570305,4.791994622802734
5896522714207,5.50149531,1,-4.071339923095703,7.052120989990234,4.802768530273437
5896529305509,5.508086612,1,-3.9360675292968748,6.962338427734375,4.6627077331542965
5896535971655,5.514752758,1,-3.6727053466796873,6.807912420654296,4.712985968017578
5896542638999,5.521420102,1,-3.5625720703124997,6.669048724365234,4.578910675048828
5896549306447,5.52808755,1,-3.611653204345703,6.543353137207031,4.446032482910156
5896555971967,5.53475307,1,-3.6547488342285153,6.386532928466797,4.3801919372558595
5896562638165,5.541419268,1,-3.228580938720703,6.4284314575195305,4.46279189453125
5896569304467,5.54808557,1,-3.4428619873046875,6.356605407714843,4.425681768798828
5896575971082,5.554752185,1,-3.398569256591797,6.241683728027343,4.112041351318359
5896582640405,5.561421508,1,-3.7050270690917966,6.274005450439453,4.163516687011718
5896589304207,5.56808531,1,-3.851073370361328,6.4272343566894525,4.347870214843749
5896595971655,5.574752758,1,-3.758896606445312,6.76721099243164,4.310760089111328
5896602636290,5.581417393,1,-3.5529952636718747,7.013813763427734,4.310760089111328
5896609305249,5.588086352,1,-3.5996821960449217,6.88213267211914,4.299986181640625
5896615973478,5.594754581,1,-3.7768531188964842,6.798335614013672,3.9228994201660154
5896622681759,5.601462862,1,-3.77326181640625,6.6271501953125,3.6296097167968746
5896629305874,5.608086977,1,-3.5781343811035153,6.477512591552734,3.2142157287597652
5896635972071,5.614753174,1,-3.447650390625,6.405686541748047,2.8526912780761715
5896642638217,5.62141932,1,-3.2980127868652342,6.405686541748047,2.7042507751464844
5896649305926,5.628087029,1,-3.037044805908203,6.411672045898437,2.6946739685058594
5896655971394,5.634752497,1,-2.9544448486328125,6.481103894042969,2.6479870361328124
5896662639103,5.641420206,1,-2.9843723693847655,6.6319385986328125,2.6228479187011717
5896669305769,5.648086872,1,-3.295618585205078,6.4739212890625,2.5426421630859375
5896675971863,5.654752966,1,-3.6559459350585937,6.4643444824218745,2.402581365966797
5896682638686,5.661419789,1,-4.030638494873046,6.846219647216796,2.481590020751953
5896689305144,5.668086247,1,-4.180276098632812,6.992265948486327,2.8143840515136715
5896695970301,5.674751404,1,-4.564545465087891,7.098807922363281,2.9843723693847655
5896702639832,5.681420935,1,-5.2085857116699215,7.544129431152343,3.1950621154785153
5896709304676,5.688085779,1,-5.067327813720703,8.007407452392577,3.873818286132812
5896715973478,5.694754581,1,-5.199008905029297,8.552088330078124,4.554968658447265
5896722638113,5.701419216,1,-4.892551092529296,8.793902697753905,5.111620544433594
5896729306811,5.708087914,1,-4.879382983398437,8.865728747558594,5.274426257324219
5896735968999,5.714750102,1,-5.13915386352539,8.865728747558594,5.303156677246093
5896742639676,5.721420779,1,-5.485116003417969,8.84178673095703,5.303156677246093
5896749306134,5.728087237,1,-5.556942053222656,8.71489404296875,5.334281298828125
5896755970769,5.734751872,1,-4.8123453369140625,8.699331732177734,5.506663818359375
5896762638426,5.741419529,1,-4.912901806640625,8.632294085693358,5.801150622558594
5896769306446,5.748087549,1,-5.029020587158203,8.374917407226562,5.735310076904296
5896775972488,5.754753591,1,-4.7943888244628905,8.03134946899414,5.833472344970703
5896782639363,5.761420466,1,-4.908113403320312,8.093598712158203,6.0142345703124995
5896789304311,5.768085414,1,-4.98592495727539,7.898471276855468,6.1279591491699215
5896795972384,5.774753487,1,-4.929661218261718,7.577648254394531,6.087257720947266
5896802638998,5.781420101,1,-4.959588739013672,7.388506323242187,5.947196923828125
5896809303894,5.788084997,1,-4.782417816162109,7.090428216552734,5.687426043701172
5896815971446,5.794752549,1,-4.661510632324219,6.819883428955078,5.105635040283203
5896822638373,5.801419476,1,-4.507084625244141,6.411672045898437,4.394557147216797
5896829306030,5.808087133,1,-4.2868180725097655,6.010643267822266,3.678690850830078
5896835972332,5.814753435,1,-3.944447235107422,5.795165118408203,3.161543292236328
5896842639623,5.821420726,1,-3.4536358947753905,5.6383449096679685,2.558204473876953
5896849302748,5.828083851,1,-3.0442274108886718,5.511452221679687,2.1787235107421874
5896855972957,5.83475406,1,-2.5857377929687497,5.609614489746093,1.956062756347656
5896862637905,5.841419008,1,-2.499546533203125,5.810727429199218,1.5837643981933593
5896869304571,5.848085674,1,-2.1930887207031247,5.811924530029296,1.3383587280273437
5896875971655,5.854752758,1,-1.9812018737792967,5.965153436279296,0.9732429748535155
5896882638426,5.861419529,1,-1.9764134704589842,5.910086798095703,0.9864110839843749
5896889304832,5.868085935,1,-2.1883003173828124,5.967547637939453,0.679953271484375
5896895971342,5.874752445,1,-2.270900274658203,6.036979486083984,0.4860229370117187
5896902639103,5.881420206,1,-2.522291448974609,6.224924316406249,0.4860229370117187
5896909303790,5.888084893,1,-2.7162217834472653,6.423643054199219,0.5686228942871093
5896915971551,5.894752654,1,-2.924517327880859,6.682216833496093,0.7158662963867187
5896922635821,5.901416924,1,-3.21780703125,6.8785413696289055,1.1276689819335937
5896929306707,5.90808781,1,-3.670311145019531,6.95874712524414,1.5131354492187499
5896935972957,5.91475406,1,-3.754108203125,7.305906365966797,2.070984436035156
5896942641134,5.921422237,1,-4.339490509033203,7.739256866455078,2.7665000183105466
5896949305613,5.928086716,1,-4.513070129394531,8.60595786743164,3.1196447631835937
5896955971394,5.934752497,1,-4.854243865966796,8.597578161621094,4.12401235961914
5896962638478,5.941419581,1,-4.972756848144531,9.121908325195312,4.617217901611328
5896969305457,5.94808656,1,-5.078101721191406,9.31464155883789,5.2061915100097655
5896975971342,5.954752445,1,-4.98592495727539,9.345766180419922,5.5545478515625
5896982639676,5.961420779,1,-5.072116217041016,9.175777862548827,5.777208605957031
5896989304051,5.968085154,1,-5.129577056884766,8.869320050048827,5.906495495605468
5896995972853,5.974753956,1,-5.193023400878906,8.392873919677735,5.974730242919922
5897002637436,5.981418539,1,-5.128379956054687,7.970297326660156,6.013037469482422
5897009304103,5.988085206,1,-4.975151049804687,7.484274389648437,5.961562133789062
5897015971915,5.994753018,1,-4.696226556396484,7.4794859863281244,5.931634613037109
5897022642592,6.001423695,1,-4.3610383239746096,7.019799267578125,5.519831927490234
5897029310978,6.008092081,1,-4.112041351318359,6.440402465820312,5.519831927490234
5897035973530,6.014754633,1,-3.575740179443359,5.951985327148437,5.27322915649414
5897042638738,6.021419841,1,-3.2357635437011716,5.613205792236328,4.805162731933594
5897049304832,6.028085935,1,-3.1364041748046874,5.309142181396484,4.3251252990722655
5897055968894,6.034749997,1,-3.0238766967773434,5.1511248718261715,3.934870428466797
5897062639415,6.041420518,1,-2.816778253173828,5.233724829101562,3.7158009765625
5897069303894,6.048084997,1,-2.6659435485839844,5.443217474365234,3.4201170715332028
5897075970665,6.054751768,1,-2.7820623291015623,5.374982727050781,3.0801404357910154
5897082635248,6.061416351,1,-3.153163586425781,5.622782598876952,2.8287492614746093
5897089308894,6.068089997,1,-3.3446997192382812,6.082469317626953,2.806004345703125
5897095971446,6.074752549,1,-3.484760516357422,6.898892083740234,3.010708587646484
5897102639623,6.081420726,1,-3.6332010192871094,7.4782888854980465,3.3351229125976563
5897109304936,6.088086039,1,-3.7337574890136715,7.896077075195312,3.5206735412597654
5897115971863,6.094752966,1,-4.070142822265625,8.22288560180664,3.6571430358886716
5897122638894,6.101419997,1,-4.446032482910156,8.488641986083984,3.8582559753417964
5897129304155,6.108085258,1,-4.778826513671874,8.635885388183594,4.048595007324218
5897135972175,6.114753278,1,-4.915296008300781,8.738836059570312,4.420893365478515
5897142637175,6.121418278,1,-4.917690209960937,8.819041815185546,4.6639048339843745
5897149304988,6.128086091,1,-4.921281512451172,8.750807067871094,4.885368487548828
5897155972332,6.134753435,1,-4.768052606201172,8.851363537597656,4.7764323120117185
5897162638321,6.141419424,1,-4.875791680908203,8.391676818847655,4.622006304931641
5897169304728,6.148085831,1,-4.655525128173828,8.026561065673828,4.708197564697265
5897175972123,6.154753226,1,-4.647145422363281,7.754819177246094,4.861426470947265
5897182638009,6.161419112,1,-4.675875842285156,7.495048297119141,4.876988781738281
5897189304519,6.168085622,1,-4.559757061767578,7.6231380859375,5.078101721191406
5897195972280,6.174753383,1,-4.290409374999999,7.442375860595702,5.449202978515625
5897202637592,6.181418695,1,-4.167107989501953,7.371746911621093,5.404910247802734
5897209304103,6.188085206,1,-4.23893403930664,7.095216619873047,5.252878442382812
5897215972592,6.194753695,1,-4.2125978210449215,6.928819604492187,4.935646722412109
5897222638686,6.201419789,1,-4.023455889892578,6.692990740966796,4.6351744140625
5897229347384,6.208128487,1,-3.9659950500488277,6.661866119384765,4.402936853027343
5897235971863,6.214752966,1,-3.944447235107422,6.554127044677734,3.9791631591796874
5897242638998,6.221420101,1,-4.021061688232422,6.647500909423828,3.7038299682617186
5897249305665,6.228086768,1,-3.9516298400878904,6.9731123352050774,3.5817256835937497
5897255971394,6.234752497,1,-3.566163372802734,7.4591352722167965,3.6930560607910152
5897262637540,6.241418643,1,-3.2609026611328122,7.876923461914062,3.949235638427734
5897269305092,6.248086195,1,-2.932897033691406,8.239645013427733,4.1946413085937495
5897275970925,6.254752028,1,-2.797624639892578,8.483853582763672,4.479551306152343
5897282639467,6.26142057,1,-3.1280244689941403,8.75918677368164,4.76924970703125
5897289304207,6.26808531,1,-3.19865341796875,8.614337573242187,5.161898779296875
5897295970405,6.274751508,1,-3.19865341796875,8.352172491455077,5.446808776855469
5897302638009,6.281419112,1,-3.038241906738281,8.28034644165039,5.785588311767578
5897309303842,6.288084945,1,-2.913743420410156,7.97388862915039,5.793968017578124
5897315972540,6.294753643,1,-2.916137622070312,7.463923675537109,5.793968017578124
5897322637644,6.301418747,1,-3.1184476623535153,6.78636460571289,5.65031591796875
5897329346030,6.308127133,1,-3.506308331298828,6.059724401855468,5.5449710449218745
5897335971967,6.31475307,1,-3.545812658691406,5.66946953125,5.378574029541015
5897342639155,6.321420258,1,-3.199850518798828,5.453991381835937,5.511452221679687
5897349315144,6.328096247,1,-2.592920397949219,5.36899722290039,5.480327600097656
5897355973738,6.334754841,1,-2.166752502441406,5.184643695068359,5.233724829101562
5897362639050,6.341420153,1,-2.2026655273437497,4.955997436523437,4.589684582519531
5897369304571,6.348085674,1,-2.300827795410156,4.601655590820312,3.8391023620605464
5897375970405,6.354751508,1,-2.47081611328125,4.459200592041015,3.0801404357910154
5897382639519,6.361420622,1,-2.2110452331542967,4.3610383239746096,2.5617957763671875
5897389303373,6.368084476,1,-1.6400281372070311,4.498704919433593,2.1823148132324217
5897395970040,6.374751143,1,-1.3263877197265623,4.836287353515624,1.6077064147949218
5897402638530,6.381419633,1,-1.5023615417480467,5.063736511230468,1.1192892761230469
5897409305248,6.388086351,1,-1.7513585144042967,5.390545037841797,0.6607996582031249
5897415973582,6.394754685,1,-1.935712042236328,5.942408520507812,0.2920926025390625
5897422639155,6.401420258,1,-2.129642376708984,6.530185028076171,0.20949264526367187
5897429304363,6.408085466,1,-2.7162217834472653,6.766013891601562,0.35793314819335936
5897435972748,6.414753851,1,-2.612074011230469,7.544129431152343,0.967257470703125
5897442638842,6.421419945,1,-2.612074011230469,7.606378674316406,1.5921441040039062
5897449306186,6.428087289,1,-1.9871873779296874,8.219294299316406,1.9716250671386717
5897455970509,6.434751612,1,-2.0841525451660154,8.497021691894531,1.848323681640625
5897462638009,6.441419112,1,-2.8802245971679685,8.330624676513672,1.848323681640625
5897469304519,6.448085622,1,-3.83072265625,8.256404425048828,1.6136919189453125
5897475971134,6.454752237,1,-4.337096307373047,8.31865366821289,1.9704279663085937
5897482638790,6.461419893,1,-4.414907861328125,8.68257232055664,2.779668127441406
5897489304675,6.468085778,1,-4.248510845947266,9.016563452148437,3.5302503479003904
5897495970769,6.474751872,1,-4.127603662109375,9.173383660888671,4.358644122314453
5897502639415,6.481420518,1,-4.13718046875,9.133879333496093,4.842272857666015
5897509305196,6.488086299,1,-4.322731097412109,8.870517150878905,5.153519073486327
5897515971759,6.494752862,1,-4.641159918212891,8.650250598144531,5.103240838623047
5897522638425,6.501419528,1,-5.455188482666015,8.390479718017577,5.562927557373047
5897529304154,6.508085257,1,-5.550956549072265,8.32463917236328,5.858611462402344
5897535970509,6.514751612,1,-5.768828900146484,8.303091357421874,6.41646044921875
5897542640404,6.521421507,1,-5.7317187744140625,8.402450726318358,7.0832456115722655
5897549305665,6.528086768,1,-5.430049365234375,8.33780728149414,7.624335186767578
5897555971550,6.534752653,1,-5.128379956054687,8.263587030029296,7.862558251953125
5897562638061,6.541419164,1,-5.088875628662109,7.912836486816405,7.710526446533203
5897569304207,6.54808531,1,-5.299565374755859,7.481880187988281,7.3466077941894525
5897575970561,6.554751664,1,-5.360617517089843,7.108384729003906,6.92043989868164
5897582638998,6.561420101,1,-5.2073886108398435,6.986280444335937,6.72291826171875
5897589303686,6.568084789,1,-4.975151049804687,6.982689141845703,6.275202551269531
5897595968529,6.574749632,1,-4.629188909912109,6.982689141845703,6.1830257873535155
5897602640717,6.58142182,1,-4.012681982421875,7.085639813232421,6.029796881103516
5897609305144,6.588086247,1,-4.122815258789062,7.256825231933593,5.6191912963867185
5897615971759,6.594752862,1,-3.9935283691406247,7.231686114501953,5.248090039062499
5897622639675,6.601420778,1,-3.6762966491699216,7.283161450195312,4.862623571777344
5897629303686,6.608084789,1,-3.326743206787109,7.279570147705078,4.637568615722656
5897635972852,6.614753955,1,-3.1878795104980466,7.153874560546875,4.186261602783203
5897642638790,6.621419893,1,-3.353079425048828,7.011419561767577,3.7397429931640622
5897649306602,6.628087705,1,-3.411737365722656,6.83783994140625,3.5290532470703124
5897655971081,6.634752184,1,-3.388992449951172,6.945579016113281,3.3219548034667965
5897662638581,6.641419684,1,-3.171120098876953,7.025784771728516,3.3207577026367185
5897669303894,6.648084997,1,-2.938882537841797,7.261613635253906,3.384204046630859
5897675970977,6.65475208,1,-2.8706477905273435,7.165845568847656,3.438073583984375
5897682637904,6.661419007,1,-2.8323405639648436,7.201758593749999,3.268085266113281
5897689304884,6.668085987,1,-2.8203695556640622,7.1023992248535155,3.1220389648437497
5897695972175,6.674753278,1,-2.693476867675781,6.930016705322266,3.0633810241699218
5897702639623,6.681420726,1,-2.6336218261718747,6.6702458251953125,2.987963671875
5897709303842,6.688084945,1,-2.4492682983398435,6.374561920166015,2.9281086303710935
5897715972175,6.694753278,1,-2.042254016113281,5.9950809570312495,2.7665000183105466
5897722638581,6.701419684,1,-2.1452046874999997,5.562927557373047,2.551021868896484
5897729304311,6.708085414,1,-1.838746875,5.6024318847656245,2.195482922363281
5897735968998,6.714750101,1,-1.8136077575683593,5.142745166015625,1.8926164123535154
5897742650144,6.721431247,1,-1.8818425048828125,4.94761773071289,1.8555062866210936
5897749308321,6.728089424,1,-1.7908628417968748,4.886565588378906,1.8555062866210936
5897755971706,6.734752809,1,-1.956062756347656,4.892551092529296,1.7741034301757812
5897762640456,6.741421559,1,-1.9009961181640624,4.857835168457031,1.6460136413574218
5897769305925,6.748087028,1,-1.8028338500976562,5.163095880126953,1.7453730102539062
5897775972592,6.754753695,1,-2.04943662109375,5.462371087646484,1.8543091857910154
5897782639623,6.761420726,1,-2.403778466796875,5.815515832519531,1.9847931762695312
5897789301602,6.768082705,1,-2.788047833251953,6.469132885742187,2.1212626708984375
5897795972800,6.774753903,1,-2.935291235351562,7.0832456115722655,2.625242120361328
5897802638217,6.78141932,1,-3.1280244689941403,7.91642778930664,3.116053460693359
5897809304363,6.788085466,1,-3.381809844970703,8.486247784423828,3.7900212280273435
5897815971654,6.794752757,1,-3.7576995056152342,8.780734588623046,4.229357232666016
5897822640040,6.801421143,1,-4.159925384521484,8.985438830566405,4.548983154296875
5897829304779,6.808085882,1,-4.484339709472656,9.16141265258789,4.951209033203125
5897835973894,6.814754997,1,-4.564545465087891,9.300276348876952,5.333084197998047
5897842637852,6.821418955,1,-4.593275885009765,9.357737188720703,5.685031842041015
5897849306081,6.828087184,1,-4.691438153076172,9.139864837646483,6.084863519287109
5897855971759,6.834752862,1,-4.809951135253906,8.912415679931641,6.222530114746093
5897862638842,6.841419945,1,-4.764461303710937,8.665812908935546,6.513425616455078
5897869304206,6.848085309,1,-4.764461303710937,8.391676818847655,6.771999395751953
5897875971446,6.854752549,1,-4.521449835205078,8.288726147460936,6.886921075439453
5897882637748,6.861418851,1,-4.369418029785156,7.982268334960937,6.788758807373046
5897889305300,6.868086403,1,-4.333505004882812,7.34181939086914,6.788758807373046
5897895971758,6.874752861,1,-4.406528155517578,6.779182000732422,6.527790826416015
5897902639467,6.88142057,1,-4.490325213623047,6.179434484863281,6.318298181152343
5897909303790,6.888084893,1,-4.478354205322265,5.9950809570312495,6.252457635498047
5897915972852,6.894753955,1,-4.29639487915039,5.865794067382812,6.136338854980468
5897922637175,6.901418278,1,-4.314351391601562,6.0513446960449215,5.968744738769531
5897929304779,6.908085882,1,-4.015076184082031,6.300341668701171,5.699397052001952
5897935972644,6.914753747,1,-4.0988732421875,6.7277066650390625,5.5258174316406246
5897942640144,6.921421247,1,-4.508281726074219,7.101202124023437,5.030217687988281
5897949304311,6.928085414,1,-4.638765716552734,7.597998968505859,4.659116430664063
5897955972488,6.934753591,1,-4.502296221923828,8.12711753540039,4.384980340576171
5897962638165,6.941419268,1,-4.2137949218749995,8.524555010986328,4.174290594482422
5897969304415,6.948085518,1,-4.168305090332031,8.672995513916016,4.039018200683594
5897975972279,6.954753382,1,-4.059368914794922,8.84777223510742,3.8666356811523435
5897982639415,6.961420518,1,-3.8391023620605464,8.93755479736328,3.8486791687011714
5897989303790,6.968084893,1,-3.614047406005859,8.881291058349609,3.756502404785156
5897995969988,6.974751091,1,-3.4249054748535155,8.626308581542968,3.7385458923339843
5898002638008,6.981419111,1,-3.4440590881347655,8.169016064453125,3.689464758300781
5898009306081,6.988087184,1,-3.4835634155273434,7.721300354003906,3.592499591064453
5898015969519,6.994750622,1,-3.3303345092773435,7.777564093017578,3.5613749694824217
5898022635561,7.001416664,1,-3.318363500976562,7.164648468017577,3.4249054748535155
5898029301446,7.008082549,1,-3.1950621154785153,6.590040069580078,3.5003228271484375
5898036054206,7.014835309,1,-2.922123126220703,5.96275923461914,3.347093920898437
5898042640144,7.021421247,1,-2.530671154785156,5.485116003417969,3.2022447204589843
5898049305561,7.028086664,1,-2.309207501220703,4.815936639404296,2.881421697998047
5898055970769,7.034751872,1,-2.127248175048828,4.485536810302734,2.7198130859375
5898062638529,7.041419632,1,-1.9405004455566406,4.228160131835938,2.6036943054199218
5898069304779,7.048085882,1,-1.8854338073730468,4.2688615600585935,2.407369769287109
5898075972436,7.054753539,1,-1.9033903198242186,4.491522314453125,2.418143676757812
5898082641498,7.061422601,1,-2.029085906982422,4.8877626892089845,2.418143676757812
5898089301654,7.068082757,1,-1.8423381774902343,5.246892938232421,2.3415292236328122
5898095970040,7.074751143,1,-1.8243816650390623,5.6574985229492185,2.454056701660156
5898102639519,7.081420622,1,-1.8722656982421875,6.106411334228516,2.310404602050781
5898109305300,7.088086403,1,-1.725022296142578,6.265625744628906,2.748543505859375
5898115971654,7.094752757,1,-1.2342109558105467,6.740874774169922,2.8574796813964842
5898122639363,7.101420466,1,-1.5227122558593749,6.453570574951171,2.7748797241210936
5898129304258,7.108085361,1,-2.3020248962402343,6.227318518066406,2.5438392639160154
5898136054831,7.114835934,1,-3.1399954772949217,6.1650692749023435,2.3786393493652342
5898142639883,7.121420986,1,-3.555389465332031,6.443993768310547,2.507926239013672
5898149304258,7.128085361,1,-3.5673604736328124,6.884526873779296,3.071760729980469
5898155970404,7.134751507,1,-4.027047192382812,7.407659936523437,3.6475662292480466
5898162640456,7.141421559,1,-4.618415002441406,7.395688928222656,4.2497079467773435
5898169303633,7.148084736,1,-4.963180041503906,8.161833459472655,4.242525341796875
5898175972852,7.154753955,1,-4.911704705810546,8.935160595703124,4.855440966796874
5898182637956,7.161419059,1,-5.1894320983886715,9.478644372558593,5.7508723876953125
5898189304102,7.168085205,1,-5.220556719970703,10.044873065185547,6.1842228881835934
5898195971185,7.174752288,1,-5.5641246582031245,10.092757098388672,6.701370446777343
5898202638633,7.181419736,1,-5.965153436279296,10.340556970214843,6.598419775390624
5898209308738,7.188089841,1,-6.308721374511719,10.001777435302733,6.943184814453125
5898215973321,7.194754424,1,-6.028599780273437,9.789890588378906,7.394491827392578
5898222638894,7.201419997,1,-5.140350964355468,9.610325463867188,7.619546783447265
5898229304467,7.20808557,1,-4.8889597900390624,8.980650427246093,7.690175732421874
5898236049988,7.214831091,1,-4.641159918212891,8.17859287109375,7.199364392089843
5898242640560,7.221421663,1,-4.408922357177734,7.196970190429687,6.797138513183594
5898249304675,7.228085778,1,-4.191050006103516,6.381744525146484,6.386532928466797
5898255972019,7.234753122,1,-3.9516298400878904,5.572504364013671,6.132747552490234
5898262638373,7.241419476,1,-3.6547488342285153,5.052962603759766,5.724536169433593
5898269304623,7.248085726,1,-3.4907460205078125,4.855440966796874,5.406107348632812
5898275972019,7.254753122,1,-3.408146063232422,4.672284539794922,4.977545251464844
5898282637383,7.261418486,1,-3.4488474914550777,4.774038110351563,4.563348364257812
5898289304415,7.268085518,1,-3.3770214416503905,5.058948107910156,4.37300933227539
5898295970508,7.274751611,1,-3.380612744140625,5.6024318847656245,4.113238452148437
5898302636290,7.281417393,1,-3.380612744140625,5.661089825439452,4.035426898193359
5898309306498,7.288087601,1,-3.4584242980957027,6.274005450439453,3.901351605224609
5898315972331,7.294753434,1,-3.6176387084960937,7.055712292480468,3.9647979492187497
5898322638529,7.301419632,1,-3.5697546752929687,7.734468463134765,3.9647979492187497
5898329304519,7.308085622,1,-3.6008792968749996,8.294711651611328,3.9468414367675777
5898335970873,7.314751976,1,-3.651157531738281,8.591592657470702,3.8845921936035155
5898342641550,7.321422653,1,-3.8043864379882812,8.698134631347656,3.70263286743164
5898349304415,7.328085518,1,-3.958812445068359,8.560468035888672,3.4919431213378904
5898355970873,7.334751976,1,-4.027047192382812,8.458714465332031,3.3195606018066406
5898362637644,7.341418747,1,-3.9504327392578125,8.195352282714843,3.266888165283203
5898369304779,7.348085882,1,-3.6260184143066403,7.850587243652344,3.308786694335937
5898375971185,7.354752288,1,-3.440467785644531,7.350199096679687,3.2704794677734372
5898382647383,7.361428486,1,-3.2525229553222657,6.86297905883789,3.3961750549316405
5898389306550,7.368087653,1,-2.967612957763672,6.453570574951171,3.276464971923828
5898395971394,7.374752497,1,-2.7281927917480466,5.883750579833984,3.151966485595703
5898402638321,7.381419424,1,-2.5474305664062498,5.4013189453125,2.943670941162109
5898409307071,7.388088174,1,-2.370259643554687,4.8877626892089845,2.7904420349121093
5898415971133,7.394752236,1,-2.1595698974609374,4.733336682128906,2.6479870361328124
5898422639206,7.401420309,1,-2.139219183349609,4.638765716552734,2.6384102294921874
5898429303685,7.408084788,1,-1.8914193115234375,4.7764323120117185,2.6862942626953124
5898435972279,7.414753382,1,-1.8698714965820311,4.893748193359374,2.6958710693359373
5898442640300,7.421421403,1,-2.023100402832031,5.1511248718261715,2.701856573486328
5898449304415,7.428085518,1,-1.9333178405761717,5.1511248718261715,2.8095956481933593
5898455970717,7.43475182,1,-1.7298106994628906,5.506663818359375,2.887407202148437
5898462637748,7.441418851,1,-1.6424223388671875,5.645527514648437,2.887407202148437
5898469303946,7.448085049,1,-1.8854338073730468,5.729324572753906,2.7341782958984373
5898475971967,7.45475307,1,-2.3714567443847656,5.755660791015624,2.6850971618652344
5898482638008,7.461419111,1,-2.8694506896972656,6.016628771972656,2.6324247253417967
5898489303790,7.468084893,1,-3.1196447631835937,6.441599566650391,2.7545290100097652
5898495970717,7.47475182,1,-3.745728497314453,6.921636999511718,3.038241906738281
5898502637331,7.481418434,1,-4.14316597290039,7.398083129882812,3.412934466552734
5898509304883,7.488085986,1,-4.762067102050781,7.977479931640625,4.074931225585937
5898515970925,7.494752028,1,-4.387374542236328,9.020154754638671,4.377797735595703
5898522637644,7.501418747,1,-4.3454760131835934,9.009380847167968,5.249287139892578
5898529303581,7.508084684,1,-4.517858532714843,9.233238702392578,5.403713146972656
5898535971237,7.51475234,1,-5.0182466796875,9.111134417724609,5.704185455322265
5898542642019,7.521423122,1,-5.701791253662109,8.975862023925782,5.610811590576172
5898549305092,7.528086195,1,-6.226121417236328,8.47786807861328,6.064512805175781
5898555971446,7.534752549,1,-5.917269403076172,9.028534460449219,6.161477972412109
5898562639987,7.54142109,1,-5.908889697265625,8.58680425415039,6.664260321044922
5898569303477,7.54808458,1,-5.683834741210937,8.518569506835936,6.847416748046874
5898575971862,7.554752965,1,-5.571307263183593,8.02416686401367,6.834248638916015
5898582638269,7.561419372,1,-5.571307263183593,7.668627917480468,6.695384942626953
5898589303998,7.568085101,1,-5.29238276977539,7.674613421630859,6.6343328002929685
5898595971602,7.574752705,1,-4.88417138671875,7.214926702880859,6.246472131347656
5898602639883,7.581420986,1,-4.560954162597656,6.861781958007812,6.274005450439453
5898609304362,7.588085465,1,-4.274847064208984,6.272808349609375,5.967547637939453
5898615970612,7.594751715,1,-4.068945721435546,6.008249066162109,5.5078609191894525
5898622638685,7.601419788,1,-4.018667486572266,5.665878228759765,5.088875628662109
5898629304362,7.608085465,1,-3.863044378662109,5.521029028320312,4.643554119873047
5898635971133,7.614752236,1,-3.604470599365234,5.556942053222656,4.376600634765625
5898642639467,7.62142057,1,-3.4620156005859375,5.68862314453125,4.030638494873046
5898649303737,7.62808484,1,-3.536235852050781,5.84783755493164,3.7576995056152342
5898655970560,7.634751663,1,-3.6643256408691403,6.102820031738281,3.4057518615722655
5898662638060,7.641419163,1,-3.816357446289062,6.507440112304687,3.3195606018066406
5898669303633,7.648084736,1,-3.872621185302734,7.030573175048827,3.3291374084472656
5898675971446,7.654752549,1,-3.8043864379882812,7.6614453125,3.574543078613281
5898682637123,7.661418226,1,-4.1958384094238275,8.294711651611328,3.754108203125
5898689303112,7.668084215,1,-4.317942694091797,8.598775262451172,3.9995138732910154
5898695971810,7.674752913,1,-4.4184991638183595,8.763975177001953,4.197035510253906
5898702639987,7.68142109,1,-4.514267230224609,8.817844714355468,4.241328240966797
5898709305196,7.688086299,1,-4.73094248046875,8.789114294433594,4.3622354248046875
5898715971133,7.694752236,1,-4.8889597900390624,8.702923034667968,4.552574456787109
5898722637956,7.701419059,1,-4.876988781738281,8.649053497314453,4.96078583984375
5898729304154,7.708085257,1,-4.723759875488281,8.467094171142577,5.1690813842773435
5898735970664,7.714751767,1,-4.505887524414062,8.48505068359375,5.276820458984375
5898742639571,7.721420674,1,-4.508281726074219,8.02536396484375,5.334281298828125
5898749305248,7.728086351,1,-4.631583111572265,7.550114935302734,5.181052392578125
5898755972904,7.734754007,1,-4.586093280029297,7.144297753906249,5.166687182617188
5898762637800,7.741418903,1,-4.297591979980469,6.9539587219238275,5.045779998779296
5898769303946,7.748085049,1,-3.892971899414062,6.732495068359374,5.275623358154297
5898775971810,7.754752913,1,-3.4344822814941405,6.58884296875,5.288791467285156
5898782637696,7.761418799,1,-3.2644939636230466,6.305130072021484,5.025429284667968
5898789305925,7.768087028,1,-3.1004911499023438,5.899312890625,4.602852691650391
5898795971289,7.774752392,1,-2.967612957763672,5.6407391113281244,4.2137949218749995
5898802637956,7.781419059,1,-2.8131869506835936,5.389347937011719,3.7672763122558592
5898809305300,7.788086403,1,-2.6036943054199218,5.305550878906249,3.430890979003906
5898815968373,7.794749476,1,-2.2637176696777344,5.252878442382812,3.284844677734375
5898822639675,7.801420778,1,-1.983596075439453,5.161898779296875,3.056198419189453
5898829303894,7.808084997,1,-1.9716250671386717,5.04338579711914,2.6767174560546874
5898835968425,7.814749528,1,-1.9847931762695312,4.946420629882812,2.2086510314941403
5898842638998,7.821420101,1,-2.021903302001953,4.880580084228515,1.9728221679687499
5898849304623,7.828085726,1,-2.079364141845703,5.003881469726562,1.8136077575683593
5898855970821,7.834751924,1,-2.094926452636719,5.238513232421875,1.687912170410156
5898862639727,7.84142083,1,-2.068590234375,5.434837768554687,1.6747440612792968
5898869305144,7.848086247,1,-2.068590234375,5.829881042480468,1.5275006591796874
5898875971341,7.854752444,1,-2.024297503662109,5.852625958251953,1.407790576171875
5898882637748,7.861418851,1,-2.0302830078125,5.852625958251953,1.6448165405273436
5898889304206,7.868085309,1,-1.9045874206542968,6.2009822998046875,1.6448165405273436
5898895971914,7.874753017,1,-1.89620771484375,6.436811163330078,1.7800889343261719
5898902638789,7.881419892,1,-2.4289175842285156,6.351817004394531,1.7908628417968748
5898909304050,7.888085153,1,-2.570175482177734,6.509834313964843,1.7669208251953124
5898915970977,7.89475208,1,-3.199850518798828,6.6522893127441405,2.105700360107422
5898922638008,7.901419111,1,-3.190273712158203,7.1778165771484375,2.3834277526855465
5898929304519,7.908085622,1,-3.1759085021972653,7.416039642333984,2.935291235351562
5898935970560,7.914751663,1,-2.962824554443359,7.66743081665039,3.1962592163085937
5898942677696,7.921458799,1,-3.305195391845703,7.305906365966797,3.5577836669921874
5898949304883,7.928085986,1,-4.02824429321289,8.361749298095702,3.3411084167480465
5898955970977,7.93475208,1,-4.147954376220703,8.14028564453125,4.442441180419921
5898962638893,7.941419996,1,-4.103661645507812,8.750807067871094,5.007472772216796
5898969304206,7.948085309,1,-4.444835382080078,8.821436016845702,5.857414361572265
5898975991393,7.954772496,1,-4.948814831542968,8.999804040527343,6.303932971191406
5898982651446,7.961432549,1,-6.218938812255859,8.786720092773438,6.420051751708984
5898989314779,7.968095882,1,-7.615955480957031,8.78552299194336,6.424840155029297
5898995978008,7.974759111,1,-7.437587457275391,8.948328704833983,7.1407064514160155
5899002638737,7.98141984,1,-6.707355950927734,9.320627062988281,8.070853796386718
5899009305143,7.988086246,1,-6.60799658203125,9.210493786621093,8.355763793945313
5899015971810,7.994752913,1,-6.148309863281249,9.04050546875,8.352172491455077
5899022639675,8.001420778,1,-6.4356140625,9.04050546875,8.511386901855468
5899029315196,8.008096299,1,-6.143521459960938,8.712499841308594,8.47786807861328
5899035975091,8.014756194,1,-5.892130285644531,8.649053497314453,8.32463917236328
5899042638321,8.021419424,1,-5.844246252441406,8.18457837524414,8.158242156982421
5899049305977,8.02808708,1,-5.4707507934570305,7.864952453613281,7.8158713195800775
5899055971602,8.034752705,1,-5.185840795898438,7.283161450195312,7.430404852294921
5899062637956,8.041419059,1,-4.841075756835937,6.716932757568359,6.7839704040527335
5899069302800,8.048083903,1,-4.550180255126953,6.313509777832031,6.171054779052734
5899075972852,8.054753955,1,-4.284423870849609,5.761646295166015,5.424063861083984
5899082635352,8.061416455,1,-4.151545678710937,5.367800122070312,4.689043951416015
5899089305716,8.068086819,1,-3.9659950500488277,5.060145208740234,3.9743747558593747
5899095976550,8.074757653,1,-3.5817256835937497,4.993107562255859,3.385401147460937
5899102635925,8.081417028,1,-3.0825346374511717,5.0960582336425775,2.9831752685546875
5899109307591,8.088088694,1,-2.6420015319824217,5.360617517089843,2.597708801269531
5899115971914,8.094753017,1,-2.3355437194824216,5.505466717529297,2.2158336364746094
5899122638008,8.101419111,1,-2.1583727966308595,5.652710119628906,1.859097589111328
5899129305925,8.108087028,1,-2.1068974609374997,5.899312890625,1.4772224243164063
5899135971446,8.114752549,1,-1.9716250671386717,5.999869360351562,1.2401964599609374
5899142639571,8.121420674,1,-1.9991583862304687,6.112396838378906,1.01514150390625
5899149306341,8.128087444,1,-1.7776947326660155,6.247669232177734,0.9600748657226562
5899155968841,8.134749944,1,-1.7776947326660155,6.347028601074219,0.9121908325195311
5899162640143,8.141421246,1,-1.7190367919921874,6.350619903564453,0.8894459167480468
5899169304154,8.148085257,1,-1.9584569580078124,6.350619903564453,0.9026140258789062
5899175971393,8.154752496,1,-2.2361843505859373,6.342240197753906,0.8008604553222656
5899182639987,8.16142109,1,-2.404975567626953,6.38413872680664,1.2605471740722656
5899189304414,8.168085517,1,-2.4349030883789062,6.497863305664062,1.6304513305664061
5899195972487,8.17475359,1,-2.6108769104003904,6.655880615234374,2.105700360107422
5899202638893,8.181419996,1,-2.8694506896972656,6.6139820861816405,2.499546533203125
5899209305716,8.188086819,1,-2.967612957763672,7.012616662597656,3.008314385986328
5899215970508,8.194751611,1,-3.0071172851562498,6.97790073852539,3.867832781982422
5899222638789,8.201419892,1,-2.9795839660644527,7.07366880493164,4.095281939697266
5899229306289,8.208087392,1,-3.066972326660156,6.762422589111328,4.444835382080078
5899235972331,8.214753434,1,-3.1794998046874996,6.763619689941406,4.6267947082519525
5899242638893,8.221419996,1,-3.6260184143066403,6.566098052978515,4.600458489990234
5899249307956,8.228089059,1,-3.870226983642578,6.420051751708984,4.778826513671874
5899255972591,8.234753694,1,-3.9516298400878904,6.532579229736328,5.00507857055664
5899262639102,8.241420205,1,-3.986345764160156,6.737283471679687,5.182249493408203
5899269303945,8.248085048,1,-4.276044165039062,6.864176159667968,5.468356591796875
5899275972279,8.254753382,1,-4.475960003662109,7.097610821533203,5.436034869384765
5899282639779,8.261420882,1,-4.7022120605468745,7.228094812011718,5.529408734130859
5899289305560,8.268086663,1,-4.847061260986328,7.267599139404297,5.633556506347656
5899295972279,8.274753382,1,-4.762067102050781,7.736862664794922,5.84783755493164
5899302639310,8.281420413,1,-4.762067102050781,7.972691528320312,6.130353350830077
5899309304518,8.288085621,1,-4.783614916992187,7.972691528320312,6.1638721740722655
5899315971289,8.294752392,1,-4.7560815979003905,8.116343627929687,6.252457635498047
5899322639050,8.301420153,1,-5.0182466796875,8.061276989746093,6.099228729248047
5899329302383,8.308083486,1,-5.419275457763671,7.978677032470703,5.926846209716796
5899335973008,8.314754111,1,-5.452794281005859,7.845798840332031,5.756857891845703
5899342639570,8.321420673,1,-5.176263989257812,7.851784344482422,5.7329158752441405
5899349305873,8.328086976,1,-4.770446807861328,7.751227874755859,5.7149593627929685
5899355972435,8.334753538,1,-4.661510632324219,7.569268548583984,5.531802935791015
5899362637643,8.341418746,1,-4.461594793701171,7.269993341064453,5.298368273925781
5899369304883,8.348085986,1,-4.072537023925781,7.109581829833984,5.124788653564453
5899375971914,8.354753017,1,-3.906140008544922,6.807912420654296,4.894945294189453
5899382639414,8.361420517,1,-3.825934252929687,6.476315490722656,4.527435339355469
5899389304414,8.368085517,1,-3.900154504394531,6.178237384033203,4.065354418945312
5899395972852,8.374753955,1,-3.954024041748047,6.042964990234375,3.778050219726562
5899402639675,8.381420778,1,-3.919308117675781,6.086060620117187,3.6643256408691403
5899409305664,8.388086767,1,-3.8558617736816405,6.417657550048828,3.7624879089355465
5899415970195,8.394751298,1,-3.764882110595703,6.8210805297851556,3.9839515624999997
5899422639102,8.401420205,1,-3.6367923217773437,7.260416534423828,4.185064501953125
5899429305612,8.408086715,1,-3.725377783203125,7.532158422851562,4.265270257568359
5899435970925,8.414752028,1,-3.925293621826172,7.672219219970703,4.2688615600585935
5899442638164,8.421419267,1,-3.925293621826172,7.688978631591796,4.33470210571289
5899449346706,8.428127809,1,-3.72178648071289,7.80150610961914,4.446032482910156
5899455973320,8.434754423,1,-3.854664672851562,7.64827720336914,4.3263223999023435
5899462639154,8.441420257,1,-4.018667486572266,7.681796026611328,4.3263223999023435
5899469303633,8.448084736,1,-4.566939666748047,7.72489165649414,4.513070129394531
5899475970768,8.454751871,1,-4.612429498291015,8.061276989746093,4.5884874816894525
5899482638372,8.461419475,1,-4.438849877929687,7.915230688476562,5.048174200439453
5899489306081,8.468087184,1,-4.352658618164062,8.070853796386718,5.187037896728516
5899495972539,8.474753642,1,-4.21978042602539,7.9092451843261715,5.382165332031249
5899502638893,8.481419996,1,-4.23893403930664,7.60398447265625,5.363011718749999
5899509305352,8.488086455,1,-4.37300933227539,7.273584643554687,5.295974072265625
5899515972018,8.494753121,1,-4.471171600341797,6.983886242675781,5.222950921630859
5899522639466,8.501420569,1,-4.254496350097656,6.725312463378906,5.3199160888671875
5899529305091,8.508086194,1,-3.967192150878906,6.5577183471679685,5.2648494506835934
5899535970977,8.51475208,1,-3.775656018066406,6.42244595336914,5.048174200439453
5899542638008,8.521419111,1,-3.786429925537109,6.179434484863281,4.833893151855468
5899549304622,8.528085725,1,-3.921702319335937,6.0345852844238275,4.39216294555664
5899555972435,8.534753538,1,-3.902548706054687,6.094440325927734,4.2329485351562495
5899562637747,8.54141885,1,-3.6583401367187496,6.2201359130859375,4.024652990722656
5899569304831,8.548085934,1,-3.374627239990234,6.420051751708984,3.985148663330078
5899575971289,8.554752392,1,-3.208230224609375,6.600813977050781,3.70263286743164
5899582636081,8.561417184,1,-3.0729578308105467,6.629544396972656,3.398569256591797
5899589304987,8.56808609,1,-3.0729578308105467,6.640318304443359,3.0885201416015624
5899595972591,8.574753694,1,-2.9891607727050777,6.640318304443359,2.816778253173828
5899602638425,8.581419528,1,-2.91134921875,6.755239984130859,2.8419173706054686
5899609305664,8.588086767,1,-2.6048914062499997,6.678625531005859,2.6886884643554687
5899615971549,8.594752652,1,-2.2840683837890623,6.669048724365234,2.5151088439941405
5899622638164,8.601419267,1,-2.2266075439453124,6.509834313964843,2.3774422485351563
5899629305508,8.608086611,1,-2.0542250244140625,6.336254693603515,2.155978594970703
5899635971758,8.614752861,1,-1.8950106140136718,6.038176586914062,1.9907786804199217
5899642637539,8.621418642,1,-1.6699556579589843,5.7700260009765625,1.9620482604980467
5899649305195,8.628086298,1,-1.6364368347167968,5.528211633300781,1.70467158203125
5899655972956,8.634754059,1,-1.7334020019531249,5.334281298828125,1.5765817932128905
5899662638945,8.641420048,1,-1.8339584716796873,5.116408947753906,1.571793389892578
5899669304622,8.648085725,1,-1.6998831787109374,5.13915386352539,1.6364368347167968
5899675971706,8.654752809,1,-1.89620771484375,5.04338579711914,2.0566192260742184
5899682639414,8.661420517,1,-2.062604730224609,5.280411761474609,2.117671368408203
5899689304727,8.66808583,1,-2.2385785522460937,5.227739324951171,2.3235727111816407
5899695971966,8.674753069,1,-2.2972364929199216,5.383362432861328,2.6228479187011717
5899702638112,8.681419215,1,-2.5234885498046875,5.637147808837891,2.977189764404297
5899709303529,8.688084632,1,-2.5617957763671875,6.229712719726562,3.0897172424316404
5899715971237,8.69475234,1,-3.201047619628906,6.622361791992187,3.5817256835937497
5899722638112,8.701419215,1,-3.5422213562011717,6.912060192871094,3.764882110595703
5899729304883,8.708085986,1,-3.5422213562011717,7.217320904541015,4.179078997802734
5899735970456,8.714751559,1,-4.015076184082031,7.22689771118164,4.639962817382812
5899742647331,8.721428434,1,-4.341884710693359,7.68658442993164,5.145139367675781
5899749307279,8.728088382,1,-4.475960003662109,8.180987072753906,5.145139367675781
5899755975612,8.734756715,1,-4.387374542236328,8.374917407226562,5.608417388916015
5899762640352,8.741421455,1,-4.932055419921875,9.030928662109375,5.629965203857422
5899769306185,8.748087288,1,-5.2636523498535155,8.780734588623046,6.045359191894531
5899775971445,8.754752548,1,-5.641936212158202,8.908824377441405,6.251260534667968
5899782640247,8.76142135,1,-5.819107135009765,9.042899670410156,6.643909606933593
5899789304154,8.768085257,1,-6.065709906005859,9.024943157958983,6.804321118164062
5899795972852,8.774753955,1,-6.481103894042969,8.838195428466797,6.776787799072265
5899802638893,8.781419996,1,-6.648698010253906,8.688557824707031,6.93959351196289
5899809307122,8.788088225,1,-6.657077716064452,8.483853582763672,7.096413720703125
5899815971341,8.794752444,1,-6.293159063720703,8.287529046630858,7.212532501220703
5899822638477,8.80141958,1,-5.874173773193359,8.180987072753906,7.163451367187499
5899829306133,8.808087236,1,-5.538985540771484,7.726088757324218,6.97790073852539
5899835971758,8.814752861,1,-5.255272644042968,7.3478048950195305,6.414066247558593
5899842639622,8.821420725,1,-5.050568402099609,6.88213267211914,5.86699116821289
5899849304414,8.828085517,1,-4.820725042724609,6.643909606933593,5.400121844482421
5899855973737,8.83475484,1,-4.527435339355469,6.434416961669921,4.899733697509765
5899862641133,8.841422236,1,-4.279635467529297,6.3709706176757805,4.620809204101562
5899869305299,8.848086402,1,-4.141968872070312,6.669048724365234,4.159925384521484
5899875972435,8.854753538,1,-4.141968872070312,6.714538555908203,4.14316597290039
5899882637747,8.86141885,1,-3.9264907226562498,6.714538555908203,3.5529952636718747
5899889304726,8.868085829,1,-4.045003704833984,6.932410906982422,3.5913024902343746
5899895972487,8.87475359,1,-4.254496350097656,6.919242797851562,3.284844677734375
5899902639466,8.881420569,1,-4.1958384094238275,7.153874560546875,3.037044805908203
5899909304935,8.888086038,1,-3.897760302734375,7.451952667236328,3.1735143005371094
5899915971758,8.894752861,1,-3.4715924072265625,7.696161236572265,3.3171664001464842
5899922638164,8.901419267,1,-3.1495722839355467,7.824251025390624,3.365050433349609
5899929306549,8.908087652,1,-3.1699229980468746,7.663839514160156,3.305195391845703
5899935971914,8.914753017,1,-3.2154128295898436,7.317877374267578,3.3028011901855465
5899942639622,8.921420725,1,-3.1495722839355467,6.9527616210937495,3.3195606018066406
5899949305664,8.928086767,1,-3.029862200927734,6.643909606933593,3.4201170715332028
5899955972226,8.934753329,1,-2.9700071594238278,6.266822845458984,3.488351818847656
5899962639258,8.941420361,1,-2.929305731201172,5.896918688964844,3.6355952209472653
5899969305716,8.948086819,1,-2.703053674316406,5.475539196777343,3.5134909362792968
5899975972070,8.954753173,1,-2.626439221191406,5.03740029296875,3.308786694335937
5899982639258,8.961420361,1,-2.5941174987792968,4.780023614501953,3.208230224609375
5899989304258,8.968085361,1,-2.426523382568359,4.61602080078125,3.058592620849609
5899995972279,8.974753382,1,-2.2673089721679687,4.613626599121093,3.1004911499023438
5900002637174,8.981418277,1,-2.212242333984375,4.675875842285156,3.1076737548828124
5900009304206,8.988085309,1,-2.0937293518066404,4.973953948974609,3.0322564025878904
5900015971133,8.994752236,1,-2.0937293518066404,4.87100327758789,3.142389678955078
5900022638320,9.001419423,1,-2.2469582580566403,4.7752352111816405,3.276464971923828
5900029305612,9.008086715,1,-2.0649989318847655,5.38815083618164,3.5685575744628903
5900035971706,9.014752809,1,-1.916558428955078,5.72693037109375,3.545812658691406
5900042638424,9.021419527,1,-1.8818425048828125,5.889736083984375,3.545812658691406
5900049304362,9.028085465,1,-1.9524714538574217,5.934028814697265,3.6571430358886716
5900055972226,9.034753329,1,-1.6843208679199217,5.972336041259766,3.585316986083984
5900062639726,9.041420829,1,-1.5011644409179687,5.919663604736328,3.4668040039062498
5900069304518,9.048085621,1,-1.7621324218749999,5.5449710449218745,3.265691064453125
5900075968528,9.054749631,1,-2.5725696838378904,5.342661004638671,3.106476654052734
5900082639674,9.061420777,1,-3.3207577026367185,5.9974751586914055,2.7353753967285153
5900089304726,9.068085829,1,-4.31554849243164,6.081272216796875,3.361459130859375
5900095968841,9.074749944,1,-4.778826513671874,7.268796240234375,3.6750995483398436
5900102639935,9.081421038,1,-5.08169302368164,7.633911993408202,4.8686090759277345
5900109301706,9.088082809,1,-5.221753820800781,8.519766607666016,5.568913061523437
5900115969206,9.094750309,1,-6.283582257080078,9.52533130493164,6.004657763671875
5900122640195,9.101421298,1,-7.0090253601074215,9.188945971679686,6.579266162109374
5900129307122,9.108088225,1,-7.020996368408203,9.637858782958984,6.7037646484375
5900135971289,9.114752392,1,-6.305130072021484,10.293870037841796,7.072471704101562
5900142638372,9.121419475,1,-6.339845996093749,10.378864196777343,7.8529814453124995
5900149304778,9.128085881,1,-6.398503936767578,10.38724390258789,7.806294512939453
5900156051862,9.134832965,1,-6.343437298583984,9.827000714111328,7.881711865234375
5900162639674,9.141420777,1,-6.496666204833984,9.267954626464844,7.753622076416015
5900169305039,9.148086142,1,-6.505045910644531,9.267954626464844,7.3478048950195305
5900175972122,9.154753225,1,-6.452373474121093,8.467094171142577,7.305906365966797
5900182639153,9.161420256,1,-6.291961962890625,7.539341027832031,6.692990740966796
5900189304831,9.168085934,1,-6.099228729248047,6.624755993652343,5.884947680664062
5900195972851,9.174753954,1,-5.791573815917968,5.983109948730468,5.116408947753906
5900202637903,9.181419006,1,-5.537788439941406,5.491101507568359,4.491522314453125
5900209304101,9.188085204,1,-4.905719201660156,5.322310290527343,3.9456443359374997
5900215970924,9.194752027,1,-4.3813890380859375,5.142745166015625,3.712209674072265
5900222639258,9.201420361,1,-3.9372646301269527,5.251681341552734,3.39018955078125
5900229305351,9.208086454,1,-3.6451720275878903,5.505466717529297,3.084928839111328
5900235971653,9.214752756,1,-3.239354846191406,5.868188269042968,2.876633294677734
5900242637695,9.221418798,1,-2.972401361083984,6.392518432617187,2.7054478759765623
5900249304362,9.228085465,1,-2.7820623291015623,6.798335614013672,2.5522189697265625
5900255970351,9.234751454,1,-2.6898855651855467,7.041347082519531,2.3032219970703123
5900262640091,9.241421194,1,-2.6563667419433594,7.212532501220703,2.2828712829589843
5900269305612,9.248086715,1,-2.6300305236816404,7.098807922363281,2.3116017028808593
5900275971445,9.254752548,1,-2.6420015319824217,6.9707181335449215,2.2637176696777344
5900282638893,9.261419996,1,-2.501940734863281,6.72890376586914,2.4061726684570313
5900289304205,9.268085308,1,-2.479195819091797,6.515819818115234,2.6312276245117188
5900295970820,9.274751923,1,-2.3690625427246093,6.210559106445312,2.96881005859375
5900302637070,9.281418173,1,-2.3690625427246093,5.910086798095703,3.2261867370605466
5900309304830,9.288085933,1,-2.4349030883789062,5.938817218017578,3.497928625488281
5900315972122,9.294753225,1,-2.517503045654297,5.632359405517578,3.863044378662109
5900322636289,9.301417392,1,-2.7186159851074216,5.432443566894531,3.863044378662109
5900329306497,9.3080876,1,-2.9077579162597655,5.237316131591797,3.9695863525390624
5900335971758,9.314752861,1,-2.9891607727050777,5.193023400878906,4.279635467529297
5900342639205,9.321420308,1,-3.0921114440917967,5.279214660644531,4.565742565917969
5900349302539,9.328083642,1,-3.3411084167480465,5.442020373535156,4.787206219482422
5900355972539,9.334753642,1,-3.9504327392578125,5.683834741210937,4.92846411743164
5900362639570,9.341420673,1,-4.1563340820312495,5.934028814697265,4.910507604980468
5900369304726,9.348085829,1,-4.388571643066406,6.277596752929687,5.333084197998047
5900375970351,9.354751454,1,-4.544194750976562,7.151480358886718,5.327098693847656
5900382648268,9.361429371,1,-4.556165759277343,7.45075556640625,5.7125651611328125
5900389307643,9.368088746,1,-4.505887524414062,8.154650854492187,5.9017070922851556
5900395972643,9.374753746,1,-4.668693237304687,8.577227447509765,5.974730242919922
5900402638893,9.381419996,1,-4.835090252685546,8.722076647949219,5.792770916748046
5900409305143,9.388086246,1,-5.088875628662109,8.678981018066406,5.708973858642578
5900415971758,9.394752861,1,-5.124788653564453,8.63109698486328,5.668272430419922
5900422638008,9.401419111,1,-5.0206408813476555,8.45991156616211,5.463568188476562
5900429306393,9.408087496,1,-4.823119244384765,8.288726147460936,5.240907434082031
5900435971810,9.414752913,1,-4.823119244384765,7.8362220336914055,4.963180041503906
5900442637799,9.421418902,1,-4.80755693359375,7.490259893798828,4.650736724853515
5900449304830,9.428085933,1,-4.65432802734375,7.088034014892577,4.4568063903808595
5900455971601,9.434752704,1,-4.580107775878906,7.088034014892577,4.2509050476074215
5900462645508,9.441426611,1,-3.9528269409179684,6.835445739746094,4.141968872070312
5900469309830,9.448090933,1,-4.056974713134766,6.533776330566406,4.141968872070312
5900475976758,9.454757861,1,-4.053383410644531,6.235698223876953,3.9935283691406247
5900482643424,9.461424527,1,-3.7804444213867185,6.252457635498047,3.7912183288574215
5900489309518,9.468090621,1,-3.582922784423828,6.19260259399414,3.861847277832031
5900495975455,9.474756558,1,-3.295618585205078,6.275202551269531,3.7816415222167965
5900502641289,9.481422392,1,-3.2549171569824216,6.421248852539062,3.7804444213867185
5900509308164,9.488089267,1,-3.411737365722656,6.6331356994628905,3.621230010986328
5900515975560,9.494756663,1,-3.4201170715332028,6.751648681640624,3.6343981201171873
5900522640664,9.501421767,1,-3.475183709716797,6.885723974609375,3.6391865234374996
5900529309518,9.508090621,1,-3.4344822814941405,7.003039855957031,3.7134067749023436
5900535974257,9.51475536,1,-3.5589807678222654,7.015010864257812,3.7624879089355465
5900542641237,9.52142234,1,-3.469198205566406,7.079654309082031,3.746925598144531
5900549307382,9.528088485,1,-3.5242648437499997,7.005434057617187,3.7768531188964842
5900555974153,9.534755256,1,-3.4093431640625,6.811503723144531,3.793612530517578
5900562635455,9.541416558,1,-3.258508459472656,6.648698010253906,3.854664672851562
5900569297799,9.548078902,1,-3.4261025756835934,6.391321331787109,3.793612530517578
5900575966705,9.554747808,1,-3.343502618408203,6.119579443359375,3.7612908081054686
5900582632174,9.561413277,1,-3.24294614868164,6.087257720947266,3.8582559753417964
5900589297226,9.568078329,1,-3.24294614868164,6.00106646118164,3.915716815185547
5900595965351,9.574746454,1,-3.124433166503906,6.00106646118164,3.859453076171875
5900602632226,9.581413329,1,-3.151966485595703,5.820304235839844,3.9372646301269527
5900609297018,9.588078121,1,-3.1004911499023438,5.797559320068359,3.784035723876953
5900615964362,9.594745465,1,-2.9747955627441405,5.80953032836914,3.7301661865234372
5900622630403,9.601411506,1,-2.913743420410156,5.878962176513672,3.755305303955078
5900629297122,9.608078225,1,-2.9747955627441405,5.993883856201172,3.784035723876953
5900635964882,9.614745985,1,-3.1854853088378903,6.157886669921875,3.81156904296875
5900642630507,9.62141161,1,-3.5889082885742187,6.205770703124999,3.83072265625
5900649297539,9.628078642,1,-3.4763808105468748,6.190208392333984,3.5051112304687497
