timestamp_ns,t_s,sensor_id,ax,ay,az,gx,gy,gz
5191618694580,0.074884583,1,0.2597708801269531,1.6927005737304686,-11.145008728027342,-0.8244274809160306,0.5801526717557252,-1.366412213740458
5191638659215,0.094849218,1,0.21428104858398436,1.7178396911621092,-11.179724652099608,-0.8396946564885496,0.6030534351145038,-1.297709923664122
5191658679424,0.114869427,1,0.22505495605468748,1.7381904052734374,-11.16057103881836,-0.7862595419847328,0.5725190839694656,-1.297709923664122
5191678665101,0.134855104,1,0.26815058593749996,1.7022773803710936,-11.225214483642578,-0.8091603053435115,0.5801526717557252,-1.3053435114503817
5191698651872,0.154841875,1,0.21308394775390624,1.7477672119140624,-11.164162341308593,-0.7938931297709924,0.5572519083969466,-1.3358778625954197
5191718649632,0.174839635,1,0.23343466186523437,1.7130512878417967,-11.123460913085937,-0.8244274809160306,0.6106870229007634,-1.3206106870229009
5191738649111,0.194839114,1,0.19393033447265623,1.7082628845214842,-11.112687005615234,-0.7786259541984732,0.5725190839694656,-1.3053435114503817
5191758650413,0.214840416,1,0.21428104858398436,1.7106570861816406,-11.21683477783203,-0.7633587786259542,0.6412213740458015,-1.282442748091603
5191778649684,0.234839687,1,0.1771709228515625,1.7178396911621092,-11.233594189453123,-0.8854961832061069,0.6183206106870229,-1.3282442748091603
5191798648695,0.254838698,1,0.21428104858398436,1.725022296142578,-11.176133349609374,-0.7709923664122137,0.5877862595419847,-1.3053435114503817
5191818648903,0.274838906,1,0.23343466186523437,1.7022773803710936,-11.162965240478515,-0.8244274809160306,0.5801526717557252,-1.3129770992366412
5191838649528,0.294839531,1,0.26695348510742184,1.7214309936523438,-11.207257971191405,-0.8549618320610687,0.5648854961832062,-1.3282442748091603
5191858648174,0.314838177,1,0.2454056701660156,1.7130512878417967,-11.105504400634764,-0.7557251908396947,0.549618320610687,-1.3206106870229009
5191878648330,0.334838333,1,0.2645592834472656,1.7262193969726563,-11.183315954589844,-0.8473282442748091,0.6259541984732825,-1.2748091603053435
5191898648694,0.354838697,1,0.27293898925781246,1.7226280944824217,-11.17852755126953,-0.816793893129771,0.5725190839694656,-1.2748091603053435
5191918650882,0.374840885,1,0.21308394775390624,1.7573440185546874,-11.222820281982422,-0.8091603053435115,0.5648854961832062,-1.3358778625954197
5191938649788,0.394839791,1,0.2346317626953125,1.7190367919921874,-11.18571015625,-0.8015267175572519,0.5954198473282443,-1.3358778625954197
5191958649580,0.414839583,1,0.2609679809570312,1.7310078002929687,-11.206060870361327,-0.8091603053435115,0.5725190839694656,-1.3129770992366412
5191978648122,0.434838125,1,0.23582886352539062,1.734599102783203,-11.167753643798827,-0.8396946564885496,0.5419847328244275,-1.3206106870229009
5191998646194,0.454836197,1,0.21906945190429686,1.7501614135742187,-11.150994232177734,-0.7709923664122137,0.5343511450381679,-1.3282442748091603
5192018648642,0.474838645,1,0.2346317626953125,1.7669208251953124,-11.183315954589844,-0.8244274809160306,0.5877862595419847,-1.2900763358778626
5192038649267,0.49483927,1,0.21787235107421873,1.763329522705078,-11.215637677001952,-0.8320610687022901,0.5572519083969466,-1.3129770992366412
5192058648590,0.514838593,1,0.258573779296875,1.7118541870117185,-11.234791290283203,-0.816793893129771,0.5572519083969466,-1.3206106870229009
5192078648069,0.534838072,1,0.239420166015625,1.7369933044433592,-11.212046374511718,-0.7938931297709924,0.5038167938931297,-1.297709923664122
5192098647132,0.554837135,1,0.2645592834472656,1.7357962036132812,-11.196484063720703,-0.8320610687022901,0.6106870229007634,-1.3282442748091603
5192118648382,0.574838385,1,0.2346317626953125,1.7501614135742187,-11.146205828857422,-0.8396946564885496,0.5877862595419847,-1.3282442748091603
5192138648382,0.594838385,1,0.20470424194335937,1.7381904052734374,-11.244368096923827,-0.8091603053435115,0.6030534351145038,-1.3129770992366412
5192158648069,0.614838072,1,0.20231004028320312,1.7621324218749999,-11.13423482055664,-0.8320610687022901,0.549618320610687,-1.3435114503816794
5192178648278,0.634838281,1,0.201112939453125,1.725022296142578,-11.221623181152344,-0.8244274809160306,0.5267175572519084,-1.3511450381679388
5192198647861,0.654837864,1,0.21906945190429686,1.7286135986328124,-11.182118853759764,-0.7862595419847328,0.5725190839694656,-1.3129770992366412
5192218649267,0.67483927,1,0.24660277099609373,1.7429788085937499,-11.226411584472656,-0.8473282442748091,0.5801526717557252,-1.3129770992366412
5192238651194,0.694841197,1,0.20350714111328125,1.715445489501953,-11.201272467041015,-0.7709923664122137,0.5190839694656488,-1.3282442748091603
5192258649007,0.71483901,1,0.24660277099609373,1.7178396911621092,-11.168950744628905,-0.8320610687022901,0.5877862595419847,-1.3435114503816794
5192278649163,0.734839166,1,0.23343466186523437,1.7489643127441405,-11.152191333007812,-0.8091603053435115,0.5648854961832062,-1.366412213740458
5192298648434,0.754838437,1,0.24301146850585936,1.7393875061035156,-11.256339105224608,-0.7786259541984732,0.5572519083969466,-1.3282442748091603
5192318647496,0.774837499,1,0.20829554443359374,1.7525556152343749,-11.146205828857422,-0.816793893129771,0.6106870229007634,-1.3129770992366412
5192338648017,0.79483802,1,0.17956512451171874,1.7226280944824217,-11.215637677001952,-0.8091603053435115,0.6106870229007634,-1.3129770992366412
5192358647809,0.814837812,1,0.25737667846679685,1.7094599853515624,-11.19169566040039,-0.816793893129771,0.5419847328244275,-1.3511450381679388
5192378648382,0.834838385,1,0.258573779296875,1.7262193969726563,-11.190498559570312,-0.7938931297709924,0.5648854961832062,-1.3358778625954197
5192398647965,0.854837968,1,0.2561795776367187,1.7381904052734374,-11.16057103881836,-0.7633587786259542,0.6183206106870229,-1.3358778625954197
5192418648069,0.874838072,1,0.23702596435546874,1.7836802368164062,-11.088744989013671,-0.7786259541984732,0.5725190839694656,-1.3587786259541985
5192438647757,0.89483776,1,0.27293898925781246,1.7465701110839842,-11.105504400634764,-0.7709923664122137,0.5801526717557252,-1.3129770992366412
5192458646923,0.914836926,1,0.2753331909179687,1.7286135986328124,-11.131840618896483,-0.816793893129771,0.5267175572519084,-1.3587786259541985
5192478647288,0.934837291,1,0.21068974609375,1.7286135986328124,-11.196484063720703,-0.8473282442748091,0.5648854961832062,-1.3358778625954197
5192498649423,0.954839426,1,0.22744915771484372,1.7334020019531249,-11.226411584472656,-0.7938931297709924,0.5343511450381679,-1.297709923664122
5192518648121,0.974838124,1,0.24061726684570311,1.695094775390625,-11.200075366210937,-0.7938931297709924,0.5419847328244275,-1.3053435114503817
5192538648798,0.994838801,1,0.16639701538085935,1.7453730102539062,-11.227608685302734,-0.8778625954198473,0.5725190839694656,-1.3435114503816794
5192558650048,1.014840051,1,0.24181436767578124,1.7381904052734374,-11.197681164550781,-0.8015267175572519,0.5801526717557252,-1.3358778625954197
5192578649163,1.034839166,1,0.22026655273437498,1.7453730102539062,-11.14022032470703,-0.8320610687022901,0.5725190839694656,-1.3358778625954197
5192598647913,1.054837916,1,0.16519991455078123,1.7705121276855467,-11.159373937988281,-0.8244274809160306,0.5801526717557252,-1.3435114503816794
5192618647600,1.074837603,1,0.258573779296875,1.7453730102539062,-11.203666668701171,-0.8396946564885496,0.5725190839694656,-1.3282442748091603
5192638647861,1.094837864,1,0.239420166015625,1.7106570861816406,-11.17852755126953,-0.8091603053435115,0.5267175572519084,-1.3435114503816794
5192658648590,1.114838593,1,0.2561795776367187,1.6795324645996093,-11.180921752929686,-0.8244274809160306,0.5877862595419847,-1.3206106870229009
5192678648798,1.134838801,1,0.2705447875976562,1.7405846069335937,-11.2240173828125,-0.8015267175572519,0.5801526717557252,-1.3129770992366412
5192698647913,1.154837916,1,0.23582886352539062,1.7597382202148437,-11.162965240478515,-0.8396946564885496,0.5877862595419847,-1.3435114503816794
5192718648277,1.17483828,1,0.21308394775390624,1.744175909423828,-11.2240173828125,-0.7938931297709924,0.5801526717557252,-1.3435114503816794
5192738656038,1.194846041,1,0.19033903198242186,1.734599102783203,-11.202469567871093,-0.8015267175572519,0.6183206106870229,-1.3435114503816794
5192758650205,1.214840208,1,0.2454056701660156,1.707065783691406,-11.19887826538086,-0.816793893129771,0.5954198473282443,-1.2900763358778626
5192778646975,1.234836978,1,0.2262520568847656,1.7453730102539062,-11.196484063720703,-0.8473282442748091,0.5725190839694656,-1.3206106870229009
5192798649632,1.254839635,1,0.22505495605468748,1.734599102783203,-11.162965240478515,-0.8702290076335878,0.5877862595419847,-1.3587786259541985
5192818648746,1.274838749,1,0.23223756103515625,1.7501614135742187,-11.228805786132812,-0.8244274809160306,0.5038167938931297,-1.3511450381679388
5192838648955,1.294838958,1,0.229843359375,1.7226280944824217,-11.170147845458983,-0.8091603053435115,0.5954198473282443,-1.3511450381679388
5192858650205,1.314840208,1,0.2262520568847656,1.7465701110839842,-11.206060870361327,-0.8091603053435115,0.6259541984732825,-1.3206106870229009
5192878648694,1.334838697,1,0.2741360900878906,1.7322049011230467,-11.206060870361327,-0.8396946564885496,0.5419847328244275,-1.3129770992366412
5192898648538,1.354838541,1,0.22864625854492185,1.7417817077636717,-11.155782635498046,-0.8396946564885496,0.6106870229007634,-1.3282442748091603
5192918647965,1.374837968,1,0.23223756103515625,1.7286135986328124,-11.234791290283203,-0.8549618320610687,0.5725190839694656,-1.3206106870229009
5192938651611,1.394841614,1,0.23223756103515625,1.7477672119140624,-11.186907257080078,-0.7786259541984732,0.5954198473282443,-1.3435114503816794
5192958648173,1.414838176,1,0.18914193115234373,1.7286135986328124,-11.162965240478515,-0.816793893129771,0.5572519083969466,-1.3358778625954197
5192978648017,1.43483802,1,0.24779987182617186,1.744175909423828,-11.188104357910156,-0.8244274809160306,0.549618320610687,-1.3435114503816794
5192998647236,1.454837239,1,0.23582886352539062,1.7178396911621092,-11.194089862060546,-0.7786259541984732,0.5877862595419847,-1.3053435114503817
5193018647496,1.474837499,1,0.23582886352539062,1.705868682861328,-11.213243475341796,-0.8244274809160306,0.6030534351145038,-1.3435114503816794
5193038649423,1.494839426,1,0.258573779296875,1.7561469177246092,-11.203666668701171,-0.7938931297709924,0.5954198473282443,-1.3511450381679388
5193058648382,1.514838385,1,0.20709844360351562,1.7022773803710936,-11.171344946289063,-0.8320610687022901,0.5419847328244275,-1.3206106870229009
5193078647704,1.534837707,1,0.2597708801269531,1.7334020019531249,-11.142614526367186,-0.8091603053435115,0.5954198473282443,-1.3206106870229009
5193098648746,1.554838749,1,0.23822306518554687,1.7800889343261719,-11.228805786132812,-0.8549618320610687,0.549618320610687,-1.3282442748091603
5193118647652,1.574837655,1,0.17836802368164062,1.7262193969726563,-11.186907257080078,-0.8396946564885496,0.5190839694656488,-1.3358778625954197
5193138648277,1.59483828,1,0.21068974609375,1.7621324218749999,-11.200075366210937,-0.8091603053435115,0.5725190839694656,-1.3053435114503817
5193158647756,1.614837759,1,0.2154781494140625,1.6903063720703124,-11.241973895263671,-0.8091603053435115,0.5343511450381679,-1.3511450381679388
5193178647444,1.634837447,1,0.18076222534179687,1.7561469177246092,-11.19169566040039,-0.7786259541984732,0.5801526717557252,-1.3282442748091603
5193198648538,1.654838541,1,0.1867477294921875,1.7429788085937499,-11.204863769531249,-0.8091603053435115,0.5267175572519084,-1.3206106870229009
5193218648798,1.674838801,1,0.19033903198242186,1.7657237243652342,-11.194089862060546,-0.8244274809160306,0.5572519083969466,-1.282442748091603
5193238648173,1.694838176,1,0.2262520568847656,1.7549498168945312,-11.170147845458983,-0.8549618320610687,0.5725190839694656,-1.3358778625954197
5193258649111,1.714839114,1,0.2346317626953125,1.7226280944824217,-11.247959399414063,-0.8244274809160306,0.5267175572519084,-1.3587786259541985
5193278648069,1.734838072,1,0.20470424194335937,1.7094599853515624,-11.274295617675781,-0.8015267175572519,0.5801526717557252,-1.3358778625954197
5193298648694,1.754838697,1,0.21308394775390624,1.7130512878417967,-11.183315954589844,-0.7862595419847328,0.549618320610687,-1.3206106870229009
5193318648017,1.77483802,1,0.27174188842773433,1.7166425903320313,-11.188104357910156,-0.7938931297709924,0.5801526717557252,-1.297709923664122
5193338648173,1.794838176,1,0.19632453613281248,1.7465701110839842,-11.18571015625,-0.8396946564885496,0.6106870229007634,-1.3435114503816794
5193358647496,1.814837499,1,0.28012159423828126,1.6915034729003906,-11.215637677001952,-0.816793893129771,0.5801526717557252,-1.3282442748091603
5193378648329,1.834838332,1,0.18914193115234373,1.7130512878417967,-11.227608685302734,-0.7862595419847328,0.5954198473282443,-1.3358778625954197
5193398647808,1.854837811,1,0.2741360900878906,1.7010802795410156,-11.25514200439453,-0.8015267175572519,0.5801526717557252,-1.3053435114503817
5193418647704,1.874837707,1,0.23702596435546874,1.7681179260253905,-11.197681164550781,-0.8625954198473282,0.6259541984732825,-1.3358778625954197
5193438647861,1.894837864,1,0.22026655273437498,1.7705121276855467,-11.227608685302734,-0.8244274809160306,0.6030534351145038,-1.3206106870229009
5193458647548,1.914837551,1,0.2059013427734375,1.7549498168945312,-11.202469567871093,-0.816793893129771,0.6183206106870229,-1.3358778625954197
5193478648746,1.934838749,1,0.2549824768066406,1.7357962036132812,-11.21084927368164,-0.8702290076335878,0.5801526717557252,-1.3282442748091603
5193498648590,1.954838593,1,0.24181436767578124,1.6903063720703124,-11.13423482055664,-0.816793893129771,0.5954198473282443,-1.2900763358778626
5193518647913,1.974837916,1,0.229843359375,1.7585411193847655,-11.116278308105468,-0.8091603053435115,0.5801526717557252,-1.3282442748091603
5193538650673,1.994840676,1,0.1927332336425781,1.7669208251953124,-11.12226381225586,-0.7786259541984732,0.5877862595419847,-1.3129770992366412
5193558649892,2.014839895,1,0.23343466186523437,1.7214309936523438,-11.167753643798827,-0.8015267175572519,0.6030534351145038,-1.2900763358778626
5193578649058,2.034839061,1,0.24061726684570311,1.7226280944824217,-11.17254204711914,-0.8015267175572519,0.5648854961832062,-1.3129770992366412
5193598648798,2.054838801,1,0.21787235107421873,1.7022773803710936,-11.164162341308593,-0.7938931297709924,0.549618320610687,-1.297709923664122
5193618654892,2.074844895,1,0.23582886352539062,1.7621324218749999,-11.184513055419922,-0.816793893129771,0.5343511450381679,-1.3053435114503817
5193638650360,2.094840363,1,0.22026655273437498,1.7298106994628906,-11.218031878662108,-0.7709923664122137,0.5801526717557252,-1.3206106870229009
5193658647860,2.114837863,1,0.22266075439453123,1.7310078002929687,-11.220426080322264,-0.7557251908396947,0.5801526717557252,-1.3358778625954197
5193678647913,2.134837916,1,0.23822306518554687,1.7082628845214842,-11.155782635498046,-0.7557251908396947,0.5190839694656488,-1.3206106870229009
5193698647652,2.154837655,1,0.2561795776367187,1.6891092712402342,-11.204863769531249,-0.8091603053435115,0.5419847328244275,-1.3282442748091603
5193718647860,2.174837863,1,0.19871873779296872,1.7429788085937499,-11.155782635498046,-0.816793893129771,0.6106870229007634,-1.3435114503816794
5193738648850,2.194838853,1,0.2442085693359375,1.753752716064453,-11.253944903564452,-0.7862595419847328,0.5725190839694656,-1.3282442748091603
5193758648485,2.214838488,1,0.25139117431640623,1.7489643127441405,-11.203666668701171,-0.8015267175572519,0.5725190839694656,-1.3511450381679388
5193778649058,2.234839061,1,0.18914193115234373,1.6986860778808592,-11.148600030517578,-0.8244274809160306,0.5877862595419847,-1.3435114503816794
5193798649006,2.254839009,1,0.2262520568847656,1.7262193969726563,-11.189301458740234,-0.816793893129771,0.5572519083969466,-1.3282442748091603
5193818648694,2.274838697,1,0.22385785522460935,1.7082628845214842,-11.203666668701171,-0.8091603053435115,0.549618320610687,-1.3358778625954197
5193838647912,2.294837915,1,0.2214636535644531,1.7130512878417967,-11.19169566040039,-0.7633587786259542,0.5801526717557252,-1.3282442748091603
5193858648277,2.31483828,1,0.19512743530273435,1.707065783691406,-11.228805786132812,-0.816793893129771,0.6183206106870229,-1.297709923664122
5193878650152,2.334840155,1,0.21068974609375,1.7357962036132812,-11.201272467041015,-0.8396946564885496,0.5801526717557252,-1.3587786259541985
5193898648017,2.35483802,1,0.21068974609375,1.7549498168945312,-11.159373937988281,-0.7938931297709924,0.6106870229007634,-1.2900763358778626
5193918648694,2.374838697,1,0.21428104858398436,1.7118541870117185,-11.183315954589844,-0.8015267175572519,0.5648854961832062,-1.3053435114503817
5193938647340,2.394837343,1,0.2214636535644531,1.7573440185546874,-11.150994232177734,-0.8320610687022901,0.5648854961832062,-1.3053435114503817
5193958651142,2.414841145,1,0.2154781494140625,1.7190367919921874,-11.241973895263671,-0.8015267175572519,0.5954198473282443,-1.3282442748091603
5193978647235,2.434837238,1,0.2166752502441406,1.7501614135742187,-11.183315954589844,-0.8625954198473282,0.6030534351145038,-1.3053435114503817
5193998649371,2.454839374,1,0.1771709228515625,1.7202338928222656,-11.19887826538086,-0.8091603053435115,0.6106870229007634,-1.366412213740458
5194018691037,2.47488104,1,0.19632453613281248,1.6903063720703124,-11.262324609375,-0.8396946564885496,0.5419847328244275,-1.3129770992366412
5194038654735,2.494844738,1,0.24899697265624998,1.725022296142578,-11.182118853759764,-0.8244274809160306,0.5725190839694656,-1.3129770992366412
5194058651194,2.514841197,1,0.19512743530273435,1.7405846069335937,-11.186907257080078,-0.8320610687022901,0.5038167938931297,-1.3282442748091603
5194078649162,2.534839165,1,0.24061726684570311,1.7262193969726563,-11.196484063720703,-0.8091603053435115,0.5725190839694656,-1.3358778625954197
5194098648173,2.554838176,1,0.19512743530273435,1.7334020019531249,-11.219228979492186,-0.8244274809160306,0.6030534351145038,-1.3358778625954197
5194118648173,2.574838176,1,0.258573779296875,1.7501614135742187,-11.179724652099608,-0.8091603053435115,0.5877862595419847,-1.3435114503816794
5194138647600,2.594837603,1,0.2549824768066406,1.7310078002929687,-11.194089862060546,-0.8015267175572519,0.5419847328244275,-1.297709923664122
5194158649110,2.614839113,1,0.2609679809570312,1.7381904052734374,-11.149797131347656,-0.8625954198473282,0.549618320610687,-1.3358778625954197
5194178647444,2.634837447,1,0.2549824768066406,1.7561469177246092,-11.143811627197264,-0.8396946564885496,0.5801526717557252,-1.3740458015267176
5194198649839,2.654839842,1,0.2501940734863281,1.7812860351562498,-11.190498559570312,-0.8091603053435115,0.6030534351145038,-1.297709923664122
5194218647027,2.67483703,1,0.229843359375,1.7190367919921874,-11.228805786132812,-0.8549618320610687,0.5648854961832062,-1.3435114503816794
5194238647860,2.694837863,1,0.20231004028320312,1.7094599853515624,-11.250353601074218,-0.8015267175572519,0.5190839694656488,-1.2900763358778626
5194258647600,2.714837603,1,0.21068974609375,1.7453730102539062,-11.196484063720703,-0.8396946564885496,0.549618320610687,-1.3206106870229009
5194278650204,2.734840207,1,0.15083470458984374,1.687912170410156,-11.219228979492186,-0.8549618320610687,0.5267175572519084,-1.3053435114503817
5194298648121,2.754838124,1,0.22385785522460935,1.7657237243652342,-11.16057103881836,-0.8549618320610687,0.549618320610687,-1.3358778625954197
5194318649996,2.774839999,1,0.22505495605468748,1.6938976745605467,-11.19887826538086,-0.8473282442748091,0.5801526717557252,-1.3358778625954197
5194338648016,2.794838019,1,0.2693476867675781,1.7501614135742187,-11.282675323486327,-0.816793893129771,0.5572519083969466,-1.3511450381679388
5194358693433,2.814883436,1,0.22385785522460935,1.707065783691406,-11.21683477783203,-0.7938931297709924,0.6183206106870229,-1.2595419847328244
5194378682339,2.834872342,1,0.23822306518554687,1.7489643127441405,-11.215637677001952,-0.8396946564885496,0.5267175572519084,-1.297709923664122
5194398656975,2.854846978,1,0.25737667846679685,1.686715069580078,-11.183315954589844,-0.7938931297709924,0.549618320610687,-1.3206106870229009
5194418651350,2.874841353,1,0.25258827514648435,1.7525556152343749,-11.201272467041015,-0.8015267175572519,0.5572519083969466,-1.3206106870229009
5194438649683,2.894839686,1,0.20709844360351562,1.7082628845214842,-11.225214483642578,-0.816793893129771,0.5648854961832062,-1.297709923664122
5194458649162,2.914839165,1,0.19991583862304688,1.7238251953125,-11.197681164550781,-0.7862595419847328,0.5877862595419847,-1.3435114503816794
5194478649527,2.93483953,1,0.19871873779296872,1.7549498168945312,-11.168950744628905,-0.7557251908396947,0.5648854961832062,-1.3053435114503817
5194498649735,2.954839738,1,0.2154781494140625,1.7788918334960937,-11.19887826538086,-0.8320610687022901,0.5648854961832062,-1.3358778625954197
5194518649943,2.974839946,1,0.19153613281249998,1.7393875061035156,-11.267113012695312,-0.8015267175572519,0.5801526717557252,-1.3511450381679388
5194538649006,2.994839009,1,0.21068974609375,1.7334020019531249,-11.152191333007812,-0.7938931297709924,0.5801526717557252,-1.3282442748091603
5194558646818,3.014836821,1,0.24301146850585936,1.7298106994628906,-11.137826123046874,-0.816793893129771,0.6183206106870229,-1.3053435114503817
5194578649683,3.034839686,1,0.19991583862304688,1.6938976745605467,-11.201272467041015,-0.8015267175572519,0.5725190839694656,-1.366412213740458
5194598649579,3.054839582,1,0.2501940734863281,1.744175909423828,-11.19887826538086,-0.8015267175572519,0.6106870229007634,-1.297709923664122
5194618649371,3.074839374,1,0.19512743530273435,1.7860744384765623,-11.201272467041015,-0.8244274809160306,0.5877862595419847,-1.3053435114503817
5194638649839,3.094839842,1,0.19512743530273435,1.7525556152343749,-11.177330450439452,-0.816793893129771,0.5190839694656488,-1.3358778625954197
5194658648798,3.114838801,1,0.24660277099609373,1.7549498168945312,-11.180921752929686,-0.8320610687022901,0.5572519083969466,-1.297709923664122
5194678648537,3.13483854,1,0.229843359375,1.7549498168945312,-11.231199987792968,-0.7557251908396947,0.5419847328244275,-1.297709923664122
5194698648016,3.154838019,1,0.21906945190429686,1.7010802795410156,-11.170147845458983,-0.7786259541984732,0.5801526717557252,-1.3740458015267176
5194718664735,3.174854738,1,0.23582886352539062,1.734599102783203,-11.21683477783203,-0.8702290076335878,0.5801526717557252,-1.3206106870229009
5194738659475,3.194849478,1,0.2059013427734375,1.7429788085937499,-11.179724652099608,-0.8320610687022901,0.6030534351145038,-1.3587786259541985
5194758657443,3.214847446,1,0.2262520568847656,1.715445489501953,-11.21084927368164,-0.816793893129771,0.5267175572519084,-1.366412213740458
5194778652183,3.234842186,1,0.17597382202148437,1.7202338928222656,-11.206060870361327,-0.8015267175572519,0.5877862595419847,-1.3358778625954197
5194798649162,3.254839165,1,0.23822306518554687,1.6843208679199217,-11.238382592773437,-0.8473282442748091,0.549618320610687,-1.3053435114503817
5194818650100,3.274840103,1,0.17836802368164062,1.6938976745605467,-11.179724652099608,-0.8091603053435115,0.5877862595419847,-1.3511450381679388
5194838649423,3.294839426,1,0.22026655273437498,1.7274164978027342,-11.238382592773437,-0.7786259541984732,0.6183206106870229,-1.3053435114503817
5194858648798,3.314838801,1,0.2609679809570312,1.7477672119140624,-11.171344946289063,-0.8473282442748091,0.6030534351145038,-1.297709923664122
5194878648954,3.334838957,1,0.23223756103515625,1.714248388671875,-11.135431921386719,-0.7938931297709924,0.5648854961832062,-1.3587786259541985
5194898649475,3.354839478,1,0.21906945190429686,1.7681179260253905,-11.103110198974608,-0.8015267175572519,0.5801526717557252,-1.366412213740458
5194918649214,3.374839217,1,0.21787235107421873,1.7178396911621092,-11.221623181152344,-0.8091603053435115,0.5801526717557252,-1.3358778625954197
5194938651506,3.394841509,1,0.2501940734863281,1.6795324645996093,-11.277886920166015,-0.8396946564885496,0.5801526717557252,-1.3206106870229009
5194958650412,3.414840415,1,0.25139117431640623,1.7465701110839842,-11.131840618896483,-0.7938931297709924,0.5801526717557252,-1.282442748091603
5194978648850,3.434838853,1,0.22385785522460935,1.697488977050781,-11.195286962890624,-0.8320610687022901,0.549618320610687,-1.3129770992366412
5194998648745,3.454838748,1,0.22266075439453123,1.68551796875,-11.152191333007812,-0.7709923664122137,0.5877862595419847,-1.2748091603053435
5195018649475,3.474839478,1,0.24301146850585936,1.7106570861816406,-11.196484063720703,-0.7938931297709924,0.5725190839694656,-1.297709923664122
5195038649787,3.49483979,1,0.3028665100097656,1.7238251953125,-11.149797131347656,-0.816793893129771,0.5954198473282443,-1.3129770992366412
5195058648433,3.514838436,1,0.25258827514648435,1.6915034729003906,-11.11508120727539,-0.8320610687022901,0.5954198473282443,-1.3206106870229009
5195078723850,3.534913853,1,0.21787235107421873,1.7094599853515624,-11.139023223876952,-0.8244274809160306,0.5877862595419847,-1.3282442748091603
5195098665829,3.554855832,1,0.23822306518554687,1.7130512878417967,-11.212046374511718,-0.8244274809160306,0.549618320610687,-1.3206106870229009
5195118664162,3.574854165,1,0.22026655273437498,1.7800889343261719,-11.226411584472656,-0.8320610687022901,0.6106870229007634,-1.3129770992366412
5195138662599,3.594852602,1,0.22266075439453123,1.7286135986328124,-11.150994232177734,-0.7938931297709924,0.549618320610687,-1.3587786259541985
5195158663485,3.614853488,1,0.24181436767578124,1.7010802795410156,-11.155782635498046,-0.8473282442748091,0.5648854961832062,-1.366412213740458
5195178733120,3.634923123,1,0.20350714111328125,1.6819266662597656,-11.202469567871093,-0.816793893129771,0.6183206106870229,-1.3053435114503817
5195198672495,3.654862498,1,0.23582886352539062,1.7645266235351562,-11.136629022216797,-0.8473282442748091,0.5801526717557252,-1.3053435114503817
5195218670724,3.674860727,1,0.20470424194335937,1.7022773803710936,-11.189301458740234,-0.8396946564885496,0.549618320610687,-1.3282442748091603
5195238672131,3.694862134,1,0.22864625854492185,1.707065783691406,-11.170147845458983,-0.8320610687022901,0.5877862595419847,-1.3435114503816794
5195258669110,3.714859113,1,0.258573779296875,1.714248388671875,-11.173739147949219,-0.816793893129771,0.5877862595419847,-1.3206106870229009
5195278711610,3.734901613,1,0.19393033447265623,1.7130512878417967,-11.225214483642578,-0.7862595419847328,0.5648854961832062,-1.297709923664122
5195298673537,3.75486354,1,0.24899697265624998,1.7489643127441405,-11.145008728027342,-0.8244274809160306,0.5114503816793893,-1.297709923664122
5195318672495,3.774862498,1,0.2454056701660156,1.7621324218749999,-11.155782635498046,-0.8625954198473282,0.5648854961832062,-1.3282442748091603
5195338672599,3.794862602,1,0.1879448303222656,1.7357962036132812,-11.168950744628905,-0.8549618320610687,0.549618320610687,-1.297709923664122
5195358671089,3.814861092,1,0.277727392578125,1.6998831787109374,-11.192892761230468,-0.8549618320610687,0.549618320610687,-1.3206106870229009
5195378670724,3.834860727,1,0.17836802368164062,1.7262193969726563,-11.19169566040039,-0.8549618320610687,0.5267175572519084,-1.3358778625954197
5195398672704,3.854862707,1,0.20470424194335937,1.715445489501953,-11.183315954589844,-0.8015267175572519,0.5725190839694656,-1.3511450381679388
5195418671037,3.87486104,1,0.24181436767578124,1.6735469604492186,-11.167753643798827,-0.8244274809160306,0.549618320610687,-1.3282442748091603
5195438669631,3.894859634,1,0.2442085693359375,1.7848773376464844,-11.16057103881836,-0.8244274809160306,0.549618320610687,-1.3587786259541985
5195458670933,3.914860936,1,0.2154781494140625,1.6735469604492186,-11.188104357910156,-0.8320610687022901,0.5419847328244275,-1.3358778625954197
5195478671922,3.934861925,1,0.24779987182617186,1.7286135986328124,-11.162965240478515,-0.8473282442748091,0.5801526717557252,-1.2671755725190839
5195498673849,3.954863852,1,0.2885013000488281,1.7429788085937499,-11.161768139648437,-0.8854961832061069,0.5648854961832062,-1.3358778625954197
5195518671454,3.974861457,1,0.22744915771484372,1.7214309936523438,-11.195286962890624,-0.7633587786259542,0.5648854961832062,-1.3358778625954197
5195538671089,3.994861092,1,0.20829554443359374,1.7298106994628906,-11.19169566040039,-0.7862595419847328,0.6564885496183206,-1.2748091603053435
5195558670724,4.014860727,1,0.24181436767578124,1.7369933044433592,-11.173739147949219,-0.8396946564885496,0.5343511450381679,-1.3129770992366412
5195578671818,4.034861821,1,0.2609679809570312,1.7800889343261719,-11.168950744628905,-0.816793893129771,0.5572519083969466,-1.3053435114503817
5195598673433,4.054863436,1,0.2693476867675781,1.7322049011230467,-11.197681164550781,-0.8473282442748091,0.5648854961832062,-1.381679389312977
5195618677287,4.07486729,1,0.2262520568847656,1.7477672119140624,-11.164162341308593,-0.8473282442748091,0.5267175572519084,-1.3358778625954197
5195638674110,4.094864113,1,0.22744915771484372,1.7381904052734374,-11.177330450439452,-0.7633587786259542,0.6030534351145038,-1.3129770992366412
5195658671089,4.114861092,1,0.22744915771484372,1.7465701110839842,-11.117475408935546,-0.8015267175572519,0.5267175572519084,-1.3358778625954197
5195678670151,4.134860154,1,0.2537853759765625,1.6831237670898436,-11.259930407714844,-0.816793893129771,0.5419847328244275,-1.2900763358778626
5195698671245,4.154861248,1,0.20231004028320312,1.6807295654296874,-11.154585534667968,-0.7938931297709924,0.5648854961832062,-1.3053435114503817
5195718670672,4.174860675,1,0.229843359375,1.7417817077636717,-11.201272467041015,-0.8015267175572519,0.5801526717557252,-1.3511450381679388
5195738670412,4.194860415,1,0.23822306518554687,1.7334020019531249,-11.173739147949219,-0.7786259541984732,0.6183206106870229,-1.3206106870229009
5195758671245,4.214861248,1,0.20829554443359374,1.7118541870117185,-11.127052215576171,-0.8320610687022901,0.5801526717557252,-1.2748091603053435
5195778671714,4.234861717,1,0.2346317626953125,1.744175909423828,-11.190498559570312,-0.8396946564885496,0.6030534351145038,-1.381679389312977
5195798672026,4.254862029,1,0.20829554443359374,1.7585411193847655,-11.215637677001952,-0.7938931297709924,0.5725190839694656,-1.3358778625954197
5195818671766,4.274861769,1,0.21308394775390624,1.7429788085937499,-11.220426080322264,-0.8091603053435115,0.5648854961832062,-1.3511450381679388
5195838670412,4.294860415,1,0.24660277099609373,1.7226280944824217,-11.174936248779296,-0.7786259541984732,0.6259541984732825,-1.3358778625954197
5195858670308,4.314860311,1,0.24061726684570311,1.7202338928222656,-11.226411584472656,-0.8473282442748091,0.5877862595419847,-1.3053435114503817
5195878670568,4.334860571,1,0.24061726684570311,1.7513585144042967,-11.201272467041015,-0.8244274809160306,0.6106870229007634,-1.3282442748091603
5195898672495,4.354862498,1,0.2346317626953125,1.6903063720703124,-11.19169566040039,-0.7938931297709924,0.5572519083969466,-1.3053435114503817
5195918673172,4.374863175,1,0.2609679809570312,1.7082628845214842,-11.155782635498046,-0.8015267175572519,0.5801526717557252,-1.3587786259541985
5195938670620,4.394860623,1,0.19153613281249998,1.7118541870117185,-11.189301458740234,-0.816793893129771,0.5343511450381679,-1.3358778625954197
5195958670828,4.414860831,1,0.2597708801269531,1.7381904052734374,-11.173739147949219,-0.8015267175572519,0.6106870229007634,-1.3206106870229009
5195978670776,4.434860779,1,0.2442085693359375,1.7226280944824217,-11.196484063720703,-0.7786259541984732,0.5954198473282443,-1.3206106870229009
5195998673016,4.454863019,1,0.2609679809570312,1.744175909423828,-11.19169566040039,-0.8015267175572519,0.5648854961832062,-1.3206106870229009
5196018672703,4.474862706,1,0.2262520568847656,1.7310078002929687,-11.161768139648437,-0.8702290076335878,0.5801526717557252,-1.282442748091603
5196038670360,4.494860363,1,0.2346317626953125,1.7130512878417967,-11.165359442138671,-0.7938931297709924,0.6259541984732825,-1.3206106870229009
5196058670099,4.514860102,1,0.20709844360351562,1.6699556579589843,-11.196484063720703,-0.7938931297709924,0.5572519083969466,-1.2748091603053435
5196078670568,4.534860571,1,0.20350714111328125,1.7190367919921874,-11.16057103881836,-0.8244274809160306,0.5954198473282443,-1.366412213740458
5196098671714,4.554861717,1,0.17836802368164062,1.7310078002929687,-11.258733306884764,-0.816793893129771,0.6030534351145038,-1.3893129770992367
5196118671922,4.574861925,1,0.22266075439453123,1.6831237670898436,-11.184513055419922,-0.7786259541984732,0.6183206106870229,-1.3282442748091603
5196138672547,4.59486255,1,0.17836802368164062,1.725022296142578,-11.192892761230468,-0.816793893129771,0.549618320610687,-1.3206106870229009
5196158670672,4.614860675,1,0.23822306518554687,1.7489643127441405,-11.141417425537108,-0.8625954198473282,0.5572519083969466,-1.3435114503816794
5196178670880,4.634860883,1,0.25258827514648435,1.7106570861816406,-11.215637677001952,-0.8396946564885496,0.6030534351145038,-1.3282442748091603
5196198710307,4.65490031,1,0.17956512451171874,1.7645266235351562,-11.228805786132812,-0.8396946564885496,0.5801526717557252,-1.3358778625954197
5196218673016,4.674863019,1,0.24301146850585936,1.7764976318359373,-11.245565197753905,-0.8396946564885496,0.5419847328244275,-1.3053435114503817
5196238671974,4.694861977,1,0.21308394775390624,1.7094599853515624,-11.21683477783203,-0.816793893129771,0.5725190839694656,-1.282442748091603
5196258671453,4.714861456,1,0.19632453613281248,1.7381904052734374,-11.202469567871093,-0.7786259541984732,0.5572519083969466,-1.297709923664122
5196278671505,4.734861508,1,0.21906945190429686,1.7525556152343749,-11.241973895263671,-0.8473282442748091,0.6183206106870229,-1.3435114503816794
5196298710047,4.75490005,1,0.2214636535644531,1.734599102783203,-11.162965240478515,-0.7786259541984732,0.6259541984732825,-1.297709923664122
5196318669787,4.77485979,1,0.239420166015625,1.7238251953125,-11.246762298583985,-0.8091603053435115,0.5725190839694656,-1.3435114503816794
5196338672234,4.794862237,1,0.20470424194335937,1.7190367919921874,-11.256339105224608,-0.8015267175572519,0.5572519083969466,-1.3358778625954197
5196358672651,4.814862654,1,0.27892449340820313,1.7238251953125,-11.214440576171874,-0.8320610687022901,0.5801526717557252,-1.2900763358778626
5196378671505,4.834861508,1,0.19393033447265623,1.7034744812011717,-11.179724652099608,-0.8396946564885496,0.5419847328244275,-1.3282442748091603
5196398710412,4.854900415,1,0.25258827514648435,1.6747440612792968,-11.215637677001952,-0.8396946564885496,0.5954198473282443,-1.3282442748091603
5196418670984,4.874860987,1,0.22505495605468748,1.763329522705078,-11.171344946289063,-0.8778625954198473,0.5725190839694656,-1.282442748091603
5196438671036,4.894861039,1,0.21428104858398436,1.7525556152343749,-11.170147845458983,-0.8320610687022901,0.5725190839694656,-1.366412213740458
5196458669943,4.914859946,1,0.19871873779296872,1.7393875061035156,-11.167753643798827,-0.7938931297709924,0.5648854961832062,-1.3511450381679388
5196478672234,4.934862237,1,0.24899697265624998,1.7669208251953124,-11.214440576171874,-0.8015267175572519,0.5725190839694656,-1.3358778625954197
5196498667964,4.954857967,1,0.22266075439453123,1.7597382202148437,-11.164162341308593,-0.8015267175572519,0.5877862595419847,-1.3740458015267176
5196518672339,4.974862342,1,0.23343466186523437,1.725022296142578,-11.182118853759764,-0.8015267175572519,0.5725190839694656,-1.3053435114503817
5196538669995,4.994859998,1,0.22385785522460935,1.7501614135742187,-11.171344946289063,-0.8625954198473282,0.5419847328244275,-1.3435114503816794
5196558670099,5.014860102,1,0.1771709228515625,1.70467158203125,-11.167753643798827,-0.7786259541984732,0.6259541984732825,-1.3053435114503817
5196578669214,5.034859217,1,0.2214636535644531,1.695094775390625,-11.166556542968749,-0.816793893129771,0.5801526717557252,-1.3129770992366412
5196598669995,5.054859998,1,0.1580173095703125,1.7357962036132812,-11.252747802734374,-0.8091603053435115,0.549618320610687,-1.3435114503816794
5196618673432,5.074863435,1,0.21188684692382811,1.705868682861328,-11.180921752929686,-0.7938931297709924,0.5954198473282443,-1.3129770992366412
5196638669838,5.094859841,1,0.2609679809570312,1.6986860778808592,-11.192892761230468,-0.8320610687022901,0.6106870229007634,-1.366412213740458
5196658671141,5.114861144,1,0.2154781494140625,1.734599102783203,-11.16057103881836,-0.7633587786259542,0.5725190839694656,-1.297709923664122
5196678671349,5.134861352,1,0.18315642700195311,1.7022773803710936,-11.202469567871093,-0.816793893129771,0.549618320610687,-1.3282442748091603
5196698670516,5.154860519,1,0.21906945190429686,1.687912170410156,-11.194089862060546,-0.7938931297709924,0.6183206106870229,-1.297709923664122
5196718672130,5.174862133,1,0.2454056701660156,1.7334020019531249,-11.167753643798827,-0.816793893129771,0.5267175572519084,-1.3358778625954197
5196738669161,5.194859164,1,0.2609679809570312,1.7896657409667969,-11.125855114746093,-0.8778625954198473,0.5954198473282443,-1.3511450381679388
5196758695151,5.214885154,1,0.22505495605468748,1.6915034729003906,-11.180921752929686,-0.8244274809160306,0.5877862595419847,-1.2748091603053435
5196778680047,5.23487005,1,0.17477672119140625,1.7310078002929687,-11.19169566040039,-0.7862595419847328,0.5343511450381679,-1.3206106870229009
5196798673380,5.254863383,1,0.18914193115234373,1.6891092712402342,-11.079168182373046,-0.8015267175572519,0.5267175572519084,-1.297709923664122
5196818672182,5.274862185,1,0.21188684692382811,1.7477672119140624,-11.202469567871093,-0.816793893129771,0.5725190839694656,-1.3053435114503817
5196838671401,5.294861404,1,0.1975216369628906,1.7381904052734374,-11.17852755126953,-0.8320610687022901,0.5419847328244275,-1.3053435114503817
5196858670672,5.314860675,1,0.2537853759765625,1.763329522705078,-11.17852755126953,-0.8702290076335878,0.5801526717557252,-1.3282442748091603
5196878673172,5.334863175,1,0.2549824768066406,1.7322049011230467,-11.135431921386719,-0.8091603053435115,0.5038167938931297,-1.3053435114503817
5196898671453,5.354861456,1,0.20949264526367187,1.7214309936523438,-11.170147845458983,-0.7862595419847328,0.6030534351145038,-1.3282442748091603
5196918672026,5.374862029,1,0.2645592834472656,1.7501614135742187,-11.10191309814453,-0.8244274809160306,0.5572519083969466,-1.2900763358778626
5196938672026,5.394862029,1,0.23223756103515625,1.6938976745605467,-11.188104357910156,-0.8473282442748091,0.5725190839694656,-1.2748091603053435
5196958672755,5.414862758,1,0.20949264526367187,1.7465701110839842,-11.232397088623046,-0.8091603053435115,0.5648854961832062,-1.2671755725190839
5196978670828,5.434860831,1,0.22744915771484372,1.7393875061035156,-11.215637677001952,-0.8091603053435115,0.5725190839694656,-1.3435114503816794
5196998671818,5.454861821,1,0.22505495605468748,1.6843208679199217,-11.173739147949219,-0.8015267175572519,0.6259541984732825,-1.3587786259541985
5197018673693,5.474863696,1,0.19871873779296872,1.7238251953125,-11.231199987792968,-0.7938931297709924,0.5801526717557252,-1.3358778625954197
5197038672130,5.494862133,1,0.21308394775390624,1.7393875061035156,-11.207257971191405,-0.816793893129771,0.5419847328244275,-1.3282442748091603
5197058669943,5.514859946,1,0.2166752502441406,1.696291876220703,-11.190498559570312,-0.7709923664122137,0.5725190839694656,-1.3282442748091603
5197078671140,5.534861143,1,0.1975216369628906,1.744175909423828,-11.19887826538086,-0.8473282442748091,0.5343511450381679,-1.3282442748091603
5197098670307,5.55486031,1,0.22266075439453123,1.6927005737304686,-11.171344946289063,-0.8320610687022901,0.6030534351145038,-1.3282442748091603
5197118668901,5.574858904,1,0.23702596435546874,1.7190367919921874,-11.173739147949219,-0.8244274809160306,0.5877862595419847,-1.2900763358778626
5197138672286,5.594862289,1,0.22026655273437498,1.715445489501953,-11.145008728027342,-0.8091603053435115,0.5801526717557252,-1.3358778625954197
5197158671974,5.614861977,1,0.21188684692382811,1.7106570861816406,-11.21683477783203,-0.8320610687022901,0.5877862595419847,-1.3053435114503817
5197178670359,5.634860362,1,0.2597708801269531,1.734599102783203,-11.219228979492186,-0.8015267175572519,0.6030534351145038,-1.3282442748091603
5197198672338,5.654862341,1,0.29089550170898437,1.7286135986328124,-11.150994232177734,-0.8473282442748091,0.6106870229007634,-1.3206106870229009
5197218709005,5.674899008,1,0.21188684692382811,1.734599102783203,-11.221623181152344,-0.8320610687022901,0.4961832061068702,-1.3358778625954197
5197238672078,5.694862081,1,0.24660277099609373,1.7298106994628906,-11.262324609375,-0.8320610687022901,0.5801526717557252,-1.3129770992366412
5197258671453,5.714861456,1,0.2214636535644531,1.7298106994628906,-11.257536206054686,-0.8473282442748091,0.5725190839694656,-1.297709923664122
5197278670984,5.734860987,1,0.20709844360351562,1.725022296142578,-11.238382592773437,-0.816793893129771,0.549618320610687,-1.3129770992366412
5197298669369,5.754859372,1,0.23343466186523437,1.7130512878417967,-11.143811627197264,-0.8091603053435115,0.5725190839694656,-1.2595419847328244
5197318671192,5.774861195,1,0.2753331909179687,1.707065783691406,-11.226411584472656,-0.8244274809160306,0.5877862595419847,-1.3282442748091603
5197338672234,5.794862237,1,0.2537853759765625,1.7669208251953124,-11.241973895263671,-0.8244274809160306,0.549618320610687,-1.3282442748091603
5197358674682,5.814864685,1,0.21308394775390624,1.7453730102539062,-11.167753643798827,-0.8015267175572519,0.6183206106870229,-1.3129770992366412
5197378672182,5.834862185,1,0.22744915771484372,1.7226280944824217,-11.188104357910156,-0.7862595419847328,0.5419847328244275,-1.3206106870229009
5197398671349,5.854861352,1,0.18914193115234373,1.7034744812011717,-11.19887826538086,-0.8091603053435115,0.6335877862595419,-1.3282442748091603
5197418671036,5.874861039,1,0.239420166015625,1.7417817077636717,-11.17852755126953,-0.8396946564885496,0.5572519083969466,-1.3587786259541985
5197438673067,5.89486307,1,0.24660277099609373,1.7130512878417967,-11.231199987792968,-0.816793893129771,0.5801526717557252,-1.3435114503816794
5197458669890,5.914859893,1,0.25737667846679685,1.696291876220703,-11.137826123046874,-0.8320610687022901,0.6335877862595419,-1.3282442748091603
5197478672338,5.934862341,1,0.20470424194335937,1.7501614135742187,-11.21084927368164,-0.8854961832061069,0.5954198473282443,-1.3511450381679388
5197498671192,5.954861195,1,0.22505495605468748,1.7369933044433592,-11.171344946289063,-0.7786259541984732,0.5877862595419847,-1.3129770992366412
5197518669526,5.974859529,1,0.17597382202148437,1.7944541442871094,-11.18571015625,-0.8396946564885496,0.5801526717557252,-1.3282442748091603
5197538673692,5.994863695,1,0.22026655273437498,1.7393875061035156,-11.220426080322264,-0.8702290076335878,0.5801526717557252,-1.3435114503816794
5197558671036,6.014861039,1,0.22505495605468748,1.7525556152343749,-11.244368096923827,-0.8244274809160306,0.6030534351145038,-1.3587786259541985
5197578669942,6.034859945,1,0.2454056701660156,1.7393875061035156,-11.21084927368164,-0.7938931297709924,0.6106870229007634,-1.3435114503816794
5197598671557,6.05486156,1,0.21787235107421873,1.7022773803710936,-11.182118853759764,-0.8091603053435115,0.6183206106870229,-1.3206106870229009
5197618677546,6.074867549,1,0.20949264526367187,1.734599102783203,-11.301828936767578,-0.8473282442748091,0.5267175572519084,-1.3282442748091603
5197638673901,6.094863904,1,0.19393033447265623,1.7166425903320313,-11.188104357910156,-0.8091603053435115,0.5572519083969466,-1.3435114503816794
5197658670932,6.114860935,1,0.23582886352539062,1.7717092285156248,-11.168950744628905,-0.8244274809160306,0.5648854961832062,-1.3282442748091603
5197678672546,6.134862549,1,0.2154781494140625,1.744175909423828,-11.16057103881836,-0.8320610687022901,0.5954198473282443,-1.366412213740458
5197698669265,6.154859268,1,0.2597708801269531,1.7561469177246092,-11.173739147949219,-0.816793893129771,0.549618320610687,-1.3282442748091603
5197718671036,6.174861039,1,0.19512743530273435,1.7298106994628906,-11.184513055419922,-0.816793893129771,0.5572519083969466,-1.3282442748091603
5197738668692,6.194858695,1,0.21068974609375,1.7262193969726563,-11.171344946289063,-0.8015267175572519,0.5572519083969466,-1.3206106870229009
5197758672859,6.214862862,1,0.24061726684570311,1.7549498168945312,-11.148600030517578,-0.7786259541984732,0.5648854961832062,-1.3053435114503817
5197778669942,6.234859945,1,0.22864625854492185,1.7214309936523438,-11.2240173828125,-0.7786259541984732,0.5877862595419847,-1.3206106870229009
5197798671140,6.254861143,1,0.2561795776367187,1.7214309936523438,-11.174936248779296,-0.8091603053435115,0.5572519083969466,-1.3129770992366412
5197818670567,6.27486057,1,0.2537853759765625,1.7705121276855467,-11.180921752929686,-0.8015267175572519,0.5725190839694656,-1.3129770992366412
5197838672963,6.294862966,1,0.2657563842773437,1.7286135986328124,-11.204863769531249,-0.8244274809160306,0.6106870229007634,-1.3053435114503817
5197858671244,6.314861247,1,0.19393033447265623,1.7585411193847655,-11.203666668701171,-0.8015267175572519,0.6183206106870229,-1.3129770992366412
5197878669734,6.334859737,1,0.20231004028320312,1.7286135986328124,-11.18571015625,-0.816793893129771,0.5801526717557252,-1.3206106870229009
5197898673953,6.354863956,1,0.2765302917480469,1.7405846069335937,-11.196484063720703,-0.8396946564885496,0.549618320610687,-1.3206106870229009
5197918674473,6.374864476,1,0.2741360900878906,1.7453730102539062,-11.239579693603515,-0.816793893129771,0.5648854961832062,-1.3587786259541985
5197938672598,6.394862601,1,0.24660277099609373,1.7238251953125,-11.110292803955078,-0.7862595419847328,0.5038167938931297,-1.3435114503816794
5197958672598,6.414862601,1,0.26815058593749996,1.7776947326660155,-11.218031878662108,-0.8091603053435115,0.5419847328244275,-1.3129770992366412
5197978669317,6.43485932,1,0.16639701538085935,1.7381904052734374,-11.245565197753905,-0.816793893129771,0.5801526717557252,-1.3358778625954197
5197998672650,6.454862653,1,0.20829554443359374,1.7429788085937499,-11.202469567871093,-0.8320610687022901,0.5877862595419847,-1.3206106870229009
5198018671453,6.474861456,1,0.2693476867675781,1.7453730102539062,-11.212046374511718,-0.7709923664122137,0.6106870229007634,-1.3206106870229009
5198038673275,6.494863278,1,0.19512743530273435,1.7549498168945312,-11.195286962890624,-0.8549618320610687,0.6030534351145038,-1.3358778625954197
5198058671921,6.514861924,1,0.229843359375,1.70467158203125,-11.180921752929686,-0.8091603053435115,0.6106870229007634,-1.3358778625954197
5198078670567,6.53486057,1,0.19991583862304688,1.7465701110839842,-11.189301458740234,-0.816793893129771,0.5877862595419847,-1.2900763358778626
5198098670255,6.554860258,1,0.21068974609375,1.6615759521484375,-11.167753643798827,-0.8396946564885496,0.5190839694656488,-1.3358778625954197
5198118670463,6.574860466,1,0.239420166015625,1.7238251953125,-11.206060870361327,-0.816793893129771,0.5343511450381679,-1.3053435114503817
5198138715932,6.594905935,1,0.19871873779296872,1.7094599853515624,-11.150994232177734,-0.8091603053435115,0.549618320610687,-1.3358778625954197
5198158672338,6.614862341,1,0.26336218261718747,1.714248388671875,-11.197681164550781,-0.8396946564885496,0.5801526717557252,-1.3282442748091603
5198178671244,6.634861247,1,0.1975216369628906,1.7369933044433592,-11.133037719726563,-0.8244274809160306,0.5648854961832062,-1.3206106870229009
5198198671609,6.654861612,1,0.24779987182617186,1.7417817077636717,-11.150994232177734,-0.8091603053435115,0.5877862595419847,-1.297709923664122
5198218670775,6.674860778,1,0.22744915771484372,1.7884686401367187,-11.21683477783203,-0.8473282442748091,0.6259541984732825,-1.3129770992366412
5198238712338,6.694902341,1,0.2214636535644531,1.6938976745605467,-11.109095703125,-0.7938931297709924,0.5725190839694656,-1.282442748091603
5198258671713,6.714861716,1,0.17357962036132812,1.7190367919921874,-11.129446417236327,-0.7938931297709924,0.6259541984732825,-1.3129770992366412
5198278669734,6.734859737,1,0.21787235107421873,1.7357962036132812,-11.240776794433593,-0.8473282442748091,0.5877862595419847,-1.297709923664122
5198298670827,6.75486083,1,0.2442085693359375,1.7453730102539062,-11.158176837158203,-0.8320610687022901,0.5648854961832062,-1.3358778625954197
5198318670359,6.774860362,1,0.20829554443359374,1.7238251953125,-11.176133349609374,-0.7862595419847328,0.6183206106870229,-1.3282442748091603
5198338711817,6.79490182,1,0.2346317626953125,1.7286135986328124,-11.196484063720703,-0.8778625954198473,0.5801526717557252,-1.3129770992366412
5198358673015,6.814863018,1,0.20829554443359374,1.7262193969726563,-11.222820281982422,-0.8549618320610687,0.5954198473282443,-1.3282442748091603
5198378671817,6.83486182,1,0.2214636535644531,1.7118541870117185,-11.208455072021483,-0.7862595419847328,0.5572519083969466,-1.3740458015267176
5198398667650,6.854857653,1,0.2645592834472656,1.725022296142578,-11.17852755126953,-0.8015267175572519,0.5648854961832062,-1.3282442748091603
5198418671765,6.874861768,1,0.19393033447265623,1.7393875061035156,-11.167753643798827,-0.816793893129771,0.5343511450381679,-1.3511450381679388
5198438711817,6.89490182,1,0.2501940734863281,1.7166425903320313,-11.218031878662108,-0.8320610687022901,0.5801526717557252,-1.366412213740458
5198458671713,6.914861716,1,0.15203180541992187,1.7130512878417967,-11.197681164550781,-0.8244274809160306,0.5343511450381679,-1.3206106870229009
5198478671765,6.934861768,1,0.23822306518554687,1.7022773803710936,-11.162965240478515,-0.8396946564885496,0.5801526717557252,-1.3435114503816794
5198498671817,6.95486182,1,0.19153613281249998,1.7645266235351562,-11.165359442138671,-0.8091603053435115,0.6412213740458015,-1.3358778625954197
5198518670411,6.974860414,1,0.2154781494140625,1.7465701110839842,-11.152191333007812,-0.7862595419847328,0.6106870229007634,-1.3129770992366412
5198538709734,6.994899737,1,0.24061726684570311,1.70467158203125,-11.168950744628905,-0.8625954198473282,0.6030534351145038,-1.3206106870229009
5198558673484,7.014863487,1,0.201112939453125,1.714248388671875,-11.167753643798827,-0.8473282442748091,0.5343511450381679,-1.3206106870229009
5198578672702,7.034862705,1,0.22385785522460935,1.7417817077636717,-11.149797131347656,-0.8091603053435115,0.5801526717557252,-1.366412213740458
5198598670931,7.054860934,1,0.20949264526367187,1.6843208679199217,-11.154585534667968,-0.8091603053435115,0.5648854961832062,-1.3206106870229009
5198618672234,7.074862237,1,0.22026655273437498,1.7513585144042967,-11.215637677001952,-0.8702290076335878,0.6030534351145038,-1.3358778625954197
5198638669942,7.094859945,1,0.1640028137207031,1.6831237670898436,-11.209652172851563,-0.8396946564885496,0.5877862595419847,-1.381679389312977
5198658673171,7.114863174,1,0.21308394775390624,1.7836802368164062,-11.214440576171874,-0.8320610687022901,0.549618320610687,-1.3358778625954197
5198678671504,7.134861507,1,0.2645592834472656,1.7034744812011717,-11.194089862060546,-0.816793893129771,0.5419847328244275,-1.3587786259541985
5198698673640,7.154863643,1,0.2597708801269531,1.7357962036132812,-11.19169566040039,-0.8549618320610687,0.5572519083969466,-1.3282442748091603
5198718672286,7.174862289,1,0.21787235107421873,1.7764976318359373,-11.195286962890624,-0.7633587786259542,0.5801526717557252,-1.3206106870229009
5198738670879,7.194860882,1,0.20829554443359374,1.6903063720703124,-11.2240173828125,-0.8396946564885496,0.6030534351145038,-1.3587786259541985
5198758681244,7.214871247,1,0.229843359375,1.7334020019531249,-11.225214483642578,-0.8320610687022901,0.5801526717557252,-1.3358778625954197
5198778673796,7.234863799,1,0.258573779296875,1.7585411193847655,-11.207257971191405,-0.816793893129771,0.5419847328244275,-1.282442748091603
5198798672390,7.254862393,1,0.2657563842773437,1.7812860351562498,-11.161768139648437,-0.8549618320610687,0.5648854961832062,-1.3129770992366412
5198818671244,7.274861247,1,0.23343466186523437,1.7190367919921874,-11.209652172851563,-0.7709923664122137,0.5801526717557252,-1.282442748091603
5198838672963,7.294862966,1,0.19871873779296872,1.7262193969726563,-11.180921752929686,-0.8473282442748091,0.5801526717557252,-1.3358778625954197
5198858672129,7.314862132,1,0.23104046020507812,1.7238251953125,-11.166556542968749,-0.7862595419847328,0.5954198473282443,-1.3282442748091603
5198878670515,7.334860518,1,0.20470424194335937,1.7417817077636717,-11.154585534667968,-0.8091603053435115,0.5954198473282443,-1.3358778625954197
5198898671036,7.354861039,1,0.239420166015625,1.7489643127441405,-11.139023223876952,-0.7557251908396947,0.5801526717557252,-1.3053435114503817
5198918671504,7.374861507,1,0.20949264526367187,1.7405846069335937,-11.184513055419922,-0.8320610687022901,0.5190839694656488,-1.3587786259541985
5198938670098,7.394860101,1,0.23702596435546874,1.7214309936523438,-11.192892761230468,-0.8244274809160306,0.5801526717557252,-1.3358778625954197
5198958672963,7.414862966,1,0.201112939453125,1.725022296142578,-11.17254204711914,-0.8320610687022901,0.5572519083969466,-1.3587786259541985
5198978668744,7.434858747,1,0.27892449340820313,1.6938976745605467,-11.162965240478515,-0.8015267175572519,0.549618320610687,-1.3435114503816794
5198998672286,7.454862289,1,0.2561795776367187,1.7238251953125,-11.196484063720703,-0.8931297709923665,0.5877862595419847,-1.3587786259541985
5199018670306,7.474860309,1,0.22385785522460935,1.7274164978027342,-11.206060870361327,-0.8396946564885496,0.5648854961832062,-1.297709923664122
5199038672285,7.494862288,1,0.18914193115234373,1.7262193969726563,-11.154585534667968,-0.7557251908396947,0.5648854961832062,-1.3282442748091603
5199058672806,7.514862809,1,0.20709844360351562,1.7226280944824217,-11.207257971191405,-0.8473282442748091,0.5648854961832062,-1.297709923664122
5199078671400,7.534861403,1,0.201112939453125,1.7226280944824217,-11.196484063720703,-0.816793893129771,0.5343511450381679,-1.3435114503816794
5199098668692,7.554858695,1,0.25139117431640623,1.7705121276855467,-11.201272467041015,-0.816793893129771,0.5725190839694656,-1.297709923664122
5199118670358,7.574860361,1,0.25737667846679685,1.686715069580078,-11.192892761230468,-0.7709923664122137,0.5801526717557252,-1.297709923664122
5199138668744,7.594858747,1,0.23702596435546874,1.7274164978027342,-11.200075366210937,-0.8396946564885496,0.5572519083969466,-1.3587786259541985
5199158672754,7.614862757,1,0.19153613281249998,1.7298106994628906,-11.200075366210937,-0.7709923664122137,0.549618320610687,-1.3435114503816794
5199178671817,7.63486182,1,0.22505495605468748,1.7417817077636717,-11.186907257080078,-0.8625954198473282,0.549618320610687,-1.3053435114503817
5199198672285,7.654862288,1,0.2741360900878906,1.7130512878417967,-11.17852755126953,-0.7862595419847328,0.5190839694656488,-1.282442748091603
5199218669890,7.674859893,1,0.22266075439453123,1.7166425903320313,-11.195286962890624,-0.816793893129771,0.5267175572519084,-1.3435114503816794
5199238671035,7.694861038,1,0.18914193115234373,1.7118541870117185,-11.146205828857422,-0.7938931297709924,0.5801526717557252,-1.3511450381679388
5199258672598,7.714862601,1,0.1771709228515625,1.7022773803710936,-11.161768139648437,-0.7709923664122137,0.549618320610687,-1.3129770992366412
5199278670410,7.734860413,1,0.2166752502441406,1.734599102783203,-11.245565197753905,-0.8549618320610687,0.5648854961832062,-1.2900763358778626
5199298668640,7.754858643,1,0.22266075439453123,1.695094775390625,-11.192892761230468,-0.8244274809160306,0.5877862595419847,-1.3282442748091603
5199318670306,7.774860309,1,0.23702596435546874,1.7106570861816406,-11.121066711425781,-0.7557251908396947,0.5572519083969466,-1.3206106870229009
5199338670410,7.794860413,1,0.23582886352539062,1.7106570861816406,-11.195286962890624,-0.8244274809160306,0.5801526717557252,-1.3282442748091603
5199358672910,7.814862913,1,0.23822306518554687,1.734599102783203,-11.162965240478515,-0.8473282442748091,0.5801526717557252,-1.366412213740458
5199378727442,7.834917445,1,0.2501940734863281,1.7417817077636717,-11.201272467041015,-0.816793893129771,0.5572519083969466,-1.3511450381679388
5199398675462,7.854865465,1,0.21068974609375,1.70467158203125,-11.200075366210937,-0.816793893129771,0.6183206106870229,-1.3358778625954197
5199418675619,7.874865622,1,0.21787235107421873,1.7585411193847655,-11.184513055419922,-0.7709923664122137,0.6030534351145038,-1.3282442748091603
5199438673848,7.894863851,1,0.22026655273437498,1.715445489501953,-11.200075366210937,-0.7938931297709924,0.5801526717557252,-1.3129770992366412
5199458674317,7.91486432,1,0.20231004028320312,1.7286135986328124,-11.214440576171874,-0.8396946564885496,0.5725190839694656,-1.3129770992366412
5199478671869,7.934861872,1,0.24301146850585936,1.7118541870117185,-11.131840618896483,-0.8091603053435115,0.6030534351145038,-1.297709923664122
5199498671504,7.954861507,1,0.21906945190429686,1.714248388671875,-11.228805786132812,-0.8091603053435115,0.5801526717557252,-1.3511450381679388
5199518669681,7.974859684,1,0.21428104858398436,1.7453730102539062,-11.152191333007812,-0.8396946564885496,0.5648854961832062,-1.3358778625954197
5199538671139,7.994861142,1,0.21188684692382811,1.7286135986328124,-11.167753643798827,-0.8015267175572519,0.5114503816793893,-1.3282442748091603
5199558672442,8.014862445,1,0.21787235107421873,1.744175909423828,-11.103110198974608,-0.8396946564885496,0.5114503816793893,-1.3435114503816794
5199578669264,8.034859267,1,0.21308394775390624,1.7310078002929687,-11.213243475341796,-0.8091603053435115,0.5267175572519084,-1.297709923664122
5199598671452,8.054861455,1,0.2657563842773437,1.6938976745605467,-11.145008728027342,-0.7709923664122137,0.5648854961832062,-1.3206106870229009
5199618670462,8.074860465,1,0.18555062866210936,1.715445489501953,-11.184513055419922,-0.816793893129771,0.5877862595419847,-1.3129770992366412
5199638677442,8.094867445,1,0.201112939453125,1.7621324218749999,-11.19169566040039,-0.816793893129771,0.5725190839694656,-1.282442748091603
5199658673327,8.11486333,1,0.24061726684570311,1.7525556152343749,-11.186907257080078,-0.7709923664122137,0.5419847328244275,-1.3206106870229009
5199678668639,8.134858642,1,0.19033903198242186,1.7417817077636717,-11.166556542968749,-0.8091603053435115,0.5419847328244275,-1.3053435114503817
5199698671660,8.154861663,1,0.21787235107421873,1.714248388671875,-11.168950744628905,-0.7938931297709924,0.6106870229007634,-1.381679389312977
5199718672702,8.174862705,1,0.23223756103515625,1.744175909423828,-11.244368096923827,-0.7862595419847328,0.5725190839694656,-1.297709923664122
5199738670410,8.194860413,1,0.22026655273437498,1.7669208251953124,-11.141417425537108,-0.8473282442748091,0.5419847328244275,-1.3282442748091603
5199758711244,8.214901247,1,0.20231004028320312,1.7465701110839842,-11.253944903564452,-0.7709923664122137,0.6030534351145038,-1.366412213740458
5199778671191,8.234861194,1,0.17956512451171874,1.6986860778808592,-11.07677398071289,-0.816793893129771,0.5419847328244275,-1.3129770992366412
5199798670514,8.254860517,1,0.2059013427734375,1.7106570861816406,-11.146205828857422,-0.7862595419847328,0.5801526717557252,-1.3511450381679388
5199818670254,8.274860257,1,0.28730419921875,1.744175909423828,-11.183315954589844,-0.8091603053435115,0.5725190839694656,-1.3358778625954197
5199838688483,8.294878486,1,0.17357962036132812,1.7405846069335937,-11.15338843383789,-0.8320610687022901,0.549618320610687,-1.3206106870229009
5199858722025,8.314912028,1,0.21787235107421873,1.7238251953125,-11.164162341308593,-0.8091603053435115,0.5725190839694656,-1.3282442748091603
5199878677858,8.334867861,1,0.2166752502441406,1.7549498168945312,-11.201272467041015,-0.816793893129771,0.6030534351145038,-1.297709923664122
5199898670514,8.354860517,1,0.21308394775390624,1.7298106994628906,-11.194089862060546,-0.816793893129771,0.5572519083969466,-1.3053435114503817
5199918670150,8.374860153,1,0.22505495605468748,1.7357962036132812,-11.183315954589844,-0.8549618320610687,0.6030534351145038,-1.3358778625954197
5199938672285,8.394862288,1,0.2645592834472656,1.7549498168945312,-11.204863769531249,-0.8473282442748091,0.5725190839694656,-1.3053435114503817
5199958671660,8.414861663,1,0.17238251953125,1.7369933044433592,-11.203666668701171,-0.8320610687022901,0.549618320610687,-1.366412213740458
5199978671712,8.434861715,1,0.19871873779296872,1.7573440185546874,-11.156979736328124,-0.8091603053435115,0.5725190839694656,-1.3206106870229009
5199998671764,8.454861767,1,0.24899697265624998,1.6903063720703124,-11.203666668701171,-0.8549618320610687,0.5267175572519084,-1.2671755725190839
5200018738691,8.474928694,1,0.22385785522460935,1.8052280517578123,-11.139023223876952,-0.8015267175572519,0.5801526717557252,-1.2900763358778626
5200038682546,8.494872549,1,0.20949264526367187,1.7489643127441405,-11.152191333007812,-0.8320610687022901,0.5801526717557252,-1.3511450381679388
5200058674368,8.514864371,1,0.21068974609375,1.763329522705078,-11.109095703125,-0.8244274809160306,0.5725190839694656,-1.3282442748091603
5200078672806,8.534862809,1,0.2549824768066406,1.7310078002929687,-11.182118853759764,-0.8091603053435115,0.5267175572519084,-1.2748091603053435
5200098670931,8.554860934,1,0.24061726684570311,1.7381904052734374,-11.150994232177734,-0.8015267175572519,0.6030534351145038,-1.3206106870229009
5200118669993,8.574859996,1,0.27174188842773433,1.7693150268554687,-11.243170996093749,-0.8396946564885496,0.5954198473282443,-1.3435114503816794
5200138670358,8.594860361,1,0.22266075439453123,1.7872715393066405,-11.179724652099608,-0.816793893129771,0.5114503816793893,-1.3053435114503817
5200158668483,8.614858486,1,0.22385785522460935,1.7130512878417967,-11.235988391113281,-0.8320610687022901,0.5725190839694656,-1.3206106870229009
5200178673014,8.634863017,1,0.21188684692382811,1.7705121276855467,-11.234791290283203,-0.816793893129771,0.5572519083969466,-1.3206106870229009
5200198672962,8.654862965,1,0.23582886352539062,1.7190367919921874,-11.154585534667968,-0.7938931297709924,0.5572519083969466,-1.282442748091603
5200218667077,8.67485708,1,0.23822306518554687,1.6998831787109374,-11.180921752929686,-0.7938931297709924,0.5877862595419847,-1.3435114503816794
5200238670983,8.694860986,1,0.22864625854492185,1.7417817077636717,-11.18571015625,-0.8091603053435115,0.5877862595419847,-1.3206106870229009
5200258671660,8.714861663,1,0.21188684692382811,1.70467158203125,-11.204863769531249,-0.816793893129771,0.6030534351145038,-1.2900763358778626
5200278671556,8.734861559,1,0.24660277099609373,1.7130512878417967,-11.189301458740234,-0.7786259541984732,0.5877862595419847,-1.3053435114503817
5200298670566,8.754860569,1,0.2454056701660156,1.6986860778808592,-11.188104357910156,-0.7709923664122137,0.5801526717557252,-1.366412213740458
5200318669420,8.774859423,1,0.2753331909179687,1.7681179260253905,-11.24915650024414,-0.8091603053435115,0.5801526717557252,-1.297709923664122
5200338670983,8.794860986,1,0.2059013427734375,1.7381904052734374,-11.201272467041015,-0.816793893129771,0.549618320610687,-1.3129770992366412
5200358669368,8.814859371,1,0.1867477294921875,1.6915034729003906,-11.188104357910156,-0.8244274809160306,0.5343511450381679,-1.2900763358778626
5200378672389,8.834862392,1,0.26336218261718747,1.7681179260253905,-11.23718549194336,-0.8091603053435115,0.5648854961832062,-1.3129770992366412
5200398669941,8.854859944,1,0.239420166015625,1.7190367919921874,-11.173739147949219,-0.8091603053435115,0.5877862595419847,-1.282442748091603
5200418672129,8.874862132,1,0.19991583862304688,1.7286135986328124,-11.24915650024414,-0.8244274809160306,0.5725190839694656,-1.2900763358778626
5200438672910,8.894862913,1,0.23223756103515625,1.7034744812011717,-11.130643518066405,-0.8320610687022901,0.5877862595419847,-1.3511450381679388
5200458673066,8.914863069,1,0.21906945190429686,1.744175909423828,-11.23000288696289,-0.816793893129771,0.6335877862595419,-1.3435114503816794
5200478673691,8.934863694,1,0.2693476867675781,1.678335363769531,-11.23718549194336,-0.8244274809160306,0.5572519083969466,-1.3206106870229009
5200498672181,8.954862184,1,0.19871873779296872,1.7573440185546874,-11.161768139648437,-0.8091603053435115,0.5954198473282443,-1.3511450381679388
5200518671295,8.974861298,1,0.20709844360351562,1.7381904052734374,-11.240776794433593,-0.8625954198473282,0.5343511450381679,-1.3435114503816794
5200538671295,8.994861298,1,0.18555062866210936,1.7417817077636717,-11.246762298583985,-0.7938931297709924,0.5648854961832062,-1.3282442748091603
5200558673587,9.01486359,1,0.2501940734863281,1.7202338928222656,-11.17254204711914,-0.8091603053435115,0.5725190839694656,-1.3511450381679388
5200578672129,9.034862132,1,0.21068974609375,1.7226280944824217,-11.183315954589844,-0.7862595419847328,0.5648854961832062,-1.3282442748091603
5200598670202,9.054860205,1,0.21906945190429686,1.70467158203125,-11.170147845458983,-0.7938931297709924,0.6030534351145038,-1.3893129770992367
5200618670306,9.074860309,1,0.22744915771484372,1.705868682861328,-11.309011541748045,-0.8473282442748091,0.5648854961832062,-1.282442748091603
5200638669004,9.094859007,1,0.1867477294921875,1.7298106994628906,-11.168950744628905,-0.8320610687022901,0.5954198473282443,-1.2748091603053435
5200658670618,9.114860621,1,0.25139117431640623,1.7429788085937499,-11.213243475341796,-0.8473282442748091,0.5648854961832062,-1.3587786259541985
5200678709004,9.134899007,1,0.22744915771484372,1.714248388671875,-11.213243475341796,-0.8702290076335878,0.5877862595419847,-1.3358778625954197
5200698672493,9.154862496,1,0.22864625854492185,1.7322049011230467,-11.212046374511718,-0.7862595419847328,0.6106870229007634,-1.3129770992366412
5200718673327,9.17486333,1,0.20350714111328125,1.7405846069335937,-11.218031878662108,-0.816793893129771,0.5648854961832062,-1.3129770992366412
5200738671972,9.194861975,1,0.21188684692382811,1.7705121276855467,-11.13423482055664,-0.8015267175572519,0.5801526717557252,-1.3435114503816794
5200758671452,9.214861455,1,0.239420166015625,1.7609353210449217,-11.188104357910156,-0.8015267175572519,0.5725190839694656,-1.297709923664122
5200778724472,9.234914475,1,0.2214636535644531,1.687912170410156,-11.239579693603515,-0.7862595419847328,0.5419847328244275,-1.3206106870229009
5200798672233,9.254862236,1,0.26216508178710934,1.696291876220703,-11.215637677001952,-0.8396946564885496,0.5572519083969466,-1.366412213740458
5200818670566,9.274860569,1,0.24779987182617186,1.7310078002929687,-11.171344946289063,-0.7938931297709924,0.549618320610687,-1.3206106870229009
5200838670983,9.294860986,1,0.2262520568847656,1.725022296142578,-11.141417425537108,-0.8015267175572519,0.5419847328244275,-1.3206106870229009
5200858670774,9.314860777,1,0.26815058593749996,1.7393875061035156,-11.128249316406249,-0.816793893129771,0.549618320610687,-1.3358778625954197
5200878670306,9.334860309,1,0.2645592834472656,1.7094599853515624,-11.129446417236327,-0.7862595419847328,0.5648854961832062,-1.3282442748091603
5200898671399,9.354861402,1,0.21906945190429686,1.7417817077636717,-11.150994232177734,-0.8091603053435115,0.5877862595419847,-1.3129770992366412
5200918670045,9.374860048,1,0.20949264526367187,1.7597382202148437,-11.186907257080078,-0.8396946564885496,0.5954198473282443,-1.3206106870229009
5200938670097,9.3948601,1,0.23104046020507812,1.7322049011230467,-11.161768139648437,-0.8320610687022901,0.5648854961832062,-1.3129770992366412
5200958668274,9.414858277,1,0.25737667846679685,1.7513585144042967,-11.208455072021483,-0.8015267175572519,0.5648854961832062,-1.3129770992366412
5200978671399,9.434861402,1,0.1975216369628906,1.7621324218749999,-11.170147845458983,-0.816793893129771,0.5572519083969466,-1.297709923664122
5200998671764,9.454861767,1,0.239420166015625,1.7094599853515624,-11.226411584472656,-0.8549618320610687,0.5725190839694656,-1.381679389312977
5201018671920,9.474861923,1,0.18555062866210936,1.7513585144042967,-11.212046374511718,-0.8091603053435115,0.5343511450381679,-1.3282442748091603
5201038670931,9.494860934,1,0.24779987182617186,1.715445489501953,-11.206060870361327,-0.8091603053435115,0.5725190839694656,-1.3511450381679388
5201058671191,9.514861194,1,0.2262520568847656,1.7585411193847655,-11.18571015625,-0.8091603053435115,0.549618320610687,-1.3053435114503817
5201078670201,9.534860204,1,0.18555062866210936,1.7417817077636717,-11.125855114746093,-0.8320610687022901,0.549618320610687,-1.282442748091603
5201098672753,9.554862756,1,0.23702596435546874,1.7393875061035156,-11.194089862060546,-0.8015267175572519,0.5572519083969466,-1.3358778625954197
5201118669837,9.57485984,1,0.1867477294921875,1.7166425903320313,-11.124658013916015,-0.8625954198473282,0.6335877862595419,-1.3358778625954197
5201138670826,9.594860829,1,0.21787235107421873,1.715445489501953,-11.167753643798827,-0.8320610687022901,0.5801526717557252,-1.3053435114503817
5201158669316,9.614859319,1,0.19393033447265623,1.7130512878417967,-11.119869610595703,-0.7938931297709924,0.5725190839694656,-1.2748091603053435
5201178672285,9.634862288,1,0.2442085693359375,1.7357962036132812,-11.184513055419922,-0.8473282442748091,0.5725190839694656,-1.3282442748091603
5201198670253,9.654860256,1,0.20709844360351562,1.7477672119140624,-11.127052215576171,-0.7633587786259542,0.5343511450381679,-1.3358778625954197
5201218671191,9.674861194,1,0.20350714111328125,1.6651672546386718,-11.17852755126953,-0.8396946564885496,0.6183206106870229,-1.3511450381679388
5201238665670,9.694855673,1,0.22864625854492185,1.7286135986328124,-11.159373937988281,-0.7938931297709924,0.5267175572519084,-1.3206106870229009
5201258670462,9.714860465,1,0.24061726684570311,1.7429788085937499,-11.18571015625,-0.816793893129771,0.6335877862595419,-1.3511450381679388
5201278670045,9.734860048,1,0.25139117431640623,1.725022296142578,-11.123460913085937,-0.8473282442748091,0.5267175572519084,-1.3358778625954197
5201298672649,9.754862652,1,0.21787235107421873,1.7429788085937499,-11.203666668701171,-0.816793893129771,0.5419847328244275,-1.3358778625954197
5201318669628,9.774859631,1,0.24301146850585936,1.6986860778808592,-11.135431921386719,-0.8396946564885496,0.5954198473282443,-1.3358778625954197
5201338670358,9.794860361,1,0.2645592834472656,1.7501614135742187,-11.222820281982422,-0.8549618320610687,0.5343511450381679,-1.3435114503816794
5201358669785,9.814859788,1,0.24061726684570311,1.7513585144042967,-11.135431921386719,-0.7938931297709924,0.5343511450381679,-1.282442748091603
5201378669733,9.834859736,1,0.22266075439453123,1.6675614562988281,-11.156979736328124,-0.8015267175572519,0.5267175572519084,-1.3740458015267176
5201398669837,9.85485984,1,0.21428104858398436,1.7465701110839842,-11.190498559570312,-0.816793893129771,0.5419847328244275,-1.297709923664122
5201418670930,9.874860933,1,0.21906945190429686,1.7118541870117185,-11.222820281982422,-0.8244274809160306,0.549618320610687,-1.3129770992366412
5201438669576,9.894859579,1,0.2442085693359375,1.7310078002929687,-11.235988391113281,-0.8549618320610687,0.5954198473282443,-1.3206106870229009
5201458666972,9.914856975,1,0.2346317626953125,1.7022773803710936,-11.220426080322264,-0.7938931297709924,0.5267175572519084,-1.3206106870229009
5201478673378,9.934863381,1,0.18315642700195311,1.7465701110839842,-11.167753643798827,-0.8320610687022901,0.5801526717557252,-1.3893129770992367
5201498672232,9.954862235,1,0.19991583862304688,1.753752716064453,-11.155782635498046,-0.8396946564885496,0.6183206106870229,-1.3206106870229009
5201518670930,9.974860933,1,0.23582886352539062,1.715445489501953,-11.233594189453123,-0.8091603053435115,0.5190839694656488,-1.3358778625954197
5201538670878,9.994860881,1,0.24181436767578124,1.7405846069335937,-11.19169566040039,-0.8091603053435115,0.5572519083969466,-1.3282442748091603
5201558672076,10.014862079,1,0.22026655273437498,1.7334020019531249,-11.165359442138671,-0.8244274809160306,0.5648854961832062,-1.3511450381679388
5201578669420,10.034859423,1,0.19033903198242186,1.6986860778808592,-11.228805786132812,-0.8091603053435115,0.5801526717557252,-1.3282442748091603
5201598670357,10.05486036,1,0.26216508178710934,1.7130512878417967,-11.197681164550781,-0.7938931297709924,0.5572519083969466,-1.3511450381679388
5201618670357,10.07486036,1,0.22744915771484372,1.7621324218749999,-11.197681164550781,-0.8778625954198473,0.5648854961832062,-1.297709923664122
5201638678118,10.094868121,1,0.2262520568847656,1.7465701110839842,-11.182118853759764,-0.8244274809160306,0.5648854961832062,-1.3282442748091603
5201658671659,10.114861662,1,0.20231004028320312,1.6938976745605467,-11.197681164550781,-0.8549618320610687,0.5801526717557252,-1.3206106870229009
5201678670566,10.134860569,1,0.22026655273437498,1.7980454467773437,-11.192892761230468,-0.816793893129771,0.6106870229007634,-1.3435114503816794
5201698712128,10.154902131,1,0.24181436767578124,1.7034744812011717,-11.183315954589844,-0.8244274809160306,0.5648854961832062,-1.3435114503816794
5201718673534,10.174863537,1,0.2059013427734375,1.7597382202148437,-11.202469567871093,-0.7786259541984732,0.5801526717557252,-1.3053435114503817
5201738671868,10.194861871,1,0.19632453613281248,1.734599102783203,-11.219228979492186,-0.7404580152671756,0.5648854961832062,-1.297709923664122
5201758669159,10.214859162,1,0.21428104858398436,1.6735469604492186,-11.17254204711914,-0.8015267175572519,0.5877862595419847,-1.2595419847328244
5201778670618,10.234860621,1,0.239420166015625,1.7082628845214842,-11.167753643798827,-0.8091603053435115,0.6335877862595419,-1.3282442748091603
5201798707701,10.254897704,1,0.2214636535644531,1.7214309936523438,-11.190498559570312,-0.816793893129771,0.5190839694656488,-1.2671755725190839
5201818673274,10.274863277,1,0.2346317626953125,1.7393875061035156,-11.1474029296875,-0.816793893129771,0.5801526717557252,-1.3206106870229009
5201838671087,10.29486109,1,0.22026655273437498,1.7226280944824217,-11.197681164550781,-0.8473282442748091,0.5877862595419847,-1.3129770992366412
5201858670201,10.314860204,1,0.24899697265624998,1.7274164978027342,-11.156979736328124,-0.8244274809160306,0.5648854961832062,-1.3358778625954197
5201878670982,10.334860985,1,0.21308394775390624,1.7489643127441405,-11.148600030517578,-0.816793893129771,0.5343511450381679,-1.3511450381679388
5201898674993,10.354864996,1,0.24779987182617186,1.7381904052734374,-11.150994232177734,-0.8091603053435115,0.5343511450381679,-1.3435114503816794
5201918673743,10.374863746,1,0.2154781494140625,1.7429788085937499,-11.124658013916015,-0.7938931297709924,0.6106870229007634,-1.3206106870229009
5201938671243,10.394861246,1,0.25737667846679685,1.7334020019531249,-11.219228979492186,-0.8091603053435115,0.5267175572519084,-1.3206106870229009
5201958672701,10.414862704,1,0.19632453613281248,1.707065783691406,-11.212046374511718,-0.816793893129771,0.5648854961832062,-1.366412213740458
5201978672128,10.434862131,1,0.2454056701660156,1.7585411193847655,-11.170147845458983,-0.7709923664122137,0.5954198473282443,-1.2900763358778626
5201998671399,10.454861402,1,0.23223756103515625,1.7489643127441405,-11.188104357910156,-0.8396946564885496,0.5877862595419847,-1.2900763358778626
5202018670566,10.474860569,1,0.18914193115234373,1.7477672119140624,-11.19169566040039,-0.8702290076335878,0.5190839694656488,-1.3053435114503817
5202038673274,10.494863277,1,0.2214636535644531,1.7322049011230467,-11.14022032470703,-0.8320610687022901,0.6183206106870229,-1.3358778625954197
5202058671399,10.514861402,1,0.20470424194335937,1.7214309936523438,-11.136629022216797,-0.8396946564885496,0.5343511450381679,-1.297709923664122
5202078669420,10.534859423,1,0.23702596435546874,1.7788918334960937,-11.173739147949219,-0.7862595419847328,0.6106870229007634,-1.2748091603053435
5202098670930,10.554860933,1,0.23343466186523437,1.7465701110839842,-11.184513055419922,-0.8091603053435115,0.5419847328244275,-1.366412213740458
5202118671347,10.57486135,1,0.239420166015625,1.7561469177246092,-11.194089862060546,-0.8244274809160306,0.5801526717557252,-1.3587786259541985
5202138671659,10.594861662,1,0.2549824768066406,1.7776947326660155,-11.23000288696289,-0.8244274809160306,0.6030534351145038,-1.3129770992366412
5202158670201,10.614860204,1,0.17477672119140625,1.687912170410156,-11.0707884765625,-0.8015267175572519,0.5725190839694656,-1.3206106870229009
5202178671659,10.634861662,1,0.23582886352539062,1.7178396911621092,-11.162965240478515,-0.7862595419847328,0.5801526717557252,-1.366412213740458
5202198669628,10.654859631,1,0.15203180541992187,1.7322049011230467,-11.142614526367186,-0.7786259541984732,0.5801526717557252,-1.282442748091603
5202218672232,10.674862235,1,0.2657563842773437,1.7010802795410156,-11.182118853759764,-0.816793893129771,0.5725190839694656,-1.3435114503816794
5202238666868,10.694856871,1,0.23104046020507812,1.7585411193847655,-11.145008728027342,-0.8549618320610687,0.6335877862595419,-1.3129770992366412
5202258671816,10.714861819,1,0.24779987182617186,1.7166425903320313,-11.214440576171874,-0.7938931297709924,0.5954198473282443,-1.3740458015267176
5202278669524,10.734859527,1,0.27892449340820313,1.7513585144042967,-11.215637677001952,-0.7709923664122137,0.5954198473282443,-1.3282442748091603
5202298671868,10.754861871,1,0.2166752502441406,1.7501614135742187,-11.168950744628905,-0.8549618320610687,0.5267175572519084,-1.3129770992366412
5202318669888,10.774859891,1,0.22505495605468748,1.7226280944824217,-11.137826123046874,-0.7786259541984732,0.6030534351145038,-1.3282442748091603
5202338670149,10.794860152,1,0.2166752502441406,1.7214309936523438,-11.154585534667968,-0.7862595419847328,0.6259541984732825,-1.3893129770992367
5202358669159,10.814859162,1,0.16639701538085935,1.7705121276855467,-11.244368096923827,-0.8320610687022901,0.6106870229007634,-1.3053435114503817
5202378671659,10.834861662,1,0.24061726684570311,1.725022296142578,-11.189301458740234,-0.8015267175572519,0.5267175572519084,-1.3511450381679388
5202398668534,10.854858537,1,0.19991583862304688,1.7274164978027342,-11.194089862060546,-0.7557251908396947,0.5725190839694656,-1.3587786259541985
5202418671399,10.874861402,1,0.24061726684570311,1.7226280944824217,-11.152191333007812,-0.8320610687022901,0.5725190839694656,-1.3511450381679388
5202438670618,10.894860621,1,0.26216508178710934,1.7381904052734374,-11.176133349609374,-0.7862595419847328,0.5725190839694656,-1.3129770992366412
5202458672284,10.914862287,1,0.23702596435546874,1.7549498168945312,-11.18571015625,-0.8015267175572519,0.549618320610687,-1.2595419847328244
5202478673378,10.934863381,1,0.23223756103515625,1.725022296142578,-11.156979736328124,-0.7938931297709924,0.549618320610687,-1.3282442748091603
5202498671399,10.954861402,1,0.2705447875976562,1.7549498168945312,-11.183315954589844,-0.8320610687022901,0.5343511450381679,-1.3129770992366412
5202518672232,10.974862235,1,0.2214636535644531,1.7286135986328124,-11.215637677001952,-0.8320610687022901,0.5801526717557252,-1.3206106870229009
5202538669107,10.99485911,1,0.25258827514648435,1.7226280944824217,-11.17254204711914,-0.816793893129771,0.5801526717557252,-1.3511450381679388
5202558668847,11.01485885,1,0.25737667846679685,1.7214309936523438,-11.168950744628905,-0.8473282442748091,0.5877862595419847,-1.3129770992366412
5202578671347,11.03486135,1,0.2059013427734375,1.7226280944824217,-11.129446417236327,-0.8549618320610687,0.5343511450381679,-1.3282442748091603
5202598669055,11.054859058,1,0.23702596435546874,1.6915034729003906,-11.192892761230468,-0.7786259541984732,0.5801526717557252,-1.3435114503816794
5202618672076,11.074862079,1,0.25258827514648435,1.7082628845214842,-11.11508120727539,-0.8015267175572519,0.5801526717557252,-1.3358778625954197
5202638671607,11.09486161,1,0.2693476867675781,1.7010802795410156,-11.218031878662108,-0.8015267175572519,0.5801526717557252,-1.297709923664122
5202658670930,11.114860933,1,0.21308394775390624,1.68551796875,-11.18571015625,-0.7633587786259542,0.5954198473282443,-1.3129770992366412
5202678672076,11.134862079,1,0.2442085693359375,1.7357962036132812,-11.129446417236327,-0.816793893129771,0.5725190839694656,-1.3435114503816794
5202698666972,11.154856975,1,0.1640028137207031,1.7190367919921874,-11.109095703125,-0.8015267175572519,0.5725190839694656,-1.3587786259541985
5202718672597,11.1748626,1,0.23582886352539062,1.7381904052734374,-11.14022032470703,-0.8244274809160306,0.5343511450381679,-1.3282442748091603
5202738670930,11.194860933,1,0.24181436767578124,1.705868682861328,-11.195286962890624,-0.7633587786259542,0.6030534351145038,-1.3893129770992367
5202758691503,11.214881506,1,0.21428104858398436,1.714248388671875,-11.152191333007812,-0.816793893129771,0.5343511450381679,-1.3358778625954197
5202778674003,11.234864006,1,0.19512743530273435,1.6831237670898436,-11.291055029296874,-0.8396946564885496,0.5801526717557252,-1.3358778625954197
5202798673534,11.254863537,1,0.1879448303222656,1.7010802795410156,-11.182118853759764,-0.7938931297709924,0.5725190839694656,-1.3511450381679388
5202818716972,11.274906975,1,0.19393033447265623,1.7561469177246092,-11.14022032470703,-0.8015267175572519,0.5648854961832062,-1.3435114503816794
5202838672128,11.294862131,1,0.21428104858398436,1.7513585144042967,-11.171344946289063,-0.8549618320610687,0.5954198473282443,-1.3129770992366412
5202858671659,11.314861662,1,0.26815058593749996,1.7812860351562498,-11.11508120727539,-0.8091603053435115,0.5267175572519084,-1.3129770992366412
5202878670149,11.334860152,1,0.181959326171875,1.7322049011230467,-11.204863769531249,-0.816793893129771,0.5725190839694656,-1.3129770992366412
5202898670826,11.354860829,1,0.2705447875976562,1.7262193969726563,-11.197681164550781,-0.8396946564885496,0.5877862595419847,-1.3358778625954197
5202918707597,11.3748976,1,0.24181436767578124,1.7597382202148437,-11.184513055419922,-0.8396946564885496,0.5801526717557252,-1.3282442748091603
5202938672805,11.394862808,1,0.23104046020507812,1.7405846069335937,-11.190498559570312,-0.8473282442748091,0.549618320610687,-1.3053435114503817
5202958672076,11.414862079,1,0.23104046020507812,1.7381904052734374,-11.239579693603515,-0.816793893129771,0.6106870229007634,-1.3129770992366412
5202978669992,11.434859995,1,0.22026655273437498,1.7334020019531249,-11.196484063720703,-0.8244274809160306,0.5572519083969466,-1.3282442748091603
5202998671034,11.454861037,1,0.2753331909179687,1.7585411193847655,-11.232397088623046,-0.7938931297709924,0.5648854961832062,-1.3358778625954197
5203018706086,11.474896089,1,0.21308394775390624,1.7357962036132812,-11.174936248779296,-0.816793893129771,0.5343511450381679,-1.2900763358778626
5203038673742,11.494863745,1,0.27174188842773433,1.7274164978027342,-11.158176837158203,-0.8473282442748091,0.5572519083969466,-1.3435114503816794
5203058671138,11.514861141,1,0.2059013427734375,1.7214309936523438,-11.149797131347656,-0.8625954198473282,0.5648854961832062,-1.3206106870229009
5203078671086,11.534861089,1,0.1771709228515625,1.7130512878417967,-11.1474029296875,-0.8015267175572519,0.5343511450381679,-1.3282442748091603
5203098670096,11.554860099,1,0.2154781494140625,1.7214309936523438,-11.209652172851563,-0.8244274809160306,0.5801526717557252,-1.297709923664122
5203118670461,11.574860464,1,0.21428104858398436,1.7214309936523438,-11.202469567871093,-0.7709923664122137,0.5877862595419847,-1.3206106870229009
5203138672805,11.594862808,1,0.21787235107421873,1.7022773803710936,-11.167753643798827,-0.816793893129771,0.5343511450381679,-1.3435114503816794
5203158671346,11.614861349,1,0.201112939453125,1.7381904052734374,-11.156979736328124,-0.8320610687022901,0.6259541984732825,-1.3358778625954197
5203178669992,11.634859995,1,0.23223756103515625,1.7501614135742187,-11.135431921386719,-0.8625954198473282,0.5267175572519084,-1.2900763358778626
5203198672023,11.654862026,1,0.24061726684570311,1.7286135986328124,-11.136629022216797,-0.7938931297709924,0.5190839694656488,-1.3282442748091603
5203218670409,11.674860412,1,0.27892449340820313,1.7357962036132812,-11.130643518066405,-0.8320610687022901,0.5572519083969466,-1.3129770992366412
5203238673169,11.694863172,1,0.21787235107421873,1.7393875061035156,-11.218031878662108,-0.8244274809160306,0.5954198473282443,-1.3206106870229009
5203258670565,11.714860568,1,0.22266075439453123,1.7130512878417967,-11.220426080322264,-0.8473282442748091,0.5419847328244275,-1.2900763358778626
5203278671451,11.734861454,1,0.2537853759765625,1.7573440185546874,-11.161768139648437,-0.816793893129771,0.549618320610687,-1.3740458015267176
5203298669576,11.754859579,1,0.19153613281249998,1.7166425903320313,-11.165359442138671,-0.8091603053435115,0.6030534351145038,-1.3435114503816794
5203318670565,11.774860568,1,0.2214636535644531,1.715445489501953,-11.19887826538086,-0.7709923664122137,0.5725190839694656,-1.3435114503816794
5203338669992,11.794859995,1,0.23822306518554687,1.7274164978027342,-11.208455072021483,-0.8396946564885496,0.5267175572519084,-1.3587786259541985
5203358670930,11.814860933,1,0.24660277099609373,1.7262193969726563,-11.173739147949219,-0.816793893129771,0.5801526717557252,-1.3435114503816794
5203378670044,11.834860047,1,0.22026655273437498,1.714248388671875,-11.183315954589844,-0.7786259541984732,0.6106870229007634,-1.3282442748091603
5203398671242,11.854861245,1,0.17836802368164062,1.7513585144042967,-11.207257971191405,-0.8473282442748091,0.5725190839694656,-1.3435114503816794
5203418669628,11.874859631,1,0.22385785522460935,1.7549498168945312,-11.214440576171874,-0.8320610687022901,0.5954198473282443,-1.3282442748091603
5203438671346,11.894861349,1,0.2346317626953125,1.7357962036132812,-11.220426080322264,-0.816793893129771,0.5648854961832062,-1.3129770992366412
5203458671346,11.914861349,1,0.22864625854492185,1.7322049011230467,-11.184513055419922,-0.8091603053435115,0.5954198473282443,-1.2900763358778626
5203478671711,11.934861714,1,0.19632453613281248,1.687912170410156,-11.09592759399414,-0.8244274809160306,0.5648854961832062,-1.3129770992366412
5203498671711,11.954861714,1,0.25139117431640623,1.7477672119140624,-11.143811627197264,-0.7786259541984732,0.5801526717557252,-1.3053435114503817
5203518668273,11.974858276,1,0.23223756103515625,1.7238251953125,-11.262324609375,-0.8015267175572519,0.5725190839694656,-1.3511450381679388
5203538671086,11.994861089,1,0.24660277099609373,1.714248388671875,-11.148600030517578,-0.8015267175572519,0.5725190839694656,-1.297709923664122
5203558671034,12.014861037,1,0.2166752502441406,1.7286135986328124,-11.221623181152344,-0.8244274809160306,0.5725190839694656,-1.3053435114503817
5203578671346,12.034861349,1,0.277727392578125,1.7621324218749999,-11.219228979492186,-0.7709923664122137,0.6030534351145038,-1.3282442748091603
5203598671346,12.054861349,1,0.2262520568847656,1.7477672119140624,-11.16057103881836,-0.8015267175572519,0.5648854961832062,-1.3282442748091603
5203618669159,12.074859162,1,0.20949264526367187,1.7393875061035156,-11.18571015625,-0.8244274809160306,0.5954198473282443,-1.3435114503816794
5203638681346,12.094871349,1,0.2645592834472656,1.7286135986328124,-11.152191333007812,-0.8320610687022901,0.6335877862595419,-1.3282442748091603
5203658674002,12.114864005,1,0.2609679809570312,1.7130512878417967,-11.212046374511718,-0.8396946564885496,0.5725190839694656,-1.2900763358778626
5203678671502,12.134861505,1,0.2154781494140625,1.7369933044433592,-11.19887826538086,-0.8015267175572519,0.5877862595419847,-1.3358778625954197
5203698671815,12.154861818,1,0.23582886352539062,1.7561469177246092,-11.164162341308593,-0.7862595419847328,0.6030534351145038,-1.3053435114503817
5203718671763,12.174861766,1,0.23702596435546874,1.7585411193847655,-11.195286962890624,-0.8015267175572519,0.6259541984732825,-1.3435114503816794
5203738672127,12.19486213,1,0.1771709228515625,1.7118541870117185,-11.145008728027342,-0.8320610687022901,0.5877862595419847,-1.3053435114503817
5203758671607,12.21486161,1,0.1975216369628906,1.7226280944824217,-11.319785449218749,-0.7938931297709924,0.5801526717557252,-1.3053435114503817
5203778671555,12.234861558,1,0.23223756103515625,1.7525556152343749,-11.240776794433593,-0.8015267175572519,0.5343511450381679,-1.2595419847328244
5203798671294,12.254861297,1,0.25258827514648435,1.7513585144042967,-11.207257971191405,-0.8015267175572519,0.5725190839694656,-1.3053435114503817
5203818670982,12.274860985,1,0.22026655273437498,1.7357962036132812,-11.159373937988281,-0.7862595419847328,0.5725190839694656,-1.3282442748091603
5203838671502,12.294861505,1,0.22026655273437498,1.714248388671875,-11.219228979492186,-0.8015267175572519,0.6106870229007634,-1.3435114503816794
5203858672961,12.314862964,1,0.1879448303222656,1.7118541870117185,-11.17852755126953,-0.8549618320610687,0.5801526717557252,-1.3129770992366412
5203878669940,12.334859943,1,0.2537853759765625,1.7238251953125,-11.135431921386719,-0.8244274809160306,0.5877862595419847,-1.3129770992366412
5203898669627,12.35485963,1,0.26695348510742184,1.7262193969726563,-11.243170996093749,-0.8473282442748091,0.5419847328244275,-1.2748091603053435
5203918671034,12.374861037,1,0.2214636535644531,1.7357962036132812,-11.162965240478515,-0.8244274809160306,0.5801526717557252,-1.366412213740458
5203938668638,12.394858641,1,0.26815058593749996,1.697488977050781,-11.196484063720703,-0.8244274809160306,0.5419847328244275,-1.3053435114503817
5203958671086,12.414861089,1,0.24660277099609373,1.705868682861328,-11.168950744628905,-0.8015267175572519,0.5572519083969466,-1.3206106870229009
5203978670513,12.434860516,1,0.19393033447265623,1.725022296142578,-11.221623181152344,-0.8473282442748091,0.6106870229007634,-1.2900763358778626
5203998670929,12.454860932,1,0.2454056701660156,1.7178396911621092,-11.189301458740234,-0.8320610687022901,0.5038167938931297,-1.3511450381679388
5204018669471,12.474859474,1,0.23582886352539062,1.7381904052734374,-11.15338843383789,-0.7786259541984732,0.5648854961832062,-1.3129770992366412
5204038714836,12.494904839,1,0.23104046020507812,1.753752716064453,-11.182118853759764,-0.8015267175572519,0.5648854961832062,-1.3129770992366412
5204058672388,12.514862391,1,0.23223756103515625,1.7705121276855467,-11.233594189453123,-0.8320610687022901,0.549618320610687,-1.297709923664122
5204078671659,12.534861662,1,0.16998831787109375,1.7214309936523438,-11.233594189453123,-0.8091603053435115,0.5648854961832062,-1.3740458015267176
5204098670148,12.554860151,1,0.2262520568847656,1.7477672119140624,-11.222820281982422,-0.8396946564885496,0.5419847328244275,-1.3435114503816794
5204118671138,12.574861141,1,0.2645592834472656,1.7465701110839842,-11.161768139648437,-0.7786259541984732,0.5801526717557252,-1.3206106870229009
5204138669940,12.594859943,1,0.17597382202148437,1.7298106994628906,-11.166556542968749,-0.8473282442748091,0.6030534351145038,-1.3282442748091603
5204158673481,12.614863484,1,0.24301146850585936,1.7010802795410156,-11.13423482055664,-0.816793893129771,0.5343511450381679,-1.3358778625954197
5204178670409,12.634860412,1,0.23702596435546874,1.7453730102539062,-11.106701501464842,-0.8091603053435115,0.549618320610687,-1.3282442748091603
5204198672179,12.654862182,1,0.239420166015625,1.7549498168945312,-11.190498559570312,-0.7938931297709924,0.6030534351145038,-1.3587786259541985
5204218671190,12.674861193,1,0.22505495605468748,1.715445489501953,-11.179724652099608,-0.8091603053435115,0.5877862595419847,-1.3129770992366412
5204238670617,12.69486062,1,0.22744915771484372,1.7489643127441405,-11.192892761230468,-0.7938931297709924,0.5419847328244275,-1.3129770992366412
5204258670929,12.714860932,1,0.21068974609375,1.7238251953125,-11.228805786132812,-0.7938931297709924,0.6030534351145038,-1.3206106870229009
5204278671606,12.734861609,1,0.22744915771484372,1.7298106994628906,-11.245565197753905,-0.7938931297709924,0.5801526717557252,-1.3511450381679388
5204298671138,12.754861141,1,0.23822306518554687,1.7501614135742187,-11.161768139648437,-0.8396946564885496,0.5954198473282443,-1.366412213740458
5204318670773,12.774860776,1,0.2166752502441406,1.6986860778808592,-11.200075366210937,-0.816793893129771,0.549618320610687,-1.3511450381679388
5204338669888,12.794859891,1,0.22505495605468748,1.7453730102539062,-11.182118853759764,-0.8244274809160306,0.5725190839694656,-1.3129770992366412
5204358672179,12.814862182,1,0.16160861206054686,1.7645266235351562,-11.208455072021483,-0.8244274809160306,0.6183206106870229,-1.3435114503816794
5204378667179,12.834857182,1,0.26216508178710934,1.7477672119140624,-11.2240173828125,-0.8320610687022901,0.5877862595419847,-1.3129770992366412
5204398724002,12.854914005,1,0.22744915771484372,1.7513585144042967,-11.215637677001952,-0.8015267175572519,0.5877862595419847,-1.3282442748091603
5204418678794,12.874868797,1,0.26336218261718747,1.7262193969726563,-11.112687005615234,-0.7633587786259542,0.549618320610687,-1.3282442748091603
5204438674731,12.894864734,1,0.2980781066894531,1.7106570861816406,-11.25514200439453,-0.8091603053435115,0.5801526717557252,-1.297709923664122
5204458692908,12.914882911,1,0.18076222534179687,1.7322049011230467,-11.155782635498046,-0.8702290076335878,0.5648854961832062,-1.3282442748091603
5204478674783,12.934864786,1,0.2454056701660156,1.7393875061035156,-11.251550701904296,-0.7633587786259542,0.5648854961832062,-1.3129770992366412
5204498674888,12.954864891,1,0.22026655273437498,1.7405846069335937,-11.2240173828125,-0.816793893129771,0.5877862595419847,-1.3282442748091603
5204518674210,12.974864213,1,0.21188684692382811,1.7465701110839842,-11.201272467041015,-0.7786259541984732,0.5114503816793893,-1.3129770992366412
5204538673690,12.994863693,1,0.22385785522460935,1.7226280944824217,-11.192892761230468,-0.8702290076335878,0.5725190839694656,-1.3358778625954197
5204558675617,13.01486562,1,0.20829554443359374,1.7525556152343749,-11.136629022216797,-0.8702290076335878,0.5267175572519084,-1.3282442748091603
5204578673846,13.034863849,1,0.21308394775390624,1.686715069580078,-11.206060870361327,-0.8091603053435115,0.5648854961832062,-1.3053435114503817
5204598673950,13.054863953,1,0.21428104858398436,1.7226280944824217,-11.214440576171874,-0.816793893129771,0.6106870229007634,-1.3358778625954197
5204618673325,13.074863328,1,0.23343466186523437,1.744175909423828,-11.194089862060546,-0.7862595419847328,0.5572519083969466,-1.3206106870229009
5204638673013,13.094863016,1,0.25139117431640623,1.7082628845214842,-11.173739147949219,-0.8625954198473282,0.5648854961832062,-1.3358778625954197
5204658672596,13.114862599,1,0.23343466186523437,1.697488977050781,-11.247959399414063,-0.7938931297709924,0.5801526717557252,-1.3511450381679388
5204678673481,13.134863484,1,0.201112939453125,1.7034744812011717,-11.164162341308593,-0.8244274809160306,0.5877862595419847,-1.2900763358778626
5204698672960,13.154862963,1,0.23104046020507812,1.7597382202148437,-11.196484063720703,-0.8320610687022901,0.5267175572519084,-1.2900763358778626
5204718673585,13.174863588,1,0.22385785522460935,1.7405846069335937,-11.16057103881836,-0.7786259541984732,0.549618320610687,-1.3587786259541985
5204738673065,13.194863068,1,0.2609679809570312,1.7238251953125,-11.227608685302734,-0.816793893129771,0.5954198473282443,-1.3206106870229009
5204758685825,13.214875828,1,0.2154781494140625,1.7657237243652342,-11.227608685302734,-0.8396946564885496,0.5954198473282443,-1.3129770992366412
5204778674992,13.234864995,1,0.27174188842773433,1.714248388671875,-11.184513055419922,-0.816793893129771,0.5267175572519084,-1.2748091603053435
5204798668481,13.254858484,1,0.20231004028320312,1.7872715393066405,-11.166556542968749,-0.7862595419847328,0.6183206106870229,-1.366412213740458
5204818673012,13.274863015,1,0.2154781494140625,1.7286135986328124,-11.170147845458983,-0.8473282442748091,0.5572519083969466,-1.3206106870229009
5204838671762,13.294861765,1,0.18555062866210936,1.7357962036132812,-11.119869610595703,-0.8549618320610687,0.5190839694656488,-1.2671755725190839
5204858673481,13.314863484,1,0.28730419921875,1.7405846069335937,-11.203666668701171,-0.7938931297709924,0.5877862595419847,-1.3358778625954197
5204878672856,13.334862859,1,0.1640028137207031,1.7465701110839842,-11.231199987792968,-0.8320610687022901,0.5114503816793893,-1.3282442748091603
5204898672387,13.35486239,1,0.2501940734863281,1.7357962036132812,-11.220426080322264,-0.8473282442748091,0.5267175572519084,-1.2748091603053435
5204918673117,13.37486312,1,0.24779987182617186,1.696291876220703,-11.219228979492186,-0.8396946564885496,0.5648854961832062,-1.297709923664122
5204938669314,13.394859317,1,0.2262520568847656,1.7274164978027342,-11.194089862060546,-0.816793893129771,0.5725190839694656,-1.3587786259541985
5204958689158,13.414879161,1,0.27892449340820313,1.7238251953125,-11.133037719726563,-0.8015267175572519,0.5648854961832062,-1.2900763358778626
5204978673637,13.43486364,1,0.24899697265624998,1.7274164978027342,-11.203666668701171,-0.8473282442748091,0.5648854961832062,-1.3358778625954197
5204998672544,13.454862547,1,0.24779987182617186,1.772906329345703,-11.238382592773437,-0.8320610687022901,0.5954198473282443,-1.3435114503816794
5205018673273,13.474863276,1,0.20470424194335937,1.7310078002929687,-11.148600030517578,-0.8473282442748091,0.5648854961832062,-1.3129770992366412
5205038672492,13.494862495,1,0.22744915771484372,1.675941162109375,-11.195286962890624,-0.8778625954198473,0.5648854961832062,-1.3282442748091603
5205058669992,13.514859995,1,0.21188684692382811,1.725022296142578,-11.24915650024414,-0.7709923664122137,0.5190839694656488,-1.366412213740458
5205078673898,13.534863901,1,0.2059013427734375,1.7130512878417967,-11.208455072021483,-0.8473282442748091,0.5648854961832062,-1.3053435114503817
5205098672804,13.554862807,1,0.181959326171875,1.7166425903320313,-11.225214483642578,-0.8320610687022901,0.549618320610687,-1.3435114503816794
5205118673064,13.574863067,1,0.2154781494140625,1.7286135986328124,-11.231199987792968,-0.8320610687022901,0.6030534351145038,-1.3206106870229009
5205138672492,13.594862495,1,0.19393033447265623,1.7381904052734374,-11.215637677001952,-0.8244274809160306,0.5877862595419847,-1.3129770992366412
5205158673273,13.614863276,1,0.24899697265624998,1.753752716064453,-11.188104357910156,-0.816793893129771,0.6183206106870229,-1.3282442748091603
5205178669523,13.634859526,1,0.21906945190429686,1.697488977050781,-11.167753643798827,-0.7938931297709924,0.5648854961832062,-1.3206106870229009
5205198673689,13.654863692,1,0.2454056701660156,1.7322049011230467,-11.222820281982422,-0.7786259541984732,0.5343511450381679,-1.2748091603053435
5205218673846,13.674863849,1,0.24779987182617186,1.7190367919921874,-11.159373937988281,-0.8778625954198473,0.5801526717557252,-1.3511450381679388
5205238673012,13.694863015,1,0.23822306518554687,1.7693150268554687,-11.179724652099608,-0.8091603053435115,0.5572519083969466,-1.3435114503816794
5205258672752,13.714862755,1,0.26336218261718747,1.7202338928222656,-11.192892761230468,-0.8549618320610687,0.6030534351145038,-1.297709923664122
5205278673116,13.734863119,1,0.201112939453125,1.7405846069335937,-11.159373937988281,-0.8091603053435115,0.5801526717557252,-1.3053435114503817
5205298671971,13.754861974,1,0.21787235107421873,1.7238251953125,-11.165359442138671,-0.816793893129771,0.5572519083969466,-1.3129770992366412
5205318671294,13.774861297,1,0.22744915771484372,1.7010802795410156,-11.190498559570312,-0.7786259541984732,0.5801526717557252,-1.3282442748091603
5205338672335,13.794862338,1,0.2262520568847656,1.7657237243652342,-11.180921752929686,-0.8473282442748091,0.6030534351145038,-1.3358778625954197
5205358672335,13.814862338,1,0.2454056701660156,1.696291876220703,-11.168950744628905,-0.7938931297709924,0.6030534351145038,-1.3511450381679388
5205378672960,13.834862963,1,0.22864625854492185,1.7226280944824217,-11.213243475341796,-0.8015267175572519,0.5954198473282443,-1.3053435114503817
5205398673168,13.854863171,1,0.23702596435546874,1.734599102783203,-11.218031878662108,-0.816793893129771,0.5801526717557252,-1.3435114503816794
5205418673325,13.874863328,1,0.2549824768066406,1.695094775390625,-11.208455072021483,-0.8091603053435115,0.5190839694656488,-1.3358778625954197
5205438671762,13.894861765,1,0.20949264526367187,1.6998831787109374,-11.190498559570312,-0.7938931297709924,0.549618320610687,-1.3206106870229009
5205458672596,13.914862599,1,0.22505495605468748,1.705868682861328,-11.167753643798827,-0.8473282442748091,0.549618320610687,-1.3206106870229009
5205478674991,13.934864994,1,0.21188684692382811,1.7405846069335937,-11.086350787353515,-0.8244274809160306,0.6106870229007634,-1.3358778625954197
5205498673377,13.95486338,1,0.17357962036132812,1.725022296142578,-11.218031878662108,-0.7938931297709924,0.5419847328244275,-1.3129770992366412
5205518672491,13.974862494,1,0.22026655273437498,1.7465701110839842,-11.150994232177734,-0.816793893129771,0.5190839694656488,-1.3435114503816794
5205538672387,13.99486239,1,0.23822306518554687,1.6915034729003906,-11.130643518066405,-0.8549618320610687,0.5725190839694656,-1.2900763358778626
5205558674210,14.014864213,1,0.18315642700195311,1.7573440185546874,-11.176133349609374,-0.7633587786259542,0.5954198473282443,-1.3282442748091603
5205578671189,14.034861192,1,0.2645592834472656,1.70467158203125,-11.14022032470703,-0.8244274809160306,0.5572519083969466,-1.3129770992366412
5205598673898,14.054863901,1,0.21906945190429686,1.714248388671875,-11.192892761230468,-0.7938931297709924,0.5190839694656488,-1.3129770992366412
5205618674002,14.074864005,1,0.2705447875976562,1.7393875061035156,-11.201272467041015,-0.7938931297709924,0.5267175572519084,-1.3358778625954197
5205638681502,14.094871505,1,0.23223756103515625,1.7788918334960937,-11.243170996093749,-0.8015267175572519,0.5801526717557252,-1.3053435114503817
5205658673950,14.114863953,1,0.2059013427734375,1.7082628845214842,-11.197681164550781,-0.8625954198473282,0.5267175572519084,-1.282442748091603
5205678671710,14.134861713,1,0.2154781494140625,1.7381904052734374,-11.176133349609374,-0.8396946564885496,0.549618320610687,-1.3206106870229009
5205698673637,14.15486364,1,0.16639701538085935,1.6711527587890624,-11.123460913085937,-0.8473282442748091,0.6030534351145038,-1.3282442748091603
5205718672179,14.174862182,1,0.21068974609375,1.7513585144042967,-11.207257971191405,-0.8931297709923665,0.5648854961832062,-1.2900763358778626
5205738672127,14.19486213,1,0.21308394775390624,1.7645266235351562,-11.190498559570312,-0.8015267175572519,0.5419847328244275,-1.2900763358778626
5205758672804,14.214862807,1,0.24061726684570311,1.7477672119140624,-11.212046374511718,-0.7862595419847328,0.5648854961832062,-1.3282442748091603
5205778672960,14.234862963,1,0.24181436767578124,1.725022296142578,-11.33175645751953,-0.8396946564885496,0.5572519083969466,-1.2748091603053435
5205798673064,14.254863067,1,0.2154781494140625,1.705868682861328,-11.162965240478515,-0.7786259541984732,0.5801526717557252,-1.2900763358778626
5205818673533,14.274863536,1,0.21906945190429686,1.6998831787109374,-11.060014569091797,-0.8244274809160306,0.5114503816793893,-1.297709923664122
5205838674887,14.29486489,1,0.2537853759765625,1.7585411193847655,-11.201272467041015,-0.8015267175572519,0.5954198473282443,-1.3206106870229009
5205858671450,14.314861453,1,0.2166752502441406,1.725022296142578,-11.258733306884764,-0.8091603053435115,0.5648854961832062,-1.297709923664122
5205878672856,14.334862859,1,0.17238251953125,1.7262193969726563,-11.064802972412108,-0.816793893129771,0.5190839694656488,-1.3358778625954197
5205898673689,14.354863692,1,0.22026655273437498,1.6986860778808592,-11.312602844238281,-0.7938931297709924,0.5267175572519084,-1.3282442748091603
5205918672595,14.374862598,1,0.18435352783203124,1.7238251953125,-11.06360587158203,-0.816793893129771,0.6030534351145038,-1.3511450381679388
5205938673481,14.394863484,1,0.21068974609375,1.7010802795410156,-11.239579693603515,-0.816793893129771,0.5114503816793893,-1.3129770992366412
5205958673325,14.414863328,1,0.21308394775390624,1.70467158203125,-11.253944903564452,-0.8320610687022901,0.6259541984732825,-1.3358778625954197
5205978690356,14.434880359,1,0.24301146850585936,1.7226280944824217,-11.17254204711914,-0.8244274809160306,0.5267175572519084,-1.3206106870229009
5205998694366,14.454884369,1,0.21308394775390624,1.6938976745605467,-11.176133349609374,-0.8396946564885496,0.5419847328244275,-1.3206106870229009
5206018724783,14.474914786,1,0.30885201416015623,1.7226280944824217,-11.200075366210937,-0.8091603053435115,0.5877862595419847,-1.3129770992366412
5206038679991,14.494869994,1,0.20829554443359374,1.744175909423828,-11.213243475341796,-0.8244274809160306,0.5954198473282443,-1.3282442748091603
5206058675720,14.514865723,1,0.22385785522460935,1.7513585144042967,-11.13423482055664,-0.8091603053435115,0.5572519083969466,-1.3129770992366412
5206078669783,14.534859786,1,0.24061726684570311,1.7405846069335937,-11.196484063720703,-0.8244274809160306,0.5725190839694656,-1.3435114503816794
5206098675616,14.554865619,1,0.2214636535644531,1.705868682861328,-11.180921752929686,-0.8015267175572519,0.5877862595419847,-1.3206106870229009
5206118673533,14.574863536,1,0.2262520568847656,1.744175909423828,-11.180921752929686,-0.8320610687022901,0.5572519083969466,-1.3435114503816794
5206138673585,14.594863588,1,0.16879121704101563,1.668758557128906,-11.184513055419922,-0.8244274809160306,0.5648854961832062,-1.366412213740458
5206158672647,14.61486265,1,0.23822306518554687,1.734599102783203,-11.182118853759764,-0.8625954198473282,0.5648854961832062,-1.3206106870229009
5206178671814,14.634861817,1,0.23223756103515625,1.707065783691406,-11.183315954589844,-0.7862595419847328,0.5572519083969466,-1.3282442748091603
5206198674366,14.654864369,1,0.21308394775390624,1.7369933044433592,-11.1474029296875,-0.8091603053435115,0.5801526717557252,-1.297709923664122
5206218673689,14.674863692,1,0.24779987182617186,1.7513585144042967,-11.208455072021483,-0.8473282442748091,0.5343511450381679,-1.3053435114503817
5206238673689,14.694863692,1,0.2059013427734375,1.7214309936523438,-11.241973895263671,-0.8320610687022901,0.549618320610687,-1.2900763358778626
5206258673116,14.714863119,1,0.13168109130859373,1.7417817077636717,-11.208455072021483,-0.8015267175572519,0.5114503816793893,-1.3435114503816794
5206278674158,14.734864161,1,0.2501940734863281,1.7118541870117185,-11.208455072021483,-0.8778625954198473,0.5572519083969466,-1.3358778625954197
5206298674366,14.754864369,1,0.22026655273437498,1.7381904052734374,-11.146205828857422,-0.7938931297709924,0.5801526717557252,-1.3511450381679388
5206318673220,14.774863223,1,0.23702596435546874,1.7214309936523438,-11.164162341308593,-0.8396946564885496,0.5954198473282443,-1.3358778625954197
5206338672908,14.794862911,1,0.22385785522460935,1.7573440185546874,-11.227608685302734,-0.8473282442748091,0.6183206106870229,-1.282442748091603
5206358673637,14.81486364,1,0.2346317626953125,1.7166425903320313,-11.162965240478515,-0.8625954198473282,0.549618320610687,-1.282442748091603
5206378673845,14.834863848,1,0.24779987182617186,1.8339584716796873,-11.125855114746093,-0.8625954198473282,0.5877862595419847,-1.3358778625954197
5206398674887,14.85486489,1,0.2561795776367187,1.6831237670898436,-11.159373937988281,-0.8244274809160306,0.5725190839694656,-1.3206106870229009
5206418669262,14.874859265,1,0.21428104858398436,1.5789759948730469,-11.166556542968749,-0.8091603053435115,0.5954198473282443,-1.3129770992366412
5206438673376,14.894863379,1,0.23582886352539062,1.7453730102539062,-11.183315954589844,-0.8396946564885496,0.5954198473282443,-1.3129770992366412
5206458673637,14.91486364,1,0.2645592834472656,1.7369933044433592,-11.2240173828125,-0.8015267175572519,0.5877862595419847,-1.3740458015267176
5206478674314,14.934864317,1,0.2537853759765625,1.7262193969726563,-11.165359442138671,-0.8320610687022901,0.5801526717557252,-1.282442748091603
5206498674210,14.954864213,1,0.2597708801269531,1.7669208251953124,-11.097124694824219,-0.816793893129771,0.5877862595419847,-1.3511450381679388
5206518673064,14.974863067,1,0.2645592834472656,1.7010802795410156,-11.168950744628905,-0.8015267175572519,0.5954198473282443,-1.3129770992366412
5206538672699,14.994862702,1,0.2166752502441406,1.7405846069335937,-11.168950744628905,-0.8549618320610687,0.6259541984732825,-1.3282442748091603
5206558668897,15.0148589,1,0.2442085693359375,1.7334020019531249,-11.19887826538086,-0.7862595419847328,0.5801526717557252,-1.3358778625954197
5206578674522,15.034864525,1,0.2561795776367187,1.7357962036132812,-11.146205828857422,-0.8091603053435115,0.5343511450381679,-1.3435114503816794
5206598675303,15.054865306,1,0.2741360900878906,1.7274164978027342,-11.177330450439452,-0.816793893129771,0.5419847328244275,-1.3282442748091603
