timestamp_ns,t_s,sensor_id,ax,ay,az,gx,gy,gz
6273817889584,0.17403099,1,2.398990063476562,2.6970681701660153,4.544194750976562,12.977099236641221,1.1221374045801527,-10.34351145038168
6273827852396,0.183993802,1,2.2361843505859373,2.8036101440429686,4.535815045166015,-0.8778625954198473,-7.305343511450381,-4.679389312977099
6273837851563,0.193992969,1,2.602497204589844,2.579752288818359,4.199429711914062,-18.16030534351145,-16.625954198473284,3.7786259541984735
6273847848646,0.203990052,1,3.0909143432617188,2.6216508178710938,4.304774584960938,-20.671755725190838,-7.030534351145038,7.557251908396947
6273857845209,0.213986615,1,3.049015814208984,2.5234885498046875,3.7146038757324216,-15.877862595419847,-21.931297709923665,21.793893129770993
6273867843803,0.223985209,1,4.060566015625,2.1583727966308595,4.525041137695312,-18.48854961832061,11.229007633587786,24.66412213740458
6273877845469,0.233986875,1,4.6447512207031245,1.8842367065429686,5.626373901367187,-8.916030534351146,25.80916030534351,30.717557251908396
6273887844323,0.243985729,1,5.346252307128906,1.4329296936035156,6.788758807373046,-13.687022900763358,35.61068702290076,36.98473282442748
6273897847240,0.253988646,1,5.825092639160156,0.949300958251953,8.173804467773436,-18.00763358778626,47.02290076335878,40.778625954198475
6273907845105,0.263986511,1,5.934028814697265,0.4070142822265625,9.80665,-16.244274809160306,57.56488549618321,43.23664122137404
6273917845000,0.273986406,1,6.4667386840820305,-0.4333505004882812,11.031284149169922,-28.549618320610687,53.20610687022901,42.63358778625954
6273927846511,0.283987917,1,6.885723974609375,-0.8092401611328125,12.076353173828124,-33.221374045801525,50.961832061068705,38.900763358778626
6273937845834,0.29398724,1,7.258022332763671,-1.456871710205078,12.451045733642577,-27.64885496183206,52.458015267175576,39.603053435114504
6273947846615,0.303988021,1,7.376535314941406,-2.152387292480469,13.18367144165039,-3.5877862595419847,54.404580152671755,44.32824427480916
6273957845886,0.313987292,1,6.731297967529296,-2.5354595581054684,13.571532110595703,32.74045801526717,50.603053435114504,36.97709923664122
6273967846511,0.323987917,1,6.044162091064453,-2.9281086303710935,13.03762514038086,37.038167938931295,27.251908396946565,29.6793893129771
6273977846303,0.333987709,1,5.865794067382812,-2.0757728393554684,12.745532537841797,28.366412213740457,12.709923664122137,-0.37404580152671757
6273987846094,0.3439875,1,5.840654949951172,-1.3311761230468748,11.891999645996092,17.66412213740458,-6.305343511450381,-19.99236641221374
6273997845678,0.353987084,1,5.347449407958984,-0.9852139831542969,9.849745629882811,11.83206106870229,-50.51908396946565,-27.47328244274809
6274007889584,0.36403099,1,4.829104748535156,-0.29448680419921874,8.06367119140625,-1.0076335877862594,-66.97709923664122,-42.725190839694655
6274017849375,0.373990781,1,4.921281512451172,0.5195417602539062,6.581660363769531,1.8015267175572518,-61.74045801526717,-53.13740458015267
6274027845261,0.383986667,1,4.836287353515624,1.618480322265625,5.811924530029296,12.557251908396946,-47.12977099236641,-61.37404580152672
6274037845313,0.393986719,1,4.191050006103516,2.0973206542968748,5.232527728271484,-2.4732824427480917,-45.25954198473283,-56.274809160305345
6274047848907,0.403990313,1,4.056974713134766,2.6815058593749996,5.291185668945312,8.396946564885496,-24.732824427480917,-53.54961832061068
6274057844011,0.413985417,1,4.27724126586914,2.858676782226562,5.084087225341796,23.328244274809162,-16.015267175572518,-40.41984732824427
6274067846927,0.423988333,1,4.152742779541016,2.748543505859375,4.698620758056641,22.557251908396946,-16.366412213740457,-25.755725190839694
6274077845313,0.433986719,1,4.091690637207031,2.2349872497558594,4.262876055908203,21.83206106870229,-17.435114503816795,-12.534351145038167
6274087846355,0.443987761,1,3.515885137939453,1.9943699829101562,3.8103719421386715,29.82442748091603,-12.061068702290076,-5.068702290076335
6274097845209,0.453986615,1,3.2166099304199216,1.6531962463378904,3.902548706054687,22.48854961832061,2.4427480916030535,-3.404580152671756
6274107846511,0.463987917,1,2.9077579162597655,1.600523809814453,4.458003491210937,16.702290076335878,16.786259541984734,-6.198473282442748
6274117847761,0.473989167,1,2.393004559326172,1.6998831787109374,5.051765502929687,9.793893129770993,22.450381679389313,-7.290076335877862
6274127844532,0.483985938,1,1.9285294372558592,1.8411410766601561,5.541379742431641,-4.106870229007634,18.770992366412212,-7.343511450381679
6274137846198,0.493987604,1,1.8662801940917968,2.0841525451660154,5.902904193115234,-16.778625954198475,13.320610687022901,-7.893129770992366
6274147846250,0.503987656,1,2.079364141845703,2.414552374267578,5.798756420898437,-25.137404580152673,3.572519083969466,-3.7099236641221376
6274157846771,0.513988177,1,2.1966800231933594,2.4959552307128905,5.3761798278808595,-31.633587786259543,-8.587786259541986,6.221374045801527
6274167847084,0.52398849,1,2.385821954345703,2.269703173828125,5.05655390625,-34.83969465648855,-11.770992366412214,16.419847328244273
6274177845313,0.533986719,1,2.597708801269531,2.4768016174316405,5.776011505126953,-33.16030534351145,3.9923664122137406,18.442748091603054
6274187845730,0.543987136,1,3.8187516479492185,2.048239520263672,5.5449710449218745,-28.908396946564885,1.7633587786259541,33.87786259541985
6274197845105,0.553986511,1,4.404133953857421,1.763329522705078,6.0884548217773435,-24.778625954198475,15.610687022900763,39.69465648854962
6274207845365,0.563986771,1,4.92247861328125,1.8543091857910154,7.237671618652343,-29.083969465648856,34.587786259541986,38.82442748091603
6274217846042,0.573987448,1,5.700594152832031,1.5179238525390624,8.434772448730468,-33.38167938931298,49.229007633587784,45.961832061068705
6274227847761,0.583989167,1,6.758831286621094,0.9624690673828125,9.715670336914062,-27.137404580152673,58.25190839694657,54.29007633587786
6274237846042,0.593987448,1,7.416039642333984,-0.35673604736328124,10.912771166992187,-12.908396946564885,65.38167938931298,68.6412213740458
6274247846042,0.603987448,1,7.195773089599609,-1.9907786804199217,12.021286535644531,18.65648854961832,65.62595419847328,81.77862595419847
6274257846927,0.613988333,1,6.874950067138672,-2.8191724548339843,12.786233966064453,46.63358778625954,62.54961832061068,76.72519083969466
6274267845990,0.623987396,1,6.886921075439453,-3.6391865234374996,13.219584466552734,22.46564885496183,59.38167938931298,55.02290076335878
6274277845469,0.633986875,1,6.773196496582031,-3.2597055603027343,12.389993591308594,6.099236641221374,17.083969465648856,23.27480916030534
6274287844375,0.643985781,1,6.130353350830077,-2.318784307861328,12.243947290039062,-10.549618320610687,7.748091603053435,-12.229007633587786
6274297844479,0.653985885,1,5.864596966552734,-0.9229647399902343,11.330559356689452,-28.35114503816794,-13.17557251908397,-40.20610687022901
6274307844636,0.663986042,1,5.702988354492187,0.16879121704101563,9.635464581298828,-41.12977099236641,-45.16030534351145,-49.86259541984733
6274317846667,0.673988073,1,5.668272430419922,0.7924807495117187,7.660248211669922,-35.587786259541986,-58.213740458015266,-50.32824427480916
6274327846042,0.683987448,1,6.190208392333984,0.9696516723632812,5.797559320068359,-17.068702290076335,-54.20610687022901,-44.97709923664122
6274337845625,0.693987031,1,5.505466717529297,0.7493851196289062,4.651933825683593,-8.068702290076336,-41.32824427480916,-37.534351145038165
6274347845677,0.703987083,1,4.9260699157714845,0.4417302062988281,4.523844036865234,-2.312977099236641,-6.320610687022901,-34.916030534351144
6274357846667,0.713988073,1,4.581304876708984,0.5470750793457031,5.10084663696289,19.50381679389313,29.778625954198475,-37.00763358778626
6274367844063,0.723985469,1,3.8199487487792965,0.6907271789550781,6.2584431396484375,18.213740458015266,54.51145038167939,-35.3206106870229
6274377847084,0.73398849,1,3.0693665283203124,0.86191259765625,7.050923889160156,20.580152671755727,58.6793893129771,-34.83969465648855
6274387848021,0.743989427,1,2.5354595581054684,0.93852705078125,7.338228088378906,13.816793893129772,48.396946564885496,-31.778625954198475
6274397858282,0.753999688,1,1.8626888916015625,0.8774749084472656,7.179013677978515,7.885496183206107,32.47328244274809,-29.595419847328245
6274407848802,0.763990208,1,1.4616601135253906,1.1013327636718748,6.986280444335937,1.9236641221374047,22.793893129770993,-29.885496183206108
6274417846615,0.773988021,1,1.4101847778320311,1.1887211242675781,6.379350323486328,-3.0763358778625953,9.106870229007633,-28.17557251908397
6274427847240,0.783988646,1,1.0558429321289062,1.5179238525390624,5.699397052001952,-6.022900763358779,2.3206106870229006,-28.076335877862597
6274437845990,0.793987396,1,0.181959326171875,1.7932570434570312,5.063736511230468,-26.328244274809162,-14.51908396946565,-25.47328244274809
6274447843646,0.803985052,1,0.8044517578125,2.242169854736328,4.993107562255859,-29.236641221374047,0.8091603053435115,-25.31297709923664
6274457844479,0.813985885,1,0.17477672119140625,2.546233465576172,4.8314989501953125,-24.0381679389313,-2.946564885496183,-16.290076335877863
6274467846667,0.823988073,1,0.20231004028320312,2.6874913635253903,5.213374114990234,-38.20610687022901,5.5038167938931295,-5.0534351145038165
6274477846511,0.833987917,1,0.7254431030273437,2.6036943054199218,5.0385973937988275,-13.587786259541986,6.519083969465649,14.17557251908397
6274487846563,0.843987969,1,0.928950244140625,2.029085906982422,5.659892724609374,-16.38167938931298,14.083969465648854,29.580152671755727
6274497846198,0.853987604,1,1.686715069580078,1.8136077575683593,6.750451580810546,-15.541984732824428,28.80916030534351,37.64885496183206
6274507845469,0.863986875,1,3.2692823669433593,1.4472949035644531,8.01818135986328,-13.49618320610687,41.00763358778626,43.02290076335878
6274517846302,0.873987708,1,4.374206433105469,1.0809820495605469,9.145850341796875,-16.244274809160306,40.45038167938932,48.41984732824427
6274527846927,0.883988333,1,5.799953521728515,0.5686228942871093,10.078391888427733,-30.419847328244273,34.93129770992366,52.61832061068702
6274537846771,0.893988177,1,7.277175946044921,-0.35793314819335936,11.04564935913086,-42.41984732824427,33.9236641221374,57.25954198473283
6274547845990,0.903987396,1,7.888894470214844,-1.1851298217773436,11.653776580810547,-27.17557251908397,33.13740458015267,60.038167938931295
6274557846406,0.913987812,1,8.002619049072266,-2.024297503662109,12.399570397949217,-33.18320610687023,35.74045801526717,59.213740458015266
6274567846146,0.923987552,1,7.842207537841796,-3.0933085449218747,13.324929339599608,-27.72519083969466,52.19083969465649,62.465648854961835
6274577846875,0.933988281,1,6.691793640136718,-3.1543606872558594,13.906720343017577,18.770992366412212,54.587786259541986,49.045801526717554
6274587845469,0.943986875,1,6.2584431396484375,-3.7517140014648436,13.724761016845703,20.519083969465647,35.66412213740458,43.038167938931295
6274597846875,0.953988281,1,5.142745166015625,-3.475183709716797,14.094665173339843,39.25954198473283,35.86259541984733,18.65648854961832
6274607846875,0.963988281,1,4.638765716552734,-2.8191724548339843,13.338097448730467,31.66412213740458,1.9694656488549618,-7.374045801526718
6274617845573,0.973986979,1,4.183867401123047,-1.9105729248046874,11.42153901977539,2.114503816793893,-42.969465648854964,-29.9618320610687
6274627846042,0.983987448,1,3.7229835815429686,-0.9947907897949219,9.101557611083983,-14.595419847328245,-76.1526717557252,-47.85496183206107
6274637846771,0.993988177,1,3.547009759521484,0.03950432739257812,7.003039855957031,-21.053435114503817,-83.22137404580153,-62.19083969465649
6274647847136,1.003988542,1,3.764882110595703,0.7422025146484375,5.898115789794922,-21.549618320610687,-69.05343511450381,-67.8854961832061
6274657845365,1.013986771,1,3.1004911499023438,1.5634136840820312,5.389347937011719,-8.450381679389313,-47.343511450381676,-67.18320610687023
6274667845625,1.023987031,1,2.7653029174804686,1.6077064147949218,5.503072515869141,-9.198473282442748,-19.580152671755727,-50.25954198473283
6274677844531,1.033985937,1,2.6396073303222654,1.3527239379882812,6.190208392333984,16.52671755725191,9.374045801526718,-34.37404580152672
6274687845365,1.043986771,1,2.050633721923828,1.1097124694824219,6.836642840576172,44.0,21.442748091603054,-17.396946564885496
6274697844219,1.053985625,1,1.6843208679199217,0.6380547424316406,7.526172918701171,43.74809160305343,25.87786259541985,-6.435114503816794
6274707842604,1.06398401,1,1.523909356689453,0.4429273071289062,7.570465649414062,46.587786259541986,13.335877862595419,-3.450381679389313
6274717844583,1.073985989,1,1.668758557128906,0.26695348510742184,7.15028325805664,30.213740458015266,-2.900763358778626,-3.4198473282442747
6274727845521,1.083986927,1,1.4065934753417968,0.4608838195800781,6.084863519287109,20.72519083969466,-23.0,-6.66412213740458
6274737846406,1.093987812,1,1.4137760803222656,0.8092401611328125,5.2061915100097655,0.6335877862595419,-33.19083969465649,-12.610687022900763
6274747846354,1.10398776,1,1.4592659118652342,1.5310919616699217,4.847061260986328,-3.49618320610687,-28.65648854961832,-20.84732824427481
6274757844948,1.113986354,1,1.6340426330566404,2.080561242675781,4.7189714721679685,-6.267175572519084,-26.900763358778626,-21.977099236641223
6274767846406,1.123987812,1,2.0374656127929685,2.507926239013672,4.564545465087891,-17.12213740458015,-26.954198473282442,-19.053435114503817
6274777844688,1.133986094,1,2.2493524597167966,2.839523168945312,4.477157104492187,-25.045801526717558,-27.931297709923665,-13.557251908396946
6274787845573,1.143986979,1,2.6300305236816404,2.8622680847167965,4.3622354248046875,-28.297709923664122,-26.99236641221374,-2.8931297709923665
6274797846875,1.153988281,1,3.5972879943847653,3.0322564025878904,5.060145208740234,-22.389312977099237,-10.648854961832061,3.549618320610687
6274807847136,1.163988542,1,4.487931011962891,2.233790148925781,4.660313531494141,-7.5038167938931295,-17.740458015267176,29.419847328244273
6274817845886,1.173987292,1,4.697423657226563,1.159990704345703,4.902127899169922,-4.679389312977099,-10.099236641221374,41.0763358778626
6274827847136,1.183988542,1,5.0757075195312495,0.36750995483398435,5.968744738769531,-7.8396946564885495,13.244274809160306,42.534351145038165
6274837845729,1.193987135,1,5.729324572753906,0.08259995727539061,7.382520819091797,7.083969465648855,40.68702290076336,38.213740458015266
6274847845886,1.203987292,1,5.919663604736328,-0.3028665100097656,9.175777862548827,-9.0,52.36641221374046,35.19847328244275
6274857845990,1.213987396,1,5.874173773193359,-0.6703764648437499,10.946289990234375,-14.465648854961833,58.20610687022901,32.51145038167939
6274867843646,1.223985052,1,6.149506964111327,-1.1133037719726562,12.052411157226562,-14.709923664122137,52.06106870229008,30.587786259541986
6274877843542,1.233984948,1,5.931634613037109,-1.562216583251953,12.77546005859375,-24.412213740458014,38.51908396946565,28.85496183206107
6274887848802,1.243990208,1,5.922057806396484,-1.9871873779296874,12.905944049072264,-32.93893129770992,27.938931297709924,25.03053435114504
6274897846667,1.253988073,1,5.852625958251953,-2.3439234252929686,12.794613671875,-20.221374045801525,25.603053435114504,22.17557251908397
6274907845365,1.263986771,1,5.6586956237792965,-2.464830609130859,13.12621060180664,3.068702290076336,24.33587786259542,12.16030534351145
6274917845521,1.273986927,1,5.416881256103515,-2.24097275390625,13.423091607666015,16.68702290076336,31.282442748091604,1.3358778625954197
6274927847448,1.283988854,1,5.1511248718261715,-1.8136077575683593,12.926294763183593,24.16030534351145,9.404580152671755,-8.213740458015268
6274937845208,1.293986614,1,4.814739538574218,-1.3479355346679687,11.59392153930664,12.19083969465649,-23.587786259541986,-19.419847328244273
6274947848229,1.303989635,1,4.6639048339843745,-0.7876923461914062,9.76116016845703,-3.183206106870229,-46.786259541984734,-31.69465648854962
6274957847396,1.313988802,1,4.602852691650391,-0.2537853759765625,8.057685687255859,-5.33587786259542,-56.17557251908397,-39.45038167938932
6274967848594,1.32399,1,4.900930798339844,0.3124433166503906,6.967126831054687,4.66412213740458,-46.221374045801525,-47.900763358778626
6274977849635,1.333991041,1,4.6830584472656245,0.7015010864257812,6.260837341308593,6.099236641221374,-34.41984732824427,-45.79389312977099
6274987847031,1.343988437,1,4.474762902832031,0.9026140258789062,5.900509991455078,16.38167938931298,-18.19083969465649,-40.11450381679389
6274997846667,1.353988073,1,4.094084838867187,1.0510545288085937,5.84185205078125,30.541984732824428,-1.7633587786259541,-33.93893129770992
6275007846771,1.363988177,1,3.375824340820312,0.8810662109374999,5.945999822998046,38.282442748091604,5.236641221374046,-24.580152671755727
6275017844948,1.373986354,1,3.114856359863281,0.6093243225097655,6.17344898071289,43.85496183206107,13.221374045801527,-21.19083969465649
6275027843177,1.383984583,1,2.5378537597656248,0.603338818359375,6.282385156249999,43.47328244274809,12.282442748091603,-22.740458015267176
6275037845729,1.393987135,1,1.7094599853515624,0.5997475158691405,6.198588098144531,27.221374045801525,2.435114503816794,-24.977099236641223
6275047847135,1.403988541,1,1.4999673400878906,0.9600748657226562,6.076483813476562,18.458015267175572,-2.3435114503816794,-31.16793893129771
6275057846771,1.413988177,1,1.1935095275878906,1.3215993164062498,5.531802935791015,7.572519083969466,-16.290076335877863,-32.9236641221374
6275067845938,1.423987344,1,1.3263877197265623,1.3287819213867187,4.921281512451172,-5.656488549618321,-29.053435114503817,-32.541984732824424
6275077846250,1.433987656,1,0.1927332336425781,2.0087351928710935,4.08570513305664,-3.7557251908396947,-39.66412213740458,-33.35114503816794
6275087847240,1.443988646,1,0.04189852905273437,2.223016241455078,3.537432952880859,-24.65648854961832,-35.83969465648855,-27.068702290076335
6275097846302,1.453987708,1,0.058657940673828124,2.8898014038085935,3.3315316101074215,-23.793893129770993,-23.50381679389313,-25.786259541984734
6275107847188,1.463988594,1,0.34715924072265625,3.460818499755859,3.805583538818359,-33.83206106870229,-9.038167938931299,-19.427480916030536
6275117847031,1.473988437,1,0.9050082275390624,3.833116857910156,4.613626599121093,-43.47328244274809,3.9923664122137406,-7.6106870229007635
6275127846667,1.483988073,1,1.848323681640625,3.5625720703124997,5.396530541992187,-30.213740458015266,12.86259541984733,13.648854961832061
6275137846979,1.493988385,1,3.3446997192382812,2.3295582153320313,5.856217260742187,-18.412213740458014,10.465648854961833,41.16793893129771
6275147846823,1.503988229,1,3.8762124877929685,1.1552023010253905,7.198167291259765,-10.755725190839694,21.076335877862597,56.0763358778626
6275157846510,1.513987916,1,3.797203833007812,0.10893617553710937,6.245275030517578,15.259541984732824,-12.564885496183207,77.7175572519084
6275167845833,1.523987239,1,4.673481640625,-1.0486603271484374,6.921636999511718,-11.717557251908397,7.106870229007634,68.99236641221374
6275177844740,1.533986146,1,5.149927770996094,-1.0235212097167967,8.389282617187499,-14.145038167938932,33.87022900763359,46.847328244274806
6275187843698,1.543985104,1,6.150704064941406,-0.7326257080078125,9.719261639404296,-13.091603053435115,42.49618320610687,33.900763358778626
6275197845625,1.553987031,1,6.4284314575195305,-0.594959112548828,11.382034692382812,-40.86259541984733,38.954198473282446,20.022900763358777
6275207847396,1.563988802,1,7.504625103759765,-0.6715735656738281,11.621454858398437,-61.6793893129771,23.64885496183206,20.458015267175572
6275217845573,1.573986979,1,8.227674005126953,-1.1348515869140625,11.687295404052733,-54.43511450381679,15.900763358778626,25.33587786259542
6275227846667,1.583988073,1,7.781155395507812,-1.905784521484375,11.56159981689453,-28.786259541984734,15.274809160305344,33.47328244274809
6275237844792,1.593986198,1,6.99705435180664,-2.6192566162109374,12.126631408691406,-8.358778625954198,36.89312977099237,34.87786259541985
6275247845885,1.603987291,1,6.1650692749023435,-3.1699229980468746,12.32175884399414,10.129770992366412,48.908396946564885,35.152671755725194
6275257846302,1.613987708,1,5.093664031982422,-3.0885201416015624,14.189236138916014,27.091603053435115,81.23664122137404,18.053435114503817
6275267845469,1.623986875,1,4.448426684570312,-2.31758720703125,15.474922430419921,51.396946564885496,79.36641221374046,0.8091603053435115
6275277845885,1.633987291,1,4.055777612304687,-1.9991583862304687,14.97094298095703,41.63358778625954,22.557251908396946,-9.290076335877863
6275287846146,1.643987552,1,3.8367081604003905,-1.562216583251953,12.561179010009765,18.908396946564885,-46.2442748091603,-21.045801526717558
6275297843177,1.653984583,1,3.8295255554199215,-0.9612719665527343,9.275137231445312,-2.946564885496183,-94.30534351145039,-34.80916030534351
6275307846615,1.663988021,1,3.6535517333984373,-0.594959112548828,6.530185028076171,-16.85496183206107,-109.77862595419847,-45.83206106870229
6275317845417,1.673986823,1,3.6643256408691403,0.37229835815429685,4.903325,-1.4732824427480915,-86.03053435114504,-64.68702290076335
6275327846875,1.683988281,1,3.412934466552734,0.9876081848144531,4.274847064208984,-7.603053435114504,-55.603053435114504,-63.33587786259542
6275337845208,1.693986614,1,3.305195391845703,1.6041151123046875,4.490325213623047,1.618320610687023,-13.381679389312977,-58.12977099236641
6275347844323,1.703985729,1,3.0430303100585934,1.879448303222656,5.773617303466796,26.625954198473284,21.427480916030536,-45.80152671755725
6275357846354,1.71398776,1,2.748543505859375,1.7322049011230467,6.918045697021484,43.16793893129771,34.94656488549618,-28.61832061068702
6275367846094,1.7239875,1,2.3965958618164063,1.2006921325683593,7.702146740722656,52.099236641221374,28.931297709923665,-12.022900763358779
6275377846250,1.733987656,1,2.114080065917969,0.5315127685546874,7.7608046813964835,50.41984732824427,12.648854961832061,-2.3740458015267176
6275387846823,1.743988229,1,1.9117700256347656,0.15203180541992187,7.433996154785156,37.099236641221374,-6.213740458015267,-3.122137404580153
6275397847344,1.75398875,1,1.70467158203125,0.086191259765625,6.676231329345702,16.435114503816795,-23.290076335877863,-10.778625954198473
6275407846719,1.763988125,1,1.4329296936035156,0.5530605834960938,6.022614276123046,-4.145038167938932,-31.49618320610687,-21.106870229007633
6275417844844,1.77398625,1,1.426944189453125,1.2617442749023438,5.641936212158202,-13.83969465648855,-29.740458015267176,-29.80916030534351
6275427846667,1.783988073,1,1.4245499877929686,2.009932293701172,5.530605834960937,-21.81679389312977,-26.72519083969466,-32.213740458015266
6275437845937,1.793987343,1,1.351526837158203,2.592920397949219,5.1882349975585935,-22.625954198473284,-29.52671755725191,-24.65648854961832
6275447846823,1.803988229,1,1.4999673400878906,2.711433380126953,4.927267016601562,-18.366412213740457,-29.12213740458015,-11.488549618320612
6275457844792,1.813986198,1,1.744175909423828,2.5917232971191404,4.880580084228515,-11.610687022900763,-25.15267175572519,3.572519083969466
6275467847135,1.823988541,1,2.6874913635253903,2.1691467041015624,4.651933825683593,-6.076335877862595,-18.580152671755727,17.671755725190838
6275477846302,1.833987708,1,2.789244934082031,1.8291700683593748,5.973533142089844,-5.099236641221374,0.7557251908396947,24.770992366412212
6275487847448,1.843988854,1,3.1591490905761717,1.6460136413574218,5.791573815917968,12.633587786259541,-10.358778625954198,37.23664122137404
6275497846562,1.853987968,1,3.840299462890625,0.9995791931152344,6.387730029296875,-6.870229007633588,-1.4198473282442747,42.12977099236641
6275507853958,1.863995364,1,4.042609503173828,0.7422025146484375,6.994660150146484,-3.480916030534351,0.3511450381679389,41.770992366412216
6275517843802,1.873985208,1,4.712985968017578,0.4417302062988281,7.4782888854980465,-5.870229007633588,3.3740458015267176,41.17557251908397
6275527847239,1.883988645,1,5.351040710449219,0.4165910888671875,8.185775476074218,-9.068702290076336,3.0610687022900764,35.70229007633588
6275537854427,1.893995833,1,6.0154316711425775,0.584185205078125,8.350975390624999,-21.358778625954198,-3.1068702290076335,31.282442748091604
6275547847708,1.903989114,1,6.546944439697265,0.3172317199707031,8.680178118896483,-40.778625954198475,-9.206106870229007,29.755725190839694
6275557846302,1.913987708,1,7.389703424072265,0.10175357055664062,8.930372192382812,-37.87022900763359,-6.66412213740458,29.46564885496183
6275567846354,1.92398776,1,8.201337786865233,-0.5303156677246094,8.942343200683593,-16.81679389312977,-0.33587786259541985,36.900763358778626
6275577846146,1.933987552,1,8.524555010986328,-1.4437036010742186,9.14824454345703,-0.3816793893129771,8.229007633587786,44.213740458015266
6275587846458,1.943987864,1,8.093598712158203,-2.327164013671875,9.611522564697266,10.122137404580153,24.557251908396946,43.02290076335878
6275597845885,1.953987291,1,7.510610607910156,-2.7234043884277344,10.104728106689452,19.610687022900763,41.83206106870229,32.52671755725191
6275607847031,1.963988437,1,6.68461103515625,-2.748543505859375,11.286266625976562,6.297709923664122,56.14503816793893,13.587786259541986
6275617847187,1.973988593,1,5.704185455322265,-1.9213468322753906,13.125013500976562,22.603053435114504,82.25954198473282,-9.045801526717558
6275627846719,1.983988125,1,5.033808990478516,-1.064222637939453,13.625401647949218,24.931297709923665,61.51908396946565,-18.9618320610687
6275637844375,1.993985781,1,4.856638067626953,-1.3383587280273437,12.981361401367186,11.13740458015267,19.15267175572519,-13.595419847328245
6275647843437,2.003984843,1,4.311957189941406,-1.1719617126464843,11.54843170776367,38.038167938931295,-17.49618320610687,-19.206106870229007
6275657846666,2.013988072,1,4.515464331054687,-0.9121908325195311,9.727641345214844,33.732824427480914,-34.99236641221374,-29.17557251908397
6275667843125,2.023984531,1,4.2688615600585935,-0.9109937316894531,8.475473876953124,27.053435114503817,-42.33587786259542,-33.267175572519086
6275677845781,2.033987187,1,3.708618371582031,-0.6536170532226562,7.066486199951171,24.66412213740458,-53.38167938931298,-40.82442748091603
6275687846354,2.04398776,1,3.373430139160156,-0.16041151123046873,6.386532928466797,13.381679389312977,-37.43511450381679,-52.85496183206107
6275697845573,2.053986979,1,3.2345664428710936,0.38786066894531246,6.046556292724609,18.793893129770993,-22.061068702290076,-59.16030534351145
6275707850781,2.063992187,1,3.037044805908203,0.9528922607421875,5.948394024658203,21.740458015267176,-11.106870229007633,-60.69465648854962
6275717845000,2.073986406,1,2.6420015319824217,1.227028350830078,6.054935998535156,18.778625954198475,-2.5267175572519083,-57.88549618320611
6275727846719,2.083988125,1,2.3834277526855465,1.5310919616699217,6.112396838378906,28.732824427480917,5.229007633587786,-52.603053435114504
6275737845677,2.093987083,1,2.067393133544922,1.6915034729003906,6.294356164550781,34.69465648854962,6.595419847328245,-46.282442748091604
6275747845260,2.103986666,1,1.407790576171875,1.9488801513671874,6.420051751708984,24.72519083969466,2.519083969465649,-44.87022900763359
6275757849375,2.113990781,1,0.9840168823242187,2.1643583007812497,6.461950280761719,7.549618320610687,-7.343511450381679,-42.31297709923664
6275767847239,2.123988645,1,1.0857704528808594,2.474407415771484,6.272808349609375,1.3282442748091603,-12.290076335877863,-38.267175572519086
6275777846771,2.133988177,1,0.9648632690429687,2.6719290527343746,5.96275923461914,6.221374045801527,-21.290076335877863,-27.954198473282442
6275787846146,2.143987552,1,0.9193734375,2.8203695556640622,5.365405920410156,1.534351145038168,-37.25190839694657,-19.564885496183205
6275797846041,2.153987447,1,1.1695675109863282,2.8275521606445313,4.967968444824218,-13.267175572519085,-45.02290076335878,-12.65648854961832
6275807846041,2.163987447,1,0.9612719665527343,2.6132711120605467,4.122815258789062,-14.770992366412214,-57.396946564885496,-1.381679389312977
6275817850156,2.173991562,1,0.9002198242187499,2.81558115234375,3.825934252929687,-26.709923664122137,-50.221374045801525,1.7328244274809161
6275827845729,2.183987135,1,1.6220716247558593,2.8036101440429686,4.2880151733398435,-43.37404580152672,-32.70229007633588,3.0229007633587788
6275837846771,2.193988177,1,3.4296938781738278,2.996343377685547,5.2648494506835934,-40.908396946564885,-4.0,10.16793893129771
6275847846823,2.203988229,1,3.0166940917968748,2.948459344482422,3.977966058349609,1.9770992366412214,-40.396946564885496,44.458015267175576
6275857845364,2.21398677,1,3.699041564941406,2.47081611328125,4.2700586608886715,-13.206106870229007,-13.877862595419847,53.51908396946565
6275867846198,2.223987604,1,4.656722229003906,2.1535843933105467,5.210979913330078,-26.931297709923665,13.198473282442748,52.32824427480916
6275877845364,2.23398677,1,5.252878442382812,1.5131354492187499,5.571307263183593,-17.53435114503817,17.572519083969464,71.61068702290076
6275887846771,2.243988177,1,5.476736297607421,0.958877764892578,6.223727215576171,-3.5267175572519083,29.572519083969464,78.86259541984732
6275897846146,2.253987552,1,5.876567974853515,0.7362170104980469,8.382100012207031,-26.251908396946565,63.16793893129771,67.74809160305344
6275907847916,2.263989322,1,6.994660150146484,0.5135562561035156,10.322600457763672,-36.37404580152672,77.38167938931298,66.81679389312977
6275917845833,2.273987239,1,8.747215765380858,-0.001197100830078125,11.954248889160155,-10.526717557251908,95.17557251908397,74.91603053435115
6275927846302,2.283987708,1,10.109516510009765,-1.5179238525390624,12.466608044433594,-0.22137404580152673,85.57251908396947,92.64885496183206
6275937848958,2.293990364,1,9.397241516113281,-3.573345977783203,12.66053837890625,-6.290076335877862,70.19847328244275,110.45801526717557
6275947846823,2.303988229,1,7.061697796630859,-4.727351177978515,13.499706060791015,52.64885496183206,87.94656488549619,110.29007633587786
6275957846666,2.313988072,1,6.4655415832519525,-5.050568402099609,14.784195251464842,83.35114503816794,112.91603053435115,85.59541984732824
6275967846718,2.323988124,1,6.78636460571289,-4.1575311828613275,17.319654809570313,78.80152671755725,147.3587786259542,33.31297709923664
6275977844739,2.333986145,1,5.840654949951172,-3.124433166503906,17.852364678955077,52.916030534351144,81.37404580152672,-3.1755725190839694
6275987843958,2.343985364,1,4.304774584960938,-2.042254016113281,15.998055493164062,21.15267175572519,-15.419847328244275,-26.541984732824428
6275997845468,2.353986874,1,4.375403533935547,-1.2497732666015624,12.581529724121093,11.65648854961832,-84.4885496183206,-46.56488549618321
6276007846250,2.363987656,1,4.6651019348144525,-0.5195417602539062,9.305064752197264,-1.83206106870229,-122.45801526717557,-71.33587786259542
6276017844843,2.373986249,1,3.81156904296875,0.16879121704101563,6.222530114746093,-18.732824427480917,-148.6412213740458,-88.67175572519083
6276027846458,2.383987864,1,3.2728736694335936,0.7074865905761718,4.129997863769531,-19.328244274809162,-129.3740458015267,-90.97709923664122
6276037845364,2.39398677,1,3.337517114257812,1.332373223876953,3.450044592285156,-6.030534351145038,-74.9618320610687,-93.82442748091603
6276047847916,2.403989322,1,2.9364883361816405,1.7214309936523438,3.3710359375,-0.9007633587786259,-38.30534351145038,-85.22900763358778
6276057846510,2.413987916,1,1.8315642700195311,1.9536685546875,3.7134067749023436,4.8396946564885495,-12.633587786259541,-68.79389312977099
6276067845156,2.423986562,1,1.6531962463378904,2.1164742675781247,4.474762902832031,21.946564885496183,19.137404580152673,-57.97709923664122
6276077847135,2.433988541,1,1.083376251220703,2.2828712829589843,5.491101507568359,33.94656488549618,39.18320610687023,-45.25190839694657
6276087844531,2.443985937,1,0.5925649108886718,2.039859814453125,6.433219860839843,32.152671755725194,39.10687022900763,-29.47328244274809
6276097846614,2.45398802,1,0.33399113159179683,2.0829554443359375,7.115567333984375,35.51908396946565,37.786259541984734,-22.66412213740458
6276107846198,2.463987604,1,0.3076549133300781,2.070984436035156,7.329848382568359,24.564885496183205,25.427480916030536,-16.290076335877863
6276117845520,2.473986926,1,0.29927520751953124,2.021903302001953,6.995857250976562,13.854961832061068,6.190839694656488,-8.916030534351146
6276127845989,2.483987395,1,0.22505495605468748,2.043451116943359,6.259640240478515,10.885496183206106,-12.893129770992367,-3.0839694656488548
6276137845000,2.493986406,1,0.23822306518554687,2.1966800231933594,5.585672473144531,2.3740458015267176,-23.64885496183206,-0.16030534351145037
6276147846562,2.503987968,1,0.622492431640625,2.3056161987304686,4.989516259765625,-5.648854961832061,-31.00763358778626,2.7099236641221376
6276157844010,2.513985416,1,0.9983820922851562,2.482787121582031,4.4196962646484375,-10.251908396946565,-30.717557251908396,4.603053435114504
6276167847864,2.52398927,1,1.399410870361328,2.607285607910156,4.359841223144531,-18.671755725190838,-24.763358778625953,7.916030534351145
6276177846718,2.533988124,1,2.039859814453125,2.748543505859375,4.760870001220703,-21.61832061068702,-16.106870229007633,12.908396946564885
6276187845625,2.543987031,1,2.7449522033691403,2.6372131286621094,5.501875415039062,-20.396946564885496,-7.320610687022901,20.65648854961832
6276197845573,2.553986979,1,3.8762124877929685,2.759317413330078,6.570886456298828,-16.564885496183205,3.4580152671755724,25.17557251908397
6276207845000,2.563986406,1,4.291606475830078,2.019509100341797,6.21175620727539,1.0305343511450382,-19.12213740458015,52.58015267175573
6276217844583,2.573985989,1,5.252878442382812,0.9876081848144531,6.4092778442382805,-0.46564885496183206,-17.18320610687023,56.847328244274806
6276227845364,2.58398677,1,5.538985540771484,0.7218518005371093,6.981492041015625,-5.206106870229007,-5.824427480916031,51.14503816793893
6276237845572,2.593986978,1,6.368576416015625,0.7613561279296874,7.951143713378905,-13.404580152671755,8.15267175572519,40.01526717557252
6276247846510,2.603987916,1,7.394491827392578,0.8930372192382812,8.930372192382812,-39.31297709923664,14.84732824427481,33.16793893129771
6276257844947,2.613986353,1,8.10796392211914,0.8367734802246093,9.423577734375,-41.404580152671755,11.992366412213741,32.9236641221374
6276267844114,2.62398552,1,8.23006820678711,-0.051475335693359374,10.001777435302733,-39.091603053435115,15.061068702290076,43.83206106870229
6276277845104,2.63398651,1,8.335413079833984,-0.7529764221191406,10.583568438720702,1.702290076335878,29.404580152671755,52.63358778625954
6276287847187,2.643988593,1,8.003816149902343,-1.6627730529785156,11.389217297363281,31.27480916030534,41.595419847328245,56.01526717557252
6276297848697,2.653990103,1,7.378929516601562,-2.3965958618164063,12.144587921142577,34.16793893129771,46.51908396946565,47.80152671755725
6276307847500,2.663988906,1,6.5014546081542965,-2.748543505859375,12.035651745605469,20.931297709923665,31.129770992366414,31.6793893129771
6276317844375,2.673985781,1,5.398924743652343,-2.1906945190429687,13.153743920898437,19.14503816793893,43.94656488549618,0.29770992366412213
6276327851145,2.683992551,1,5.614402893066406,-1.2054805358886718,12.995726611328124,12.473282442748092,26.244274809160306,-23.770992366412212
6276337847968,2.693989374,1,5.165490081787109,-0.2980781066894531,11.647791076660155,-11.679389312977099,-17.595419847328245,-35.458015267175576
6276347843020,2.703984426,1,4.733336682128906,0.2765302917480469,9.609128363037108,-17.061068702290076,-49.908396946564885,-40.35114503816794
6276357845364,2.71398677,1,4.853046765136718,0.6739677673339843,7.905653881835937,-19.625954198473284,-52.16793893129771,-44.32824427480916
6276367846822,2.723988228,1,4.780023614501953,1.0941501586914062,6.88213267211914,-7.236641221374046,-36.725190839694655,-45.70992366412214
6276377844427,2.733985833,1,4.533420843505859,1.1731588134765625,6.7803791015625,2.0839694656488548,-11.778625954198473,-40.045801526717554
6276387845312,2.743986718,1,4.2305543334960936,1.22583125,7.199364392089843,25.198473282442748,14.022900763358779,-32.51908396946565
6276397854114,2.75399552,1,3.851073370361328,0.9121908325195311,7.764395983886718,41.51145038167939,25.801526717557252,-21.53435114503817
6276407849479,2.763990885,1,3.1004911499023438,0.51714755859375,8.11514652709961,53.732824427480914,23.587786259541986,-13.083969465648854
6276417846822,2.773988228,1,2.586934893798828,0.2214636535644531,7.976282830810546,53.33587786259542,11.80916030534351,-12.366412213740459
6276427845208,2.783986614,1,2.300827795410156,0.15562310791015624,7.447164263916015,38.94656488549618,-4.00763358778626,-18.755725190839694
6276437846510,2.793987916,1,1.8746598999023436,0.5015852478027344,6.573280657958984,22.740458015267176,-21.65648854961832,-27.916030534351144
6276447846406,2.803987812,1,1.5119383483886717,0.8834604125976562,5.68862314453125,2.7938931297709924,-33.63358778625954,-37.51908396946565
6276457846510,2.813987916,1,1.064222637939453,1.5382745666503905,4.9823336547851556,-6.458015267175573,-38.06870229007634,-44.51908396946565
6276467846093,2.823987499,1,0.9050082275390624,2.2290017456054687,4.73094248046875,-11.84732824427481,-33.20610687022901,-47.29770992366412
6276477844635,2.833986041,1,0.7422025146484375,3.0262708984374997,4.442441180419921,-9.786259541984732,-28.99236641221374,-45.23664122137404
6276487845624,2.84398703,1,0.6212953308105469,3.3506852233886715,4.7572786987304685,-15.969465648854962,-17.625954198473284,-33.0763358778626
6276497846979,2.853988385,1,0.6200982299804687,3.5589807678222654,5.060145208740234,-2.6717557251908395,-12.061068702290076,-18.221374045801525
6276507842968,2.863984374,1,0.7266402038574218,3.336320013427734,5.118803149414062,-0.183206106870229,-14.091603053435115,0.8320610687022901
6276517845052,2.873986458,1,0.8786720092773437,2.893392706298828,5.336675500488281,2.1908396946564888,-13.923664122137405,15.389312977099237
6276527846614,2.88398802,1,1.5825672973632812,2.5234885498046875,5.7137622619628905,-0.03816793893129771,-10.778625954198473,24.3206106870229
6276537843124,2.89398453,1,2.3032219970703123,2.2301988464355467,5.7700260009765625,-5.870229007633588,-14.541984732824428,30.977099236641223
6276547847760,2.903989166,1,3.1938650146484373,2.1691467041015624,5.698199951171874,-17.83206106870229,-15.82442748091603,34.221374045801525
6276557846666,2.913988072,1,4.357447021484375,2.2541408630371094,6.736086370849609,-28.236641221374047,-2.0381679389312977,30.870229007633586
6276567846822,2.923988228,1,4.5884874816894525,1.9692308654785156,5.846640454101562,-9.916030534351146,-25.66412213740458,52.6793893129771
6276577846562,2.933987968,1,5.5461681457519525,1.0019733947753906,6.017825872802734,-14.404580152671755,-13.366412213740459,57.030534351145036
6276587846041,2.943987447,1,5.80953032836914,0.8822633117675781,6.801926916503906,-7.206106870229007,5.778625954198473,50.099236641221374
6276597846979,2.953988385,1,6.349422802734375,0.5410895751953124,7.684190228271484,-5.442748091603053,17.51145038167939,47.86259541984733
6276607846145,2.963987551,1,6.955155822753905,0.5111620544433594,8.633491186523438,-19.14503816793893,20.580152671755727,40.10687022900763
6276617845052,2.973986458,1,7.043741284179687,0.5518634826660156,9.10395181274414,-30.061068702290076,11.916030534351146,34.83206106870229
6276627847083,2.983988489,1,7.517793212890624,0.6416460449218749,9.188945971679686,-36.603053435114504,3.1374045801526718,28.64885496183206
6276637842812,2.993984218,1,7.978677032470703,0.2501940734863281,9.175777862548827,-37.51145038167939,-2.053435114503817,33.465648854961835
6276647847135,3.003988541,1,8.613140472412109,-0.411802685546875,8.65623610229492,-3.732824427480916,-2.351145038167939,41.44274809160305
6276657843958,3.013985364,1,8.761580975341797,-1.351526837158203,8.500612994384765,23.9618320610687,6.152671755725191,46.44274809160305
6276667842708,3.023984114,1,8.423998541259765,-2.1248539733886718,8.428786944580077,37.99236641221374,19.00763358778626,37.93129770992366
6276677847135,3.033988541,1,7.417236743164062,-2.683900061035156,8.109161022949218,6.190839694656488,14.587786259541986,20.65648854961832
6276687846145,3.043987551,1,6.169857678222656,-1.637633935546875,9.90241806640625,-1.1374045801526718,54.93129770992366,-20.755725190839694
6276697846041,3.053987447,1,6.205770703124999,-0.201112939453125,11.47899985961914,-3.8931297709923665,69.76335877862596,-48.54961832061068
6276707845156,3.063986562,1,5.558139154052734,0.3603273498535156,11.662156286621093,-23.374045801526716,36.3587786259542,-47.48854961832061
6276717845729,3.073987135,1,5.3019595764160155,0.5374982727050781,10.793061083984375,-3.3587786259541983,6.5038167938931295,-40.045801526717554
6276727847499,3.083988905,1,5.295974072265625,0.3268085266113281,9.674968908691406,17.984732824427482,-5.549618320610687,-32.274809160305345
6276737845416,3.093986822,1,5.116408947753906,-0.1592144104003906,8.609549169921875,25.52671755725191,-15.068702290076336,-28.954198473282442
6276747846458,3.103987864,1,4.724956976318359,-0.5351040710449219,8.194155181884765,27.16793893129771,-10.717557251908397,-33.11450381679389
6276757846979,3.113988385,1,4.6830584472656245,-0.3687070556640625,8.043320477294921,21.47328244274809,-0.32061068702290074,-47.152671755725194
6276767845989,3.123987395,1,3.755305303955078,-0.06464344482421874,8.032546569824218,-7.030534351145038,-2.4732824427480917,-56.717557251908396
6276777845989,3.133987395,1,3.1399954772949217,0.5458779785156249,7.978677032470703,-13.854961832061068,1.3511450381679388,-65.04580152671755
6276787844270,3.143985676,1,2.673126153564453,1.2210428466796874,8.252813122558594,-8.98473282442748,13.465648854961833,-68.34351145038168
6276797845624,3.15398703,1,1.9608511596679685,1.4903905334472656,8.487444885253906,-1.7404580152671756,15.404580152671755,-60.091603053435115
6276807845885,3.163987291,1,1.7214309936523438,1.7238251953125,8.769960681152343,8.877862595419847,16.221374045801525,-51.603053435114504
6276817844895,3.173986301,1,1.3874398620605468,1.7130512878417967,8.573636145019531,16.091603053435115,7.580152671755725,-41.16030534351145
6276827843020,3.183984426,1,1.1360486877441405,1.696291876220703,8.275558038330077,14.17557251908397,-4.083969465648855,-32.58015267175573
6276837846093,3.193987499,1,1.1707646118164061,1.697488977050781,8.058882788085937,13.534351145038167,-10.732824427480915,-28.66412213740458
6276847848801,3.203990207,1,1.1001356628417969,1.7717092285156248,7.70573804321289,12.51908396946565,-18.290076335877863,-23.900763358778626
6276857845833,3.213987239,1,1.3120225097656248,1.85790048828125,7.400477331542969,12.86259541984733,-24.47328244274809,-20.106870229007633
6276867849426,3.223990832,1,1.5059528442382812,2.001552587890625,6.902483386230468,13.106870229007633,-33.18320610687023,-15.427480916030534
6276877845572,3.233986978,1,1.7369933044433592,2.127248175048828,6.263231542968749,9.80916030534351,-41.67175572519084,-9.091603053435115
6276887846718,3.243988124,1,1.7776947326660155,2.3044190979003907,5.7520694885253905,10.290076335877863,-45.13740458015267,-4.236641221374046
6276897852499,3.253993905,1,2.081758343505859,2.412158172607422,5.17746109008789,6.557251908396947,-44.099236641221374,1.3206106870229009
6276907847135,3.263988541,1,2.436100189208984,2.6204537170410154,5.213374114990234,7.213740458015267,-36.847328244274806,5.312977099236641
6276917846249,3.273987655,1,2.919728924560547,2.4516625,5.1152118469238275,10.458015267175572,-30.862595419847327,13.679389312977099
6276927843645,3.283985051,1,3.3961750549316405,2.5570073730468748,4.967968444824218,16.6793893129771,-29.85496183206107,20.022900763358777
6276937847135,3.293988541,1,3.5613749694824217,2.290053887939453,4.899733697509765,5.694656488549619,-29.442748091603054,26.763358778625953
6276947845937,3.303987343,1,4.00909067993164,2.205059729003906,4.802768530273437,2.4122137404580153,-29.106870229007633,29.610687022900763
6276957844583,3.313985989,1,4.4568063903808595,2.136824981689453,4.6351744140625,0.3435114503816794,-23.48854961832061,29.480916030534353
6276967848489,3.323989895,1,4.648342523193359,2.118868469238281,4.709394665527343,-13.206106870229007,-21.85496183206107,28.19083969465649
6276977847187,3.333988593,1,5.312733483886719,2.433705987548828,4.952406134033203,-27.99236641221374,-13.625954198473282,24.82442748091603
6276987846874,3.34398828,1,5.777208605957031,2.6695348510742187,5.103240838623047,-31.748091603053435,-9.740458015267176,26.81679389312977
6276997845989,3.353987395,1,6.0513446960449215,2.2732944763183593,5.493495709228515,-40.63358778625954,-3.33587786259542,35.045801526717554
6277007846666,3.363988072,1,6.930016705322266,1.5023615417480467,5.692214447021484,-18.48854961832061,5.816793893129771,46.80916030534351
6277017844895,3.373986301,1,7.321468676757812,0.7769184387207031,6.159083770751953,3.618320610687023,20.03053435114504,53.900763358778626
6277027846353,3.383987759,1,7.173028173828125,0.055066638183593745,6.813897924804687,-2.6412213740458017,27.557251908396946,53.2442748091603
6277037845885,3.393987291,1,7.134720947265625,-0.18435352783203124,7.64229169921875,-8.488549618320612,39.66412213740458,41.656488549618324
6277047846145,3.403987551,1,6.999448553466796,-0.09576806640624999,8.621520178222656,-16.061068702290076,48.6412213740458,29.85496183206107
6277057844478,3.413985884,1,6.572083557128906,0.05626373901367187,9.598354455566406,-24.85496183206107,52.64885496183206,20.549618320610687
6277067845885,3.423987291,1,6.245275030517578,-0.00718260498046875,10.315417852783202,-29.49618320610687,53.10687022900763,14.954198473282442
6277077845885,3.433987291,1,6.368576416015625,-0.18914193115234373,10.339359869384765,-28.80916030534351,45.20610687022901,15.0
6277087848593,3.443989999,1,6.017825872802734,-0.9660603698730468,9.81263550415039,-28.061068702290076,39.6793893129771,23.221374045801525
6277097847083,3.453988489,1,5.2073886108398435,-1.4903905334472656,11.075576879882812,1.9618320610687023,68.76335877862596,18.106870229007633
6277107847708,3.463989114,1,4.717774371337891,-1.4724340209960938,12.48097325439453,22.51145038167939,89.25190839694656,10.969465648854962
6277117844218,3.473985624,1,4.139574670410156,-1.3862427612304686,13.589488623046874,30.65648854961832,82.41221374045801,8.427480916030534
6277127847551,3.483988957,1,3.6463691284179687,-0.6691793640136718,13.795389965820311,39.45038167938932,56.412213740458014,-1.5572519083969465
6277137845155,3.493986561,1,3.172317199707031,-0.6560112548828124,13.444639422607422,27.33587786259542,22.938931297709924,-7.480916030534351
6277147847030,3.503988436,1,3.6367923217773437,-0.2825157958984375,12.212822668457031,19.198473282442748,-13.961832061068701,-20.106870229007633
6277157845051,3.513986457,1,4.018667486572266,0.16160861206054686,10.029310754394531,-0.4351145038167939,-53.900763358778626,-26.564885496183205
6277167846353,3.523987759,1,3.8953661010742184,0.4417302062988281,7.593210565185546,-11.366412213740459,-72.78625954198473,-29.984732824427482
6277177846093,3.533987499,1,3.8367081604003905,0.8056488586425781,6.027402679443359,-11.267175572519085,-62.732824427480914,-35.0763358778626
6277187847291,3.543988697,1,3.948038537597656,1.0007762939453124,5.863399865722656,-1.3435114503816794,-25.129770992366414,-36.3587786259542
6277197845624,3.55398703,1,4.0066964782714845,1.2964601989746094,6.6702458251953125,28.068702290076335,11.389312977099237,-34.083969465648856
6277207846041,3.563987447,1,3.688267657470703,1.180341418457031,7.948749511718749,42.83206106870229,27.977099236641223,-24.931297709923665
6277217845572,3.573986978,1,3.5230677429199218,0.9888052856445312,8.49821879272461,51.97709923664122,23.87786259541985,-17.15267175572519
6277227844791,3.583986197,1,3.228580938720703,0.7829039428710937,8.287529046630858,48.79389312977099,6.068702290076335,-13.282442748091603
6277237862603,3.594004009,1,2.8945898071289062,0.6943184814453125,7.495048297119141,33.36641221374046,-15.526717557251908,-15.83969465648855
6277247858333,3.603999739,1,2.749740606689453,0.9157821350097656,6.603208178710937,21.755725190839694,-26.16793893129771,-23.625954198473284
6277257857187,3.613998593,1,2.539050860595703,1.3431471313476562,5.802347723388672,14.580152671755725,-33.18320610687023,-30.35114503816794
6277267856874,3.62399828,1,2.347514727783203,1.7753005310058592,5.251681341552734,7.595419847328245,-34.16030534351145,-34.97709923664122
6277277858124,3.63399953,1,2.0566192260742184,2.4097639709472656,4.7955859252929685,5.641221374045801,-32.091603053435115,-37.58015267175573
6277287859270,3.644000676,1,2.1499930908203124,2.8562825805664063,4.538209246826171,0.0916030534351145,-30.938931297709924,-33.732824427480914
6277297857968,3.653999374,1,2.357091534423828,3.303998291015625,3.9887399658203124,5.3893129770992365,-31.862595419847327,-25.984732824427482
6277308120051,3.664261457,1,2.414552374267578,3.3159692993164063,3.2333693420410152,-1.6793893129770991,-39.12977099236641,-14.396946564885496
6277318340728,3.674482134,1,2.3870190551757813,3.2716765686035156,2.4768016174316405,-8.65648854961832,-39.282442748091604,-5.900763358778626
6277327858176,3.683999582,1,2.133233679199219,3.4153286682128905,2.175132208251953,-6.236641221374046,-31.6793893129771,-2.9618320610687023
6277337856770,3.693998176,1,2.3451205261230466,3.1926679138183593,2.426523382568359,-22.404580152671755,-13.419847328244275,5.587786259541985
6277347861405,3.704002811,1,2.539050860595703,3.2597055603027343,3.2046389221191403,-23.923664122137403,8.267175572519085,9.572519083969466
6277357857916,3.713999322,1,2.835931866455078,2.7760768249511716,4.486733911132812,-26.732824427480917,21.87786259541985,19.740458015267176
6277367859114,3.72400052,1,3.864241479492187,2.290053887939453,5.65031591796875,-15.183206106870228,33.63358778625954,27.916030534351144
6277377858385,3.733999791,1,4.474762902832031,1.9704279663085937,7.264007836914062,-27.916030534351144,44.732824427480914,31.27480916030534
6277387858280,3.743999686,1,4.75009609375,1.6065093139648436,6.813897924804687,-35.82442748091603,6.32824427480916,44.98473282442748
6277397857707,3.753999113,1,5.578489868164062,1.5298948608398437,7.706935144042968,-52.778625954198475,30.778625954198475,39.10687022900763
6277407857916,3.763999322,1,6.8569935546875,1.1420341918945311,9.223661895751952,-49.29007633587786,59.725190839694655,40.01526717557252
6277417858124,3.77399953,1,7.155071661376953,0.5446808776855468,10.80862339477539,-29.870229007633586,79.5114503816794,49.30534351145038
6277427857499,3.783998905,1,7.825448126220703,-0.4429273071289062,12.611457244873046,-18.740458015267176,97.94656488549619,61.656488549618324
6277437859530,3.794000936,1,7.556100439453124,-1.313219610595703,14.56273159790039,6.732824427480916,112.94656488549619,63.458015267175576
6277447862395,3.804003801,1,7.216123803710937,-1.9069816223144531,15.726313604736328,23.442748091603054,103.69465648854961,64.12977099236642
6277457859478,3.814000884,1,6.101622930908203,-2.4396914916992185,15.670049865722655,36.29007633587786,65.51908396946565,56.18320610687023
6277467863801,3.824005207,1,5.825092639160156,-2.721010186767578,14.982913989257812,31.00763358778626,38.80152671755725,34.786259541984734
6277477860312,3.834001718,1,5.307945080566406,-2.3977929626464842,14.445415716552734,35.16793893129771,15.351145038167939,9.458015267175572
6277487857343,3.843998749,1,5.510255120849609,-1.7800889343261719,13.110648291015623,31.419847328244273,-18.572519083969464,-16.53435114503817
6277497858072,3.853999478,1,5.02423218383789,-1.140837091064453,10.89122335205078,3.122137404580153,-65.06106870229007,-34.80916030534351
6277507858749,3.864000155,1,4.50109912109375,-0.4740519287109375,8.856151940917968,-17.427480916030536,-88.47328244274809,-55.969465648854964
6277517858124,3.87399953,1,4.633977313232422,0.5315127685546874,6.527790826416015,-24.66412213740458,-93.96946564885496,-73.16030534351145
6277527855624,3.88399703,1,4.018667486572266,1.4975731384277342,5.465962390136719,-24.46564885496183,-79.57251908396947,-82.87786259541984
6277537868332,3.894009738,1,3.379415643310547,2.31758720703125,4.786009118652344,-14.969465648854962,-53.3206106870229,-75.98473282442748
6277547860364,3.90400177,1,3.066972326660156,2.817975354003906,4.989516259765625,4.900763358778626,-13.763358778625955,-64.52671755725191
6277557857968,3.913999374,1,2.7054478759765623,3.0035259826660154,5.5270145324707025,36.33587786259542,11.801526717557252,-45.01526717557252
6277567857134,3.92399854,1,2.318784307861328,2.73896669921875,6.2213330139160155,47.57251908396947,23.82442748091603,-24.702290076335878
6277577859687,3.934001093,1,1.954865655517578,2.2553379638671873,6.6702458251953125,56.13740458015267,21.83206106870229,-9.007633587786259
6277587856405,3.943997811,1,1.7968483459472655,1.7357962036132812,6.420051751708984,56.229007633587784,10.450381679389313,-0.3893129770992366
6277597859009,3.954000415,1,1.734599102783203,1.2102689392089843,6.00106646118164,42.30534351145038,-5.183206106870229,0.015267175572519083
6277607858749,3.964000155,1,1.6124948181152343,1.1959037292480468,5.227739324951171,21.572519083969464,-21.580152671755727,-6.755725190839694
6277617858541,3.973999947,1,1.5346832641601562,1.4640543151855467,4.442441180419921,-3.450381679389313,-32.57251908396947,-16.129770992366414
6277627858124,3.98399953,1,1.3443442321777344,2.1775264099121094,3.669114044189453,-19.480916030534353,-35.70992366412214,-25.47328244274809
6277637860051,3.994001457,1,1.2581529724121092,2.8610709838867185,3.517082238769531,-33.45038167938932,-28.27480916030534,-29.755725190839694
6277647856770,4.003998176,1,1.0785878479003905,3.4344822814941405,3.295618585205078,-40.67175572519084,-22.954198473282442,-25.625954198473284
6277657857551,4.013998957,1,1.254561669921875,3.912125512695312,3.611653204345703,-44.229007633587784,-11.213740458015268,-15.068702290076336
6277667859530,4.024000936,1,1.8327613708496093,3.944447235107422,4.046200805664062,-33.56488549618321,1.8702290076335877,0.6030534351145038
6277677857759,4.033999165,1,2.2110452331542967,3.456030096435547,4.622006304931641,-22.045801526717558,8.564885496183207,22.458015267175572
6277687859062,4.044000468,1,2.4911668273925778,2.433705987548828,5.309142181396484,-11.374045801526718,13.122137404580153,43.06870229007634
6277697857499,4.053998905,1,2.518700146484375,1.5203180541992187,6.848613848876953,3.6412213740458017,26.580152671755727,52.79389312977099
6277707861509,4.064002915,1,4.292803576660156,0.5961562133789062,7.756016278076172,7.862595419847328,36.41984732824427,52.458015267175576
6277717860259,4.074001665,1,4.735730883789063,0.20231004028320312,7.041347082519531,-3.877862595419847,-6.5038167938931295,52.916030534351144
6277727857916,4.083999322,1,5.610811590576172,0.2932897033691406,7.314286071777343,-49.76335877862596,9.290076335877863,34.656488549618324
6277737859426,4.094000832,1,6.246472131347656,0.6260837341308594,8.403647827148436,-62.00763358778626,29.99236641221374,19.99236641221374
6277747856926,4.103998332,1,7.123947039794921,0.7864952453613281,10.137049829101562,-58.847328244274806,58.465648854961835,16.53435114503817
6277757869426,4.114010832,1,7.056909393310547,0.7924807495117187,12.161347332763672,-34.44274809160305,85.52671755725191,22.076335877862597
6277767862186,4.124003592,1,7.058106494140625,-0.5434837768554687,13.527239379882811,-25.0,93.95419847328245,50.595419847328245
6277777858853,4.134000259,1,6.155492468261718,-1.1013327636718748,14.952986468505859,19.045801526717558,101.2824427480916,58.68702290076336
6277787858801,4.144000207,1,5.493495709228515,-1.9859902770996092,16.421829187011717,36.35114503816794,106.98473282442748,63.19847328244275
6277797860364,4.15400177,1,4.671087438964843,-2.6994623718261717,16.439785699462888,56.717557251908396,73.93129770992367,58.56488549618321
6277807857759,4.163999165,1,4.135983367919922,-2.883815899658203,16.594211706542968,55.274809160305345,45.74809160305343,32.80152671755725
6277817865624,4.17400703,1,4.37300933227539,-2.2601263671875,15.16247911376953,40.12977099236641,-4.00763358778626,2.9236641221374047
6277827859999,4.184001405,1,4.285620971679688,-1.792059942626953,12.416329809570312,8.572519083969466,-67.82442748091603,-20.419847328244273
6277837858645,4.194000051,1,3.860650177001953,-0.8164227661132812,9.366116894531249,-17.793893129770993,-109.17557251908397,-46.770992366412216
6277847858124,4.20399953,1,4.653130926513672,0.19991583862304688,7.101202124023437,-40.3206106870229,-113.80916030534351,-72.83206106870229
6277857859166,4.214000572,1,4.004302276611328,1.6639701538085936,5.359420416259765,-31.16030534351145,-100.46564885496183,-83.81679389312977
6277867859061,4.224000467,1,3.506308331298828,2.414552374267578,4.3454760131835934,-12.702290076335878,-75.6412213740458,-73.92366412213741
6277877856926,4.233998332,1,3.4332851806640625,2.835931866455078,4.054580511474609,7.717557251908397,-35.19083969465649,-58.06106870229008
6277887858332,4.243999738,1,3.0885201416015624,3.0514100158691404,4.279635467529297,32.847328244274806,-2.3587786259541983,-39.7557251908397
6277897859634,4.25400104,1,2.4349030883789062,2.7329811950683593,5.003881469726562,47.85496183206107,17.66412213740458,-18.519083969465647
6277907853645,4.263995051,1,2.233790148925781,2.379836450195312,5.813121630859374,67.70229007633588,30.587786259541986,-5.32824427480916
6277917858176,4.273999582,1,2.1739351074218747,1.8950106140136718,6.111199737548827,63.541984732824424,22.450381679389313,2.7557251908396947
6277927858436,4.283999842,1,1.811213555908203,1.4879963317871092,5.693411547851563,44.80152671755725,0.6870229007633588,5.015267175572519
6277937857603,4.293999009,1,1.7549498168945312,1.4592659118652342,4.976348150634766,24.49618320610687,-16.984732824427482,-1.4427480916030535
6277947858489,4.303999895,1,1.6579846496582031,1.714248388671875,4.236539837646484,2.33587786259542,-29.549618320610687,-9.50381679389313
6277957858280,4.313999686,1,1.5861585998535155,2.395398760986328,3.7014357666015623,-14.32824427480916,-33.94656488549618,-18.396946564885496
6277967857291,4.323998697,1,1.7286135986328124,2.9041666137695312,3.287238879394531,-29.732824427480917,-33.01526717557252,-20.396946564885496
6277977856561,4.333997967,1,1.6543933471679686,3.3877953491210935,3.0119056884765625,-33.45038167938932,-27.717557251908396,-17.427480916030536
6277987859113,4.344000519,1,1.9045874206542968,3.469198205566406,3.0633810241699218,-36.55725190839695,-18.450381679389313,-7.442748091603053
6277997858124,4.35399953,1,2.327164013671875,3.5015199279785154,3.4739866088867184,-36.37404580152672,-3.7099236641221376,5.022900763358779
6278007861249,4.364002655,1,2.529474053955078,3.172317199707031,4.16231958618164,-31.389312977099237,10.213740458015268,20.099236641221374
6278017859791,4.374001197,1,2.85388837890625,2.674323254394531,5.173869787597656,-28.595419847328245,23.51145038167939,32.3587786259542
6278027860311,4.384001717,1,3.6715082458496093,1.8124106567382812,6.48589229736328,-19.38167938931298,38.267175572519086,40.70992366412214
6278037859634,4.39400104,1,4.272452862548828,1.4604630126953124,8.33182177734375,-15.84732824427481,50.603053435114504,40.19083969465649
6278047858332,4.403999738,1,4.842272857666015,0.4632780212402344,7.589619262695312,-23.229007633587788,9.183206106870228,62.152671755725194
6278057857447,4.413998853,1,4.89015689086914,-0.2980781066894531,7.806294512939453,-34.57251908396947,14.748091603053435,53.57251908396947
6278067856666,4.423998072,1,4.754884497070313,-0.6452373474121094,8.9255837890625,-45.916030534351144,36.961832061068705,42.61068702290076
6278077858228,4.433999634,1,5.098452435302734,-0.8798691101074219,10.741585748291016,-28.717557251908396,67.68702290076335,33.267175572519086
6278087858801,4.444000207,1,4.867411975097656,-0.49200844116210934,12.611457244873046,-35.82442748091603,81.54198473282443,17.778625954198475
6278097857082,4.453998488,1,4.313154290771484,-1.0893617553710937,14.025233325195313,-59.11450381679389,82.93129770992367,31.748091603053435
6278107856874,4.46399828,1,4.292803576660156,-0.7685387329101562,15.020024114990234,-7.633587786259542,79.23664122137404,27.106870229007633
6278117860676,4.474002082,1,3.9228994201660154,-1.3742717529296875,15.73110200805664,-7.435114503816794,63.10687022900763,37.66412213740458
6278127857759,4.483999165,1,2.789244934082031,-1.6795324645996093,15.733496209716796,21.900763358778626,31.984732824427482,37.85496183206107
6278137858853,4.494000259,1,2.881421697998047,-1.7705121276855467,14.805743066406249,40.85496183206107,-5.740458015267175,33.221374045801525
6278147857863,4.503999269,1,3.6343981201171873,-1.629254229736328,13.047201947021483,23.83969465648855,-48.534351145038165,16.732824427480917
6278157857030,4.513998436,1,3.861847277832031,-1.5310919616699217,10.332177264404296,2.8625954198473282,-97.72519083969466,4.885496183206107
6278167857707,4.523999113,1,4.049792108154296,-1.01514150390625,7.671022119140624,2.816793893129771,-117.83206106870229,-12.664122137404581
6278177857603,4.533999009,1,4.192247106933594,-0.3459621398925781,5.598840582275391,0.9847328244274809,-116.29007633587786,-27.137404580152673
6278187858072,4.543999478,1,4.2688615600585935,0.5638344909667968,4.707000463867187,6.030534351145038,-92.62595419847328,-44.98473282442748
6278197856926,4.553998332,1,4.478354205322265,1.5514426757812498,4.109647149658203,-6.6183206106870225,-67.9618320610687,-50.61832061068702
6278207858228,4.563999634,1,4.41131655883789,2.3295582153320313,4.164713787841797,-16.900763358778626,-42.79389312977099,-49.0763358778626
6278217858124,4.57399953,1,4.656722229003906,3.009511486816406,4.835090252685546,-2.145038167938931,-14.694656488549619,-41.51145038167939
6278227856145,4.583997551,1,5.026626385498046,3.2070331237792966,5.805939025878906,15.50381679389313,8.450381679389313,-26.38167938931298
6278237859165,4.594000571,1,5.3390697021484375,2.895786907958984,6.590040069580078,26.9618320610687,14.893129770992367,-7.732824427480916
6278247859478,4.604000884,1,5.792770916748046,2.203862628173828,7.2723875427246085,33.29770992366412,19.587786259541986,6.931297709923665
6278257857915,4.613999321,1,6.318298181152343,1.0989385620117187,7.152677459716797,39.43511450381679,12.381679389312977,18.702290076335878
6278267856561,4.623997967,1,6.415263348388671,0.14604630126953125,7.5716627502441405,36.80916030534351,15.48091603053435,18.66412213740458
6278277857447,4.633998853,1,6.342240197753906,-0.22864625854492185,7.988253839111327,37.98473282442748,25.396946564885496,7.9541984732824424
6278287857186,4.643998592,1,5.963956335449218,-0.316034619140625,8.713696942138672,20.908396946564885,26.732824427480917,-4.679389312977099
6278297859947,4.654001353,1,5.443217474365234,0.06105214233398437,9.319429962158203,7.793893129770993,24.129770992366414,-21.099236641221374
6278307858488,4.663999894,1,5.33068999633789,0.5351040710449219,9.610325463867188,-3.648854961832061,19.427480916030536,-32.81679389312977
6278317858228,4.673999634,1,5.036203192138672,1.0498574279785156,9.358934289550781,-9.259541984732824,6.709923664122138,-36.52671755725191
6278327857968,4.683999374,1,4.460397692871093,1.1815385192871093,8.730456353759765,-9.778625954198473,-6.213740458015267,-31.12213740458015
6278337863593,4.694004999,1,4.125209460449218,1.1480196960449218,8.078036401367187,6.893129770992366,-5.137404580152672,-26.603053435114504
6278347858332,4.703999738,1,3.7600937072753906,0.9301473449707031,7.721300354003906,20.16793893129771,0.4961832061068702,-22.47328244274809
6278357856770,4.713998176,1,3.2154128295898436,0.9720458740234375,7.538143927001952,29.16030534351145,4.122137404580153,-21.763358778625953
6278367859478,4.724000884,1,2.6527754394531247,0.8547299926757812,7.42441934814453,25.206106870229007,3.717557251908397,-22.251908396946565
6278377857811,4.733999217,1,2.2062568298339844,1.1528080993652343,7.16943687133789,21.580152671755727,-0.8396946564885496,-27.099236641221374
6278387856978,4.743998384,1,1.7034744812011717,1.2761094848632812,6.5972226745605465,9.49618320610687,-11.419847328244275,-28.793893129770993
6278397866301,4.754007707,1,1.1563994018554686,1.5083470458984374,5.931634613037109,4.236641221374046,-24.48854961832061,-30.0381679389313
6278407860051,4.764001457,1,0.9409212524414062,1.8028338500976562,5.172672686767577,-3.4427480916030535,-28.572519083969464,-31.778625954198475
6278417859113,4.774000519,1,0.8547299926757812,2.1164742675781247,4.5322237426757805,-9.877862595419847,-30.702290076335878,-31.99236641221374
6278427858176,4.783999582,1,0.8786720092773437,2.4564509033203126,4.102464544677734,-14.557251908396946,-30.15267175572519,-28.03053435114504
6278437858645,4.794000051,1,0.5111620544433594,2.940079638671875,3.957615344238281,-13.213740458015268,-23.82442748091603,-25.16793893129771
6278447856822,4.803998228,1,0.32082302246093747,3.1316157714843746,3.7241806823730466,-24.748091603053435,-24.236641221374047,-14.755725190839694
6278457857186,4.813998592,1,0.612915625,3.3865982482910155,3.8893805969238278,-27.435114503816795,-13.458015267175572,-5.282442748091603
6278467858280,4.823999686,1,1.533486163330078,3.0262708984374997,4.820725042724609,-19.48854961832061,7.183206106870229,5.748091603053435
6278477860259,4.834001665,1,2.1487959899902345,2.808398547363281,5.2444987365722655,-7.854961832061068,6.5038167938931295,17.885496183206108
6278487857863,4.843999269,1,3.447650390625,2.3235727111816407,6.771999395751953,-33.7557251908397,22.0,23.923664122137403
6278497858853,4.854000259,1,4.406528155517578,2.2062568298339844,6.186617089843749,-4.2748091603053435,2.6259541984732824,41.0
6278507858072,4.863999478,1,5.195417602539062,1.4161702819824218,6.635529901123046,-30.297709923664122,6.114503816793893,43.80152671755725
6278517853801,4.873995207,1,5.531802935791015,0.9253589416503906,7.76319888305664,-25.068702290076335,30.885496183206108,42.06870229007634
6278527857759,4.883999165,1,7.311891870117187,1.0606313354492187,8.601169464111328,-4.244274809160306,48.11450381679389,29.541984732824428
6278537858645,4.894000051,1,8.12711753540039,0.3746925598144531,10.248380206298828,-70.41221374045801,54.82442748091603,27.480916030534353
6278547856561,4.903997967,1,8.227674005126953,0.13407529296874998,11.567585321044922,-52.2442748091603,63.045801526717554,27.419847328244273
6278557858332,4.913999738,1,7.696161236572265,-0.5255272644042969,12.708422412109375,-39.343511450381676,72.61068702290076,35.221374045801525
6278567858124,4.92399953,1,6.715735656738281,-1.1192892761230469,13.87918702392578,-19.69465648854962,83.80152671755725,41.20610687022901
6278577857759,4.933999165,1,6.4080807434082026,-1.7106570861816406,14.021642022705077,12.725190839694656,74.41984732824427,42.49618320610687
6278587857134,4.94399854,1,4.800374328613281,-2.3139959045410157,15.458163018798826,16.862595419847327,84.16793893129771,39.50381679389313
6278597857707,4.953999113,1,4.453215087890625,-1.9883844787597655,15.970522174072265,62.83969465648855,73.03053435114504,22.603053435114504
6278607856040,4.963997446,1,3.873818286132812,-2.023100402832031,15.23909356689453,52.32824427480916,20.16030534351145,12.13740458015267
6278617856561,4.973997967,1,3.1651345947265623,-1.8626888916015625,12.935871569824219,33.05343511450382,-42.2442748091603,-4.862595419847328
6278627858072,4.983999478,1,3.6379894226074216,-1.351526837158203,10.254365710449218,16.03053435114504,-84.80152671755725,-32.52671755725191
6278637858176,4.993999582,1,3.938461730957031,-0.076614453125,7.687781530761718,-29.85496183206107,-101.83206106870229,-62.908396946564885
6278647858853,5.004000259,1,3.554192364501953,0.7445967163085937,5.312733483886719,-68.74045801526718,-117.2442748091603,-80.58778625954199
6278657859374,5.01400078,1,2.6719290527343746,2.1775264099121094,3.5685575744628903,-50.85496183206107,-93.54961832061069,-87.77862595419847
6278667857551,5.023998957,1,3.0741549316406247,3.2800562744140622,3.162740393066406,-39.2442748091603,-35.603053435114504,-77.90839694656489
6278677857394,5.0339988,1,2.7940333374023436,3.8367081604003905,3.641580725097656,-7.038167938931298,10.374045801526718,-53.213740458015266
6278687860051,5.044001457,1,2.195482922363281,3.527856146240234,4.9069163024902345,34.38167938931298,47.31297709923664,-20.34351145038168
6278697855936,5.053997342,1,1.9991583862304687,2.625242120361328,6.548141540527343,72.29770992366412,71.12977099236642,7.5038167938931295
6278707856144,5.06399755,1,2.04943662109375,1.5729904907226562,7.996633544921875,93.40458015267176,73.78625954198473,24.625954198473284
6278717858540,5.073999946,1,2.318784307861328,0.59376201171875,8.884882360839843,86.25954198473282,50.66412213740458,28.053435114503817
6278727858540,5.083999946,1,2.39420166015625,-0.008379705810546874,8.54849702758789,56.6793893129771,9.114503816793894,18.81679389312977
6278737857499,5.093998905,1,2.431311785888672,0.003591302490234375,7.250839727783203,15.664122137404581,-33.88549618320611,-0.9312977099236641
6278747859061,5.104000467,1,2.418143676757812,0.6548141540527344,5.667075329589843,-24.0,-61.916030534351144,-23.549618320610687
6278757858644,5.11400005,1,2.3546973327636715,1.7561469177246092,4.475960003662109,-45.786259541984734,-70.22137404580153,-40.66412213740458
6278767852551,5.123993957,1,2.291250988769531,2.8227637573242186,3.708618371582031,-46.44274809160305,-62.33587786259542,-46.48091603053435
6278777857551,5.133998957,1,2.375048046875,3.5793314819335937,3.6571430358886716,-37.05343511450382,-43.30534351145038,-41.54961832061068
6278787856874,5.14399828,1,2.454056701660156,3.840299462890625,3.441664886474609,-28.96946564885496,-33.725190839694655,-23.12213740458015
6278797858176,5.153999582,1,2.6048914062499997,3.602076397705078,3.284844677734375,-21.49618320610687,-23.610687022900763,-2.572519083969466
6278807857707,5.163999113,1,2.626439221191406,2.807201446533203,3.689464758300781,-17.580152671755727,-4.030534351145038,15.48091603053435
6278817858072,5.173999478,1,2.3965958618164063,2.205059729003906,4.995501763916016,-1.6564885496183206,19.946564885496183,29.068702290076335
6278827859894,5.1840013,1,2.6013001037597654,1.2892775939941405,5.633556506347656,-2.0229007633587788,34.16030534351145,40.70992366412214
6278837858905,5.194000311,1,2.3774422485351563,0.852335791015625,6.341043096923828,-3.8625954198473282,34.44274809160305,44.17557251908397
6278847857967,5.203999373,1,2.589329095458984,0.7314286071777343,7.738059765625,-22.297709923664122,55.908396946564885,35.97709923664122
6278857857863,5.213999269,1,2.867056488037109,1.0366893188476562,9.340977777099608,-41.44274809160305,63.221374045801525,28.389312977099237
6278867856978,5.223998384,1,4.329913702392578,0.97683427734375,10.897208856201171,-51.152671755725194,75.47328244274809,27.53435114503817
6278877859686,5.234001092,1,5.185840795898438,1.0307038146972656,12.312182037353514,-21.061068702290076,79.2442748091603,36.541984732824424
6278887858853,5.244000259,1,5.412092852783203,-0.49679684448242184,13.333309045410155,-26.229007633587788,65.45801526717557,60.152671755725194
6278897857967,5.253999373,1,4.993107562255859,-1.7561469177246092,13.775039251708984,-10.374045801526718,58.0,71.51908396946565
6278907863019,5.264004425,1,4.523844036865234,-2.3343466186523436,14.56871710205078,14.19083969465649,68.07633587786259,63.58015267175573
6278917858488,5.273999894,1,4.135983367919922,-2.5342624572753905,15.53238327026367,35.35114503816794,63.68702290076336,49.20610687022901
6278927856874,5.28399828,1,4.110844250488281,-2.039859814453125,15.743073016357421,36.0,38.0,24.946564885496183
6278937865519,5.294006925,1,3.706224169921875,-1.4101847778320311,14.393940380859375,7.427480916030534,-21.763358778625953,4.358778625954199
6278947859321,5.304000727,1,3.9133226135253905,-0.9911994873046874,11.422736120605467,-6.603053435114504,-81.3206106870229,-7.015267175572519
6278957857915,5.313999321,1,4.246116644287109,-0.2765302917480469,9.039308367919922,-14.412213740458014,-97.70229007633588,-27.564885496183205
6278967865936,5.324007342,1,4.637568615722656,0.32441432495117184,7.017405065917968,-17.709923664122137,-103.29770992366412,-40.42748091603053
6278977859269,5.334000675,1,4.556165759277343,1.0797849487304687,5.385756634521484,-9.748091603053435,-95.10687022900764,-45.54961832061068
6278987858905,5.344000311,1,4.039018200683594,1.6065093139648436,4.298789080810547,-10.122137404580153,-79.58778625954199,-41.099236641221374
6278997858228,5.353999634,1,4.303577484130859,2.019509100341797,4.428075970458984,0.8931297709923665,-30.30534351145038,-38.961832061068705
6279007859321,5.364000727,1,4.386177441406249,2.300827795410156,5.2636523498535155,24.83969465648855,2.6030534351145036,-24.076335877862597
6279017858696,5.374000102,1,4.163516687011718,1.9309236389160156,6.133944653320312,35.66412213740458,16.938931297709924,-8.488549618320612
6279027856926,5.383998332,1,3.2884359802246093,1.4101847778320311,7.089231115722656,49.16793893129771,19.603053435114504,3.2442748091603053
6279037859269,5.394000675,1,3.1292215698242187,1.140837091064453,7.206546997070312,51.7557251908397,10.236641221374045,4.519083969465649
6279047859061,5.404000467,1,3.038241906738281,1.042674822998047,6.99705435180664,25.83206106870229,-4.480916030534351,-1.282442748091603
6279057856978,5.413998384,1,2.7820623291015623,1.0941501586914062,5.968744738769531,2.954198473282443,-27.297709923664122,-5.893129770992366
6279067858748,5.424000154,1,2.7138275817871094,1.4185644836425781,4.984727856445312,-12.580152671755725,-35.213740458015266,-13.778625954198473
6279077857603,5.433999009,1,2.472013214111328,1.915361328125,4.355052819824219,-18.85496183206107,-31.80916030534351,-19.12213740458015
6279087856717,5.443998123,1,2.1799206115722654,2.346317626953125,4.365826727294921,-21.091603053435115,-19.587786259541986,-19.061068702290076
6279097854686,5.453996092,1,1.9967641845703124,2.6420015319824217,4.420893365478515,-20.885496183206108,-12.572519083969466,-13.587786259541986
6279107859321,5.464000727,1,1.9656395629882812,2.673126153564453,4.641159918212891,-22.244274809160306,-5.488549618320611,10.091603053435115
6279117857238,5.473998644,1,1.9728221679687499,2.3738509460449215,5.055356805419922,-9.870229007633588,2.6717557251908395,19.931297709923665
6279127857655,5.483999061,1,2.152387292480469,1.9608511596679685,5.613205792236328,-5.809160305343512,6.595419847328245,29.99236641221374
6279137859373,5.494000779,1,2.389413256835937,1.2641384765625,5.531802935791015,-13.740458015267176,4.6106870229007635,35.48854961832061
6279147857863,5.503999269,1,2.069787335205078,0.9852139831542969,5.232527728271484,-8.740458015267176,-7.6183206106870225,32.152671755725194
6279157856821,5.513998227,1,2.499546533203125,0.8259995727539062,5.887341882324218,-24.99236641221374,13.603053435114504,21.374045801526716
6279167857915,5.523999321,1,3.611653204345703,1.0570400329589844,7.1215528381347655,-24.34351145038168,35.725190839694655,10.977099236641221
6279177857603,5.533999009,1,4.349067315673828,1.6627730529785156,8.130708837890625,-43.93129770992366,42.80152671755725,10.763358778625955
6279187857342,5.543998748,1,5.1714755859374995,1.8291700683593748,9.50617769165039,-99.54198473282443,43.44274809160305,20.641221374045802
6279197858696,5.554000102,1,6.792350109863281,1.4401122985839843,11.4538607421875,-85.29007633587786,71.91603053435115,46.33587786259542
6279207858644,5.56400005,1,7.566874346923828,0.5039794494628906,12.374431280517577,-23.49618320610687,71.4885496183206,80.22900763358778
6279217858332,5.573999738,1,6.92043989868164,-1.37906015625,12.913126654052734,0.20610687022900764,60.786259541984734,87.07633587786259
6279227858019,5.583999425,1,6.918045697021484,-3.0813375366210938,13.64934366455078,24.47328244274809,75.03053435114504,72.76335877862596
6279237859998,5.594001404,1,6.253654736328125,-4.005499377441406,14.16050571899414,54.83206106870229,77.80152671755725,49.091603053435115
6279247857238,5.603998644,1,5.070919116210937,-4.224568829345703,14.596250421142578,61.770992366412216,59.725190839694655,4.862595419847328
6279257858540,5.613999946,1,4.687846850585937,-3.408146063232422,15.423447094726562,42.54961832061068,55.458015267175576,-29.740458015267176
6279267858071,5.623999477,1,4.8314989501953125,-2.020706201171875,14.574702606201171,15.282442748091603,5.419847328244275,-42.12213740458015
6279277857030,5.633998436,1,4.425681768798828,-1.1827356201171875,12.133814013671874,-11.50381679389313,-58.17557251908397,-49.61068702290076
6279287858540,5.643999946,1,4.333505004882812,-0.4213794921875,8.98304462890625,-3.885496183206107,-94.76335877862596,-58.961832061068705
6279297858800,5.654000206,1,3.8235400512695312,0.1292868896484375,7.394491827392578,6.145038167938932,-83.22900763358778,-71.52671755725191
6279307857759,5.663999165,1,4.060566015625,1.2677297790527342,6.242880828857421,8.259541984732824,-63.29770992366412,-58.30534351145038
6279317857811,5.673999217,1,2.996343377685547,1.4053963745117186,5.718550665283203,-8.969465648854962,-51.969465648854964,-54.0
6279327857186,5.683998592,1,2.91134921875,1.6627730529785156,5.012261175537109,22.595419847328245,-28.893129770992367,-45.31297709923664
6279337859582,5.694000988,1,2.5845406921386718,1.964442462158203,5.317521887207031,28.213740458015266,-2.480916030534351,-36.41984732824427
6279347857655,5.703999061,1,2.310404602050781,2.3535002319335936,5.906495495605468,39.29770992366412,13.16030534351145,-19.9618320610687
6279357859321,5.714000727,1,1.7501614135742187,2.1320365783691404,5.833472344970703,50.25190839694657,5.33587786259542,-4.770992366412214
6279367859165,5.724000571,1,1.3922282653808593,1.6364368347167968,5.199008905029297,60.030534351145036,-8.419847328244275,-10.114503816793894
6279377857655,5.733999061,1,1.2641384765625,1.5215151550292967,4.940435125732422,49.55725190839695,-14.48091603053435,-13.572519083969466
6279387858123,5.743999529,1,0.9085995300292968,1.4520833068847656,4.426878869628906,14.86259541984733,-25.702290076335878,-20.106870229007633
6279397858071,5.753999477,1,0.6272808349609375,1.734599102783203,3.910928411865234,-2.7022900763358777,-35.57251908396947,-25.396946564885496
6279407856613,5.763998019,1,0.4525041137695312,2.232593048095703,3.4823663146972654,-23.0,-36.534351145038165,-24.625954198473284
6279417857342,5.773998748,1,0.5374982727050781,2.712630480957031,3.208230224609375,-41.099236641221374,-31.0381679389313,-18.519083969465647
6279427857759,5.783999165,1,0.48243163452148435,3.4488474914550777,3.3494881225585935,-41.29770992366412,-17.916030534351144,-6.549618320610687
6279437858540,5.793999946,1,1.4832079284667967,3.7505169006347656,3.9049429077148434,-43.83206106870229,-1.6106870229007633,10.068702290076336
6279447858853,5.804000259,1,2.445676995849609,3.603273498535156,4.935646722412109,-25.419847328244273,19.763358778625953,26.30534351145038
6279457861405,5.814002811,1,3.399766357421875,2.8383260681152342,6.797138513183594,-32.770992366412216,36.221374045801525,53.31297709923664
6279467858123,5.823999529,1,4.3251252990722655,2.2541408630371094,6.240486627197265,-15.870229007633588,12.17557251908397,67.0
6279477862498,5.834003904,1,5.609614489746093,0.6392518432617187,7.277175946044921,-12.076335877862595,38.14503816793893,69.53435114503817
6279487857655,5.843999061,1,6.649895111083984,-0.3280056274414062,8.766369378662109,21.938931297709924,67.6030534351145,61.70992366412214
6279497857446,5.853998852,1,7.493851196289062,-1.1575965026855468,10.480617767333984,21.572519083969464,81.38167938931298,47.954198473282446
6279507853748,5.863995154,1,7.205349896240234,-2.029085906982422,11.926715570068358,-34.343511450381676,81.70229007633588,37.17557251908397
6279517859634,5.87400104,1,6.730100866699218,-2.519897247314453,13.494917657470703,-48.49618320610687,86.22900763358778,14.648854961832061
6279527859009,5.884000415,1,6.101622930908203,-1.9668366638183592,14.496891052246093,-2.015267175572519,65.12213740458016,8.122137404580153
6279537912030,5.894053436,1,5.354632012939453,-2.100911956787109,14.957774871826171,-27.9618320610687,68.6030534351145,2.687022900763359
6279547860363,5.904001769,1,4.00909067993164,-1.9009961181640624,15.928623645019531,0.7251908396946565,49.38167938931298,-7.938931297709924
6279557858488,5.913999894,1,3.73495458984375,-1.3754688537597655,16.0507279296875,48.908396946564885,-5.221374045801527,-11.083969465648854
6279567857446,5.923998852,1,2.703053674316406,-1.5538368774414062,14.966154577636718,25.702290076335878,-55.412213740458014,-23.061068702290076
6279577857915,5.933999321,1,2.517503045654297,-1.24498486328125,12.69884560546875,31.984732824427482,-85.18320610687023,-43.06106870229008
6279587857602,5.943999008,1,3.2321722412109373,-0.8152256652832031,10.028113653564452,6.916030534351145,-120.35114503816794,-57.70992366412214
6279597858175,5.953999581,1,2.360682836914062,-0.016759411621093748,7.20774409790039,-22.793893129770993,-107.58778625954199,-76.92366412213741
6279607857342,5.963998748,1,2.4779987182617185,1.2150573425292968,5.469553692626953,-21.984732824427482,-81.13740458015268,-74.70992366412214
6279617858227,5.973999633,1,2.2086510314941403,2.009932293701172,4.551377355957031,-10.82442748091603,-54.93129770992366,-66.34351145038168
6279627859373,5.984000779,1,2.157175695800781,2.867056488037109,3.9504327392578125,5.290076335877862,-33.38931297709924,-45.31297709923664
6279637858592,5.993999998,1,1.6232687255859375,2.962824554443359,3.840299462890625,12.549618320610687,-9.244274809160306,-25.053435114503817
6279647858332,6.003999738,1,1.3467384338378905,2.8419173706054686,4.1192239562988275,38.16030534351145,5.6106870229007635,-7.717557251908397
6279657857811,6.013999217,1,1.083376251220703,2.480392919921875,5.0577510070800775,55.80916030534351,3.183206106870229,2.564885496183206
6279667855780,6.023997186,1,0.7230489013671875,1.9812018737792967,5.697002850341796,55.6412213740458,-15.954198473282442,9.778625954198473
6279677858800,6.034000206,1,0.7505822204589844,1.714248388671875,5.622782598876952,53.33587786259542,-40.02290076335878,-1.1908396946564885
6279687858019,6.043999425,1,1.149216796875,1.6986860778808592,5.130774157714844,28.137404580152673,-80.5114503816794,-5.404580152671755
6279697858540,6.053999946,1,1.3958195678710936,2.0877438476562498,3.4632127014160154,-20.18320610687023,-97.33587786259542,-16.778625954198475
6279707856925,6.063998331,1,2.272097375488281,2.421734979248047,1.9189526306152342,-54.603053435114504,-82.19847328244275,-28.18320610687023
6279717863905,6.074005311,1,2.549824768066406,3.688267657470703,1.407790576171875,-73.76335877862596,-54.25954198473283,-14.51908396946565
6279727856821,6.083998227,1,4.100070343017578,3.6583401367187496,0.7888894470214843,-116.54198473282443,-26.03053435114504,7.641221374045801
6279737857654,6.09399906,1,4.279635467529297,3.7158009765625,0.48123453369140623,-91.56488549618321,70.95419847328245,40.11450381679389
6279747858696,6.104000102,1,4.302380383300781,2.407369769287109,3.4105402648925778,-56.13740458015267,155.9770992366412,59.87022900763359
6279757857759,6.113999165,1,4.735730883789063,1.4987702392578124,7.4208280456542965,16.68702290076336,211.96946564885496,92.25954198473282
6279767859738,6.124001144,1,4.027047192382812,-0.25139117431640623,12.04044014892578,25.091603053435115,233.13740458015266,97.34351145038168
6279777858279,6.133999685,1,3.478775012207031,-1.4030021728515625,16.23388435668945,22.603053435114504,217.27480916030535,99.09160305343511
6279787858123,6.143999529,1,3.4835634155273434,-2.3714567443847656,19.238607440185547,15.267175572519085,152.2824427480916,81.31297709923665
6279797857498,6.153998904,1,3.422511273193359,-2.6336218261718747,19.61270144958496,24.46564885496183,74.74809160305344,63.81679389312977
6279807857602,6.163999008,1,3.574543078613281,-3.246537451171875,19.61270144958496,14.320610687022901,-5.290076335877862,42.94656488549618
6279817862550,6.174003956,1,4.661510632324219,-3.303998291015625,17.791312536621092,27.549618320610687,-83.19847328244275,21.00763358778626
6279827857811,6.183999217,1,4.707000463867187,-3.161543292236328,14.061146350097655,11.068702290076336,-113.27480916030534,-14.083969465648854
6279837858800,6.194000206,1,4.493916516113281,-2.5474305664062498,10.97502041015625,-22.923664122137403,-109.8854961832061,-47.083969465648856
6279847858175,6.203999581,1,4.921281512451172,-1.5789759948730469,8.774749084472656,-22.748091603053435,-100.29770992366412,-64.83206106870229
6279857857238,6.213998644,1,3.873818286132812,-0.21068974609375,7.116764434814453,5.9541984732824424,-65.00763358778626,-68.1526717557252
6279867855832,6.223997238,1,3.9911341674804683,0.41898529052734373,6.517016918945312,-1.6259541984732824,-38.725190839694655,-69.63358778625954
6279877856613,6.233998019,1,3.859453076171875,1.6172832214355468,6.423643054199219,22.72519083969466,-23.923664122137403,-59.79389312977099
6279887855727,6.243997133,1,3.3399113159179685,1.9321207397460936,6.819883428955078,19.213740458015266,-30.916030534351144,-46.58015267175573
6279897858227,6.253999633,1,2.9747955627441405,2.3415292236328122,6.551732843017578,28.022900763358777,-41.37404580152672,-32.595419847328245
6279907857967,6.263999373,1,2.4768016174316405,2.2361843505859373,5.829881042480468,41.221374045801525,-39.87022900763359,-23.213740458015266
6279917855102,6.273996508,1,2.6623522460937497,2.24097275390625,5.098452435302734,33.12977099236641,-29.625954198473284,-20.72519083969466
6279927857186,6.283998592,1,2.863465185546875,2.3307553161621093,4.716577270507813,21.3206106870229,-20.16793893129771,-16.34351145038168
6279937858384,6.29399979,1,3.019088293457031,2.3822306518554686,4.528632440185547,25.541984732824428,-6.251908396946565,-11.450381679389313
6279947858227,6.303999633,1,2.9269115295410155,2.4253262817382812,4.7764323120117185,12.702290076335878,6.702290076335878,-6.0458015267175576
6279957857654,6.31399906,1,3.2022447204589843,2.061407629394531,4.995501763916016,4.625954198473282,16.14503816793893,1.3511450381679388
6279967858696,6.324000102,1,2.461239306640625,1.6208745239257811,5.366603021240234,9.541984732824428,32.58015267175573,3.0763358778625953
6279977857342,6.333998748,1,2.1739351074218747,1.3371616271972655,6.247669232177734,12.305343511450381,43.17557251908397,1.9312977099236641
6279987855936,6.343997342,1,2.2361843505859373,1.3946224670410154,7.107187628173827,2.2748091603053435,33.50381679389313,3.8702290076335877
6279997858019,6.353999425,1,2.1116858642578125,1.3634978454589843,7.540538128662109,-7.916030534351145,16.16793893129771,6.106870229007634
6280007868800,6.364010206,1,1.9105729248046874,1.3814543579101561,7.320271575927734,-13.236641221374045,7.076335877862595,5.633587786259542
6280017865884,6.37400729,1,2.096123553466797,1.4053963745117186,6.860584857177734,-15.763358778625955,5.297709923664122,4.3893129770992365
6280027861300,6.384002706,1,2.460042205810547,1.4341267944335936,6.740874774169922,-14.129770992366412,6.236641221374046,4.4961832061068705
6280037859946,6.394001352,1,2.693476867675781,1.4041992736816404,6.768408093261718,-10.625954198473282,8.450381679389313,5.32824427480916
6280047859842,6.404001248,1,2.938882537841797,1.419761584472656,6.918045697021484,-13.022900763358779,6.099236641221374,6.702290076335878
6280057857134,6.41399854,1,3.025073797607422,1.3287819213867187,7.098807922363281,-16.38167938931298,3.7557251908396947,6.801526717557252
6280067855050,6.423996456,1,3.104082452392578,1.2761094848632812,7.202955694580078,-19.366412213740457,1.7938931297709924,6.6106870229007635
6280077859686,6.434001092,1,3.1771056030273437,1.3000515014648437,7.240065820312499,-23.52671755725191,0.4122137404580153,7.473282442748092
6280087858696,6.444000102,1,3.2237925354003902,1.1875240234375,7.463923675537109,-17.404580152671755,8.259541984732824,4.931297709923665
6280097859373,6.454000779,1,3.220201232910156,1.3275848205566405,8.0062103515625,-8.580152671755725,-5.152671755725191,15.076335877862595
6280107857081,6.463998487,1,3.31357509765625,1.0307038146972656,7.766790185546874,-10.320610687022901,-4.7251908396946565,13.969465648854962
6280117857238,6.473998644,1,3.2800562744140622,0.7110778930664062,7.784746697998046,-9.145038167938932,-7.587786259541985,13.16030534351145
6280127858123,6.483999529,1,2.8694506896972656,0.5722141967773438,7.551312036132812,-8.16793893129771,-2.854961832061069,8.80916030534351
6280137858436,6.493999842,1,2.895786907958984,0.5291185668945312,7.8553756469726554,-6.961832061068702,-7.290076335877862,4.877862595419847
6280147857811,6.503999217,1,2.798821740722656,0.6189011291503906,8.100781317138672,-16.31297709923664,-15.030534351145038,0.2595419847328244
6280157860779,6.514002185,1,3.1603461914062496,0.9026140258789062,7.91642778930664,-27.916030534351144,-14.442748091603054,-7.083969465648855
6280167859008,6.524000414,1,4.31554849243164,1.2126631408691406,7.91642778930664,-43.343511450381676,-34.45038167938932,-5.625954198473282
6280177858331,6.533999737,1,4.410119458007812,1.5263035583496092,6.725312463378906,-90.81679389312977,-35.045801526717554,0.8473282442748091
6280187857706,6.543999112,1,4.438849877929687,1.3658920471191405,5.702988354492187,-74.83206106870229,6.969465648854962,0.6870229007633588
6280197858071,6.553999477,1,4.398148449707031,1.8231845642089843,6.248866333007812,-53.88549618320611,50.717557251908396,14.473282442748092
6280207856352,6.563997758,1,4.6830584472656245,1.7082628845214842,7.474697583007812,-40.847328244274806,86.3969465648855,32.030534351145036
6280217856769,6.573998175,1,4.097676141357422,1.2533645690917967,9.465476263427734,-10.709923664122137,106.99236641221374,54.58015267175573
6280227858383,6.583999789,1,3.42849677734375,0.3447650390625,11.47181725463867,27.366412213740457,123.06870229007633,71.25190839694656
6280237856821,6.593998227,1,3.1854853088378903,-0.8116343627929687,13.536816186523437,50.969465648854964,108.78625954198473,78.38931297709924
6280247858279,6.603999685,1,2.416946575927734,-1.7992425476074219,15.136142895507811,37.87022900763359,74.20610687022901,75.83206106870229
6280257858227,6.613999633,1,2.931699932861328,-2.986766571044922,15.195997937011718,32.32824427480916,16.053435114503817,52.3587786259542
6280267858852,6.624000258,1,2.8706477905273435,-3.3710359375,14.207192651367187,7.114503816793893,-29.358778625954198,23.84732824427481
6280277856665,6.633998071,1,2.9173347229003905,-3.116053460693359,10.532093103027343,-30.84732824427481,-48.11450381679389,-14.427480916030534
6280287857446,6.643998852,1,3.327940307617187,-2.099714855957031,9.147047442626953,-50.213740458015266,-55.13740458015267,-38.35114503816794
6280297858956,6.654000362,1,3.574543078613281,-0.8283937744140625,7.969100225830077,-34.396946564885496,-45.6793893129771,-46.83969465648855
6280307860936,6.664002342,1,3.737348791503906,0.354341845703125,7.71890615234375,-11.67175572519084,-28.625954198473284,-41.61068702290076
6280317858748,6.674000154,1,3.4536358947753905,1.0139444030761717,7.8709379577636716,0.9389312977099237,-3.030534351145038,-31.206106870229007
6280327859008,6.684000414,1,3.380612744140625,1.2413935607910156,8.355763793945313,27.236641221374047,8.305343511450381,-10.702290076335878
6280337863227,6.694004633,1,2.808398547363281,1.01514150390625,9.242815509033203,59.099236641221374,25.69465648854962,-1.4809160305343512
6280347860467,6.704001873,1,3.227383837890625,0.7026981872558593,9.285911138916015,60.595419847328245,7.427480916030534,9.450381679389313
6280357858019,6.713999425,1,3.1663316955566403,-0.0909796630859375,8.394071020507813,53.67175572519084,-19.885496183206108,10.587786259541986
6280367856456,6.723997862,1,2.953247747802734,-0.584185205078125,7.4028715332031245,40.63358778625954,-37.603053435114504,-0.7557251908396947
6280377857967,6.733999373,1,2.825157958984375,-0.7015010864257812,6.49307490234375,27.61832061068702,-44.786259541984734,-17.641221374045802
6280387857342,6.743998748,1,2.7832594299316407,-0.31004911499023435,5.736507177734374,16.786259541984734,-48.02290076335878,-32.6412213740458
6280397866300,6.754007706,1,2.6336218261718747,0.38187516479492184,5.416881256103515,9.17557251908397,-50.48854961832061,-42.11450381679389
6280407860415,6.764001821,1,2.5725696838378904,0.9313444458007812,4.727351177978515,11.282442748091603,-55.98473282442748,-47.725190839694655
6280417858800,6.774000206,1,1.9225439331054686,1.8507178833007811,4.224568829345703,-5.465648854961832,-55.3587786259542,-43.38931297709924
6280427857602,6.783999008,1,1.85790048828125,2.414552374267578,3.6475662292480466,-5.488549618320611,-55.70229007633588,-37.152671755725194
6280437857290,6.793998696,1,1.6675614562988281,2.653972540283203,3.3399113159179685,-9.51908396946565,-46.93893129770992,-31.84732824427481
6280447859113,6.804000519,1,1.7310078002929687,3.0023288818359375,2.8993782104492185,-19.580152671755727,-41.63358778625954,-18.0381679389313
6280457858488,6.813999894,1,1.8411410766601561,2.991554974365234,2.759317413330078,-23.34351145038168,-28.916030534351144,-8.908396946564885
6280467858019,6.823999425,1,2.086546746826172,2.996343377685547,3.1364041748046874,-24.81679389312977,-6.595419847328245,3.885496183206107
6280477858852,6.834000258,1,1.8076222534179687,2.7712884216308593,4.680664245605469,-33.6412213740458,23.977099236641223,15.450381679389313
6280487857863,6.843999269,1,2.195482922363281,2.1356278808593747,4.546588952636719,-7.442748091603053,21.755725190839694,36.152671755725194
6280497858488,6.853999894,1,1.9907786804199217,1.7944541442871094,6.552929943847656,-26.19083969465649,65.41221374045801,38.3587786259542
6280507858071,6.863999477,1,2.7940333374023436,1.20667763671875,8.836998327636719,-12.51908396946565,96.55725190839695,42.63358778625954
6280517859842,6.874001248,1,3.1483751831054687,0.8786720092773437,11.094730493164063,-11.557251908396946,107.06106870229007,44.33587786259542
6280527856717,6.883998123,1,3.9181110168457027,0.40222587890625,12.648567370605468,-46.030534351145036,104.34351145038168,48.79389312977099
6280537857394,6.8939988,1,4.304774584960938,-0.105344873046875,13.966575384521484,-54.29770992366412,96.5114503816794,64.68702290076335
6280547859269,6.904000675,1,5.184643695068359,-1.351526837158203,14.67765327758789,-2.0839694656488548,86.90839694656489,67.01526717557252
6280557857967,6.913999373,1,5.293579870605469,-1.905784521484375,15.105018273925781,6.251908396946565,72.17557251908397,65.18320610687023
6280567858175,6.923999581,1,4.783614916992187,-2.808398547363281,15.279794995117186,11.732824427480915,58.41984732824427,48.916030534351144
6280577858435,6.933999841,1,4.290409374999999,-2.9939491760253905,14.949395166015623,20.52671755725191,36.32824427480916,29.84732824427481
6280587858279,6.943999685,1,3.787627026367187,-2.9185318237304685,14.142549206542968,28.68702290076336,6.221374045801527,10.129770992366412
6280597858383,6.953999789,1,3.506308331298828,-2.6982652709960937,13.399149591064452,17.748091603053435,-15.709923664122137,-14.229007633587786
6280607857654,6.96399906,1,3.7325603881835936,-1.8567033874511718,11.507730279541015,4.305343511450381,-58.17557251908397,-26.236641221374047
6280617856769,6.973998175,1,3.8845921936035155,-1.6651672546386718,9.10993731689453,2.2519083969465647,-83.74809160305344,-40.954198473282446
6280627856092,6.983997498,1,3.6523546325683593,-0.4740519287109375,6.983886242675781,-7.633587786259542,-88.70229007633588,-48.56488549618321
6280637858592,6.993999998,1,3.5386300537109374,0.009576806640625,5.773617303466796,-3.900763358778626,-80.54961832061069,-52.85496183206107
6280647858383,7.003999789,1,2.625242120361328,0.4632780212402344,5.118803149414062,2.801526717557252,-54.97709923664122,-59.06106870229008
6280657858696,7.014000102,1,2.521094348144531,1.5011644409179687,5.329492895507812,6.427480916030534,-16.52671755725191,-52.152671755725194
6280667858279,7.023999685,1,2.540247961425781,2.4947581298828125,5.6946086486816405,36.47328244274809,-1.8396946564885497,-36.06870229007634
6280677858175,7.033999581,1,2.2673089721679687,2.138022082519531,5.728127471923828,46.2442748091603,-4.244274809160306,-14.755725190839694
6280687856925,7.043998331,1,1.8435352783203125,1.6316484313964843,5.604826086425781,55.343511450381676,-7.656488549618321,-1.015267175572519
6280697858435,7.053999841,1,1.5969325073242187,1.2964601989746094,5.410895751953125,57.45038167938932,-12.86259541984733,3.267175572519084
6280707857342,7.063998748,1,1.5885528015136718,1.121683477783203,4.6818613464355465,44.47328244274809,-27.755725190839694,3.4656488549618323
6280717859060,7.074000466,1,1.62805712890625,1.2569558715820313,4.159925384521484,9.625954198473282,-38.725190839694655,-8.19083969465649
6280727857810,7.083999216,1,1.6448165405273436,1.600523809814453,3.6176387084960937,-21.740458015267176,-42.68702290076336,-17.328244274809162
6280737858383,7.093999789,1,1.419761584472656,2.2780828796386716,3.1543606872558594,-34.343511450381676,-40.64885496183206,-23.946564885496183
6280747859998,7.104001404,1,1.3862427612304686,2.896984008789062,3.2345664428710936,-50.7557251908397,-25.450381679389313,-23.984732824427482
6280757858071,7.113999477,1,1.849520782470703,2.6563667419433594,3.67749375,-52.37404580152672,-11.274809160305344,-10.427480916030534
6280767858279,7.123999685,1,1.5298948608398437,2.849099975585937,3.7672763122558592,-36.43511450381679,2.717557251908397,-0.31297709923664124
6280777858019,7.133999425,1,2.5857377929687497,2.480392919921875,5.4515971801757805,-57.25190839694657,37.80152671755725,12.51908396946565
6280787856300,7.143997706,1,3.294421484375,2.2194249389648437,5.260061047363281,-21.19083969465649,23.053435114503817,38.0
6280797857915,7.153999321,1,3.1292215698242187,1.0845733520507812,6.625953094482422,-26.061068702290076,66.09160305343511,48.7557251908397
6280807858956,7.164000362,1,3.9516298400878904,0.0718260498046875,8.901641772460938,-18.68702290076336,97.29007633587786,54.48091603053435
6280817856925,7.173998331,1,4.371812231445312,-0.843956085205078,10.9941740234375,-22.900763358778626,115.68702290076335,56.89312977099237
6280827857810,7.183999216,1,4.87100327758789,-2.009932293701172,12.903549847412108,-34.70992366412214,125.51908396946565,60.74045801526717
6280837858019,7.193999425,1,5.287594366455078,-2.692279766845703,15.077484954833983,-19.396946564885496,138.31297709923663,61.23664122137404
6280847857967,7.203999373,1,4.453215087890625,-2.938882537841797,16.801310150146485,10.679389312977099,136.0916030534351,50.732824427480914
6280857858748,7.214000154,1,4.04141240234375,-3.286041778564453,18.1193181640625,1.618320610687023,117.7557251908397,40.908396946564885
6280867857498,7.223998904,1,3.5051112304687497,-3.180696905517578,18.300080389404297,26.259541984732824,72.67175572519083,28.267175572519083
6280877857289,7.233998695,1,2.6491841369628903,-2.6192566162109374,17.89426320800781,41.16793893129771,34.36641221374046,4.4961832061068705
6280887860779,7.244002185,1,2.741360900878906,-2.043451116943359,15.746664318847655,19.083969465648856,-34.87022900763359,-12.954198473282442
6280897863539,7.254004945,1,2.7832594299316407,-1.7310078002929687,12.273874810791014,-2.931297709923664,-101.3587786259542,-26.793893129770993
6280907859946,7.264001352,1,2.7257985900878903,-1.0869675537109373,8.939948999023438,-2.427480916030534,-137.63358778625954,-45.091603053435115
6280917856977,7.273998383,1,2.5917232971191404,-0.35314474487304687,6.704961749267578,3.6717557251908395,-131.16030534351145,-62.343511450381676
6280927857706,7.283999112,1,2.6001030029296874,0.814028564453125,5.1702784851074215,13.946564885496183,-116.48091603053435,-71.44274809160305
6280937857133,7.293998539,1,2.2661118713378903,1.2509703674316406,4.319139794921875,3.1068702290076335,-83.16793893129771,-67.20610687022901
6280947857602,7.303999008,1,2.7138275817871094,2.057816326904297,3.812766143798828,24.580152671755727,-61.80916030534351,-62.52671755725191
6280957859060,7.314000466,1,2.3391350219726563,2.433705987548828,3.784035723876953,26.893129770992367,-32.717557251908396,-48.58015267175573
6280967866821,7.324008227,1,2.232593048095703,2.6420015319824217,4.062960217285156,34.68702290076336,-8.793893129770993,-35.900763358778626
6280977859112,7.334000518,1,2.2074539306640624,2.5258827514648434,4.523844036865234,31.931297709923665,7.33587786259542,-22.0
6280987858071,7.343999477,1,2.0362685119628905,2.2924480895996093,5.45877978515625,31.801526717557252,25.84732824427481,-11.954198473282442
6280997854269,7.353995675,1,1.8471265808105468,1.8267758666992187,6.38413872680664,43.12977099236641,32.83206106870229,-0.183206106870229
6281007857081,7.363998487,1,1.5502455749511719,1.1863269226074218,6.976703637695312,37.152671755725194,29.15267175572519,7.488549618320611
6281017858019,7.373999425,1,1.456871710205078,0.7517793212890624,7.513004809570312,27.221374045801525,25.18320610687023,7.145038167938932
6281027859737,7.384001143,1,1.4628572143554686,0.6344634399414062,7.501033801269531,17.81679389312977,8.473282442748092,3.282442748091603
6281037858071,7.393999477,1,1.4281412902832031,0.737414111328125,7.038952880859375,-8.0,-9.381679389312977,-3.4580152671755724
6281047860258,7.404001664,1,1.6065093139648436,1.2425906616210938,6.172251879882812,-23.66412213740458,-25.290076335877863,-9.83206106870229
6281057858331,7.413999737,1,1.5538368774414062,1.6927005737304686,5.481524700927734,-36.80916030534351,-31.51145038167939,-12.038167938931299
6281067854529,7.423995935,1,1.6448165405273436,2.038662713623047,5.054159704589844,-33.2442748091603,-26.83206106870229,-10.229007633587786
6281077857654,7.43399906,1,1.9859902770996092,2.2074539306640624,5.00507857055664,-24.068702290076335,-15.511450381679388,-5.290076335877862
6281087858696,7.444000102,1,2.031480108642578,2.0661960327148434,5.354632012939453,-24.045801526717558,-8.32824427480916,4.282442748091603
6281097857654,7.45399906,1,2.014720697021484,1.4963760375976562,5.865794067382812,-19.3206106870229,1.5419847328244274,13.816793893129772
6281107856196,7.463997602,1,1.9213468322753906,0.9121908325195311,6.266822845458984,-7.221374045801527,6.770992366412214,20.564885496183205
6281117859216,7.474000622,1,1.945288848876953,0.5195417602539062,7.456741070556641,-17.297709923664122,17.137404580152673,19.53435114503817
6281127859841,7.484001247,1,1.7884686401367187,0.6655880615234374,6.8964978820800775,-6.259541984732825,-4.679389312977099,26.16030534351145
6281137859269,7.494000675,1,2.750937707519531,0.5422866760253906,7.711723547363281,-28.396946564885496,11.01526717557252,14.030534351145038
6281147859529,7.504000935,1,3.084928839111328,1.102529864501953,9.028534460449219,-24.572519083969464,26.16793893129771,3.0076335877862594
6281157858904,7.51400031,1,4.402936853027343,1.2605471740722656,9.861716638183593,-29.34351145038168,22.236641221374047,1.4732824427480915
6281167857289,7.523998695,1,5.673060833740234,0.4537012145996093,10.250774407958984,-72.10687022900764,8.19083969465649,11.045801526717558
6281177857133,7.533998539,1,5.711368060302734,-0.25737667846679685,9.925162982177733,-41.0763358778626,-1.3740458015267176,25.900763358778626
6281187857237,7.543998643,1,5.79037671508789,-1.5610194824218748,10.206481677246094,-35.16030534351145,9.458015267175572,35.58015267175573
6281197858019,7.553999425,1,5.054159704589844,-1.8662801940917968,10.903194360351561,-25.519083969465647,29.34351145038168,30.82442748091603
6281207855310,7.563996716,1,4.359841223144531,-1.9381062438964842,13.368024969482422,-16.763358778625953,83.0,20.061068702290076
6281217859060,7.574000466,1,2.8718448913574215,-1.9692308654785156,15.336058734130859,15.419847328244275,108.77862595419847,20.519083969465647
6281227858852,7.584000258,1,3.0023288818359375,-1.419761584472656,16.253037969970702,32.213740458015266,91.46564885496183,16.458015267175572
6281237857966,7.593999372,1,2.5857377929687497,-1.0199299072265624,15.982493182373046,31.49618320610687,33.343511450381676,8.755725190839694
6281247854841,7.603996247,1,3.555389465332031,-1.3551181396484375,13.874398620605469,17.435114503816795,-29.801526717557252,6.351145038167939
6281257858591,7.613999997,1,4.386177441406249,-1.3946224670410154,11.106701501464842,28.251908396946565,-75.06870229007633,-0.6259541984732825
6281267857862,7.623999268,1,3.4763808105468748,-1.6412252380371093,8.469488372802735,13.221374045801527,-105.22900763358778,-4.977099236641221
6281277858956,7.634000362,1,3.209427325439453,-1.3263877197265623,6.774393597412109,16.65648854961832,-91.73282442748092,-27.954198473282442
6281287858643,7.644000049,1,3.6236242126464844,0.07302315063476562,6.658274816894531,18.625954198473284,-50.961832061068705,-56.00763358778626
6281297857810,7.653999216,1,3.2740707702636715,0.8200140686035156,6.944381915283203,-0.22137404580152673,-31.801526717557252,-61.10687022900763
6281307858591,7.663999997,1,2.682702960205078,1.4161702819824218,6.906074688720703,10.404580152671755,-30.603053435114504,-57.961832061068705
6281317857810,7.673999216,1,2.559401574707031,1.7812860351562498,6.763619689941406,20.793893129770993,-22.549618320610687,-47.70229007633588
6281327857341,7.683998747,1,2.5055320373535155,1.89620771484375,6.811503723144531,36.25954198473283,-17.19083969465649,-34.13740458015267
6281337858643,7.694000049,1,2.4349030883789062,1.70467158203125,6.38413872680664,49.93893129770992,-22.16793893129771,-19.49618320610687
6281347903383,7.704044789,1,2.212242333984375,1.3239935180664062,5.7149593627929685,54.14503816793893,-30.366412213740457,-9.236641221374045
6281357859060,7.714000466,1,2.123656872558594,1.1623849060058593,5.191826300048827,45.61832061068702,-29.099236641221374,-9.305343511450381
6281367858904,7.72400031,1,2.009932293701172,1.197100830078125,4.778826513671874,31.72519083969466,-24.51145038167939,-12.50381679389313
6281377857602,7.733999008,1,1.89620771484375,1.43652099609375,4.472368701171875,18.366412213740457,-22.259541984732824,-17.84732824427481
6281387858748,7.744000154,1,1.4939818359375,1.715445489501953,4.170699291992188,-4.061068702290076,-21.427480916030536,-20.106870229007633
6281397856664,7.75399807,1,1.2641384765625,2.1535843933105467,4.297591979980469,-14.450381679389313,-14.679389312977099,-22.404580152671755
6281407858123,7.763999529,1,1.1264718811035155,2.596511700439453,4.742913488769531,-20.740458015267176,-4.763358778625954,-21.587786259541986
6281417858227,7.773999633,1,1.4592659118652342,2.905363714599609,4.825513446044922,-27.801526717557252,-6.633587786259542,-13.335877862595419
6281427857862,7.783999268,1,1.4221557861328125,2.786850732421875,5.266046551513671,-21.51145038167939,-2.2290076335877864,-1.0610687022900764
6281437858643,7.794000049,1,2.105700360107422,2.4109610717773435,5.23492192993164,-14.320610687022901,-7.190839694656488,11.51908396946565
6281447904216,7.804045622,1,2.849099975585937,1.7980454467773437,5.123591552734375,-26.19083969465649,-6.870229007633588,19.87786259541985
6281457857862,7.813999268,1,3.2022447204589843,1.4173673828125,5.868188269042968,-46.42748091603053,3.648854961832061,21.786259541984734
6281467864477,7.824005883,1,4.053383410644531,1.5286977600097655,5.655104321289063,-29.328244274809162,4.229007633587786,26.893129770992367
6281477859893,7.834001299,1,5.164292980957031,1.112106671142578,7.184999182128906,-20.0381679389313,46.11450381679389,26.480916030534353
6281487857185,7.843998591,1,5.840654949951172,0.11372457885742186,8.78432589111328,-24.099236641221374,63.57251908396947,32.11450381679389
6281497855102,7.853996508,1,5.501875415039062,-0.9971849914550781,10.548852514648438,-43.786259541984734,73.94656488549619,38.29007633587786
6281507858487,7.863999893,1,4.836287353515624,-1.8195932617187498,12.591106530761717,-24.900763358778626,93.0381679389313,40.70992366412214
6281517859060,7.874000466,1,4.741716387939453,-1.9117700256347656,14.056357946777343,1.6717557251908397,106.29770992366412,33.81679389312977
6281527858018,7.883999424,1,4.082113830566406,-2.2876596862792966,15.958551165771484,-28.213740458015266,115.02290076335878,26.366412213740457
6281537866039,7.894007445,1,3.0035259826660154,-2.146401788330078,16.589423303222656,-5.0534351145038165,84.80152671755725,20.358778625954198
6281547909529,7.904050935,1,2.299630694580078,-2.069787335205078,17.48724892578125,16.0,74.80916030534351,10.82442748091603
6281557861248,7.914002654,1,1.9632453613281249,-1.6436194396972654,16.73427250366211,43.11450381679389,27.068702290076335,4.122137404580153
6281567857550,7.923998956,1,2.3319524169921872,-1.4628572143554686,14.542380883789061,34.00763358778626,-35.85496183206107,-3.8091603053435112
6281577857810,7.933999216,1,2.031480108642578,-1.0881646545410155,11.549628808593749,21.38167938931298,-91.6412213740458,-16.19083969465649
6281587858539,7.943999945,1,2.527079852294922,-0.82360537109375,8.595183959960938,-1.7786259541984732,-122.41984732824427,-33.083969465648856
6281597859945,7.954001351,1,2.2936451904296873,0.008379705810546874,6.279990954589843,1.3435114503816794,-135.44274809160305,-47.19847328244275
6281607859216,7.964000622,1,1.8447323791503905,0.8068459594726562,4.647145422363281,8.740458015267176,-120.98473282442748,-56.961832061068705
6281617858904,7.97400031,1,2.080561242675781,1.408987677001953,3.707421270751953,14.946564885496183,-89.81679389312977,-55.0763358778626
6281627858695,7.984000101,1,2.280477081298828,2.288856787109375,3.0933085449218747,39.83969465648855,-67.3206106870229,-51.86259541984733
6281637859216,7.994000622,1,1.8519149841308593,2.7162217834472653,3.1483751831054687,26.83206106870229,-51.76335877862596,-41.7557251908397
6281647857550,8.003998956,1,1.6244658264160154,2.940079638671875,3.1735143005371094,23.587786259541986,-42.37404580152672,-31.671755725190838
6281657857029,8.013998435,1,1.6304513305664061,3.1663316955566403,3.2716765686035156,24.84732824427481,-30.65648854961832,-22.27480916030534
6281667858904,8.02400031,1,1.6807295654296874,2.924517327880859,3.6056677001953124,11.572519083969466,-27.251908396946565,-13.526717557251908
6281677857706,8.033999112,1,2.24097275390625,2.579752288818359,3.564966271972656,4.732824427480916,-27.748091603053435,-3.6030534351145036
6281687859268,8.044000674,1,2.710236279296875,2.1894974182128903,4.535815045166015,12.83206106870229,-10.412213740458014,1.183206106870229
6281697857966,8.053999372,1,4.161122485351562,1.8088193542480469,5.090072729492187,10.534351145038167,-3.267175572519084,3.1908396946564888
6281707858070,8.063999476,1,4.7584757995605464,2.1033061584472654,6.417657550048828,-18.755725190839694,6.816793893129771,1.015267175572519
6281717857914,8.07399932,1,3.900154504394531,1.6675614562988281,5.493495709228515,-28.603053435114504,-28.435114503816795,21.137404580152673
6281727859633,8.084001039,1,4.165910888671875,0.9959878906249999,6.327874987792969,-39.12213740458015,4.282442748091603,20.549618320610687
6281737857497,8.093998903,1,4.431667272949219,0.9097966308593749,7.5345526245117185,-33.099236641221374,32.74809160305343,17.984732824427482
6281747858539,8.103999945,1,4.370615130615234,0.7912836486816406,8.93755479736328,-39.221374045801525,56.396946564885496,21.66412213740458
6281757859216,8.114000622,1,4.029441394042968,0.06703764648437499,11.060014569091797,-35.64885496183206,76.17557251908397,29.519083969465647
6281767861143,8.124002549,1,4.27724126586914,-0.35793314819335936,13.154941021728515,11.01526717557252,97.38931297709924,36.18320610687023
6281777859372,8.134000778,1,4.401739752197265,-0.82360537109375,13.991714501953124,34.50381679389313,82.97709923664122,47.93129770992366
6281787858122,8.143999528,1,3.816357446289062,-1.3658920471191405,14.337676641845702,13.229007633587786,51.29770992366412,43.56488549618321
6281797859997,8.154001403,1,3.5302503479003904,-0.7637503295898437,12.79341657104492,13.770992366412214,13.290076335877863,33.603053435114504
6281807857289,8.163998695,1,3.6822821533203123,-1.159990704345703,12.350489263916016,-4.183206106870229,6.343511450381679,26.52671755725191
6281817862602,8.174004008,1,3.208230224609375,-0.9636661682128905,11.872846032714843,52.541984732824424,5.816793893129771,24.091603053435115
6281827857602,8.183999008,1,2.8287492614746093,-0.8319850769042968,11.050437762451171,76.8854961832061,-5.770992366412214,24.49618320610687
6281837859320,8.194000726,1,2.6755203552246094,-0.5793968017578125,10.013748443603514,46.221374045801525,-27.259541984732824,7.198473282442748
6281847858435,8.203999841,1,2.7569232116699216,-0.13407529296874998,9.680954412841796,11.786259541984732,-28.893129770992367,-12.793893129770993
6281857858591,8.213999997,1,2.8658593872070313,0.7553706237792969,8.97705912475586,15.297709923664122,-34.19083969465649,-22.38167938931298
6281867857341,8.223998747,1,2.991554974365234,1.254561669921875,8.321047869873047,2.198473282442748,-47.23664122137404,-24.83206106870229
6281877859060,8.234000466,1,3.5398271545410154,1.5406687683105469,7.551312036132812,1.9236641221374047,-46.98473282442748,-23.458015267175572
6281887858175,8.243999581,1,3.5410242553710933,1.4724340209960938,6.461950280761719,23.106870229007633,-51.099236641221374,-10.274809160305344
6281897857706,8.253999112,1,3.446453289794922,1.301248602294922,5.779602807617187,30.17557251908397,-45.900763358778626,-1.9083969465648856
6281907856716,8.263998122,1,3.744531396484375,1.2761094848632812,5.615599993896484,31.427480916030536,-24.18320610687023,-4.816793893129771
6281917857914,8.27399932,1,2.9652187561035155,1.054645831298828,5.431246466064453,31.412213740458014,-18.297709923664122,-1.1297709923664123
6281927855310,8.283996716,1,2.5857377929687497,0.8954314208984374,5.768828900146484,35.465648854961835,-5.213740458015267,-0.9618320610687023
6281937857497,8.293998903,1,2.3642741394042965,0.9564835632324218,6.376956121826171,41.229007633587784,10.305343511450381,-6.2748091603053435
6281947858904,8.30400031,1,1.7082628845214842,1.4867992309570313,6.864176159667968,35.045801526717554,1.8473282442748091,-10.801526717557252
6281957858279,8.313999685,1,2.0925322509765625,1.8219874633789062,6.921636999511718,12.893129770992367,-8.076335877862595,-14.702290076335878
6281967857029,8.323998435,1,2.876633294677734,2.3127988037109373,6.26921704711914,11.770992366412214,-27.870229007633586,-15.068702290076336
6281977857654,8.33399906,1,3.0358477050781247,2.5725696838378904,5.066130712890625,-9.267175572519085,-50.67175572519084,-14.32824427480916
6281987858331,8.343999737,1,2.3738509460449215,2.6013001037597654,4.450820886230469,-35.603053435114504,-68.06106870229007,-14.114503816793894
6281997856768,8.353998174,1,2.7042507751464844,2.9508535461425778,3.9899370666503904,-35.88549618320611,-56.099236641221374,-18.954198473282442
6282007859841,8.364001247,1,3.6391865234374996,3.5242648437499997,4.046200805664062,-36.83969465648855,-35.16030534351145,-21.19083969465649
6282017858956,8.374000362,1,4.132392065429687,3.0980969482421874,3.9636008483886718,-55.86259541984733,-36.412213740458014,-6.0534351145038165
6282027859320,8.384000726,1,4.408922357177734,2.6659435485839844,4.126406561279297,-44.7557251908397,-24.31297709923664,5.320610687022901
6282037858070,8.393999476,1,4.951209033203125,1.868674395751953,5.044582897949218,-34.57251908396947,-3.0,16.87786259541985
6282047859008,8.404000414,1,5.579686968994141,1.5095441467285156,6.388927130126953,-26.580152671755727,29.931297709923665,22.69465648854962
6282057859372,8.414000778,1,5.125985754394531,0.9504980590820312,6.308721374511719,19.603053435114504,20.419847328244273,55.0763358778626
6282067856820,8.423998226,1,5.923254907226562,1.2737152832031249,8.192958081054687,52.916030534351144,79.45038167938931,37.57251908396947
6282077858227,8.433999633,1,5.76523759765625,-0.25737667846679685,10.320206256103514,-29.35114503816794,79.44274809160305,35.229007633587784
6282087858331,8.443999737,1,4.882974285888672,-0.7733271362304687,11.942277880859374,-50.25190839694657,73.80916030534351,28.198473282442748
6282097858695,8.454000101,1,4.830301849365234,-0.51714755859375,13.232752575683593,-1.7404580152671756,91.92366412213741,26.206106870229007
6282107857758,8.463999164,1,4.0066964782714845,-0.9109937316894531,14.787786553955078,-0.40458015267175573,93.76335877862596,27.114503816793892
6282117858487,8.473999893,1,3.7098154724121093,-0.5817910034179687,14.997279199218749,12.236641221374045,67.09160305343511,22.977099236641223
6282127855518,8.483996924,1,4.122815258789062,-0.4955997436523437,15.371971759033203,19.900763358778626,53.83969465648855,14.748091603053435
6282137857549,8.493998955,1,4.147954376220703,-0.47285482788085936,14.580688110351561,24.267175572519083,11.83969465648855,9.610687022900763
6282147858018,8.503999424,1,3.3506852233886715,-0.6416460449218749,12.216413970947265,21.885496183206108,-48.49618320610687,8.251908396946565
6282157859737,8.514001143,1,3.7720647155761715,-0.6248866333007812,10.419565624999999,-7.67175572519084,-70.02290076335878,-12.82442748091603
6282167859581,8.524000987,1,4.141968872070312,0.025139117431640625,8.335413079833984,-10.16793893129771,-83.23664122137404,-27.977099236641223
6282177858695,8.534000101,1,4.035426898193359,0.6212953308105469,6.60799658203125,5.129770992366412,-86.06870229007633,-32.99236641221374
6282187857029,8.543998435,1,4.223371728515625,1.2569558715820313,5.792770916748046,-2.854961832061069,-67.45038167938931,-42.603053435114504
6282197856404,8.55399781,1,3.877409588623047,1.7417817077636717,5.322310290527343,5.427480916030534,-53.725190839694655,-38.770992366412216
6282207858799,8.564000205,1,3.687070556640625,1.8746598999023436,5.347449407958984,29.46564885496183,-30.419847328244273,-30.389312977099237
6282217857185,8.573998591,1,3.5972879943847653,1.9907786804199217,5.705382556152343,34.11450381679389,-14.083969465648854,-23.946564885496183
6282227857497,8.583998903,1,3.3111808959960936,1.6986860778808592,5.681440539550781,34.099236641221374,-13.404580152671755,-13.709923664122137
6282237855101,8.593996507,1,2.7712884216308593,1.4784195251464842,5.598840582275391,36.87786259541985,-16.48854961832061,-9.282442748091603
6282247859112,8.604000518,1,2.436100189208984,1.4281412902832031,5.304353778076171,22.33587786259542,-21.763358778625953,-12.778625954198473
6282257859372,8.614000778,1,2.185906115722656,1.5729904907226562,5.078101721191406,11.244274809160306,-24.18320610687023,-19.206106870229007
6282267857654,8.62399906,1,1.8722656982421875,1.9476830505371092,4.612429498291015,0.7709923664122137,-32.25954198473283,-24.17557251908397
6282277859112,8.634000518,1,2.042254016113281,2.2266075439453124,4.179078997802734,-17.450381679389313,-34.54961832061068,-28.3206106870229
6282287856299,8.643997705,1,1.897404815673828,2.7617116149902343,3.8941690002441405,-20.33587786259542,-29.076335877862597,-28.251908396946565
6282297856612,8.653998018,1,2.0254946044921875,2.6683377502441403,3.585316986083984,-24.885496183206108,-28.34351145038168,-17.114503816793892
6282307862497,8.664003903,1,1.954865655517578,3.2453403503417966,3.479972113037109,-22.27480916030534,-20.419847328244273,-16.053435114503817
6282317859008,8.674000414,1,2.4444798950195312,3.564966271972656,4.21978042602539,-47.74045801526717,1.3511450381679388,-11.038167938931299
6282327850101,8.683991507,1,3.342305517578125,3.554192364501953,5.377376928710937,-34.541984732824424,22.16030534351145,-1.5954198473282444
6282337859529,8.694000935,1,4.322731097412109,2.9951462768554684,6.341043096923828,-36.51145038167939,24.862595419847327,9.816793893129772
6282347859164,8.70400057,1,5.671863732910156,2.070984436035156,7.256825231933593,-41.38931297709924,29.580152671755727,29.33587786259542
6282357856820,8.713998226,1,6.524199523925781,1.3623007446289062,8.616731774902343,-19.129770992366414,50.038167938931295,41.603053435114504
6282367854476,8.723995882,1,5.161898779296875,-0.10773907470703124,8.233659509277343,2.5114503816793894,20.48854961832061,77.93129770992367
6282377855518,8.733996924,1,5.80953032836914,-0.40462008056640625,10.230423693847655,18.30534351145038,80.23664122137404,55.42748091603053
