timestamp_ns,t_s,sensor_id,ax,ay,az,gx,gy,gz
6273822089636,0.178231042,3,2.2170307373046874,0.3016694091796875,-0.062249243164062495,80.89312977099236,179.45801526717557,80.12213740458016
6273831781875,0.187923281,3,2.3343466186523436,0.12808978881835936,0.2825157958984375,36.70992366412214,98.58015267175573,39.54961832061068
6273841791355,0.197932761,3,2.7269956909179687,0.04548983154296875,0.23702596435546874,22.84732824427481,57.16030534351145,14.381679389312977
6273851672240,0.207813646,3,2.1535843933105467,0.31483751831054685,-0.05027823486328125,10.977099236641221,12.572519083969466,-8.893129770992367
6273861760886,0.217902292,3,1.9596540588378906,0.9205705383300781,-0.8463502868652343,-11.038167938931299,-34.6793893129771,-36.152671755725194
6273871731511,0.227872917,3,1.5454571716308594,1.9033903198242186,-1.9907786804199217,-39.33587786259542,-75.66412213740458,-65.25190839694656
6273881720417,0.237861823,3,0.9373299499511718,3.1112650573730467,-3.2800562744140622,-70.52671755725191,-115.55725190839695,-91.22137404580153
6273891743230,0.247884636,3,0.2657563842773437,4.537012145996093,-4.308365887451171,-85.16030534351145,-128.29770992366412,-114.52671755725191
6273901776719,0.257918125,3,-0.6404489440917969,5.870582470703124,-5.321113189697265,-81.54198473282443,-142.6793893129771,-132.91603053435114
6273911709271,0.267850677,3,-1.6172832214355468,7.433996154785156,-6.156689569091797,-71.46564885496183,-155.42748091603053,-147.93893129770993
6273921765261,0.277906667,3,-2.4480711975097655,8.779537487792968,-7.0844427124023435,-74.64885496183206,-175.3206106870229,-153.29770992366412
6273931734375,0.287875781,3,-3.7720647155761715,9.97903251953125,-8.045714678955077,-86.4885496183206,-193.21374045801528,-151.25190839694656
6273941695886,0.297837292,3,-5.576095666503906,11.256339105224608,-9.17458076171875,-101.06870229007633,-222.72519083969465,-145.5114503816794
6273951752605,0.307894011,3,-7.034164477539062,12.74912384033203,-10.844536419677734,-114.26717557251908,-242.23664122137404,-145.2290076335878
6273961776615,0.317918021,3,-7.694964135742187,14.182053533935546,-12.467805145263672,-128.9618320610687,-239.8854961832061,-135.87786259541986
6273971697292,0.327838698,3,-7.682993127441406,15.288174700927733,-13.96896958618164,-131.58778625954199,-207.26717557251908,-108.36641221374046
6273981759271,0.337900677,3,-6.297947467041015,15.702371588134765,-14.842853192138671,-102.87786259541984,-143.16030534351145,-61.274809160305345
6273991698125,0.347839531,3,-6.282385156249999,14.943409661865234,-14.768632940673827,-49.58015267175573,-62.51145038167939,16.38167938931298
6274001772084,0.35791349,3,-5.060145208740234,12.941857073974608,-13.644555261230469,27.72519083969466,32.25954198473283,85.00763358778626
6274012094480,0.368235886,3,-4.677072943115234,10.040084661865233,-11.159373937988281,102.0381679389313,131.32824427480915,142.41221374045801
6274021782969,0.377924375,3,-3.736151690673828,7.431601953125,-8.932766394042968,159.10687022900763,195.793893129771,171.18320610687022
6274031758386,0.387899792,3,-3.058592620849609,5.5270145324707025,-6.7803791015625,171.15267175572518,240.04580152671755,166.6412213740458
6274041789063,0.397930469,3,-1.5849614990234373,4.170699291992188,-4.897339495849609,152.96946564885496,250.12977099236642,148.3587786259542
6274051750417,0.407891823,3,-0.8212111694335937,3.21780703125,-3.432088079833984,133.0381679389313,250.12977099236642,128.26717557251908
6274061784375,0.417925781,3,0.239420166015625,2.701856573486328,-2.269703173828125,118.06106870229007,250.12977099236642,98.1145038167939
6274071743021,0.427884427,3,0.8595183959960937,2.464830609130859,-0.9983820922851562,105.8473282442748,239.49618320610688,64.43511450381679
6274081761302,0.437902708,3,1.4640543151855467,2.602497204589844,-0.12210428466796874,93.43511450381679,203.34351145038167,30.717557251908396
6274091748855,0.447890261,3,1.9213468322753906,2.8335376647949215,0.39145197143554683,79.45038167938931,161.1908396946565,6.6106870229007635
6274101765157,0.457906563,3,2.110488763427734,3.190273712158203,0.5267243652343749,59.38167938931298,104.25954198473282,-6.015267175572519
6274111775834,0.46791724,3,2.043451116943359,3.5517981628417967,0.34237083740234375,33.81679389312977,45.89312977099237,-8.381679389312977
6274121768125,0.477909531,3,2.1547814941406247,3.6762966491699216,-0.5793968017578125,4.450381679389313,-10.404580152671755,-1.9389312977099236
6274131731667,0.487873073,3,1.9476830505371092,3.4620156005859375,-1.8160019592285155,-32.48854961832061,-63.6412213740458,17.30534351145038
6274141758646,0.497900052,3,1.5598223815917969,2.990357873535156,-3.0406361083984375,-62.68702290076336,-96.96946564885496,36.89312977099237
6274151735625,0.507877031,3,1.24498486328125,2.592920397949219,-4.139574670410156,-74.0,-109.41221374045801,46.45038167938932
6274161773855,0.517915261,3,1.061828436279297,2.3307553161621093,-4.803965631103515,-75.0381679389313,-109.57251908396947,48.47328244274809
6274171738177,0.527879583,3,0.9193734375,2.009932293701172,-5.347449407958984,-77.19847328244275,-103.82442748091603,46.10687022900763
6274181760782,0.537902188,3,0.4572925170898437,1.7238251953125,-5.521029028320312,-68.93893129770993,-94.5114503816794,35.49618320610687
6274191734532,0.547875938,3,0.4381389038085937,1.6543933471679686,-6.350619903564453,-60.908396946564885,-107.25190839694656,15.435114503816793
6274201758855,0.557900261,3,0.13287819213867186,2.013523596191406,-6.138733056640625,-53.3587786259542,-82.83969465648855,-15.236641221374045
6274211745417,0.567886823,3,-0.29448680419921874,2.5953145996093747,-6.865373260498046,-71.66412213740458,-104.56488549618321,-43.969465648854964
6274221763230,0.577904636,3,-1.1420341918945311,3.508702532958984,-7.052120989990234,-84.08396946564885,-99.90076335877863,-77.62595419847328
6274231733282,0.587874688,3,-2.4779987182617185,5.121197351074218,-7.183802081298828,-91.62595419847328,-105.51908396946565,-121.77099236641222
6274241762188,0.597903594,3,-3.727771984863281,7.173028173828125,-7.444770062255859,-95.47328244274809,-107.80916030534351,-170.93129770992365
6274251736771,0.607878177,3,-4.669890338134765,9.437942944335937,-7.915230688476562,-103.2442748091603,-120.46564885496183,-218.73282442748092
6274261771198,0.617912604,3,-5.409698651123047,11.750741748046874,-8.339004382324218,-109.2442748091603,-125.83969465648855,-244.6412213740458
6274271727969,0.627869375,3,-6.327874987792969,14.094665173339843,-8.926780889892578,-108.7175572519084,-127.13740458015268,-248.10687022900763
6274281782136,0.637923542,3,-5.979518646240234,15.873557006835936,-10.04247886352539,-110.7175572519084,-125.35114503816794,-217.61832061068702
6274291745365,0.647886771,3,-5.40730444946289,16.962918762207032,-10.460267053222656,-105.98473282442748,-91.07633587786259,-163.98473282442748
6274301726823,0.657868229,3,-5.359420416259765,16.972495568847656,-10.67454810180664,-92.06106870229007,-66.93893129770993,-76.97709923664122
6274311754011,0.667895417,3,-4.674678741455078,16.11178007202148,-10.357316381835936,-42.37404580152672,-9.992366412213741,6.0458015267175576
6274321792240,0.677933646,3,-4.335899206542969,14.00129130859375,-9.184157568359375,14.290076335877863,43.6412213740458,87.62595419847328
6274331733125,0.687874531,3,-4.056974713134766,11.190498559570312,-7.68059892578125,69.8854961832061,93.74809160305344,152.35114503816794
6274341782188,0.697923594,3,-3.470395306396484,8.71489404296875,-6.28837066040039,104.45801526717557,126.70992366412214,181.75572519083968
6274351746667,0.707888073,3,-2.7329811950683593,6.679822631835937,-5.1511248718261715,101.6030534351145,147.64885496183206,185.1679389312977
6274361731667,0.717873073,3,-1.889025109863281,5.251681341552734,-4.27724126586914,86.65648854961832,154.17557251908397,172.72519083969465
6274371722084,0.72786349,3,-1.1767501159667968,4.308365887451171,-3.6056677001953124,78.45801526717557,147.44274809160305,153.87786259541986
6274381770469,0.737911875,3,-0.7745242370605468,3.593696691894531,-3.451241693115234,60.725190839694655,115.93129770992367,136.73282442748092
6274391818698,0.747960104,3,-0.12689268798828124,3.068169427490234,-3.1962592163085937,38.50381679389313,103.42748091603053,117.13740458015268
6274401854896,0.757996302,3,0.6105214233398437,2.6515783386230467,-3.3506852233886715,18.328244274809162,79.51908396946565,100.95419847328245
6274411759323,0.767900729,3,0.6009446166992187,2.3355437194824216,-3.1004911499023438,10.15267175572519,64.10687022900764,90.09160305343511
6274421774584,0.77791599,3,0.7685387329101562,2.0757728393554684,-3.1651345947265623,13.099236641221374,47.06870229007634,79.74809160305344
6274431740104,0.78788151,3,0.8846575134277344,1.8555062866210936,-3.3171664001464842,13.022900763358779,32.93129770992366,69.13740458015268
6274441764948,0.797906354,3,1.2856862915039062,1.4724340209960938,-3.630806817626953,3.0076335877862594,19.251908396946565,63.9236641221374
6274451734948,0.807876354,3,1.3431471313476562,1.1528080993652343,-3.6475662292480466,-5.00763358778626,16.229007633587788,58.44274809160305
6274461767604,0.81790901,3,1.0785878479003905,0.7841010437011718,-3.8235400512695312,-2.2290076335877864,2.816793893129771,53.229007633587784
6274471725157,0.827866563,3,1.848323681640625,0.41060558471679687,-4.061763116455078,9.16030534351145,3.0916030534351147,38.81679389312977
6274481747813,0.837889219,3,0.7410054138183594,0.16759411621093748,-3.9695863525390624,9.793893129770993,-5.9541984732824424,24.66412213740458
6274491727396,0.847868802,3,0.7817068420410156,0.1304839904785156,-4.126406561279297,13.51908396946565,-13.725190839694656,6.9541984732824424
6274501762084,0.85790349,3,0.8607154968261719,0.25139117431640623,-4.513070129394531,-1.549618320610687,-27.099236641221374,-20.068702290076335
6274511744531,0.867885937,3,0.7876923461914062,0.4261678955078125,-5.007472772216796,-26.72519083969466,-44.51145038167939,-46.404580152671755
6274521765417,0.877906823,3,0.040701428222656245,1.3814543579101561,-5.706579656982422,-49.786259541984734,-66.53435114503817,-95.9618320610687
6274531725781,0.887867187,3,-0.852335791015625,3.034650604248047,-5.955576629638672,-52.00763358778626,-61.67175572519084,-158.3740458015267
6274541767813,0.897909219,3,-2.1691467041015624,4.924872814941406,-6.114791040039062,-33.19083969465649,-63.29007633587786,-215.42748091603053
6274551701302,0.907842708,3,-3.9624037475585934,7.350199096679687,-6.587645867919922,-29.3206106870229,-87.66412213740458,-250.13740458015266
6274561763386,0.917904792,3,-6.415263348388671,9.757568865966796,-6.49307490234375,-47.93893129770992,-95.17557251908397,-250.13740458015266
6274571727761,0.927869167,3,-8.175001568603514,12.994529510498046,-7.210138299560547,-64.2824427480916,-125.9618320610687,-250.13740458015266
6274581764011,0.937905417,3,-10.032902056884765,16.18360612182617,-8.15345375366211,-108.90076335877863,-162.09923664122138,-250.13740458015266
6274591799115,0.947940521,3,-8.947131604003905,19.410989959716797,-9.536105212402344,-149.33587786259542,-153.6412213740458,-250.13740458015266
6274601749011,0.957890417,3,-8.100781317138672,19.61270144958496,-10.485406170654297,-161.34351145038167,-133.68702290076337,-250.13740458015266
6274611730156,0.967871562,3,-7.123947039794921,19.61270144958496,-11.165359442138671,-131.06106870229007,-110.7175572519084,-161.7709923664122
6274621703646,0.977845052,3,-5.807136126708984,19.61270144958496,-11.475408557128906,-66.58778625954199,-55.20610687022901,-12.725190839694656
6274631741771,0.987883177,3,-5.216965417480468,17.793706738281248,-10.335768566894531,5.877862595419847,11.419847328244275,147.61068702290078
6274641770729,0.997912135,3,-5.410895751953125,13.178883038330078,-8.157045056152343,97.30534351145039,79.66412213740458,250.12977099236642
6274651735990,1.007877396,3,-4.726154077148437,9.453505255126952,-6.367379315185547,167.73282442748092,123.38167938931298,250.12977099236642
6274661771667,1.017913073,3,-4.177881896972656,6.628347296142578,-4.85184966430664,153.10687022900763,155.06870229007635,250.12977099236642
6274671747604,1.02788901,3,-3.5290532470703124,4.244919543457031,-3.6631285400390623,101.51908396946565,157.9083969465649,250.12977099236642
6274681760729,1.037902135,3,-2.408566870117187,2.479195819091797,-2.8227637573242186,78.93129770992367,150.48091603053436,250.12977099236642
6274691700313,1.047841719,3,-1.1863269226074218,1.0857704528808594,-2.299630694580078,76.03053435114504,124.07633587786259,250.12977099236642
6274701767240,1.057908646,3,-0.718260498046875,0.06464344482421874,-2.042254016113281,60.19847328244275,79.40458015267176,250.12977099236642
6274711747188,1.067888594,3,-0.1005564697265625,-0.7386112121582031,-2.142810485839844,22.33587786259542,42.412213740458014,229.77862595419847
6274721782083,1.077923489,3,0.18555062866210936,-1.1252747802734375,-2.5342624572753905,-26.557251908396946,5.122137404580153,185.84732824427482
6274731712917,1.087854323,3,0.5710170959472656,-1.2294225524902342,-2.85388837890625,-60.274809160305345,-24.610687022900763,138.61068702290078
6274741772865,1.097914271,3,0.8978256225585937,-1.0917559570312498,-3.602076397705078,-73.3206106870229,-47.541984732824424,94.41984732824427
6274751716354,1.10785776,3,0.7852981445312499,-0.6619967590332031,-4.529829541015625,-80.86259541984732,-67.07633587786259,54.18320610687023
6274761795625,1.117937031,3,1.0175357055664063,-0.0430956298828125,-5.637147808837891,-93.17557251908397,-69.74809160305344,15.992366412213741
6274771746771,1.127888177,3,1.284489190673828,0.46806642456054687,-6.139930157470703,-92.0,-45.656488549618324,-15.541984732824428
6274781768281,1.137909687,3,1.2198457458496093,1.1552023010253905,-6.341043096923828,-58.42748091603053,-13.045801526717558,-44.38167938931298
6274791742292,1.147883698,3,1.1109095703125,1.878251202392578,-6.0345852844238275,-6.251908396946565,23.404580152671755,-72.95419847328245
6274801704011,1.157845417,3,0.44412440795898434,2.6898855651855467,-5.505466717529297,25.061068702290076,46.18320610687023,-99.48091603053435
6274811752031,1.167893437,3,0.5147533569335937,3.289633081054687,-5.431246466064453,32.35114503816794,58.778625954198475,-126.87022900763358
6274821719688,1.177861094,3,0.36272155151367186,4.2149920227050774,-4.824316345214844,57.19083969465649,90.06106870229007,-165.29007633587787
6274831748386,1.187889792,3,-0.16998831787109375,5.0577510070800775,-4.8889597900390624,80.70992366412214,74.08396946564885,-187.44274809160305
6274841766198,1.197907604,3,-0.9217676391601562,6.117185241699218,-4.723759875488281,84.87786259541984,67.5114503816794,-210.00763358778627
6274851706146,1.207847552,3,-1.3623007446289062,7.364564306640625,-4.61602080078125,70.2442748091603,61.01526717557252,-239.76335877862596
6274861768333,1.217909739,3,-1.9416975463867185,8.726865051269531,-4.550180255126953,48.61832061068702,39.94656488549618,-250.13740458015266
6274871737708,1.227879114,3,-3.046621612548828,10.326191760253906,-4.6459483215332025,21.114503816793892,0.44274809160305345,-250.13740458015266
6274881773854,1.23791526,3,-3.716998077392578,12.048819854736328,-4.837484454345703,-10.213740458015268,-29.80916030534351,-250.13740458015266
6274891746771,1.247888177,3,-4.745307690429687,13.81574067993164,-5.239710333251953,-46.213740458015266,-78.67175572519083,-242.6412213740458
6274901755469,1.257896875,3,-5.212177014160156,15.444994909667967,-6.1267620483398435,-80.12977099236642,-122.25954198473282,-210.5267175572519
6274911793750,1.267935156,3,-5.567715960693359,16.589423303222656,-7.588422161865234,-113.59541984732824,-173.18320610687022,-161.36641221374046
6274921759740,1.277901146,3,-6.452373474121093,17.13649838256836,-9.030928662109375,-129.6412213740458,-202.6793893129771,-86.3206106870229
6274931735833,1.287877239,3,-5.748478186035156,17.114950567626952,-10.350133776855468,-120.63358778625954,-193.46564885496184,-18.603053435114504
6274941762083,1.297903489,3,-5.176263989257812,16.26740317993164,-10.842142218017578,-98.32824427480917,-153.6030534351145,62.534351145038165
6274951779323,1.307920729,3,-4.89015689086914,14.369998364257812,-10.498574279785156,-48.89312977099237,-102.30534351145039,147.78625954198472
6274961782917,1.317924323,3,-4.509478826904297,11.541249102783203,-9.313444458007812,15.282442748091603,-43.76335877862596,215.96946564885496
6274971844167,1.327985573,3,-4.192247106933594,8.901641772460938,-8.057685687255859,63.221374045801525,4.213740458015267,250.12977099236642
6274981776198,1.337917604,3,-3.5996821960449217,6.738480572509765,-6.872555865478515,80.4885496183206,46.10687022900763,250.12977099236642
6274991739844,1.34788125,3,-2.6324247253417967,5.0577510070800775,-5.926846209716796,73.85496183206106,72.47328244274809,241.10687022900763
6275001778698,1.357920104,3,-1.8950106140136718,3.9468414367675777,-5.0577510070800775,75.86259541984732,93.27480916030534,210.8854961832061
6275011737552,1.367878958,3,-1.1623849060058593,3.189076611328125,-4.560954162597656,81.1145038167939,95.03053435114504,178.34351145038167
6275021771510,1.377912916,3,-0.4608838195800781,2.6515783386230467,-3.9324762268066404,75.22900763358778,102.25954198473282,145.8091603053435
6275031736510,1.387877916,3,-0.08379705810546874,2.3235727111816407,-3.436876483154297,62.6412213740458,94.90839694656489,117.37404580152672
6275041759635,1.397901041,3,0.4381389038085937,2.0458453186035155,-3.1687258972167966,52.9236641221374,82.01526717557252,94.95419847328245
6275051765573,1.407906979,3,0.6165069274902344,1.9656395629882812,-3.019088293457031,40.267175572519086,68.41221374045801,76.86259541984732
6275061763594,1.417905,3,0.8894459167480468,1.8171990600585937,-3.0514100158691404,25.900763358778626,51.29770992366412,62.58015267175573
6275071768802,1.427910208,3,1.1528080993652343,1.7190367919921874,-3.0693665283203124,14.030534351145038,37.57251908396947,53.93893129770992
6275081763438,1.437904844,3,1.4377180969238281,1.3862427612304686,-3.1842882080078123,11.32824427480916,29.923664122137403,50.79389312977099
6275091732188,1.447873594,3,1.6364368347167968,1.0199299072265624,-3.1651345947265623,12.900763358778626,22.0,52.94656488549618
6275101754167,1.457895573,3,1.9895815795898437,0.5327098693847656,-3.1411925781249996,11.442748091603054,20.732824427480917,54.541984732824424
6275111704479,1.467845885,3,2.0470424194335934,-0.06823474731445311,-3.087323040771484,6.687022900763359,12.122137404580153,55.93893129770992
6275121766563,1.477907969,3,1.6615759521484375,-0.5758054992675781,-3.008314385986328,5.648854961832061,4.229007633587786,48.38167938931298
6275131616979,1.487758385,3,1.2773065856933592,-0.8463502868652343,-3.0526071166992184,0.2366412213740458,-13.419847328244275,23.572519083969464
6275141756875,1.497898281,3,1.236605157470703,-0.5518634826660156,-3.3686417358398435,-16.755725190839694,-24.595419847328245,-22.931297709923665
6275151701458,1.507842864,3,0.023942016601562498,0.7050923889160156,-3.745728497314453,-44.93893129770992,-42.63358778625954,-83.25190839694656
6275161706823,1.517848229,3,-0.08020575561523437,2.7425580017089843,-4.641159918212891,-63.083969465648856,-57.404580152671755,-150.80152671755727
6275171736250,1.527877656,3,-0.4513070129394531,4.669890338134765,-5.227739324951171,-63.51145038167939,-55.778625954198475,-192.14503816793894
6275181762865,1.537904271,3,-1.361103643798828,6.399701037597656,-6.1255649475097655,-61.35114503816794,-75.98473282442748,-214.70229007633588
6275191729948,1.547871354,3,-2.031480108642578,7.80150610961914,-6.645106707763672,-50.954198473282446,-63.02290076335878,-234.13740458015266
6275201759062,1.557900468,3,-3.1783027038574216,9.336189373779296,-6.568492254638672,-23.259541984732824,-49.61068702290076,-248.4885496183206
6275211744479,1.567885885,3,-4.309562988281249,11.024101544189453,-6.894103680419922,-6.870229007633588,-52.80916030534351,-250.13740458015266
6275221701823,1.577843229,3,-5.492298608398437,12.697648504638671,-7.088034014892577,-15.801526717557252,-61.70229007633588,-250.13740458015266
6275231705990,1.587847396,3,-6.688202337646484,14.539986682128905,-7.137115148925781,-26.297709923664122,-64.86259541984732,-250.13740458015266
6275241771823,1.597913229,3,-7.681796026611328,16.545130572509766,-7.4579381713867186,-33.541984732824424,-79.77099236641222,-250.13740458015266
6275251729062,1.607870468,3,-7.072471704101562,18.189947113037107,-8.619125976562499,-52.79389312977099,-107.45038167938931,-226.1679389312977
6275261700521,1.617841927,3,-7.39928023071289,18.898630804443357,-9.362525592041015,-79.1145038167939,-117.10687022900764,-145.78625954198472
6275271727396,1.627868802,3,-6.813897924804687,18.734627990722654,-10.716446630859375,-83.45038167938931,-130.40458015267177,-47.83206106870229
6275281762500,1.637903906,3,-5.814318731689453,17.42859098510742,-11.043255157470702,-59.603053435114504,-87.53435114503817,55.152671755725194
6275291732240,1.647873646,3,-5.377376928710937,14.56871710205078,-10.363301885986328,-13.98473282442748,-37.47328244274809,161.0
6275301755625,1.657897031,3,-4.809951135253906,11.238382592773437,-8.825027319335938,55.81679389312977,21.717557251908396,239.6030534351145
6275311742708,1.667884114,3,-4.169502191162109,8.310273962402343,-7.486668591308593,100.90839694656489,61.23664122137404,250.12977099236642
6275321707240,1.677848646,3,-3.6332010192871094,5.989095452880859,-6.092046124267577,93.83969465648855,93.0,250.12977099236642
6275331738385,1.687879791,3,-2.855085479736328,4.1946413085937495,-5.0014872680664055,81.79389312977099,119.02290076335878,250.12977099236642
6275341771615,1.697913021,3,-2.069787335205078,2.934094134521484,-4.220977526855468,84.40458015267176,115.0,250.12977099236642
6275351730260,1.707871666,3,-1.294065997314453,1.944091748046875,-3.6631285400390623,81.05343511450381,110.22137404580153,218.18320610687022
6275361717135,1.717858541,3,-0.6057330200195312,1.2988544006347655,-3.2333693420410152,63.80916030534351,98.01526717557252,179.06106870229007
6275371740989,1.727882395,3,-0.10414777221679687,0.9217676391601562,-3.0514100158691404,42.267175572519086,80.65648854961832,139.55725190839695
6275381765052,1.737906458,3,0.11133037719726561,0.833182177734375,-2.8239608581542965,22.61832061068702,56.62595419847328,99.77862595419847
6275391757864,1.74789927,3,0.5135562561035156,1.042674822998047,-3.0035259826660154,4.061068702290076,30.572519083969464,62.7557251908397
6275401708802,1.757850208,3,0.4955997436523437,1.4796166259765624,-3.3590649291992185,-17.14503816793893,5.152671755725191,32.29770992366412
6275411745052,1.767886458,3,0.5973533142089843,2.043451116943359,-4.019864587402344,-38.412213740458014,-19.14503816793893,10.351145038167939
6275421752604,1.77789401,3,0.6428431457519531,2.7246014892578123,-4.782417816162109,-59.099236641221374,-34.656488549618324,-3.9083969465648853
6275431733750,1.787875156,3,0.6607996582031249,3.171120098876953,-5.124788653564453,-67.19083969465649,-32.2442748091603,-7.740458015267175
6275441707135,1.797848541,3,0.7697358337402344,3.3961750549316405,-5.693411547851563,-56.38167938931298,-29.33587786259542,-4.862595419847328
6275451709010,1.807850416,3,0.6631938598632812,3.2453403503417966,-5.859808563232422,-36.7557251908397,-12.83206106870229,1.366412213740458
6275461763021,1.817904427,3,0.6380547424316406,2.7736826232910157,-5.5258174316406246,-16.99236641221374,5.938931297709924,4.793893129770993
6275471729271,1.827870677,3,0.8834604125976562,2.251746661376953,-5.165490081787109,-2.145038167938931,18.595419847328245,-0.5267175572519084
6275481702552,1.837843958,3,0.11731588134765625,2.252943762207031,-4.8650177734375,0.0916030534351145,24.49618320610687,-17.30534351145038
6275491729687,1.847871093,3,0.4632780212402344,2.483984222412109,-4.732139581298828,-5.198473282442748,26.282442748091604,-48.05343511450382
6275501764687,1.857906093,3,0.12210428466796874,3.0813375366210938,-4.782417816162109,-6.595419847328245,24.419847328244273,-76.51908396946565
6275511750000,1.867891406,3,-0.058657940673828124,3.907337109375,-5.197811804199218,-7.152671755725191,13.717557251908397,-108.46564885496183
6275521764219,1.877905625,3,-0.28012159423828126,4.938040924072265,-5.641936212158202,-8.099236641221374,16.51145038167939,-138.16030534351145
6275531736667,1.887878073,3,-1.0187328063964842,5.984307049560546,-5.741295581054687,-3.351145038167939,21.633587786259543,-162.70992366412213
6275541862135,1.898003541,3,-1.2102689392089843,7.22689771118164,-6.092046124267577,8.763358778625955,26.732824427480917,-186.64885496183206
6275551754739,1.907896145,3,-1.924938134765625,8.263587030029296,-5.9974751586914055,12.595419847328245,33.25190839694657,-196.41221374045801
6275561706354,1.91784776,3,-2.531868255615234,9.278728533935546,-5.9017070922851556,13.450381679389313,37.343511450381676,-211.93129770992365
6275571734791,1.927876197,3,-3.6080619018554687,10.736797344970702,-5.559336254882812,24.282442748091604,43.770992366412216,-236.09923664122138
6275581705989,1.937847395,3,-4.687846850585937,12.297816827392577,-5.437231970214843,32.12977099236641,30.709923664122137,-248.58778625954199
6275591723802,1.947865208,3,-4.799177227783203,13.96298408203125,-5.568913061523437,23.389312977099237,16.389312977099237,-250.13740458015266
6275601773281,1.957914687,3,-4.836287353515624,15.324087725830077,-5.987898352050781,-8.282442748091603,-6.33587786259542,-227.67175572519085
6275611647083,1.967788489,3,-4.479551306152343,16.549918975830078,-6.078878015136718,-31.297709923664122,-28.251908396946565,-185.00763358778627
6275621765885,1.977907291,3,-4.833893151855468,17.252617163085937,-6.5206082214355465,-44.20610687022901,-60.49618320610687,-112.77099236641222
6275631701041,1.987842447,3,-4.4184991638183595,17.01439409790039,-7.286752752685547,-53.900763358778626,-87.29007633587786,-28.51145038167939
6275641716666,1.997858072,3,-4.559757061767578,15.87834541015625,-7.607575775146484,-58.786259541984734,-98.41221374045801,66.98473282442748
6275651740000,2.007881406,3,-4.574122271728515,14.111424584960936,-7.551312036132812,-37.38931297709924,-91.73282442748092,145.7709923664122
6275661767291,2.017908697,3,-4.405331054687499,11.766304058837889,-7.025784771728516,-9.717557251908397,-76.44274809160305,212.1679389312977
6275671735781,2.027877187,3,-4.2125978210449215,9.390058911132812,-6.320692382812499,-1.7404580152671756,-61.18320610687023,250.12977099236642
6275681764531,2.037905937,3,-3.6296097167968746,7.45075556640625,-5.65031591796875,-7.0534351145038165,-49.587786259541986,250.12977099236642
6275691743073,2.047884479,3,-3.0789433349609374,5.893327386474609,-5.23492192993164,-19.229007633587788,-53.01526717557252,250.12977099236642
6275701800208,2.057941614,3,-2.3906103576660156,4.6818613464355465,-5.121197351074218,-38.70992366412214,-61.9236641221374,250.12977099236642
6275711749583,2.067890989,3,-1.8830396057128904,3.622427111816406,-5.201403106689453,-54.98473282442748,-64.62595419847328,250.12977099236642
6275721779010,2.077920416,3,-1.3251906188964844,2.8000188415527343,-5.324704492187499,-52.42748091603053,-66.8854961832061,240.2290076335878
6275731707396,2.087848802,3,-0.8786720092773437,2.1631611999511717,-5.562927557373047,-41.68702290076336,-62.091603053435115,211.5267175572519
6275741698281,2.097839687,3,-0.4740519287109375,1.6711527587890624,-5.768828900146484,-31.984732824427482,-55.31297709923664,178.15267175572518
6275751701458,2.107842864,3,-0.20709844360351562,1.3778630554199218,-5.810727429199218,-15.435114503816793,-35.343511450381676,142.1679389312977
6275761775156,2.117916562,3,-0.04908113403320312,1.2102689392089843,-5.893327386474609,3.5267175572519083,-25.12213740458015,112.66412213740458
6275771737552,2.127878958,3,-0.0909796630859375,1.1097124694824219,-5.855020159912109,10.465648854961833,-12.923664122137405,87.53435114503817
6275781764062,2.137905468,3,0.40581718139648437,0.9600748657226562,-5.992686755371094,9.083969465648854,3.045801526717557,61.51908396946565
6275791675364,2.14781677,3,0.63206923828125,0.7673416320800781,-5.738901379394531,14.396946564885496,24.633587786259543,41.82442748091603
6275801765989,2.157907395,3,0.38666356811523434,0.6512228515624999,-5.643133312988281,29.610687022900763,35.55725190839695,19.47328244274809
6275811731979,2.167873385,3,0.7326257080078125,0.6212953308105469,-5.491101507568359,51.41984732824427,55.83206106870229,-4.961832061068702
6275821843489,2.177984895,3,1.350329736328125,0.3651157531738281,-5.299565374755859,65.70229007633588,73.70229007633588,-25.709923664122137
6275831729427,2.187870833,3,1.2641384765625,0.5434837768554687,-4.559757061767578,90.97709923664122,107.62595419847328,-58.10687022900763
6275841692343,2.197833749,3,0.34835634155273437,0.34835634155273437,-4.836287353515624,90.53435114503817,63.35114503816794,-68.83206106870229
6275851739896,2.207881302,3,0.29089550170898437,0.6212953308105469,-4.650736724853515,66.47328244274809,80.78625954198473,-113.45038167938931
6275861708229,2.217849635,3,0.04908113403320312,1.5849614990234373,-4.189852905273438,87.20610687022901,110.8473282442748,-180.42748091603053
6275871704739,2.227846145,3,-1.0283096130371092,2.8610709838867185,-4.7884033203125,139.18320610687022,67.81679389312977,-232.0916030534351
6275881696614,2.23783802,3,-0.7410054138183594,5.04338579711914,-5.03740029296875,184.3587786259542,90.26717557251908,-250.13740458015266
6275891697604,2.24783901,3,-0.9181763366699218,6.515819818115234,-5.110423443603516,140.21374045801528,73.87022900763358,-250.13740458015266
6275901702187,2.257843593,3,-1.7274164978027342,8.117540728759765,-4.552574456787109,87.12977099236642,68.7557251908397,-250.13740458015266
6275911706198,2.267847604,3,-2.986766571044922,9.603142858886718,-4.46877739868164,59.412213740458014,32.41984732824427,-250.13740458015266
6275921767083,2.277908489,3,-5.486313104248047,11.420341918945311,-5.105635040283203,55.68702290076336,-36.88549618320611,-250.13740458015266
6275931665573,2.287806979,3,-7.352593298339843,13.511677069091796,-6.21175620727539,39.603053435114504,-90.79389312977099,-250.13740458015266
6275941716927,2.297858333,3,-7.668627917480468,16.118962677001953,-7.274781744384765,-21.49618320610687,-114.6793893129771,-250.13740458015266
6275951735312,2.307876718,3,-8.921992486572265,17.70392417602539,-8.073247998046874,-124.41221374045801,-164.72519083969465,-250.13740458015266
6275961697239,2.317838645,3,-8.164227661132813,19.011158282470703,-9.543287817382812,-186.57251908396947,-201.81679389312978,-189.19847328244273
6275971725000,2.327866406,3,-8.377311608886718,19.61270144958496,-10.607510455322265,-187.27480916030535,-207.38167938931298,-104.14503816793894
6275981701927,2.337843333,3,-7.934384301757812,19.61270144958496,-11.55561431274414,-148.96946564885496,-195.34351145038167,-17.358778625954198
6275991705989,2.347847395,3,-7.024587670898437,18.497602026367186,-12.431892120361328,-104.16030534351145,-152.90076335877862,80.25954198473282
6276001693750,2.357835156,3,-6.308721374511719,16.548721875,-11.54843170776367,-44.3206106870229,-77.54198473282443,172.38167938931298
6276011737760,2.367879166,3,-5.766434698486328,12.968193292236327,-9.90840357055664,25.27480916030534,-9.709923664122137,250.12977099236642
6276021760989,2.377902395,3,-5.419275457763671,9.473855969238281,-7.902062579345703,93.16793893129771,54.396946564885496,250.12977099236642
6276031737968,2.387879374,3,-4.617217901611328,6.764816790771484,-6.542156036376952,121.8854961832061,93.12977099236642,250.12977099236642
6276041666302,2.397807708,3,-3.5865140869140624,4.566939666748047,-5.256469744873047,107.0381679389313,128.5801526717557,250.12977099236642
6276051738020,2.407879426,3,-2.473210314941406,2.8886043029785156,-4.035426898193359,100.03053435114504,152.00763358778627,250.12977099236642
6276061765573,2.417906979,3,-1.8064251525878905,1.322796417236328,-2.748543505859375,111.6793893129771,156.65648854961833,250.12977099236642
6276071704218,2.427845624,3,-1.1348515869140625,0.12689268798828124,-1.9656395629882812,125.90076335877863,133.7709923664122,250.12977099236642
6276081761666,2.437903072,3,-0.7589619262695312,-0.5877765075683593,-1.4449007019042968,123.36641221374046,109.7557251908397,245.64885496183206
6276091737343,2.447878749,3,0.07781155395507812,-1.1540052001953125,-1.22583125,85.67175572519083,71.20610687022901,211.38931297709922
6276101702083,2.457843489,3,0.38666356811523434,-1.4640543151855467,-1.4796166259765624,15.450381679389313,17.72519083969466,178.77862595419847
6276111732968,2.467874374,3,0.9193734375,-1.7381904052734374,-2.079364141845703,-54.85496183206107,-29.770992366412212,149.74809160305344
6276121759114,2.47790052,3,0.3591302490234375,-1.3575123413085937,-2.8107927490234372,-109.49618320610686,-78.34351145038168,116.99236641221374
6276131695260,2.487836666,3,0.7003039855957031,-0.82360537109375,-4.070142822265625,-139.90076335877862,-110.26717557251908,83.64885496183206
6276141759062,2.497900468,3,0.7445967163085937,-0.28012159423828126,-5.501875415039062,-162.82442748091603,-132.1679389312977,58.404580152671755
6276151695208,2.507836614,3,0.6919242797851562,0.26815058593749996,-6.515819818115234,-165.61068702290078,-119.12977099236642,33.541984732824424
6276161764375,2.517905781,3,0.604535919189453,0.8487444885253905,-7.193378887939453,-138.41221374045801,-92.66412213740458,10.80916030534351
6276171708385,2.527849791,3,0.4070142822265625,0.9696516723632812,-7.637503295898437,-95.92366412213741,-64.08396946564885,-1.5267175572519085
6276181707031,2.537848437,3,0.36631285400390623,1.1731588134765625,-7.953537915039062,-56.05343511450382,-35.05343511450382,-21.763358778625953
6276191733958,2.547875364,3,0.36391865234375,1.3311761230468748,-7.948749511718749,-31.603053435114504,5.625954198473282,-52.213740458015266
6276201701458,2.557842864,3,-0.4632780212402344,1.9201497314453124,-7.432799053955078,-11.083969465648854,43.12213740458015,-92.82442748091603
6276211695104,2.56783651,3,0.00239420166015625,2.797624639892578,-7.213729602050781,18.916030534351144,73.7175572519084,-141.9618320610687
6276221772812,2.577914218,3,-0.09816226806640624,3.6918589599609373,-6.567295153808593,53.64885496183206,112.46564885496183,-187.87786259541986
6276231728437,2.587869843,3,-1.2042834350585936,4.859032269287109,-6.295553265380859,70.00763358778626,105.96946564885496,-224.45801526717557
6276241705364,2.59784677,3,-1.131260284423828,5.94360562133789,-6.05852730102539,68.5114503816794,124.27480916030534,-250.13740458015266
6276251694479,2.607835885,3,-2.4564509033203126,7.187393383789062,-5.588066674804687,56.725190839694655,121.87786259541984,-250.13740458015266
6276261696718,2.617838124,3,-3.7325603881835936,8.723273748779297,-5.190629199218749,68.6793893129771,115.02290076335878,-250.13740458015266
6276271727135,2.627868541,3,-4.7393221862792965,10.767921966552734,-5.026626385498046,75.06106870229007,96.38931297709924,-250.13740458015266
6276281753541,2.637894947,3,-5.710170959472656,12.994529510498046,-5.17746109008789,34.404580152671755,66.48091603053435,-250.13740458015266
6276291797760,2.647939166,3,-5.983109948730468,15.243881970214844,-5.559336254882812,-24.076335877862597,35.93893129770992,-250.13740458015266
6276301762239,2.657903645,3,-6.430825659179687,17.577031488037107,-5.88015927734375,-59.74809160305343,10.595419847328245,-250.13740458015266
6276311732604,2.66787401,3,-5.352237811279297,19.486407312011718,-6.451176373291015,-72.66412213740458,-10.572519083969466,-250.13740458015266
6276321756354,2.67789776,3,-5.1152118469238275,19.61270144958496,-6.739677673339843,-64.70229007633588,-22.572519083969464,-200.64885496183206
6276331741510,2.687882916,3,-4.2892122741699215,19.61270144958496,-7.528567120361328,-54.43511450381679,-50.847328244274806,-77.18320610687023
6276341778333,2.697919739,3,-4.039018200683594,18.192341314697263,-7.821856823730468,-39.37404580152672,-50.42748091603053,63.030534351145036
6276351736250,2.707877656,3,-4.416104962158203,14.937424157714842,-6.800729815673828,8.381679389312977,-33.732824427480914,185.6259541984733
6276361709791,2.717851197,3,-3.8989574035644528,11.699266412353515,-6.100425830078125,64.09160305343511,-23.671755725190838,250.12977099236642
6276371743854,2.72788526,3,-4.100070343017578,8.869320050048827,-5.210979913330078,57.64885496183206,-25.770992366412212,250.12977099236642
6276381703333,2.737844739,3,-3.460818499755859,6.757634185791015,-4.693832354736328,19.862595419847327,-24.00763358778626,250.12977099236642
6276391693333,2.747834739,3,-3.372233038330078,5.2433016357421875,-4.355052819824219,-11.526717557251908,-41.10687022900763,250.12977099236642
6276401831666,2.757973072,3,-2.5450363647460934,4.261678955078125,-4.467580297851562,-17.954198473282442,-60.603053435114504,250.12977099236642
6276411637187,2.767778593,3,-2.114080065917969,3.6583401367187496,-4.578910675048828,-29.48854961832061,-74.23664122137404,250.12977099236642
6276421714895,2.777856301,3,-1.7082628845214842,3.220201232910156,-4.754884497070313,-54.083969465648856,-86.70992366412214,225.98473282442748
6276431741510,2.787882916,3,-1.2605471740722656,2.858676782226562,-4.983530755615234,-74.02290076335878,-89.47328244274809,204.2290076335878
6276441770729,2.797912135,3,-0.9014169250488281,2.5917232971191404,-5.487510205078125,-78.6793893129771,-100.0,185.6412213740458
6276451745156,2.807886562,3,-0.7386112121582031,2.4756045166015626,-5.748478186035156,-73.70229007633588,-93.45038167938931,167.89312977099237
6276461778906,2.817920312,3,-0.3687070556640625,2.1356278808593747,-5.928043310546875,-65.87022900763358,-84.0381679389313,154.81679389312978
6276471739062,2.827880468,3,-0.1292868896484375,1.7513585144042967,-6.114791040039062,-53.38931297709924,-69.02290076335878,144.4732824427481
6276481710729,2.837852135,3,0.09696516723632811,1.1935095275878906,-6.271611248779297,-43.19083969465649,-57.62595419847328,137.12213740458014
6276491743541,2.847884947,3,0.2597708801269531,0.7218518005371093,-6.232106921386718,-30.770992366412212,-33.6793893129771,123.91603053435115
6276501765989,2.857907395,3,0.13287819213867186,0.18315642700195311,-6.309918475341797,-24.282442748091604,-23.49618320610687,105.55725190839695
6276511735416,2.867876822,3,0.23822306518554687,-0.2561795776367187,-6.332663391113281,-19.564885496183205,-4.511450381679389,82.45038167938931
6276521754479,2.877895885,3,0.13646949462890623,-0.5889736083984375,-6.199785198974609,-13.19083969465649,11.16793893129771,53.74809160305343
6276531736927,2.887878333,3,0.20829554443359374,-0.584185205078125,-5.951985327148437,-7.6183206106870225,26.137404580152673,15.557251908396946
6276541755468,2.897896874,3,0.2657563842773437,-0.22266075439453123,-5.719747766113281,-5.694656488549619,40.13740458015267,-32.20610687022901
6276551734427,2.907875833,3,0.6081272216796875,0.4908113403320312,-5.596446380615234,-4.267175572519084,52.01526717557252,-84.5114503816794
6276561767083,2.917908489,3,-0.42018239135742186,1.916558428955078,-5.756857891845703,-3.816793893129771,53.6412213740458,-139.0763358778626
6276571735572,2.927876978,3,-0.4537012145996093,3.6739024475097652,-6.0345852844238275,-1.6106870229007633,67.82442748091603,-199.83969465648855
6276581773072,2.937914478,3,-1.2533645690917967,5.194220501708984,-6.0716954101562495,17.34351145038168,84.16030534351145,-238.87022900763358
6276591737239,2.947878645,3,-1.7609353210449217,6.903680487060546,-6.241683728027343,48.16793893129771,97.49618320610686,-250.13740458015266
6276601769114,2.95791052,3,-2.3786393493652342,8.41442173461914,-6.234501123046875,57.80916030534351,112.96946564885496,-250.13740458015266
6276611739114,2.96788052,3,-2.482787121582031,9.664195001220703,-6.2201359130859375,49.64885496183206,122.81679389312977,-250.13740458015266
6276621773749,2.977915155,3,-3.1974563171386716,10.931924780273437,-5.837063647460937,50.69465648854962,131.77862595419847,-250.13740458015266
6276631732604,2.98787401,3,-3.67749375,12.133814013671874,-5.456385583496093,61.54961832061068,140.3969465648855,-250.13740458015266
6276641769999,2.997911405,3,-4.551377355957031,13.250709088134764,-5.204994409179688,60.49618320610687,131.3206106870229,-250.13740458015266
6276651744791,3.007886197,3,-4.971559747314453,14.513650463867187,-4.950011932373046,55.725190839694655,126.70992366412214,-250.13740458015266
6276661765833,3.017907239,3,-4.910507604980468,15.688006378173828,-4.876988781738281,44.44274809160305,117.7557251908397,-250.13740458015266
6276671754583,3.027895989,3,-4.352658618164062,16.519991455078124,-4.820725042724609,27.81679389312977,106.26717557251908,-225.3587786259542
6276681762291,3.037903697,3,-3.2130186279296873,17.1233302734375,-4.5693338684082025,32.02290076335878,101.35114503816794,-172.66412213740458
6276691734479,3.047875885,3,-3.1076737548828124,16.95214485473633,-4.113238452148437,49.88549618320611,74.59541984732824,-88.72519083969466
6276701771458,3.057912864,3,-2.7341782958984373,16.19677423095703,-3.7397429931640622,51.98473282442748,35.99236641221374,-1.4809160305343512
6276711732395,3.067873801,3,-2.6599580444335937,14.295778112792968,-3.987542864990234,32.267175572519086,-7.603053435114504,88.41221374045801
6276721772604,3.07791401,3,-3.494337322998047,11.914744561767577,-4.492719415283203,7.1679389312977095,-64.87786259541984,164.93893129770993
6276731737239,3.087878645,3,-3.2453403503417966,9.982623822021484,-5.13915386352539,-7.679389312977099,-87.5114503816794,200.98473282442748
6276741709843,3.097851249,3,-3.1579519897460937,8.428786944580077,-5.293579870605469,-23.435114503816795,-93.90076335877863,218.1679389312977
6276751744843,3.107886249,3,-2.797624639892578,7.286752752685547,-5.692214447021484,-29.80916030534351,-107.97709923664122,223.7709923664122
6276761772135,3.117913541,3,-2.786850732421875,6.305130072021484,-5.6395420104980465,-37.61068702290076,-113.22137404580153,224.1145038167939
6276771737343,3.127878749,3,-2.5139117431640625,5.5461681457519525,-5.844246252441406,-37.282442748091604,-121.17557251908397,216.58778625954199
6276781733437,3.137874843,3,-2.626439221191406,5.143942266845703,-6.081272216796875,-40.25190839694657,-132.95419847328245,206.55725190839695
6276791745729,3.147887135,3,-2.586934893798828,4.842272857666015,-6.414066247558593,-51.786259541984734,-141.793893129771,197.6412213740458
6276801756510,3.157897916,3,-2.4588451049804685,4.6459483215332025,-6.815095025634765,-68.38931297709924,-150.65648854961833,188.61068702290078
6276811747083,3.167888489,3,-2.480392919921875,4.526238238525391,-7.187393383789062,-82.40458015267176,-155.87022900763358,179.03053435114504
6276821699843,3.177841249,3,-2.2924480895996093,4.43047017211914,-7.568071447753906,-90.34351145038168,-155.03053435114504,174.25954198473283
6276831700312,3.187841718,3,-2.1212626708984375,4.155136981201172,-7.83981333618164,-91.83206106870229,-148.06106870229007,172.06106870229007
6276841819270,3.197960676,3,-2.019509100341797,3.7912183288574215,-8.163030560302733,-89.12977099236642,-136.03053435114504,169.44274809160305
6276851749218,3.207890624,3,-2.003946789550781,3.4069489624023435,-8.43956085205078,-86.19847328244275,-122.3206106870229,163.2290076335878
6276861811614,3.21795302,3,-1.9093758239746093,2.923320227050781,-8.620323077392577,-81.62595419847328,-97.08396946564885,152.23664122137404
6276871744583,3.227885989,3,-1.5562310791015623,2.558204473876953,-8.743624462890624,-66.48091603053435,-67.96946564885496,134.67175572519085
6276881773958,3.237915364,3,-1.2509703674316406,2.110488763427734,-8.667010009765624,-42.412213740458014,-32.16793893129771,112.65648854961832
6276891741874,3.24788328,3,-0.8080430603027343,1.6627730529785156,-8.570044842529297,-19.480916030534353,2.946564885496183,89.09160305343511
6276901771093,3.257912499,3,-0.5159504577636719,1.2342109558105467,-8.08881030883789,-1.2213740458015268,40.14503816793893,62.47328244274809
6276911744322,3.267885728,3,-0.258573779296875,1.0977414611816405,-7.217320904541015,23.053435114503817,88.23664122137404,25.427480916030536
6276921675208,3.277816614,3,0.12689268798828124,1.3479355346679687,-6.308721374511719,48.770992366412216,124.90839694656489,-17.641221374045802
6276931748906,3.287890312,3,0.1592144104003906,1.686715069580078,-5.197811804199218,67.92366412213741,151.31297709923663,-59.67175572519084
6276941776666,3.297918072,3,0.11013327636718749,2.242169854736328,-4.897339495849609,70.23664122137404,148.9236641221374,-96.30534351145039
6276951736197,3.307877603,3,0.22864625854492185,2.7138275817871094,-4.459200592041015,66.07633587786259,161.45801526717557,-130.95419847328245
6276961775260,3.317916666,3,0.36750995483398435,3.460818499755859,-4.140771771240234,74.70229007633588,172.61068702290078,-170.33587786259542
6276971788906,3.327930312,3,0.19632453613281248,4.432864373779297,-3.9839515624999997,92.02290076335878,171.08396946564886,-199.93129770992365
6276981720416,3.337861822,3,-0.16998831787109375,5.4013189453125,-3.6152445068359373,104.22900763358778,176.6946564885496,-224.95419847328245
6276991709687,3.347851093,3,-0.603338818359375,6.141127258300781,-3.3674446350097655,107.73282442748092,171.57251908396947,-241.29007633587787
6277001766874,3.35790828,3,-1.3958195678710936,7.3466077941894525,-3.1687258972167966,110.77099236641222,160.1679389312977,-250.13740458015266
6277011738853,3.367880259,3,-1.638831036376953,8.712499841308594,-3.106476654052734,107.13740458015268,155.85496183206106,-250.13740458015266
6277021757968,3.377899374,3,-1.9716250671386717,10.180145458984374,-3.1447838806152344,92.22900763358778,136.206106870229,-250.13740458015266
6277031686301,3.387827707,3,-1.9201497314453124,11.481394061279296,-3.0454245117187497,77.50381679389314,122.38167938931298,-250.13740458015266
6277041770728,3.397912134,3,-2.108094561767578,12.757503546142578,-3.094505645751953,65.01526717557252,94.17557251908397,-250.13740458015266
6277051747447,3.407888853,3,-1.6136919189453125,13.660117572021484,-3.3482910217285156,53.908396946564885,63.091603053435115,-239.35114503816794
6277061767239,3.417908645,3,-2.2744915771484373,14.43464180908203,-3.4680011047363277,35.06870229007634,19.450381679389313,-189.38167938931298
6277071742239,3.427883645,3,-2.5665841796874997,14.891934326171874,-3.555389465332031,18.984732824427482,-15.549618320610687,-130.90076335877862
6277081667708,3.437809114,3,-2.8610709838867185,14.985308190917968,-4.06655151977539,0.8625954198473282,-69.51908396946565,-67.07633587786259
6277091793489,3.447934895,3,-3.679887951660156,14.232331768798828,-5.353434912109375,-24.900763358778626,-139.21374045801528,11.664122137404581
6277101771301,3.457912707,3,-4.857835168457031,13.111845391845703,-6.5589154479980465,-50.19847328244275,-195.29770992366412,84.29770992366412
6277111737812,3.467879218,3,-5.0757075195312495,12.210428466796873,-7.657854010009765,-70.80916030534351,-218.72519083969465,123.76335877862596
6277121765312,3.477906718,3,-5.394136340332031,11.225214483642578,-8.653841900634765,-102.12213740458016,-241.96946564885496,167.55725190839695
6277131745312,3.487886718,3,-5.364208819580078,10.162188946533202,-9.491812481689452,-119.31297709923665,-246.0916030534351,200.16030534351145
6277141764114,3.49790552,3,-4.952406134033203,9.278728533935546,-9.861716638183593,-114.85496183206106,-220.4351145038168,212.61068702290078
6277151749583,3.507890989,3,-4.915296008300781,8.141482745361328,-10.090362896728514,-105.44274809160305,-209.25190839694656,230.01526717557252
6277161773541,3.517914947,3,-4.466383197021484,7.05451519165039,-9.740809454345703,-70.82442748091603,-161.09923664122138,224.89312977099237
6277171741510,3.527882916,3,-4.164713787841797,6.050147595214844,-9.404424121093749,-35.70992366412214,-128.94656488549617,215.6793893129771
6277181707968,3.537849374,3,-3.5589807678222654,5.172672686767577,-9.088389501953124,-15.854961832061068,-91.44274809160305,197.58778625954199
6277191745989,3.547887395,3,-3.2908301818847656,4.505887524414062,-8.531737615966797,-7.717557251908397,-56.58015267175573,171.1145038167939
6277201769010,3.557910416,3,-2.5737667846679684,4.060566015625,-8.330624676513672,0.35877862595419846,-25.022900763358777,138.70992366412213
6277211739062,3.567880468,3,-2.1703438049316404,3.877409588623047,-7.832630731201172,10.061068702290076,5.374045801526718,102.17557251908397
6277221717551,3.577858957,3,-1.7848773376464844,3.842693664550781,-7.636306195068359,20.435114503816795,27.610687022900763,66.70992366412214
6277232792968,3.588934374,3,-1.22583125,4.013879083251953,-7.189787585449218,36.48854961832061,58.267175572519086,32.916030534351144
6277243341666,3.599483072,3,-0.9576806640625,4.473565802001953,-6.368576416015625,53.05343511450382,84.76335877862596,-10.931297709923664
6277253373749,3.609515155,3,-0.5015852478027344,4.965574243164062,-5.6311623046875,67.45801526717557,107.6412213740458,-14.954198473282442
6277263338593,3.619479999,3,-0.011971008300781249,5.275623358154297,-4.839878656005859,69.80152671755725,120.12977099236642,-6.786259541984733
6277273386770,3.629528176,3,0.46208092041015625,5.276820458984375,-4.11802685546875,67.27480916030534,125.42748091603053,9.908396946564885
6277283339635,3.639481041,3,0.8487444885253905,4.995501763916016,-3.5098996337890624,63.10687022900763,119.56488549618321,26.84732824427481
6277293316041,3.649457447,3,1.1863269226074218,4.533420843505859,-3.0071172851562498,58.221374045801525,115.08396946564885,39.82442748091603
6277303308905,3.659450311,3,1.6412252380371093,3.8007951354980465,-2.7665000183105466,46.74045801526717,106.00763358778626,46.717557251908396
6277315151041,3.671292447,3,1.878251202392578,2.2649147705078123,-2.009932293701172,55.56488549618321,103.64885496183206,48.12213740458015
6277323911666,3.680053072,3,2.184709014892578,2.2649147705078123,-2.009932293701172,55.80152671755725,93.0,41.80152671755725
6277333277760,3.689419166,3,2.1883003173828124,1.6172832214355468,-1.8267758666992187,67.52671755725191,93.0,27.778625954198475
6277343323645,3.699465051,3,2.2002713256835937,1.1061211669921875,-1.7274164978027342,66.08396946564885,85.20610687022901,9.488549618320612
6277353379635,3.709521041,3,1.7812860351562498,0.6500257507324219,-1.4305354919433593,55.38167938931298,71.00763358778626,-22.259541984732824
6277363315051,3.719456457,3,1.5071499450683592,0.5351040710449219,-1.4544775085449217,48.80152671755725,51.465648854961835,-67.0381679389313
6277373366926,3.729508332,3,1.0211270080566406,1.0941501586914062,-1.3479355346679687,38.50381679389313,31.16030534351145,-109.17557251908397
6277383323228,3.739464634,3,0.9469067565917968,1.7908628417968748,-2.1344307800292968,13.236641221374045,-10.32824427480916,-164.8320610687023
6277393357135,3.749498541,3,0.5889736083984375,3.4488474914550777,-2.89219560546875,-6.923664122137405,-39.68702290076336,-200.64885496183206
6277403309322,3.759450728,3,-0.86191259765625,5.5258174316406246,-3.867832781982422,-34.86259541984733,-88.74045801526718,-238.4198473282443
6277413363645,3.769505051,3,-2.521094348144531,7.824251025390624,-4.641159918212891,-57.88549618320611,-117.19847328244275,-250.13740458015266
6277423319062,3.779460468,3,-3.870226983642578,10.384849700927735,-5.576095666503906,-76.32824427480917,-149.58778625954199,-250.13740458015266
6277433339374,3.78948078,3,-5.837063647460937,13.168109130859374,-6.590040069580078,-97.4885496183206,-186.09923664122138,-250.13740458015266
6277443399843,3.799541249,3,-7.146691955566406,15.611391925048828,-7.990648040771484,-125.81679389312977,-217.0763358778626,-250.13740458015266
6277453383020,3.809524426,3,-8.825027319335938,17.932570434570312,-9.294290844726563,-153.70992366412213,-232.70992366412213,-231.46564885496184
6277463304062,3.819445468,3,-8.507795599365235,19.61270144958496,-11.262324609375,-155.15267175572518,-235.3053435114504,-155.6793893129771
6277473415260,3.829556666,3,-8.137891442871092,19.61270144958496,-12.215216870117187,-122.83206106870229,-186.06870229007635,-47.33587786259542
6277483325103,3.839466509,3,-7.564480145263672,19.61270144958496,-12.964601989746093,-77.33587786259542,-141.12213740458014,67.64885496183206
6277493324114,3.84946552,3,-6.438008264160156,18.55386576538086,-12.497732666015624,-20.85496183206107,-50.67175572519084,179.03053435114504
6277503328905,3.859470311,3,-5.825092639160156,15.033192224121093,-10.688913311767578,50.74809160305343,37.3587786259542,250.12977099236642
6277513385155,3.869526561,3,-4.997895965576172,11.271901416015623,-8.749609967041016,129.5801526717557,108.10687022900764,250.12977099236642
6277523320832,3.879462238,3,-4.4196962646484375,8.574833245849609,-6.72890376586914,171.93893129770993,163.4198473282443,250.12977099236642
6277533379114,3.88952052,3,-3.430890979003906,6.214150408935547,-5.1331683593749995,158.70992366412213,191.87022900763358,250.12977099236642
6277543389062,3.899530468,3,-2.4564509033203126,4.458003491210937,-3.7720647155761715,134.04580152671755,200.86259541984734,241.0229007633588
6277553390312,3.909531718,3,-1.3455413330078123,3.020285394287109,-2.9089550170898435,118.95419847328245,189.9770992366412,216.2824427480916
6277563317759,3.919459165,3,-0.5889736083984375,1.9536685546875,-2.194285821533203,105.1526717557252,162.40458015267177,184.9770992366412
6277573376457,3.929517863,3,0.2346317626953125,1.024718310546875,-1.8052280517578123,88.6412213740458,133.9770992366412,150.81679389312978
6277583309530,3.939450936,3,0.7541735229492187,0.5781997009277343,-1.5789759948730469,63.99236641221374,100.68702290076335,118.58778625954199
6277593363645,3.949505051,3,1.1073182678222655,0.28490999755859375,-1.6555904479980468,29.419847328244273,64.38931297709924,87.70229007633588
6277603324374,3.95946578,3,1.3910311645507811,0.18435352783203124,-1.7669208251953124,0.22137404580152673,34.87022900763359,61.213740458015266
6277613367134,3.96950854,3,1.5406687683105469,0.22744915771484372,-2.2266075439453124,-17.641221374045802,6.694656488549619,37.6412213740458
6277623334478,3.979475884,3,1.6436194396972654,0.34835634155273437,-2.8514941772460936,-24.96946564885496,-13.19083969465649,18.87786259541985
6277633377499,3.989518905,3,1.7178396911621092,0.5781997009277343,-3.266888165283203,-29.458015267175572,-22.610687022900763,4.641221374045801
6277643323697,3.999465103,3,1.8231845642089843,0.6955155822753906,-3.6762966491699216,-32.091603053435115,-26.366412213740457,-6.297709923664122
6277653318124,4.00945953,3,1.8555062866210936,0.737414111328125,-3.9983167724609374,-27.83969465648855,-23.778625954198475,-18.12213740458015
6277663332551,4.019473957,3,1.7034744812011717,0.8056488586425781,-4.139574670410156,-17.610687022900763,-18.549618320610687,-35.38931297709924
6277673319634,4.02946104,3,1.2569558715820313,1.0115502014160156,-4.031835595703125,-10.045801526717558,-15.427480916030534,-59.74045801526717
6277683307499,4.039448905,3,1.0007762939453124,1.5945383056640625,-4.171896392822266,-10.030534351145038,-17.480916030534353,-85.08396946564885
6277693253228,4.049394634,3,0.8056488586425781,2.3056161987304686,-4.2305543334960936,-15.129770992366412,-15.931297709923664,-111.19847328244275
6277703371197,4.059512603,3,0.10773907470703124,3.4356793823242184,-4.613626599121093,-23.27480916030534,-26.984732824427482,-133.6259541984733
6277713376093,4.069517499,3,0.34117373657226563,4.387374542236328,-5.293579870605469,-36.6793893129771,-36.57251908396947,-158.89312977099237
6277723321874,4.07946328,3,-0.17118541870117188,5.510255120849609,-5.154716174316406,-32.61068702290076,-17.557251908396946,-174.66412213740458
6277733372968,4.089514374,3,-1.2150573425292968,6.675034228515624,-5.493495709228515,-11.229007633587786,-35.74809160305343,-196.21374045801528
6277743298697,4.099440103,3,-2.114080065917969,7.995436444091796,-5.625176800537109,7.106870229007634,-42.52671755725191,-220.9770992366412
6277753361509,4.109502915,3,-3.7002386657714843,9.630676177978515,-5.761646295166015,-5.847328244274809,-64.33587786259542,-243.3740458015267
6277763482551,4.119623957,3,-5.190629199218749,11.432312927246093,-5.9974751586914055,-27.549618320610687,-94.8473282442748,-250.13740458015266
6277773348020,4.129489426,3,-6.335057592773437,13.741520428466796,-6.7085530517578125,-55.80152671755725,-131.9770992366412,-250.13740458015266
6277783316978,4.139458384,3,-7.578845355224609,15.77659183959961,-8.106766821289062,-102.55725190839695,-186.77862595419847,-216.87786259541986
6277793296666,4.149438072,3,-8.588001354980468,17.514782244873047,-9.664195001220703,-141.91603053435114,-213.18320610687022,-167.03053435114504
6277803331822,4.159473228,3,-7.5716627502441405,18.82081925048828,-11.470620153808593,-152.59541984732823,-215.82442748091603,-71.06870229007633
6277813301509,4.169442915,3,-7.511807708740234,19.02552349243164,-12.332532751464843,-127.3206106870229,-175.4198473282443,27.267175572519083
6277823372759,4.179514165,3,-6.72291826171875,18.27853257446289,-12.543222497558594,-68.1145038167939,-119.52671755725191,129.77862595419847
6277833403541,4.189544947,3,-5.5844753723144525,16.016012005615234,-11.82376489868164,-3.0916030534351147,-38.06870229007634,230.65648854961833
6277843314009,4.199455415,3,-5.164292980957031,12.228384979248046,-10.103531005859374,53.31297709923664,33.770992366412216,250.12977099236642
6277853259686,4.209401092,3,-4.723759875488281,9.16859525756836,-8.182184173583984,117.7557251908397,100.41984732824427,250.12977099236642
6277863330364,4.21947177,3,-3.912125512695312,6.6522893127441405,-6.574477758789062,141.96946564885496,139.06870229007635,250.12977099236642
6277873298749,4.229440155,3,-2.962824554443359,4.666299035644531,-5.341463903808593,133.4885496183206,171.04580152671755,241.22137404580153
6277883312343,4.239453749,3,-1.7369933044433592,3.247734552001953,-4.329913702392578,123.63358778625954,183.51908396946564,216.793893129771
6277893361197,4.249502603,3,-0.8834604125976562,1.945288848876953,-3.2692823669433593,115.48091603053435,185.2824427480916,180.98473282442748
6277903309947,4.259451353,3,0.04548983154296875,1.1444283935546875,-2.492363928222656,113.56488549618321,175.81679389312978,144.25954198473283
6277913317707,4.269459113,3,0.7350199096679687,0.5722141967773438,-1.915361328125,101.97709923664122,158.4732824427481,112.87786259541984
6277923317134,4.27945854,3,1.1851298217773436,0.11013327636718749,-1.5394716674804687,77.65648854961832,128.45801526717557,79.41221374045801
6277933313957,4.289455363,3,1.6077064147949218,-0.09457096557617187,-1.2006921325683593,54.213740458015266,109.20610687022901,48.083969465648856
6277943314218,4.299455624,3,1.93451494140625,-0.04668693237304687,-1.083376251220703,34.51908396946565,84.47328244274809,47.87022900763359
6277953318905,4.309460311,3,2.1440075866699217,0.14245499877929688,-1.0857704528808594,20.045801526717558,58.282442748091604,0.11450381679389313
6277963313072,4.319454478,3,2.426523382568359,0.36631285400390623,-1.0019733947753906,8.526717557251908,40.725190839694655,-17.862595419847327
6277973308332,4.329449738,3,2.4516625,0.612915625,-1.2928688964843749,-0.6717557251908397,19.17557251908397,-19.106870229007633
6277983333280,4.339474686,3,2.347514727783203,0.9516951599121093,-1.4987702392578124,-6.816793893129771,0.8549618320610687,-46.7557251908397
6277993315207,4.349456613,3,2.1547814941406247,1.3766659545898436,-2.0877438476562498,-13.045801526717558,-19.9618320610687,-59.81679389312977
6278003288176,4.359429582,3,1.7130512878417967,1.8854338073730468,-2.530671154785156,-22.72519083969466,-37.3587786259542,-73.76335877862596
6278013362134,4.36950354,3,1.4113818786621093,2.384624853515625,-3.1878795104980466,-35.916030534351144,-54.19083969465649,-88.07633587786259
6278023256145,4.379397551,3,1.1013327636718748,2.980781066894531,-3.793612530517578,-42.83969465648855,-62.12977099236641,-89.29770992366412
6278033382603,4.389524009,3,0.411802685546875,3.919308117675781,-4.4568063903808595,-45.267175572519086,-76.0381679389313,-128.54198473282443
6278043297759,4.399439165,3,-0.45968671875,4.764461303710937,-5.042188696289062,-53.85496183206107,-80.17557251908397,-128.34351145038167
6278053364426,4.409505832,3,-1.158793603515625,6.0525417968749995,-5.1714755859374995,-48.97709923664122,-69.50381679389314,-178.5114503816794
6278063303228,4.419444634,3,-1.8315642700195311,7.262810736083984,-5.616797094726562,-22.450381679389313,-78.90076335877863,-177.98473282442748
6278073312082,4.429453488,3,-2.731784094238281,8.508992700195313,-6.252457635498047,-15.045801526717558,-108.23664122137404,-189.06106870229007
6278083314478,4.439455884,3,-3.897760302734375,9.815029705810547,-6.591237170410156,-38.11450381679389,-116.8473282442748,-194.21374045801528
6278093291405,4.449432811,3,-4.938040924072265,10.985794317626953,-7.189787585449218,-65.29770992366412,-144.40458015267177,-186.4198473282443
6278103306353,4.459447759,3,-6.252457635498047,12.279860314941406,-8.118737829589843,-85.85496183206106,-179.5801526717557,-176.9083969465649
6278113402447,4.469543853,3,-7.11197603149414,13.506888665771484,-9.503783489990234,-106.21374045801527,-207.9083969465649,-130.74045801526717
6278123317707,4.479459113,3,-7.173028173828125,14.516044665527343,-11.043255157470702,-124.42748091603053,-217.8854961832061,-130.06106870229007
6278133309947,4.489451353,3,-7.687781530761718,15.015235711669922,-12.32175884399414,-140.61068702290078,-207.8320610687023,-76.85496183206106
6278143319738,4.499461144,3,-6.70975015258789,14.972140081787108,-13.110648291015623,-126.38167938931298,-152.24427480916032,-19.435114503816795
6278153366874,4.50950828,3,-5.865794067382812,14.079102862548828,-13.273454003906249,-85.80152671755725,-81.38167938931298,124.29770992366412
6278163309947,4.519451353,3,-5.412092852783203,11.826159100341796,-12.375628381347655,-22.015267175572518,1.6641221374045803,123.23664122137404
6278173303801,4.529445207,3,-4.80755693359375,9.082403997802734,-10.676942303466797,52.2442748091603,86.87022900763358,171.1145038167939
6278183318645,4.539460051,3,-3.954024041748047,6.675034228515624,-8.725667950439453,117.87022900763358,165.73282442748092,179.91603053435114
6278193311561,4.549452967,3,-3.0550013183593747,4.918887310791015,-6.785167504882812,144.18320610687022,219.23664122137404,169.18320610687022
6278203246405,4.559387811,3,-2.043451116943359,3.6188358093261717,-4.993107562255859,145.6030534351145,250.12977099236642,141.73282442748092
6278213359218,4.569500624,3,-0.9923965881347656,2.7629087158203123,-3.5218706420898434,143.74045801526717,250.12977099236642,104.8854961832061
6278223316093,4.579457499,3,-0.3591302490234375,2.4301146850585935,-2.3247698120117186,137.31297709923663,250.12977099236642,55.603053435114504
6278233322655,4.589464061,3,0.23223756103515625,2.414552374267578,-1.4724340209960938,125.77862595419847,244.6412213740458,5.068702290076335
6278243329634,4.59947104,3,0.44532150878906246,2.9269115295410155,-0.7493851196289062,111.50381679389314,211.7709923664122,-50.412213740458014
6278253306093,4.609447499,3,0.1927332336425781,4.1958384094238275,-0.5734112976074218,90.19847328244275,159.10687022900763,-104.41221374045801
6278263312238,4.619453644,3,0.17477672119140625,6.153098266601562,-1.064222637939453,56.900763358778626,100.00763358778626,-158.0916030534351
6278273260051,4.629401457,3,-0.6081272216796875,8.403647827148436,-1.6208745239257811,14.221374045801527,52.11450381679389,-185.45038167938932
6278283310624,4.63945203,3,-0.4560954162597656,10.486603271484375,-2.3726538452148436,-28.0,11.549618320610687,-194.45038167938932
6278293404478,4.649545884,3,-0.7218518005371093,12.190077752685546,-3.010708587646484,-60.221374045801525,-22.16030534351145,-126.78625954198473
6278303331665,4.659473071,3,-0.9038111267089843,13.346477154541015,-3.841496563720703,-68.83969465648855,-60.396946564885496,-125.63358778625954
6278313319009,4.669460415,3,-1.2820949890136717,13.804966772460936,-4.838681555175781,-67.83969465648855,-95.76335877862596,-64.79389312977099
6278323306197,4.679447603,3,-1.8219874633789062,13.41950030517578,-5.881356378173828,-69.40458015267176,-124.26717557251908,4.305343511450381
6278333317863,4.689459269,3,-1.9955670837402342,12.504915270996094,-6.710947253417968,-65.09160305343511,-132.4351145038168,70.34351145038168
6278343345780,4.699487186,3,-2.262520568847656,11.087547888183593,-7.067683300781249,-51.900763358778626,-123.02290076335878,123.6030534351145
6278353305884,4.70944729,3,-2.346317626953125,9.482235675048827,-6.931213806152344,-28.442748091603054,-107.77862595419847,169.80152671755727
6278363265103,4.719406509,3,-1.8842367065429686,7.712920648193359,-6.639121203613281,-12.381679389312977,-91.90839694656489,198.67175572519085
6278373359530,4.729500936,3,-1.7657237243652342,5.992686755371094,-6.330269189453125,-13.374045801526718,-82.65648854961832,220.8320610687023
6278383304374,4.73944578,3,-1.3072341064453123,4.515464331054687,-6.092046124267577,-14.801526717557252,-73.77099236641222,234.27480916030535
6278393356197,4.749497603,3,-1.064222637939453,3.1830911071777344,-5.871779571533203,-13.366412213740459,-65.1145038167939,229.96946564885496
6278403383853,4.759525259,3,-0.7218518005371093,2.042254016113281,-5.856217260742187,-13.267175572519085,-59.57251908396947,223.3587786259542
6278413368176,4.769509582,3,-0.33039982910156246,0.8954314208984374,-5.723339068603515,-15.320610687022901,-47.3206106870229,214.3053435114504
6278423319842,4.779461248,3,0.023942016601562498,-0.04189852905273437,-5.736507177734374,-13.648854961832061,-35.62595419847328,194.80152671755727
6278433321145,4.789462551,3,0.09576806640624999,-0.8056488586425781,-5.632359405517578,-3.816793893129771,-21.732824427480917,170.5114503816794
6278443314686,4.799456092,3,0.5339069702148437,-1.6112977172851561,-5.659892724609374,11.961832061068701,-6.847328244274809,143.9083969465649
6278453314842,4.809456248,3,0.6248866333007812,-2.2565350646972653,-5.449202978515625,22.900763358778626,8.419847328244275,109.48091603053435
6278463276770,4.819418176,3,0.8092401611328125,-2.7832594299316407,-5.106832141113281,30.946564885496183,24.46564885496183,75.33587786259542
6278473321457,4.829462863,3,0.4955997436523437,-2.6946739685058594,-4.7022120605468745,43.267175572519086,29.18320610687023,21.96946564885496
6278483317967,4.839459373,3,0.46806642456054687,-1.927332336425781,-4.295197778320312,53.58015267175573,37.954198473282446,-46.64885496183206
6278493314634,4.84945604,3,0.10654197387695312,-0.4752490295410156,-4.874594580078124,18.045801526717558,15.183206106870228,-121.03053435114504
6278503302759,4.859444165,3,-0.04548983154296875,1.389834063720703,-5.246892938232421,-22.061068702290076,15.038167938931299,-191.5114503816794
6278513298020,4.869439426,3,0.20350714111328125,3.375824340820312,-6.1255649475097655,-24.229007633587788,7.33587786259542,-250.13740458015266
6278523299895,4.879441301,3,-1.2114660400390624,5.633556506347656,-6.507440112304687,-12.045801526717558,0.07633587786259542,-250.13740458015266
6278533364582,4.889505988,3,-2.612074011230469,8.079233502197265,-6.147112762451171,15.595419847328245,32.01526717557252,-250.13740458015266
6278543319999,4.899461405,3,-4.4184991638183595,10.62307276611328,-6.172251879882812,26.625954198473284,10.061068702290076,-250.13740458015266
6278553362915,4.909504321,3,-5.6946086486816405,13.232752575683593,-6.453570574951171,17.129770992366414,-2.687022900763359,-250.13740458015266
6278563327030,4.919468436,3,-6.913257293701172,15.920243939208984,-6.592434271240234,-15.50381679389313,-27.84732824427481,-250.13740458015266
6278573306561,4.929447967,3,-8.409633331298828,18.55386576538086,-6.918045697021484,-53.717557251908396,-60.52671755725191,-250.13740458015266
6278583309790,4.939451196,3,-7.029376074218749,19.61270144958496,-7.813477117919922,-73.53435114503817,-82.10687022900764,-249.26717557251908
6278593318957,4.949460363,3,-7.673416320800781,19.61270144958496,-8.912415679931641,-99.67175572519083,-123.3206106870229,-192.12213740458014
6278603296770,4.959438176,3,-6.574477758789062,19.61270144958496,-10.034099157714843,-95.31297709923665,-128.21374045801528,-60.14503816793893
6278613315363,4.969456769,3,-5.748478186035156,19.033903198242186,-10.570400329589843,-65.70229007633588,-101.74045801526718,85.16030534351145
6278623315676,4.979457082,3,-5.735310076904296,15.263035583496093,-9.809044201660155,-3.7557251908396947,-58.16793893129771,220.81679389312978
6278633405311,4.989546717,3,-5.159504577636718,11.34492456665039,-8.431181146240235,72.16030534351145,-8.83206106870229,250.12977099236642
6278643318436,4.999459842,3,-4.508281726074219,7.997830645751953,-7.058106494140625,98.27480916030534,33.3587786259542,250.12977099236642
6278653356665,5.009498071,3,-3.5877111877441403,5.383362432861328,-5.787982513427734,96.77099236641222,68.00763358778626,250.12977099236642
6278663315519,5.019456925,3,-2.7473464050292966,3.326743206787109,-4.717774371337891,96.19083969465649,81.12977099236642,250.12977099236642
6278673356040,5.029497446,3,-1.7190367919921874,1.6232687255859375,-4.078522528076172,99.3206106870229,82.03053435114504,250.12977099236642
6278683320884,5.03946229,3,-1.1336544860839843,0.2346317626953125,-3.5206735412597654,88.19083969465649,69.0,250.01526717557252
6278693378436,5.049519842,3,-0.48123453369140623,-0.5925649108886718,-3.0980969482421874,68.77862595419847,56.954198473282446,232.41221374045801
6278703303905,5.059445311,3,0.033518823242187495,-0.9959878906249999,-3.0921114440917967,36.343511450381676,31.938931297709924,177.12977099236642
6278713300155,5.069441561,3,0.45010991210937495,-1.0893617553710937,-3.2812533752441406,-4.450381679389313,5.862595419847328,122.41221374045801
6278723324165,5.079465571,3,0.7721300354003906,-0.7960720520019531,-3.915716815185547,-38.32824427480916,-15.366412213740459,66.94656488549619
6278733307603,5.089449009,3,0.7888894470214843,0.19871873779296872,-4.782417816162109,-54.038167938931295,-30.18320610687023,9.84732824427481
6278743324061,5.099465467,3,0.7026981872558593,1.5418658691406248,-5.625176800537109,-62.25190839694657,-35.11450381679389,-35.229007633587784
6278753310519,5.109451925,3,0.8295908752441405,2.9855694702148434,-5.777208605957031,-58.847328244274806,-4.580152671755725,-70.43511450381679
6278763317238,5.119458644,3,1.0678139404296874,4.13718046875,-5.5641246582031245,-34.0,25.778625954198475,-84.1145038167939
6278773360155,5.129501561,3,1.1947066284179686,4.933252520751953,-5.0960582336425775,5.694656488549619,47.083969465648856,-79.12977099236642
6278783335936,5.139477342,3,1.2198457458496093,5.086481427001953,-4.604049792480469,35.961832061068705,60.42748091603053,-64.2442748091603
6278793307342,5.149448748,3,1.4161702819824218,4.649539624023437,-4.100070343017578,46.58015267175573,65.76335877862596,-43.847328244274806
6278803325988,5.159467394,3,1.0917559570312498,3.7924154296875,-3.2405519470214843,57.41984732824427,70.51908396946565,-29.282442748091604
6278813321874,5.16946328,3,1.408987677001953,3.0992940490722654,-3.1364041748046874,77.16030534351145,57.56488549618321,-28.580152671755727
6278823302915,5.179444321,3,0.5039794494628906,2.8730419921875,-2.574963885498047,67.32824427480917,35.37404580152672,-40.30534351145038
6278833319009,5.189460415,3,0.729034405517578,2.7138275817871094,-2.6815058593749996,37.51908396946565,16.65648854961832,-57.00763358778626
6278843330519,5.199471925,3,0.04548983154296875,3.143586779785156,-3.0909143432617188,16.30534351145038,-21.374045801526716,-75.38931297709924
6278853312394,5.2094538,3,-0.06105214233398437,3.81156904296875,-3.7984009338378906,-0.7862595419847328,-56.66412213740458,-89.76335877862596
6278863308384,5.21944979,3,-1.3946224670410154,4.903325,-4.369418029785156,-37.80152671755725,-96.08396946564885,-100.89312977099236
6278873414113,5.229555519,3,-2.7174188842773437,6.458358978271484,-5.328295794677734,-75.9618320610687,-137.23664122137404,-129.05343511450383
6278883332030,5.239473436,3,-4.431667272949219,8.149862451171874,-6.534973431396484,-107.0381679389313,-177.25190839694656,-160.00763358778627
6278893357394,5.2494988,3,-5.8262897399902345,9.995791931152343,-7.728482958984374,-125.92366412213741,-196.3740458015267,-190.0916030534351
6278903307707,5.259449113,3,-6.811503723144531,12.021286535644531,-9.290699542236327,-138.94656488549617,-225.12977099236642,-215.50381679389312
6278913390363,5.269531769,3,-7.480683087158202,14.006079711914062,-10.912771166992187,-148.1145038167939,-230.12213740458014,-214.3206106870229
6278923298540,5.279439946,3,-7.551312036132812,15.561113690185547,-12.378022583007812,-160.36641221374046,-221.0,-185.00763358778627
6278933305363,5.289446769,3,-7.182604980468749,16.551116076660154,-13.190854046630859,-151.61068702290078,-160.38167938931298,-131.66412213740458
6278943390936,5.299532342,3,-6.312312677001953,16.65646094970703,-13.943830468749999,-107.14503816793894,-98.58778625954199,-59.29770992366412
6278953381353,5.309522759,3,-5.279214660644531,15.664064361572265,-13.204022155761718,-32.10687022900763,0.6946564885496184,22.229007633587788
6278963321821,5.319463227,3,-5.181052392578125,12.77546005859375,-11.267113012695312,43.31297709923664,88.98473282442748,119.93893129770993
6278973312082,5.329453488,3,-4.452017987060547,9.618705169677733,-8.772354882812499,123.79389312977099,178.93129770992365,172.13740458015266
6278983322030,5.339463436,3,-3.5877111877441403,7.242460021972656,-6.423643054199219,174.08396946564886,237.35114503816794,185.2824427480916
6278993355207,5.349496613,3,-2.9951462768554684,5.410895751953125,-4.4005426513671875,176.93129770992365,250.12977099236642,176.50381679389312
6279003254061,5.359395467,3,-1.838746875,4.220977526855468,-2.905363714599609,150.78625954198472,250.12977099236642,151.09923664122138
6279013287603,5.369429009,3,-0.7649474304199219,3.4093431640625,-1.6627730529785156,115.4885496183206,250.12977099236642,117.00763358778626
6279023321613,5.379463019,3,0.16759411621093748,3.0633810241699218,-0.5925649108886718,99.22900763358778,240.03053435114504,76.7175572519084
6279033356665,5.389498071,3,0.9792284790039062,2.798821740722656,-0.2980781066894531,90.62595419847328,181.35114503816794,49.099236641221374
6279043314894,5.3994563,3,1.1839327209472656,2.913743420410156,-0.06344634399414062,64.3969465648855,127.92366412213741,25.64885496183206
6279053305155,5.409446561,3,1.5298948608398437,3.132812872314453,-0.04668693237304687,18.603053435114504,84.20610687022901,5.435114503816794
6279063314582,5.419455988,3,1.438915197753906,3.5146880371093747,-0.42377369384765623,-19.46564885496183,29.923664122137403,-7.732824427480916
6279073317655,5.429459061,3,1.5777788940429687,4.013879083251953,-1.2928688964843749,-36.3206106870229,-15.183206106870228,-15.977099236641221
6279083320936,5.439462342,3,1.4317325927734375,4.3993455505371095,-2.4516625,-56.97709923664122,-55.908396946564885,-11.526717557251908
6279093316040,5.449457446,3,1.0462661254882812,4.378994836425781,-3.3674446350097655,-73.2442748091603,-70.61068702290076,1.2290076335877862
6279103328071,5.459469477,3,0.9229647399902343,4.077325427246094,-4.1934442077636715,-68.30534351145039,-76.90076335877863,13.32824427480916
6279113376144,5.46951755,3,0.4944026428222656,3.6355952209472653,-4.863820672607422,-51.89312977099237,-76.09923664122137,24.17557251908397
6279123315051,5.479456457,3,0.2825157958984375,3.0131027893066404,-5.305550878906249,-40.656488549618324,-68.76335877862596,28.083969465648856
6279133374113,5.489515519,3,-0.2442085693359375,2.7269956909179687,-5.533000036621093,-34.93129770992366,-54.458015267175576,19.16030534351145
6279143316509,5.499457915,3,-0.09217676391601562,2.4157494750976563,-5.53539423828125,-24.72519083969466,-40.61068702290076,1.5725190839694656
6279153316665,5.509458071,3,-0.2932897033691406,2.3403321228027343,-5.5820811706542965,-6.068702290076335,-30.81679389312977,-18.419847328244273
6279163324738,5.519466144,3,-0.08259995727539061,2.39420166015625,-5.701791253662109,-3.450381679389313,-24.564885496183205,-38.52671755725191
6279173356665,5.529498071,3,-0.21906945190429686,2.730586993408203,-5.717353564453124,-18.0381679389313,-34.50381679389313,-66.01526717557252
6279183311144,5.53945255,3,-1.0271125122070313,3.746925598144531,-5.052962603759766,-4.198473282442748,-14.580152671755725,-106.25190839694656
6279193372915,5.549514321,3,-2.6587609436035153,5.7508723876953125,-5.378574029541015,-1.5648854961832062,-63.0763358778626,-160.38167938931298
6279203328644,5.55947005,3,-4.1754876953124995,8.111555224609374,-6.05852730102539,-38.541984732824424,-94.67175572519083,-215.0763358778626
6279213372551,5.569513957,3,-5.839457849121094,10.700884320068358,-6.543353137207031,-80.6412213740458,-111.26717557251908,-250.13740458015266
6279223323071,5.579464477,3,-6.9348051086425775,13.284227911376952,-7.371746911621093,-85.77099236641222,-129.94656488549617,-250.13740458015266
6279233377446,5.589518852,3,-8.173804467773436,15.929820745849609,-8.282740643310547,-79.36641221374046,-150.2824427480916,-250.13740458015266
6279243327030,5.599468436,3,-7.811082916259765,18.134880474853514,-9.783905084228515,-94.77099236641222,-153.53435114503816,-250.13740458015266
6279253358436,5.609499842,3,-7.687781530761718,19.346346514892577,-10.499771380615234,-113.2442748091603,-127.44274809160305,-191.4198473282443
6279263266978,5.619408384,3,-6.625953094482422,19.50556092529297,-11.127052215576171,-95.45038167938931,-93.48091603053435,-91.45801526717557
6279273382134,5.62952354,3,-6.363788012695312,18.27733547363281,-10.965443603515624,-35.05343511450382,-37.99236641221374,24.66412213740458
6279283334686,5.639476092,3,-5.799953521728515,15.39232247314453,-10.114304913330077,37.6793893129771,15.114503816793894,134.26717557251908
6279293383332,5.649524738,3,-5.482721801757812,12.020089434814452,-8.17859287109375,104.07633587786259,84.70992366412214,217.206106870229
6279303315050,5.659456456,3,-5.110423443603516,8.9255837890625,-6.8964978820800775,126.46564885496183,104.0,250.12977099236642
6279313371196,5.669512602,3,-3.6655227416992187,6.423643054199219,-5.398924743652343,114.82442748091603,151.206106870229,250.12977099236642
6279323335259,5.679476665,3,-2.816778253173828,4.653130926513672,-4.459200592041015,104.3587786259542,149.2824427480916,250.12977099236642
6279333371196,5.689512602,3,-1.5921441040039062,3.31357509765625,-3.736151690673828,105.83969465648855,148.72519083969465,244.89312977099237
6279343348332,5.699489738,3,-1.1001356628417969,2.0266917053222655,-3.1962592163085937,90.09923664122137,131.42748091603053,230.64885496183206
6279353398800,5.709540206,3,-0.3447650390625,1.0917559570312498,-2.7353753967285153,70.44274809160305,120.70992366412214,201.93129770992365
6279363322030,5.719463436,3,0.28969840087890625,0.36750995483398435,-2.3582886352539063,55.93893129770992,109.53435114503817,169.6259541984733
6279373372655,5.729514061,3,0.8355763793945312,-0.2262520568847656,-2.2481553588867187,50.06870229007634,87.80152671755725,139.78625954198472
6279383332967,5.739474373,3,1.0091559997558592,-0.6165069274902344,-2.001552587890625,43.51908396946565,74.1145038167939,112.01526717557252
6279393372759,5.749514165,3,1.4209586853027343,-0.9026140258789062,-1.9476830505371092,32.64885496183206,60.61068702290076,84.80916030534351
6279403316821,5.759458227,3,1.6352397338867186,-1.1001356628417969,-1.7645266235351562,21.198473282442748,47.01526717557252,62.81679389312977
6279413374165,5.769515571,3,1.5203180541992187,-1.2785036865234374,-1.6579846496582031,15.198473282442748,31.66412213740458,40.89312977099237
6279423344634,5.77948604,3,1.6232687255859375,-1.3347674255371094,-1.8100164550781248,11.80916030534351,9.511450381679388,16.671755725190838
6279433380884,5.78952229,3,1.4233528869628906,-1.2773065856933592,-2.242169854736328,1.6412213740458015,-12.106870229007633,-4.984732824427481
6279443319269,5.799460675,3,1.2485761657714842,-0.7948749511718749,-2.942473840332031,-22.61832061068702,-39.82442748091603,-35.396946564885496
6279453422082,5.809563488,3,0.20829554443359374,0.18076222534179687,-3.4536358947753905,-57.10687022900763,-63.31297709923664,-72.93129770992367
6279463334165,5.819475571,3,0.23822306518554687,1.6819266662597656,-4.447229583740234,-79.7175572519084,-83.5114503816794,-124.85496183206106
6279473367238,5.829508644,3,-0.7505822204589844,3.5326445495605467,-4.783614916992187,-69.56488549618321,-76.86259541984732,-176.84732824427482
6279483272394,5.8394138,3,-1.9823989746093749,5.759252093505859,-5.427655163574219,-52.32824427480916,-94.80152671755725,-226.36641221374046
6279493319634,5.84946104,3,-3.125630267333984,8.080430603027343,-5.814318731689453,-50.66412213740458,-98.0381679389313,-250.13740458015266
6279503340780,5.859482186,3,-4.632780212402343,10.589553942871094,-6.209362005615234,-53.33587786259542,-107.23664122137404,-250.13740458015266
6279513258852,5.869400258,3,-5.633556506347656,13.148955517578123,-6.640318304443359,-49.603053435114504,-114.2442748091603,-250.13740458015266
6279523332498,5.879473904,3,-7.900865478515625,15.614983227539062,-7.168239770507812,-65.17557251908397,-148.45038167938932,-250.13740458015266
6279533315936,5.889457342,3,-7.97388862915039,18.040309509277343,-8.43357534790039,-84.43511450381679,-166.206106870229,-250.13740458015266
6279543448592,5.899589998,3,-8.664615808105468,19.437326177978516,-9.39843861694336,-106.80152671755725,-174.09923664122138,-223.1679389312977
6279553321300,5.909462706,3,-8.578424548339843,19.61270144958496,-10.96903490600586,-111.86259541984732,-189.29007633587787,-125.0
6279563339165,5.919480571,3,-7.179013677978515,19.610905798339843,-12.138602416992187,-83.27480916030534,-147.66412213740458,-20.587786259541986
6279573369582,5.929510988,3,-6.823474731445312,17.567454681396484,-12.018892333984374,-45.038167938931295,-101.43511450381679,110.86259541984732
6279583331352,5.939472758,3,-6.040570788574218,13.909114544677733,-10.855310327148437,19.595419847328245,-29.12213740458015,226.03053435114504
6279593319998,5.949461404,3,-5.680243438720702,10.095151300048828,-9.240421307373046,85.1145038167939,28.81679389312977,250.12977099236642
6279603335623,5.959477029,3,-5.294776971435547,7.086836914062499,-7.706935144042968,122.12213740458016,75.64885496183206,250.12977099236642
6279613363748,5.969505154,3,-3.669114044189453,4.535815045166015,-6.301538769531249,123.58015267175573,127.7175572519084,250.12977099236642
6279623331457,5.979472863,3,-2.913743420410156,2.479195819091797,-5.455188482666015,110.93893129770993,137.61832061068702,250.12977099236642
6279633388488,5.989529894,3,-2.088940948486328,0.7649474304199219,-4.234145635986328,109.03053435114504,157.29770992366412,250.12977099236642
6279643331457,5.999472863,3,-1.1875240234375,-0.6955155822753906,-3.3674446350097655,116.77099236641222,163.5267175572519,250.12977099236642
6279653386144,6.00952755,3,-0.507570751953125,-1.6531962463378904,-2.767697119140625,119.46564885496183,151.5114503816794,215.54198473282443
6279663320415,6.019461821,3,0.4082113830566406,-2.4480711975097655,-2.2864625854492187,104.29770992366412,145.21374045801528,165.93129770992365
6279673325780,6.029467186,3,1.2473790649414063,-2.912546319580078,-2.1021090576171875,74.86259541984732,121.01526717557252,118.54961832061069
6279683332082,6.039473488,3,1.3180080139160155,-3.029862200927734,-1.5957354064941405,48.35114503816794,114.6030534351145,73.46564885496183
6279693368905,6.049510311,3,2.2170307373046874,-3.0418332092285154,-1.5035586425781249,36.88549618320611,108.51908396946565,25.81679389312977
6279703319009,6.059460415,3,2.3487118286132813,-2.967612957763672,-1.0378864196777342,42.23664122137404,106.40458015267176,-15.977099236641221
6279713405050,6.069546456,3,2.4193407775878906,-2.6958710693359373,-0.853532891845703,62.57251908396947,93.09923664122137,-59.541984732824424
6279723341352,6.079482758,3,1.2988544006347655,-1.867477294921875,-0.3459621398925781,84.9618320610687,78.92366412213741,-117.87786259541984
6279733314477,6.089455883,3,0.4584896179199218,-0.3028665100097656,0.08858546142578125,102.18320610687023,56.98473282442748,-186.68702290076337
6279743420727,6.099562133,3,-0.0526724365234375,1.7968483459472655,-0.6751648681640625,111.80916030534351,-7.206106870229007,-249.44274809160305
6279753374113,6.109515519,3,-2.1894974182128903,4.752490295410156,-1.70467158203125,58.93893129770992,-96.53435114503817,-250.13740458015266
6279763328904,6.11947031,3,-2.6946739685058594,7.42441934814453,-2.9448680419921875,-40.2442748091603,-152.13740458015266,-250.13740458015266
6279773360988,6.129502394,3,-4.841075756835937,10.271125122070313,-4.189852905273438,-139.06106870229007,-236.90076335877862,-250.13740458015266
6279783327186,6.139468592,3,-6.801926916503906,12.898761444091797,-6.264428643798828,-193.44274809160305,-250.13740458015266,-250.13740458015266
6279793362342,6.149503748,3,-9.190143072509764,15.331270330810545,-8.894459167480468,-218.36641221374046,-250.13740458015266,-250.13740458015266
6279803311300,6.159452706,3,-10.43871923828125,17.769764721679685,-11.258733306884764,-229.12977099236642,-250.13740458015266,-250.13740458015266
6279813317446,6.169458852,3,-11.748347546386718,19.61270144958496,-13.141772912597656,-238.06870229007635,-250.13740458015266,-212.9770992366412
6279823399529,6.179540935,3,-9.898826763916015,19.61270144958496,-14.917073443603515,-206.83969465648855,-250.13740458015266,-141.12977099236642
6279833368019,6.189509425,3,-9.384073406982422,19.61270144958496,-15.265429785156249,-124.50381679389314,-198.0229007633588,-28.3206106870229
6279843390779,6.199532185,3,-8.813056311035156,18.902222106933593,-14.731522814941405,-19.244274809160306,-93.78625954198473,93.21374045801527
6279853395207,6.209536613,3,-7.898471276855468,14.829685083007812,-12.81376728515625,62.56488549618321,28.458015267175572,210.25954198473283
6279863325154,6.21946656,3,-7.338228088378906,10.613495959472656,-10.292672937011718,138.4351145038168,124.16793893129771,250.12977099236642
6279873365936,6.229507342,3,-5.7891796142578125,7.410054138183593,-8.386888415527343,192.34351145038167,196.74045801526717,250.12977099236642
6279883337394,6.2394788,3,-4.594472985839843,5.232527728271484,-6.279990954589843,191.15267175572518,250.12977099236642,250.12977099236642
6279893321352,6.249462758,3,-3.0921114440917967,3.5146880371093747,-4.622006304931641,168.25190839694656,250.12977099236642,250.12977099236642
6279903334321,6.259475727,3,-1.868674395751953,1.9500772521972656,-2.77727392578125,162.0381679389313,250.12977099236642,239.38167938931298
6279913374477,6.269515883,3,-0.6392518432617187,0.967257470703125,-1.5310919616699217,174.94656488549617,250.12977099236642,198.06870229007635
6279923337029,6.279478435,3,0.21428104858398436,0.3184288208007812,-0.229843359375,172.14503816793894,250.12977099236642,152.61068702290078
6279933367082,6.289508488,3,0.6739677673339843,0.009576806640625,0.8367734802246093,139.48091603053436,237.10687022900763,105.80916030534351
6279943325727,6.299467133,3,1.6208745239257811,0.14245499877929688,1.092953057861328,94.79389312977099,173.53435114503816,54.541984732824424
6279953367394,6.3095088,3,1.744175909423828,0.4704606262207031,1.4449007019042968,54.6793893129771,120.53435114503817,10.572519083969466
6279963306196,6.319447602,3,1.4532804077148436,1.254561669921875,1.3215993164062498,28.022900763358777,48.97709923664122,-29.480916030534353
6279973359321,6.329500727,3,1.351526837158203,2.844311572265625,-0.06943184814453125,-2.3893129770992365,-36.229007633587784,-67.6793893129771
6279983328904,6.33947031,3,0.8391676818847655,4.1563340820312495,-2.0075380920410155,-78.61832061068702,-116.81679389312977,-79.02290076335878
6279993287134,6.34942854,3,0.4704606262207031,5.1523219726562495,-3.7924154296875,-151.68702290076337,-155.31297709923663,-73.9618320610687
6280003336925,6.359478331,3,0.0430956298828125,5.827486840820312,-5.224148022460938,-165.40458015267177,-165.61068702290078,-63.786259541984734
6280014076717,6.370218123,3,-0.23223756103515625,6.344634399414062,-6.374561920166015,-119.41221374045801,-162.73282442748092,-32.67175572519084
6280023264425,6.379405831,3,-0.4896142395019531,6.681019732666015,-7.268796240234375,-70.57251908396947,-147.09923664122138,-32.67175572519084
6280033372550,6.389513956,3,-0.7589619262695312,6.701370446777343,-7.864952453613281,-58.81679389312977,-123.77862595419847,-13.664122137404581
6280043357342,6.399498748,3,-0.8403647827148437,6.426037255859375,-8.027758166503906,-60.33587786259542,-92.63358778625954,1.450381679389313
6280053283175,6.409424581,3,-0.7948749511718749,5.973533142089844,-8.11514652709961,-42.42748091603053,-59.68702290076336,9.86259541984733
6280063355206,6.419496612,3,-0.8726865051269531,5.442020373535156,-7.961917620849609,-10.236641221374045,-31.236641221374047,13.259541984732824
6280073374946,6.429516352,3,-0.8056488586425781,4.878185882568359,-7.4399816589355465,16.61832061068702,1.015267175572519,8.557251908396946
6280083336352,6.439477758,3,-0.8559270935058593,4.537012145996093,-6.636727001953124,32.900763358778626,28.099236641221374,-4.99236641221374
6280093365623,6.449507029,3,-0.9744400756835937,4.601655590820312,-5.925649108886718,39.274809160305345,40.2442748091603,-25.69465648854962
6280103328384,6.45946979,3,-0.9504980590820312,4.7752352111816405,-5.550956549072265,26.595419847328245,34.58015267175573,-44.81679389312977
6280113364373,6.469505779,3,-0.7553706237792969,5.3953334411621094,-5.306747979736328,16.908396946564885,39.41984732824427,-65.9618320610687
6280123328227,6.479469633,3,-0.8810662109374999,6.011840368652344,-5.549759448242187,11.610687022900763,18.0,-73.26717557251908
6280133382863,6.489524269,3,-0.8379705810546875,6.487089398193359,-5.916072302246094,2.633587786259542,10.564885496183207,-72.3969465648855
6280143341665,6.499483071,3,-0.7817068420410156,6.731297967529296,-6.086060620117187,-5.763358778625954,16.923664122137403,-65.29007633587786
6280153388279,6.509529685,3,-0.3842693664550781,6.661866119384765,-6.143521459960938,0.48091603053435117,21.68702290076336,-51.54961832061068
6280163339633,6.519481039,3,-0.8762778076171874,6.448782171630859,-5.762843395996094,13.648854961832061,27.0,-38.770992366412216
6280173375415,6.529516821,3,-1.2210428466796874,5.671863732910156,-5.363011718749999,21.091603053435115,29.16793893129771,-30.282442748091604
6280183280623,6.539422029,3,-0.55545478515625,5.33068999633789,-4.8135424377441405,45.30534351145038,43.98473282442748,-43.786259541984734
6280193361821,6.549503227,3,-1.5801730957031248,5.391742138671875,-4.244919543457031,63.0763358778626,25.35114503816794,-59.97709923664122
6280203284269,6.559425675,3,-1.7214309936523438,5.766434698486328,-4.319139794921875,56.083969465648856,-9.450381679389313,-82.42748091603053
6280213321248,6.569462654,3,-2.261323468017578,6.890512377929687,-4.3239281982421875,23.908396946564885,-38.29770992366412,-107.45038167938931
6280223336456,6.579477862,3,-3.134009973144531,8.122329132080077,-5.232527728271484,-20.251908396946565,-96.76335877862596,-116.00763358778626
6280233319998,6.589461404,3,-4.1563340820312495,9.230844500732422,-6.544550238037109,-65.02290076335878,-147.55725190839695,-113.99236641221374
6280243320311,6.599461717,3,-4.876988781738281,10.047267266845703,-7.805097412109374,-103.33587786259542,-179.0763358778626,-105.8854961832061
6280253240727,6.609382133,3,-5.598840582275391,10.931924780273437,-8.752004168701172,-117.3969465648855,-183.3969465648855,-94.82442748091603
6280263328800,6.619470206,3,-5.670666632080078,11.608286749267577,-9.938331091308592,-118.6793893129771,-189.21374045801528,-71.86259541984732
6280273286248,6.629427654,3,-5.153519073486327,11.98417640991211,-10.632649572753905,-110.42748091603053,-154.36641221374046,-43.45038167938932
6280283350831,6.639492237,3,-5.412092852783203,11.804611285400389,-10.937910284423827,-87.94656488549619,-120.53435114503817,2.3969465648854964
6280293386561,6.649527967,3,-5.045779998779296,11.310208642578125,-10.98699141845703,-49.35114503816794,-75.74809160305344,42.98473282442748
6280303386717,6.659528123,3,-4.8686090759277345,10.040084661865233,-10.23401499633789,-17.69465648854962,-21.83969465648855,79.46564885496183
6280313392602,6.669534008,3,-4.519055633544921,8.427589843749999,-9.24520971069336,23.732824427480917,26.259541984732824,102.81679389312977
6280323336144,6.67947755,3,-4.50109912109375,6.967126831054687,-7.751227874755859,65.83206106870229,65.54961832061069,110.20610687022901
6280333370050,6.689511456,3,-3.4811692138671875,6.0525417968749995,-6.785167504882812,85.5114503816794,89.87022900763358,94.66412213740458
6280343403800,6.699545206,3,-3.171120098876953,5.354632012939453,-6.026205578613281,63.900763358778626,90.31297709923665,84.94656488549619
6280353392290,6.709533696,3,-2.4564509033203126,4.923675714111328,-5.443217474365234,39.97709923664122,99.59541984732824,63.900763358778626
6280363339373,6.719480779,3,-1.924938134765625,4.853046765136718,-4.99909306640625,29.374045801526716,97.92366412213741,42.99236641221374
6280373366092,6.729507498,3,-1.4317325927734375,5.072116217041016,-4.602852691650391,33.458015267175576,95.47328244274809,25.458015267175572
6280383348019,6.739489425,3,-1.0211270080566406,5.347449407958984,-4.303577484130859,31.862595419847327,92.12977099236642,15.450381679389313
6280393396144,6.74953755,3,-0.6057330200195312,5.450400079345703,-4.043806604003906,19.564885496183205,88.3587786259542,14.297709923664122
6280403386925,6.759528331,3,-0.11372457885742186,5.40730444946289,-3.69664736328125,14.099236641221374,89.97709923664122,20.427480916030536
6280413383748,6.769525154,3,0.3387795349121094,5.121197351074218,-3.417722869873047,19.47328244274809,87.83206106870229,32.57251908396947
6280423349685,6.779491091,3,0.8942343200683593,4.552574456787109,-3.1184476623535153,27.50381679389313,89.46564885496183,48.37404580152672
6280433373800,6.789515206,3,1.0031704956054688,3.754108203125,-2.779668127441406,32.030534351145036,85.81679389312977,65.16793893129771
6280443344477,6.799485883,3,1.1001356628417969,2.999934680175781,-2.3391350219726563,35.52671755725191,82.74809160305344,73.56488549618321
6280453385831,6.809527237,3,1.3263877197265623,2.1416133850097654,-2.1128829650878904,35.969465648854964,75.18320610687023,78.53435114503817
6280463332758,6.819474164,3,1.3383587280273437,1.2330138549804688,-2.0877438476562498,36.38931297709924,61.12977099236641,74.91603053435115
6280473368071,6.829509477,3,0.5578489868164063,0.5410895751953124,-1.7741034301757812,41.725190839694655,46.25190839694657,61.465648854961835
6280483332290,6.839473696,3,0.08379705810546874,0.36391865234375,-1.4867992309570313,44.54961832061068,27.564885496183205,32.52671755725191
6280493368904,6.84951031,3,0.32441432495117184,0.23104046020507812,-2.0745757385253905,26.435114503816795,-14.83969465648855,-2.7480916030534353
6280503258071,6.859399477,3,-0.40581718139648437,0.6835445739746093,-2.070984436035156,9.045801526717558,-32.86259541984733,-40.37404580152672
6280513371925,6.869513331,3,-1.024718310546875,1.5777788940429687,-3.134009973144531,-23.17557251908397,-97.04580152671755,-79.12213740458016
6280523321040,6.879462446,3,-1.8997990173339843,3.362656231689453,-4.459200592041015,-71.55725190839695,-146.74045801526717,-130.18320610687022
6280533317446,6.889458852,3,-4.151545678710937,5.7520694885253905,-5.270834954833984,-111.21374045801527,-173.65648854961833,-181.10687022900763
6280543339581,6.899480987,3,-5.681440539550781,8.238447912597655,-6.605602380371093,-128.86259541984734,-212.05343511450383,-223.6030534351145
6280553370935,6.909512341,3,-7.235277416992187,10.714052429199219,-8.106766821289062,-139.1679389312977,-235.99236641221373,-250.13740458015266
6280563315779,6.919457185,3,-8.544905725097657,13.32373223876953,-9.515754498291015,-146.61832061068702,-246.89312977099237,-250.13740458015266
6280573386717,6.929528123,3,-9.521740002441407,15.619771630859374,-10.97502041015625,-148.5114503816794,-245.44274809160305,-250.13740458015266
6280583323644,6.93946505,3,-9.90840357055664,17.362750439453123,-12.095506787109374,-147.63358778625954,-216.57251908396947,-224.54961832061068
6280593371821,6.949513227,3,-8.30668265991211,18.532317950439452,-13.318943835449218,-129.73282442748092,-157.29007633587787,-166.63358778625954
6280603329217,6.959470623,3,-7.893682873535155,18.51436143798828,-13.207613458251952,-83.1526717557252,-73.12213740458016,-67.95419847328245
6280613380362,6.969521768,3,-6.9707181335449215,16.997634686279294,-12.585121026611327,-6.6106870229007635,5.267175572519084,40.50381679389313
6280623325362,6.979466768,3,-6.574477758789062,13.794192864990233,-10.399214910888672,74.6030534351145,101.36641221374046,146.5648854961832
6280633367498,6.989508904,3,-5.88614478149414,10.261548315429687,-8.145074047851562,147.06870229007635,166.36641221374046,216.26717557251908
6280643359008,6.999500414,3,-4.8889597900390624,7.625532287597656,-6.252457635498047,178.1908396946565,210.96946564885496,240.58778625954199
6280653387081,7.009528487,3,-3.697844464111328,5.567715960693359,-4.824316345214844,156.53435114503816,230.8320610687023,239.65648854961833
6280663332185,7.019473591,3,-2.7198130859375,4.043806604003906,-3.496731524658203,125.2442748091603,239.05343511450383,230.93129770992365
6280673375467,7.029516873,3,-1.7453730102539062,2.602497204589844,-2.472013214111328,107.90839694656489,224.5801526717557,213.65648854961833
6280683330727,7.039472133,3,-0.8702923034667969,1.514332550048828,-1.7705121276855467,106.80152671755725,206.73282442748092,190.44274809160305
6280693372029,7.049513435,3,-0.09457096557617187,0.7589619262695312,-1.199495031738281,105.12977099236642,181.45801526717557,161.57251908396947
6280703334112,7.059475518,3,0.5590460876464843,0.181959326171875,-0.8044517578125,83.37404580152672,155.3587786259542,130.65648854961833
6280713374269,7.069515675,3,1.1264718811035155,-0.30406361083984373,-0.6404489440917969,48.44274809160305,123.13740458015268,101.3587786259542
6280723330519,7.079471925,3,1.6675614562988281,-0.603338818359375,-0.35314474487304687,24.908396946564885,97.42748091603053,71.19083969465649
6280733296092,7.089437498,3,1.5729904907226562,-0.6464344482421874,-0.18076222534179687,19.85496183206107,70.27480916030534,43.05343511450382
6280743339217,7.099480623,3,1.7477672119140624,-0.5470750793457031,-0.4896142395019531,16.793893129770993,32.49618320610687,13.86259541984733
6280753257029,7.109398435,3,1.6112977172851561,-0.3758896606445312,-0.9169792358398436,2.435114503816794,2.0610687022900764,-12.15267175572519
6280763273435,7.119414841,3,1.236605157470703,0.009576806640625,-1.5921441040039062,-18.671755725190838,-30.206106870229007,-39.48091603053435
6280773371040,7.129512446,3,1.1372457885742187,0.9038111267089843,-2.741360900878906,-38.17557251908397,-68.83206106870229,-71.43511450381679
6280783339060,7.139480466,3,0.5638344909667968,1.8734627990722654,-3.2920272827148436,-48.74045801526717,-65.41221374045801,-95.17557251908397
6280793300571,7.149441977,3,-0.47285482788085936,3.0226795959472654,-3.9624037475585934,-47.55725190839695,-94.53435114503817,-122.53435114503817
6280803336040,7.159477446,3,-1.3275848205566405,4.387374542236328,-4.320336895751953,-22.85496183206107,-94.1145038167939,-150.13740458015266
6280813323071,7.169464477,3,-2.389413256835937,5.735310076904296,-4.826710546875,-17.96946564885496,-119.68702290076335,-172.9618320610687
6280823329894,7.1794713,3,-4.045003704833984,7.394491827392578,-5.102043737792968,-33.11450381679389,-137.23664122137404,-200.57251908396947
6280833374842,7.189516248,3,-5.136759661865234,9.278728533935546,-5.766434698486328,-47.229007633587784,-166.00763358778627,-228.96946564885496
6280843326196,7.199467602,3,-7.28435855102539,11.298237634277344,-6.76721099243164,-73.58778625954199,-219.82442748091603,-237.95419847328245
6280853376352,7.209517758,3,-8.975862023925782,13.267468499755859,-8.264784130859374,-113.9618320610687,-250.13740458015266,-240.61832061068702
6280863346508,7.219487914,3,-10.593145245361328,15.351621044921874,-9.791087689208984,-155.3587786259542,-250.13740458015266,-227.06870229007635
6280873360987,7.229502393,3,-10.242394702148436,17.243040356445313,-11.81059678955078,-173.6946564885496,-250.13740458015266,-199.51908396946564
6280883371560,7.239512966,3,-10.024522351074218,18.478448413085935,-13.07593236694336,-160.53435114503816,-247.82442748091603,-141.41221374045801
6280893373383,7.249514789,3,-8.905233074951171,18.890251098632813,-14.057555047607421,-120.77862595419847,-190.1145038167939,-55.36641221374046
6280903349269,7.259490675,3,-7.666233715820312,17.901445812988282,-14.123395593261717,-64.01526717557252,-99.06870229007633,52.458015267175576
6280913384581,7.269525987,3,-7.256825231933593,14.8248966796875,-12.345700860595702,10.122137404580153,4.282442748091603,172.3740458015267
6280923330935,7.279472341,3,-6.924031201171875,10.979808813476561,-10.351330877685546,98.64885496183206,85.77862595419847,250.12977099236642
6280933377081,7.289518487,3,-6.004657763671875,7.997830645751953,-8.34498988647461,160.12977099236642,158.6259541984733,250.12977099236642
6280943330779,7.299472185,3,-4.714183068847656,5.242104534912109,-6.471527087402343,168.0,218.19847328244273,250.12977099236642
6280953378592,7.309519998,3,-3.821145849609375,3.308786694335937,-4.75009609375,162.42748091603053,250.12977099236642,250.12977099236642
6280963331404,7.31947281,3,-2.3116017028808593,1.6328455322265625,-3.3482910217285156,167.6793893129771,250.12977099236642,250.12977099236642
6280973431456,7.329572862,3,-1.3204022155761719,0.30885201416015623,-1.878251202392578,177.21374045801528,250.12977099236642,228.12977099236642
6280983331144,7.33947255,3,-0.4740519287109375,-0.5506663818359374,-0.5446808776855468,185.45801526717557,250.12977099236642,180.2824427480916
6280993369112,7.349510518,3,-0.08020575561523437,-1.0175357055664063,0.5147533569335937,172.3206106870229,231.19847328244273,129.7175572519084
6281003319373,7.359460779,3,0.9157821350097656,-0.9109937316894531,0.8690952026367187,136.6030534351145,170.41221374045801,68.9618320610687
6281013369737,7.369511143,3,1.1432312927246093,-0.612915625,1.0175357055664063,76.86259541984732,105.06870229007633,25.83969465648855
6281023372029,7.379513435,3,0.8595183959960937,0.13407529296874998,0.6344634399414062,11.404580152671755,30.84732824427481,-14.82442748091603
6281033370779,7.389512185,3,1.0570400329589844,1.5310919616699217,-0.8319850769042968,-42.038167938931295,-40.57251908396947,-53.80152671755725
6281043281404,7.39942281,3,0.4584896179199218,2.8790274963378906,-2.607285607910156,-104.37404580152672,-110.7175572519084,-70.6412213740458
6281053278383,7.409419789,3,0.3184288208007812,3.910928411865234,-4.224568829345703,-152.70992366412213,-128.3053435114504,-75.23664122137404
6281063346039,7.419487445,3,0.12330138549804687,4.717774371337891,-5.462371087646484,-158.29770992366412,-129.2290076335878,-71.46564885496183
6281073381769,7.429523175,3,-0.1005564697265625,5.154716174316406,-6.554127044677734,-115.67175572519083,-122.20610687022901,-59.93893129770992
6281083339789,7.439481195,3,-0.23702596435546874,5.409698651123047,-7.271190441894531,-63.404580152671755,-95.3969465648855,-48.19847328244275
6281093381612,7.449523018,3,-0.3794809631347656,5.266046551513671,-7.466317877197265,-34.778625954198475,-62.404580152671755,-32.25954198473283
6281103339998,7.459481404,3,-0.7900865478515624,4.873397479248046,-7.0844427124023435,-19.389312977099237,-25.595419847328245,-19.3206106870229
6281113342341,7.469483747,3,-0.8511386901855468,4.406528155517578,-6.617573388671874,2.2061068702290076,0.5419847328244275,-15.603053435114504
6281123345050,7.479486456,3,-1.2198457458496093,4.043806604003906,-5.9376201171875,25.763358778625953,20.72519083969466,-17.954198473282442
6281133366612,7.489508018,3,-0.5219359619140624,3.5146880371093747,-5.755660791015624,28.46564885496183,19.435114503816795,-25.19083969465649
6281143338591,7.499479997,3,-0.6440402465820312,3.3099837951660156,-5.394136340332031,26.84732824427481,26.64885496183206,-37.38167938931298
6281153380831,7.509522237,3,-0.9708487731933593,3.5625720703124997,-5.767631799316406,3.435114503816794,-9.335877862595419,-55.98473282442748
6281163314425,7.519455831,3,-1.9584569580078124,4.46877739868164,-5.895721588134765,-29.68702290076336,-13.954198473282442,-89.90076335877863
6281173359633,7.529501039,3,-2.2649147705078123,5.710170959472656,-5.685031842041015,-27.900763358778626,3.0381679389312977,-130.7709923664122
6281183335414,7.53947682,3,-3.5146880371093747,7.343016491699219,-5.767631799316406,-0.05343511450381679,-18.47328244274809,-176.45038167938932
6281193359216,7.549500622,3,-4.153939880371094,9.05367357788086,-6.0884548217773435,12.908396946564885,-30.61832061068702,-214.32824427480915
6281203322237,7.559463643,3,-4.934449621582031,10.74517705078125,-5.984307049560546,-3.595419847328244,-43.83206106870229,-230.53435114503816
6281213365258,7.569506664,3,-6.751648681640624,12.574347119140624,-6.227318518066406,-32.97709923664122,-89.3587786259542,-225.1908396946565
6281223337914,7.57947932,3,-7.7416510681152335,14.65251416015625,-7.7799582946777335,-78.22137404580153,-161.17557251908397,-213.0229007633588
6281233353591,7.589494997,3,-5.6383449096679685,15.648502050781248,-10.17056865234375,-149.08396946564886,-197.6259541984733,-168.80152671755727
6281243306456,7.599447862,3,-6.706158850097656,15.465345623779296,-10.970232006835937,-181.32824427480915,-185.4885496183206,-69.69465648854961
6281253369373,7.609510779,3,-6.2213330139160155,15.388731170654296,-11.658564984130859,-104.62595419847328,-133.45038167938932,-11.458015267175572
6281263346143,7.619487549,3,-6.2009822998046875,14.738705419921875,-11.6070896484375,-19.793893129770993,-68.19083969465649,51.030534351145036
6281273340779,7.629482185,3,-5.5820811706542965,12.619836950683593,-10.919953771972656,11.251908396946565,-3.198473282442748,123.87786259541984
6281283350571,7.639491977,3,-4.920084411621094,9.604339959716796,-9.22485899658203,38.98473282442748,67.55725190839695,182.3206106870229
6281293387862,7.649529268,3,-4.477157104492187,7.471106280517578,-7.632714892578124,98.1526717557252,110.12977099236642,204.1679389312977
6281303330154,7.65947156,3,-3.5625720703124997,5.591657977294922,-6.306327172851562,127.78625954198473,141.32824427480915,202.32824427480915
6281313375675,7.669517081,3,-2.8514941772460936,4.121618157958984,-5.197811804199218,108.07633587786259,151.85496183206106,190.74809160305344
6281323331196,7.679472602,3,-2.062604730224609,3.189076611328125,-4.313154290771484,85.43511450381679,156.74045801526717,165.26717557251908
6281333319321,7.689460727,3,-1.4209586853027343,2.6431986328124997,-3.7325603881835936,69.41984732824427,141.32824427480915,137.0
6281343349425,7.699490831,3,-0.5710170959472656,2.2457611572265623,-3.411737365722656,56.51908396946565,130.84732824427482,105.96946564885496
6281353414060,7.709555466,3,-0.1580173095703125,2.1727380065917967,-2.9185318237304685,45.83969465648855,115.13740458015268,77.8473282442748
6281363333696,7.719475102,3,0.19393033447265623,2.104503259277344,-2.6515783386230467,41.83969465648855,100.08396946564885,55.54961832061068
6281373317602,7.729459008,3,0.5626373901367188,2.242169854736328,-2.479195819091797,36.396946564885496,80.45801526717557,36.12213740458015
6281383323018,7.739464424,3,0.8355763793945312,2.357091534423828,-2.2649147705078123,25.81679389312977,64.0,23.099236641221374
6281393319581,7.749460987,3,1.0702081420898437,2.393004559326172,-2.2661118713378903,18.282442748091604,49.29007633587786,14.877862595419847
6281403328383,7.759469789,3,1.284489190673828,2.31758720703125,-2.3032219970703123,12.740458015267176,27.893129770992367,12.900763358778626
6281413317654,7.76945906,3,1.2389993591308592,2.098517755126953,-2.5234885498046875,3.0610687022900764,9.076335877862595,14.732824427480915
6281423348175,7.779489581,3,1.5059528442382812,1.8076222534179687,-2.923320227050781,-12.816793893129772,-10.51908396946565,15.961832061068701
6281433354685,7.789496091,3,0.6260837341308594,1.552639776611328,-3.172317199707031,-27.83969465648855,-28.35114503816794,15.389312977099237
6281443319841,7.799461247,3,0.6141127258300781,1.3587094421386718,-3.687070556640625,-34.06870229007634,-37.51908396946565,1.015267175572519
6281453402758,7.809544164,3,0.718260498046875,1.5370774658203123,-4.2125978210449215,-36.37404580152672,-45.152671755725194,-21.763358778625953
6281463374425,7.819515831,3,-0.08738836059570312,2.110488763427734,-4.593275885009765,-36.9236641221374,-57.465648854961835,-47.954198473282446
6281473411664,7.82955307,3,-0.4465186096191406,3.1603461914062496,-5.061342309570312,-33.961832061068705,-55.63358778625954,-87.57251908396947
6281483320831,7.839462237,3,-1.9416975463867185,4.6639048339843745,-5.2085857116699215,-25.198473282442748,-61.70992366412214,-124.33587786259542
6281493335050,7.849476456,3,-2.3786393493652342,6.168660577392577,-5.487510205078125,-14.396946564885496,-60.56488549618321,-163.87022900763358
6281503351560,7.859492966,3,-3.5134909362792968,8.227674005126953,-5.212177014160156,-1.7328244274809161,-58.969465648854964,-199.61068702290078
6281513356352,7.869497758,3,-4.908113403320312,10.371681591796875,-5.692214447021484,-3.7404580152671754,-95.53435114503817,-224.4732824427481
6281523325258,7.879466664,3,-6.306327172851562,12.382810986328124,-6.160280871582031,-39.969465648854964,-140.64885496183206,-225.84732824427482
6281533247654,7.88938906,3,-7.756016278076172,14.049175341796873,-7.523778717041015,-92.46564885496183,-196.3587786259542,-203.4351145038168
6281543412602,7.899554008,3,-8.373720306396484,15.34802974243164,-9.482235675048827,-133.0229007633588,-245.9236641221374,-166.15267175572518
6281553382289,7.909523695,3,-8.90643017578125,16.294936499023436,-11.277886920166015,-151.91603053435114,-250.13740458015266,-116.09923664122137
6281563329998,7.919471404,3,-8.461108666992187,16.729484100341796,-12.81975278930664,-149.08396946564886,-244.93129770992365,-50.152671755725194
6281573383800,7.929525206,3,-7.4770917846679685,16.486472631835937,-13.407529296875,-110.21374045801527,-175.41221374045801,26.84732824427481
6281583339841,7.939481247,3,-6.76122548828125,14.889540124511718,-13.366827868652344,-58.25190839694657,-111.73282442748092,126.29007633587786
6281593376560,7.949517966,3,-6.263231542968749,11.68968960571289,-11.872846032714843,-2.519083969465649,-16.625954198473284,221.6259541984733
6281603319268,7.959460674,3,-5.0014872680664055,8.155847955322265,-10.415974322509765,73.58778625954199,65.6793893129771,250.12977099236642
6281613380258,7.969521664,3,-4.7201685729980465,5.651513018798828,-8.437166650390624,131.32824427480915,130.0763358778626,250.12977099236642
6281623326977,7.979468383,3,-3.585316986083984,3.265691064453125,-7.085639813232421,144.6259541984733,182.3969465648855,250.12977099236642
6281633314008,7.989455414,3,-2.398990063476562,1.4532804077148436,-5.531802935791015,147.76335877862596,233.84732824427482,250.12977099236642
6281643347237,7.999488643,3,-1.1611878051757811,0.040701428222656245,-4.02824429321289,160.26717557251908,250.12977099236642,227.82442748091603
6281653391248,8.009532654,3,-0.6679822631835937,-1.0414777221679687,-2.4672248107910155,174.55725190839695,250.12977099236642,191.51908396946564
6281663341508,8.019482914,3,0.967257470703125,-1.9764134704589842,-1.3874398620605468,194.68702290076337,250.12977099236642,142.54961832061068
6281673318487,8.029459893,3,1.0797849487304687,-2.1787235107421874,0.32082302246093747,197.09923664122138,250.12977099236642,87.16793893129771
6281683318279,8.039459685,3,1.5753846923828123,-2.108094561767578,1.3431471313476562,174.65648854961833,250.12977099236642,31.389312977099237
6281693315414,8.04945682,3,1.7393875061035156,-1.5825672973632812,2.2780828796386716,137.61832061068702,213.6030534351145,-29.549618320610687
6281703330935,8.059472341,3,2.855085479736328,-0.8798691101074219,1.9800047729492187,90.35114503816794,138.67175572519085,-86.47328244274809
6281713360102,8.069501508,3,1.408987677001953,0.6404489440917969,1.9069816223144531,48.74809160305343,66.2824427480916,-137.70229007633588
6281723374008,8.079515414,3,1.2150573425292968,2.940079638671875,0.9828197814941406,20.946564885496183,-3.213740458015267,-197.29007633587787
6281733368747,8.089510153,3,0.062249243164062495,5.353434912109375,-0.3591302490234375,-26.229007633587788,-77.48091603053435,-226.3206106870229
6281743276195,8.099417601,3,-0.5542576843261718,7.451952667236328,-1.6843208679199217,-105.29770992366412,-148.45038167938932,-230.04580152671755
6281753370622,8.109512028,3,-1.4640543151855467,9.194931475830078,-2.910152117919922,-166.19847328244273,-193.16030534351145,-222.70992366412213
6281763337289,8.119478695,3,-3.604470599365234,10.813411798095702,-4.885368487548828,-185.84732824427482,-250.13740458015266,-199.70992366412213
6281773382706,8.129524112,3,-4.8686090759277345,12.339715356445312,-7.1215528381347655,-184.1145038167939,-250.13740458015266,-176.0
6281783341925,8.139483331,3,-6.445190869140625,13.6756798828125,-8.987833032226561,-188.87022900763358,-250.13740458015266,-149.2290076335878
6281793392029,8.149533435,3,-7.4591352722167965,15.133748693847656,-10.302249743652343,-188.6259541984733,-250.13740458015266,-125.61832061068702
6281803325883,8.159467289,3,-7.247248425292969,16.03516561889648,-11.906364855957031,-182.90076335877862,-250.13740458015266,-78.99236641221374
6281813354112,8.169495518,3,-7.304709265136719,16.66843195800781,-12.056002459716796,-153.5114503816794,-241.05343511450383,-18.610687022900763
6281823394320,8.179535726,3,-7.453149768066406,16.180014819335938,-12.191274853515624,-113.96946564885496,-201.12977099236642,68.86259541984732
6281833391612,8.189533018,3,-6.518214019775391,14.897919830322264,-11.654973681640625,-74.6793893129771,-131.84732824427482,145.22137404580153
6281843319477,8.199460883,3,-6.251260534667968,11.97699380493164,-10.133458526611328,-52.63358778625954,-75.01526717557252,231.6259541984733
6281853413904,8.20955531,3,-6.1076084350585935,9.114725720214842,-8.811859210205078,-5.732824427480916,-29.16793893129771,250.12977099236642
6281863326977,8.219468383,3,-4.525041137695312,6.533776330566406,-8.672995513916016,22.99236641221374,-3.946564885496183,250.12977099236642
6281873308539,8.229449945,3,-3.612850305175781,4.73094248046875,-7.599196069335937,33.030534351145036,59.603053435114504,250.12977099236642
6281883317758,8.239459164,3,-3.0238766967773434,3.3602620300292965,-6.797138513183594,49.908396946564885,88.45038167938931,229.25190839694656
6281893362289,8.249503695,3,-1.9333178405761717,2.4349030883789062,-6.057330200195312,84.45038167938931,128.85496183206106,177.40458015267177
6281903340466,8.259481872,3,-1.3682862487792968,2.059013427734375,-5.342661004638671,99.8854961832061,145.25190839694656,121.36641221374046
6281913305466,8.269446872,3,-0.9313444458007812,1.9596540588378906,-4.435258575439453,108.03053435114504,167.74809160305344,58.587786259541986
6281923320831,8.279462237,3,-0.7314286071777343,2.3511060302734372,-3.6679169433593746,125.6793893129771,179.6793893129771,-4.916030534351145
6281933371924,8.28951333,3,-0.4177881896972656,2.89219560546875,-3.4620156005859375,147.77862595419847,156.9618320610687,-53.06870229007634
6281943312862,8.299454268,3,0.5351040710449219,3.614047406005859,-3.9899370666503904,155.16030534351145,140.70229007633588,-88.3969465648855
6281953310049,8.309451455,3,-0.5219359619140624,3.593696691894531,-3.9695863525390624,103.48091603053435,109.25190839694656,-70.14503816793894
6281963325206,8.319466612,3,0.9409212524414062,3.9456443359374997,-4.486733911132812,42.48091603053435,103.1145038167939,-72.25190839694656
6281973357029,8.329498435,3,0.7757213378906249,3.877409588623047,-4.029441394042968,3.931297709923664,116.01526717557252,-68.25190839694656
6281983328643,8.339470049,3,1.1288660827636718,3.9803602600097654,-4.017470385742187,30.34351145038168,114.7175572519084,-72.45038167938931
6281993257810,8.349399216,3,1.7034744812011717,3.949235638427734,-3.9791631591796874,70.87786259541984,121.16030534351145,-79.41984732824427
6282003332602,8.359474008,3,1.2485761657714842,3.708618371582031,-3.5506010620117183,71.3206106870229,127.59541984732824,-76.80152671755725
6282013375310,8.369516716,3,1.1719617126464843,3.393780853271484,-3.1004911499023438,69.29007633587786,132.99236641221373,-86.21374045801527
6282023333070,8.379474476,3,0.9205705383300781,3.507505432128906,-2.8119898498535156,86.46564885496183,135.9618320610687,-110.45038167938931
6282033359789,8.389501195,3,0.49320554199218747,4.012681982421875,-2.5067291381835934,108.92366412213741,120.89312977099236,-136.77862595419847
6282043214893,8.399356299,3,0.9457096557617187,4.726154077148437,-2.7449522033691403,102.62595419847328,101.80152671755725,-162.7709923664122
6282053375154,8.40951656,3,-0.37828386230468747,5.558139154052734,-2.6755203552246094,61.42748091603053,76.1145038167939,-173.89312977099237
6282063331924,8.41947333,3,0.062249243164062495,6.6522893127441405,-3.318363500976562,35.61068702290076,40.25190839694657,-191.9083969465649
6282073287185,8.429428591,3,-1.0594342346191405,8.239645013427733,-3.4488474914550777,23.740458015267176,17.206106870229007,-212.6412213740458
6282083347393,8.439488799,3,-1.8447323791503905,9.574412438964844,-3.7421371948242186,6.221374045801527,-27.267175572519083,-201.26717557251908
6282093355414,8.44949682,3,-2.105700360107422,10.915165368652342,-4.3442789123535155,-12.648854961832061,-72.87022900763358,-193.87022900763358
6282103316456,8.459457862,3,-3.1280244689941403,12.272677709960936,-5.116408947753906,-59.80916030534351,-133.34351145038167,-170.83969465648855
6282113367914,8.46950932,3,-4.50109912109375,13.249511987304686,-6.204573602294921,-108.35114503816794,-199.06870229007635,-131.45038167938932
6282123304008,8.479445414,3,-5.163095880126953,14.306552020263672,-7.81467421875,-149.61832061068702,-250.13740458015266,-92.42748091603053
6282133312237,8.489453643,3,-5.793968017578124,15.00326470336914,-8.689754925537109,-167.38931297709922,-250.13740458015266,-48.534351145038165
6282143337810,8.499479216,3,-6.03937368774414,15.261838482666015,-10.413580120849609,-171.13740458015266,-250.13740458015266,8.15267175572519
6282153408226,8.509549632,3,-6.064512805175781,15.017629913330078,-10.78348427734375,-149.14503816793894,-245.35114503816794,69.80152671755725
6282163328122,8.519469528,3,-5.002684368896484,13.943830468749999,-11.197681164550781,-110.86259541984732,-197.34351145038167,137.48091603053436
6282173321508,8.529462914,3,-5.072116217041016,11.725602630615233,-10.500968481445312,-76.07633587786259,-143.55725190839695,204.54198473282443
6282183311976,8.539453382,3,-4.472368701171875,9.215282189941405,-9.482235675048827,-14.725190839694656,-74.06106870229007,242.93129770992365
6282193315674,8.54945708,3,-3.374627239990234,7.20774409790039,-8.202534887695313,48.412213740458014,-7.404580152671755,250.12977099236642
6282203306716,8.559448122,3,-2.9843723693847655,5.4707507934570305,-7.411251239013671,57.3587786259542,11.786259541984732,250.12977099236642
6282213359633,8.569501039,3,-2.5103204406738278,4.048595007324218,-6.332663391113281,47.221374045801525,58.25954198473283,230.87786259541986
6282223338487,8.579479893,3,-1.5263035583496092,3.125630267333984,-5.813121630859374,54.778625954198475,81.45801526717557,196.5648854961832
6282233301924,8.58944333,3,-1.0953472595214844,2.493561029052734,-5.173869787597656,64.58778625954199,89.61068702290076,164.31297709923663
6282243322393,8.599463799,3,-0.23343466186523437,1.9572598571777342,-4.6830584472656245,68.46564885496183,108.98473282442748,133.0381679389313
6282253400518,8.609541924,3,0.35793314819335936,1.484405029296875,-4.303577484130859,66.44274809160305,115.70229007633588,98.08396946564885
6282263322029,8.619463435,3,0.6105214233398437,1.2030863342285156,-3.8103719421386715,65.21374045801527,114.9618320610687,70.54961832061069
6282273369685,8.629511091,3,0.9888052856445312,1.0630255371093749,-3.5098996337890624,69.50381679389314,117.33587786259542,40.61832061068702
6282283321976,8.639463382,3,1.2330138549804688,1.0271125122070313,-2.9951462768554684,72.61832061068702,115.61068702290076,15.511450381679388
