timestamp_ns,t_s,sensor_id,ax,ay,az,gx,gy,gz
6273819975261,0.176116667,2,-0.9995791931152344,-4.860229370117187,-3.028665100097656,-30.259541984732824,-92.54198473282443,-47.80916030534351
6273829815000,0.185956406,2,-1.0091559997558592,-4.991910461425781,-3.1842882080078123,-36.74809160305343,-78.06870229007633,-35.99236641221374
6273839791719,0.195933125,2,-0.7661445312499999,-4.73094248046875,-3.2884359802246093,-27.900763358778626,-71.38167938931298,-31.389312977099237
6273849737500,0.205878906,2,-0.7386112121582031,-4.3454760131835934,-3.399766357421875,-12.267175572519085,-64.03053435114504,-19.435114503816795
6273859769011,0.215910417,2,-0.7781155395507812,-4.4568063903808595,-3.5194764404296874,1.9236641221374047,-52.35114503816794,3.351145038167939
6273869768334,0.22590974,2,-0.9720458740234375,-4.896142395019531,-3.4153286682128905,23.793893129770993,-29.740458015267176,39.954198473282446
6273879764688,0.235906094,2,-1.3946224670410154,-5.298368273925781,-3.2142157287597652,43.13740458015267,-22.709923664122137,73.76335877862596
6273889775521,0.245916927,2,-3.049015814208984,-6.507440112304687,-3.172317199707031,59.66412213740458,-25.931297709923665,114.53435114503817
6273899769063,0.255910469,2,-4.279635467529297,-7.5142019104003905,-3.087323040771484,95.38167938931298,-3.1526717557251906,146.5267175572519
6273909771823,0.265913229,2,-6.016628771972656,-9.789890588378906,-2.462436407470703,115.59541984732824,40.0,193.0
6273919767605,0.275909011,2,-7.538143927001952,-11.19169566040039,-1.4640543151855467,146.85496183206106,78.17557251908397,203.19847328244273
6273929770573,0.285911979,2,-11.671733093261718,-12.211625567626953,-0.42018239135742186,155.29770992366412,114.6793893129771,205.65648854961833
6273939764428,0.295905834,2,-13.797784167480469,-13.456610430908203,0.9504980590820312,134.0229007633588,159.9770992366412,202.29007633587787
6273949792500,0.305933906,2,-15.2079689453125,-14.529212774658202,2.1344307800292968,118.95419847328245,188.3053435114504,176.45801526717557
6273959774636,0.315916042,2,-15.069105249023437,-15.3611978515625,3.1411925781249996,114.25954198473282,193.64885496183206,118.58015267175573
6273969766094,0.3259075,2,-13.654132067871092,-14.973337182617186,3.712209674072265,90.61068702290076,174.793893129771,27.99236641221374
6273979766719,0.335908125,2,-11.841721411132811,-13.130999005126952,3.867832781982422,8.320610687022901,145.50381679389312,-75.77099236641222
6273989766875,0.345908281,2,-10.155006341552733,-10.990582720947264,3.7984009338378906,-111.1526717557252,104.13740458015268,-149.66412213740458
6273999768698,0.355910104,2,-8.378508709716796,-8.632294085693358,3.1675287963867187,-159.46564885496184,35.13740458015267,-202.89312977099237
6274010041459,0.366182865,2,-6.6139820861816405,-6.716932757568359,2.365471240234375,-135.25954198473283,-36.61832061068702,-224.3206106870229
6274019780521,0.375921927,2,-4.942829327392578,-5.736507177734374,1.3287819213867187,-93.12213740458016,-101.79389312977099,-210.31297709923663
6274029777917,0.385919323,2,-3.497928625488281,-5.2636523498535155,0.013168109130859374,-69.77862595419847,-166.19847328244273,-183.8854961832061
6274039782605,0.395924011,2,-2.9747955627441405,-4.900930798339844,-1.1336544860839843,-75.66412213740458,-186.27480916030535,-151.05343511450383
6274049777761,0.405919167,2,-2.877830395507812,-5.046977099609375,-2.0973206542968748,-97.91603053435115,-200.78625954198472,-114.6412213740458
6274059779323,0.415920729,2,-2.522291448974609,-5.309142181396484,-3.0789433349609374,-91.81679389312977,-191.77862595419847,-88.04580152671755
6274069770938,0.425912344,2,-2.540247961425781,-5.251681341552734,-3.5134909362792968,-68.65648854961832,-151.17557251908397,-69.0
6274079766042,0.435907448,2,-2.5845406921386718,-5.348646508789062,-4.101267443847656,-70.35114503816794,-151.13740458015266,-51.99236641221374
6274089776042,0.445917448,2,-2.664746447753906,-5.408501550292969,-4.678270043945313,-67.53435114503817,-141.5648854961832,-40.19083969465649
6274099767657,0.455909063,2,-2.50912333984375,-5.697002850341796,-4.988319158935546,-45.83206106870229,-96.70992366412214,-28.786259541984734
6274109795052,0.465936458,2,-2.327164013671875,-5.862202764892578,-4.957194537353515,-18.022900763358777,-53.02290076335878,-20.458015267175572
6274119769792,0.475911198,2,-1.9033903198242186,-5.984307049560546,-4.930858319091796,1.1526717557251909,-14.213740458015268,-16.47328244274809
6274129771302,0.485912708,2,-1.43652099609375,-5.954379528808594,-4.43047017211914,12.900763358778626,33.656488549618324,-14.48091603053435
6274139771146,0.495912552,2,-1.2713210815429687,-5.467159490966797,-3.689464758300781,20.946564885496183,93.83206106870229,-11.51908396946565
6274149767865,0.505909271,2,-1.0893617553710937,-5.313930584716797,-2.788047833251953,18.52671755725191,130.85496183206106,-0.4122137404580153
6274159778073,0.515919479,2,-1.581370196533203,-4.7010149597167965,-1.8231845642089843,31.48854961832061,152.12213740458014,10.885496183206106
6274169773438,0.525914844,2,-1.5658078857421873,-5.142745166015625,-0.9756371765136718,41.213740458015266,143.8091603053435,30.946564885496183
6274179765469,0.535906875,2,-1.3814543579101561,-5.9591679321289055,-0.430956298828125,71.83969465648855,124.6412213740458,57.229007633587784
6274189769844,0.54591125,2,-1.9009961181640624,-6.341043096923828,0.031124621582031248,112.77099236641222,108.45801526717557,78.02290076335878
6274199767969,0.555909375,2,-2.7581203125,-6.994660150146484,0.6416460449218749,100.38167938931298,87.26717557251908,96.99236641221374
6274209772396,0.565913802,2,-4.103661645507812,-8.422801440429687,1.4927847351074217,74.94656488549619,102.22137404580153,139.8854961832061
6274219772344,0.57591375,2,-6.132747552490234,-9.131485131835937,1.6448165405273436,76.95419847328245,41.12977099236641,151.64885496183206
6274229769011,0.585910417,2,-8.821436016845702,-9.267954626464844,1.5682020874023437,76.54198473282443,-23.53435114503817,161.0381679389313
6274239767240,0.595908646,2,-11.318588348388671,-10.562020623779297,1.4030021728515625,52.25954198473283,-46.88549618320611,183.8091603053435
6274249770573,0.605911979,2,-12.739547033691405,-12.621034051513671,1.0486603271484374,50.67175572519084,-71.8854961832061,191.8320610687023
6274259772500,0.615913906,2,-13.36203946533203,-13.794192864990233,0.5710170959472656,82.00763358778626,-91.62595419847328,159.95419847328245
6274269766094,0.6259075,2,-13.363236566162108,-14.432247607421875,0.18315642700195311,70.8854961832061,-81.51908396946565,106.93129770992367
6274279762396,0.635903802,2,-12.610260144042968,-14.178462231445312,-0.19991583862304688,4.2748091603053435,-51.12977099236641,35.16030534351145
6274289770000,0.645911406,2,-11.948263385009765,-12.66053837890625,-0.25258827514648435,-73.93893129770993,-12.961832061068701,-41.97709923664122
6274299767032,0.655908438,2,-10.230423693847655,-10.608707556152343,-0.4656722229003906,-121.26717557251908,10.572519083969466,-111.63358778625954
6274309778750,0.665920156,2,-8.59278975830078,-8.26837543334961,-0.49200844116210934,-123.49618320610686,8.641221374045802,-157.0229007633588
6274319770573,0.675911979,2,-7.113173132324218,-6.621164691162109,-0.9265560424804687,-111.55725190839695,-15.900763358778626,-164.96946564885496
6274329772396,0.685913802,2,-6.121973645019531,-5.82868394165039,-1.1982979309082031,-86.69465648854961,-30.519083969465647,-143.54198473282443
6274339770990,0.695912396,2,-5.10084663696289,-5.88015927734375,-1.6029180114746093,-51.82442748091603,-46.7557251908397,-110.36641221374046
6274349774063,0.705915469,2,-4.472368701171875,-6.256048937988281,-1.9536685546875,-14.641221374045802,-55.656488549618324,-78.0381679389313
6274359767240,0.715908646,2,-3.928884924316406,-6.992265948486327,-2.2649147705078123,-1.549618320610687,-47.51908396946565,-51.908396946564885
6274369772084,0.72591349,2,-3.9636008483886718,-7.428010650634765,-2.2373814514160153,-9.763358778625955,-18.458015267175572,-39.3206106870229
6274379773959,0.735915365,2,-3.910928411865234,-7.554903338623046,-2.076969940185547,-25.106870229007633,7.816793893129771,-39.85496183206107
6274389785469,0.745926875,2,-3.6535517333984373,-7.329848382568359,-1.7848773376464844,-26.85496183206107,34.80152671755725,-47.70229007633588
6274399825417,0.755966823,2,-3.0741549316406247,-7.225700610351562,-1.552639776611328,-22.106870229007633,46.86259541984733,-55.88549618320611
6274409783021,0.765924427,2,-2.4875755249023435,-6.798335614013672,-1.2964601989746094,-13.526717557251908,56.42748091603053,-66.08396946564885
6274419771250,0.775912656,2,-1.946485949707031,-6.406883642578125,-1.083376251220703,-7.9465648854961835,65.3969465648855,-70.65648854961832
6274429769219,0.785910625,2,-1.3814543579101561,-6.227318518066406,-0.7493851196289062,-2.7709923664122136,69.92366412213741,-74.99236641221374
6274439765782,0.795907188,2,-0.7457938171386719,-5.960365032958984,-0.5566518859863281,6.229007633587786,64.38931297709924,-74.1526717557252
6274449768646,0.805910052,2,-0.296881005859375,-5.652710119628906,-0.04908113403320312,21.31297709923664,78.19083969465649,-72.31297709923665
6274459771302,0.815912708,2,0.23702596435546874,-5.673060833740234,0.105344873046875,18.572519083969464,51.80152671755725,-65.43511450381679
6274469771042,0.825912448,2,0.5674257934570313,-5.1343654602050774,0.08379705810546874,30.061068702290076,25.923664122137403,-61.717557251908396
6274479765365,0.835906771,2,0.6596025573730468,-4.933252520751953,-0.07302315063476562,42.00763358778626,4.6106870229007635,-42.47328244274809
6274489769844,0.84591125,2,0.6440402465820312,-4.942829327392578,0.08020575561523437,52.916030534351144,13.961832061068701,-19.900763358778626
6274499766823,0.855908229,2,0.6823474731445313,-5.372588525390625,0.1197100830078125,48.6793893129771,13.595419847328245,18.49618320610687
6274509776302,0.865917708,2,-0.23104046020507812,-5.2816088623046875,0.5386953735351562,56.61068702290076,27.85496183206107,58.847328244274806
6274519763802,0.875905208,2,-2.8119898498535156,-5.764040496826172,1.0809820495605469,33.7557251908397,20.755725190839694,113.22900763358778
6274529765886,0.885907292,2,-5.680243438720702,-7.350199096679687,0.8271966735839843,22.908396946564885,-51.603053435114504,174.21374045801528
6274539773750,0.895915156,2,-8.78552299194336,-9.112331518554686,0.06105214233398437,84.30534351145039,-127.50381679389314,226.5114503816794
6274549737709,0.905879115,2,-11.960234393310547,-10.87925234375,-0.39743747558593745,131.40458015267177,-170.87022900763358,250.12977099236642
6274559774688,0.915916094,2,-14.362815759277343,-13.048399047851563,-0.9169792358398436,127.58778625954199,-155.9236641221374,250.12977099236642
6274569772813,0.925914219,2,-16.70913338623047,-14.584279412841797,-0.8643067993164062,102.00763358778626,-90.1526717557252,250.12977099236642
6274579771198,0.935912604,2,-17.373524346923826,-16.54034216918945,-0.4608838195800781,64.98473282442748,-2.9083969465648853,219.64885496183206
6274589834948,0.945976354,2,-16.69476817626953,-17.29571279296875,-0.07062894897460938,53.49618320610687,60.908396946564885,124.29007633587786
6274599760052,0.955901458,2,-14.800954663085937,-15.99326708984375,0.4632780212402344,32.38167938931298,119.30534351145039,-4.931297709923665
6274609770573,0.965911979,2,-12.241553088378906,-13.210007659912108,1.0582371337890624,-53.83969465648855,173.51908396946564,-129.206106870229
6274619729323,0.975870729,2,-9.79946739501953,-10.251971508789062,1.8088193542480469,-153.0763358778626,188.74809160305344,-215.42748091603053
6274629776875,0.985918281,2,-7.5716627502441405,-7.511807708740234,2.094926452636719,-168.95419847328245,158.90076335877862,-250.13740458015266
6274639768438,0.995909844,2,-5.625176800537109,-5.299565374755859,1.927332336425781,-113.74809160305344,90.85496183206106,-250.13740458015266
6274649772656,1.005914062,2,-3.622427111816406,-4.50109912109375,1.581370196533203,-54.76335877862596,24.244274809160306,-234.66412213740458
6274659771927,1.015913333,2,-2.1547814941406247,-4.7572786987304685,0.8319850769042968,-24.236641221374047,-44.19083969465649,-178.9770992366412
6274669775261,1.025916667,2,-1.35990654296875,-4.993107562255859,-0.1292868896484375,-2.7480916030534353,-97.13740458015268,-129.57251908396947
6274679764948,1.035906354,2,-1.1695675109863282,-5.632359405517578,-0.49200844116210934,-0.007633587786259542,-68.35114503816794,-82.82442748091603
6274689763594,1.045905,2,-1.1264718811035155,-6.812700823974609,-0.9433154541015625,-21.916030534351144,-64.23664122137404,-39.083969465648856
6274699767865,1.055909271,2,-1.7322049011230467,-7.157465863037109,-1.1240776794433593,-11.702290076335878,-51.18320610687023,-25.50381679389313
6274709769844,1.06591125,2,-2.0087351928710935,-7.407659936523437,-1.2988544006347655,-12.213740458015268,-26.114503816793892,-17.65648854961832
6274719784011,1.075925417,2,-1.9033903198242186,-7.4603323730468745,-1.16837041015625,-25.3206106870229,12.435114503816793,-22.786259541984734
6274729774688,1.085916094,2,-1.5550339782714844,-7.264007836914062,-0.8990227233886718,-38.33587786259542,37.969465648854964,-32.656488549618324
6274739771875,1.095913281,2,-1.209071838378906,-6.58884296875,-0.7481880187988281,-40.221374045801525,43.51145038167939,-44.48091603053435
6274749773542,1.105914948,2,-1.1276689819335937,-5.644330413818359,-0.44891281127929683,-41.19847328244275,42.916030534351144,-54.25190839694657
6274759772552,1.115913958,2,-0.7242460021972655,-5.361814617919921,-0.24061726684570311,-46.44274809160305,28.557251908396946,-54.55725190839695
6274769774271,1.125915677,2,-0.20709844360351562,-5.0182466796875,-0.5578489868164063,-32.458015267175576,-6.969465648854962,-51.97709923664122
6274779771146,1.135912552,2,-0.06584054565429687,-4.550180255126953,-0.7601590270996094,-11.923664122137405,-45.16793893129771,-44.87022900763359
6274789770521,1.145911927,2,-0.21188684692382811,-4.4196962646484375,-1.2246341491699217,-8.244274809160306,-79.0381679389313,-24.50381679389313
6274799731667,1.155873073,2,-1.102529864501953,-4.264073156738281,-1.6603788513183593,-11.229007633587786,-87.8473282442748,5.916030534351145
6274809773125,1.165914531,2,-2.370259643554687,-5.1331683593749995,-2.2206220397949217,-16.72519083969466,-133.77862595419847,49.603053435114504
6274819773646,1.175915052,2,-3.5960908935546874,-6.1830257873535155,-3.0166940917968748,19.519083969465647,-154.66412213740458,80.73282442748092
6274829777708,1.185919114,2,-4.765658404541015,-7.260416534423828,-3.6200329101562496,65.98473282442748,-140.83969465648855,106.83206106870229
6274839762292,1.195903698,2,-5.961562133789062,-8.29950005493164,-3.7720647155761715,79.53435114503817,-102.09160305343511,128.21374045801528
6274849771094,1.2059125,2,-7.486668591308593,-9.503783489990234,-3.7481226989746093,63.43511450381679,-64.70992366412214,142.76335877862596
6274859773542,1.215914948,2,-8.574833245849609,-10.78946978149414,-3.220201232910156,70.3206106870229,-5.534351145038168,154.29770992366412
6274869771094,1.2259125,2,-9.725247143554688,-11.634622967529296,-2.4289175842285156,103.43511450381679,47.099236641221374,155.00763358778627
6274879773594,1.235915,2,-10.637437976074217,-12.407950103759765,-1.4161702819824218,121.54961832061069,105.10687022900764,148.5114503816794
6274889777344,1.24591875,2,-11.648988177490233,-12.955025183105468,-0.06344634399414062,112.55725190839695,167.16030534351145,140.35114503816794
6274899766667,1.255908073,2,-12.188880651855468,-13.487735052490233,1.2521674682617188,92.53435114503817,202.70229007633588,125.10687022900764
6274909806042,1.265947448,2,-13.098677282714842,-13.68765089111328,2.592920397949219,79.1145038167939,217.6946564885496,90.43511450381679
6274919768698,1.275910104,2,-12.528857287597656,-13.906720343017577,3.333925811767578,61.74809160305343,196.9236641221374,49.48854961832061
6274929771719,1.285913125,2,-11.261127508544922,-13.396755389404296,3.77326181640625,37.06870229007634,156.45038167938932,-15.793893129770993
6274939772188,1.295913594,2,-9.503783489990234,-12.069170568847655,3.6715082458496093,-21.519083969465647,100.83206106870229,-85.6793893129771
6274949804792,1.305946198,2,-7.981071234130859,-10.144232434082031,3.046621612548828,-90.06106870229007,33.81679389312977,-143.6259541984733
6274959778646,1.315920052,2,-7.170633972167968,-8.221688500976562,2.3223756103515623,-128.80152671755727,-30.267175572519083,-175.15267175572518
6274969821458,1.325962864,2,-6.166266375732421,-6.851008050537109,1.180341418457031,-121.79389312977099,-96.82442748091603,-179.36641221374046
6274979780938,1.335922344,2,-5.214571215820312,-5.991489654541016,0.0047884033203125,-87.42748091603053,-150.35114503816794,-167.5114503816794
6274989777656,1.345919062,2,-4.074931225585937,-6.236895324707031,-1.4508862060546874,-66.7175572519084,-181.61068702290078,-139.10687022900763
6274999770885,1.355912291,2,-3.6104561035156246,-6.260837341308593,-2.6815058593749996,-54.69465648854962,-190.09923664122138,-113.59541984732824
6275009768021,1.365909427,2,-3.1352070739746094,-6.488286499023437,-3.6367923217773437,-58.00763358778626,-165.17557251908397,-94.02290076335878
6275019769479,1.375910885,2,-2.8790274963378906,-6.457161877441406,-3.8666356811523435,-57.091603053435115,-93.46564885496183,-77.07633587786259
6275029766406,1.385907812,2,-2.517503045654297,-6.563703851318359,-4.068945721435546,-60.786259541984734,-49.99236641221374,-72.68702290076335
6275039765052,1.395906458,2,-1.8231845642089843,-6.360196710205078,-4.025850091552734,-49.42748091603053,-10.442748091603054,-70.3206106870229
6275049791667,1.405933073,2,-1.149216796875,-5.97592734375,-3.678690850830078,-24.53435114503817,45.18320610687023,-69.6793893129771
6275059770156,1.415911562,2,-0.5877765075683593,-5.543773944091797,-3.034650604248047,-21.022900763358777,100.35114503816794,-63.76335877862596
6275069790417,1.425931823,2,-0.23822306518554687,-5.227739324951171,-2.061407629394531,-26.221374045801525,140.99236641221373,-56.732824427480914
6275079773958,1.435915364,2,0.02154781494140625,-4.896142395019531,-1.2605471740722656,-18.99236641221374,150.26717557251908,-50.87786259541985
6275089771667,1.445913073,2,0.4321533996582031,-4.765658404541015,-0.7338228088378905,5.702290076335878,136.91603053435114,-46.916030534351144
6275099764323,1.455905729,2,0.9828197814941406,-4.76924970703125,-0.4560954162597656,32.038167938931295,115.79389312977099,-42.30534351145038
6275109768073,1.465909479,2,1.4185644836425781,-4.6830584472656245,-0.15203180541992187,45.091603053435115,83.56488549618321,-36.038167938931295
6275119767813,1.475909219,2,1.4449007019042968,-4.480748406982421,-0.062249243164062495,47.87022900763359,55.88549618320611,-25.801526717557252
6275129726979,1.485868385,2,1.2808978881835937,-4.538209246826171,0.15322890625,43.70992366412214,41.05343511450382,2.8091603053435112
6275139765156,1.495906562,2,-0.022744915771484374,-4.129997863769531,0.7003039855957031,49.69465648854962,40.9236641221374,35.343511450381676
6275149770833,1.505912239,2,-1.1324573852539062,-4.6818613464355465,0.6919242797851562,39.41984732824427,31.251908396946565,82.89312977099236
6275159762760,1.515904166,2,-2.692279766845703,-6.302735870361328,0.49320554199218747,23.328244274809162,-27.732824427480917,133.84732824427482
6275169770260,1.525911666,2,-4.3442789123535155,-7.675810522460937,-0.0718260498046875,63.81679389312977,-73.66412213740458,166.3969465648855
6275179766354,1.53590776,2,-6.120776544189453,-8.895656268310546,-0.42975919799804685,98.83969465648855,-102.86259541984732,183.29007633587787
6275189768073,1.545909479,2,-7.690175732421874,-10.123881719970703,-0.8607154968261719,83.86259541984732,-111.58778625954199,184.74809160305344
6275199764844,1.55590625,2,-9.095572106933593,-10.979808813476561,-1.1324573852539062,54.541984732824424,-107.32824427480917,173.8320610687023
6275209773698,1.565915104,2,-10.931924780273437,-11.702857714843748,-1.3587094421386718,39.93129770992366,-108.80152671755725,171.93893129770993
6275219764896,1.575906302,2,-12.58990942993164,-12.569558715820312,-1.600523809814453,54.12213740458015,-109.64885496183206,173.5114503816794
6275229770156,1.585911562,2,-13.880384124755858,-13.342885852050781,-1.6831237670898436,85.96946564885496,-80.26717557251908,165.34351145038167
6275239769219,1.595910625,2,-14.37718096923828,-14.586673614501953,-1.438915197753906,95.9618320610687,-27.396946564885496,151.90076335877862
6275249765000,1.605906406,2,-14.188039038085936,-15.440206506347655,-0.7661445312499999,93.90076335877863,54.79389312977099,109.7175572519084
6275259763437,1.615904843,2,-13.545195892333984,-15.642516546630858,0.13766659545898435,74.51908396946565,139.33587786259542,54.44274809160305
6275269765885,1.625907291,2,-12.260706701660155,-14.31373462524414,1.2222399475097656,31.709923664122137,195.5114503816794,-28.290076335877863
6275279771146,1.635912552,2,-10.509348187255858,-12.337321154785155,2.0745757385253905,-40.274809160305345,218.72519083969465,-108.7557251908397
6275289767865,1.645909271,2,-8.772354882812499,-10.08078609008789,2.6467899353027344,-96.36641221374046,200.6946564885496,-168.09923664122138
6275299772500,1.655913906,2,-7.123947039794921,-8.061276989746093,3.0322564025878904,-97.83206106870229,158.17557251908397,-202.21374045801528
6275309773542,1.665914948,2,-5.279214660644531,-7.176619476318359,2.999934680175781,-68.13740458015268,89.57251908396947,-200.87022900763358
6275319765990,1.675907396,2,-3.6954502624511716,-5.967547637939453,2.3247698120117186,-24.793893129770993,-2.0763358778625953,-194.6259541984733
6275329770833,1.685912239,2,-2.574963885498047,-5.558139154052734,1.6220716247558593,-26.328244274809162,-52.152671755725194,-168.18320610687022
6275339770625,1.695912031,2,-2.104503259277344,-5.734112976074218,0.9337386474609375,-56.97709923664122,-97.26717557251908,-131.09923664122138
6275349765000,1.705906406,2,-2.1499930908203124,-5.679046337890624,-0.1388636962890625,-55.396946564885496,-135.29770992366412,-103.59541984732824
6275359768854,1.71591026,2,-2.290053887939453,-5.88614478149414,-1.140837091064453,-41.38167938931298,-150.84732824427482,-75.1145038167939
6275369770417,1.725911823,2,-2.136824981689453,-6.4080807434082026,-2.0733786376953125,-30.916030534351144,-142.70229007633588,-51.36641221374046
6275379763542,1.735904948,2,-2.033874310302734,-6.848613848876953,-2.7545290100097652,-23.893129770992367,-112.83206106870229,-35.908396946564885
6275389789167,1.745930573,2,-1.3862427612304686,-7.535749725341796,-3.0071172851562498,-21.885496183206108,-64.47328244274809,-26.908396946564885
6275399767917,1.755909323,2,-1.744175909423828,-7.037755780029296,-2.7150246826171873,-17.389312977099237,8.045801526717558,-24.85496183206107
6275409771719,1.765913125,2,-1.3910311645507811,-6.880935571289062,-2.2397756530761717,-43.13740458015267,37.458015267175576,-26.022900763358777
6275419763854,1.77590526,2,-1.1324573852539062,-6.567295153808593,-1.629254229736328,-38.213740458015266,79.33587786259542,-26.16793893129771
6275429766562,1.785907968,2,-0.8188169677734375,-6.253654736328125,-0.9074024291992187,-14.98473282442748,100.99236641221374,-23.389312977099237
6275439768542,1.795909948,2,-0.4991910461425781,-6.104017132568359,-0.3232172241210937,-6.435114503816794,99.33587786259542,-18.083969465648856
6275449772083,1.805913489,2,-0.316034619140625,-5.851428857421874,0.09337386474609374,-8.854961832061068,88.72519083969466,-14.320610687022901
6275459761875,1.815903281,2,-0.36152445068359373,-5.7317187744140625,0.3746925598144531,-11.16030534351145,63.19083969465649,-7.152671755725191
6275469765625,1.825907031,2,-0.5219359619140624,-5.499481213378906,0.7146691955566405,-1.633587786259542,38.465648854961835,5.557251908396947
6275479765573,1.835906979,2,-0.8379705810546875,-5.674257934570313,0.7206546997070312,5.129770992366412,16.091603053435115,25.34351145038168
6275489767552,1.845908958,2,-1.6519991455078125,-6.274005450439453,0.5494692810058593,0.9770992366412213,-25.19083969465649,50.67175572519084
6275499772604,1.85591401,2,-2.7234043884277344,-6.678625531005859,0.1005564697265625,10.84732824427481,-74.33587786259542,70.54198473282443
6275509779896,1.865921302,2,-3.860650177001953,-7.4040686340332025,-0.5027823486328125,22.748091603053435,-107.93893129770993,86.25190839694656
6275519768958,1.875910364,2,-5.0960582336425775,-7.7596075805664055,-1.0007762939453124,22.748091603053435,-128.67175572519085,89.67175572519083
6275529770521,1.885911927,2,-5.646724615478515,-8.777143286132812,-1.5358803649902344,13.748091603053435,-128.29770992366412,89.77099236641222
6275539813385,1.895954791,2,-6.278793853759765,-9.41639512939453,-2.020706201171875,20.015267175572518,-139.6030534351145,91.17557251908397
6275549781719,1.905923125,2,-7.44357296142578,-9.332598071289063,-2.4660277099609376,32.099236641221374,-145.01526717557252,86.78625954198473
6275559765781,1.915907187,2,-8.802282403564453,-9.575609539794922,-2.8419173706054686,16.908396946564885,-138.05343511450383,94.86259541984732
6275569770052,1.925911458,2,-9.900023864746093,-9.673771807861328,-2.895786907958984,9.526717557251908,-111.93129770992367,97.86259541984732
6275579767500,1.935908906,2,-10.903194360351561,-10.624269866943358,-2.986766571044922,15.740458015267176,-77.67175572519083,107.77862595419847
6275589761406,1.945902812,2,-11.626243261718749,-11.757924353027343,-3.1459809814453124,47.0763358778626,-70.41984732824427,123.13740458015268
6275599769010,1.955910416,2,-11.762712756347655,-12.83890640258789,-3.0801404357910154,89.86259541984732,-14.290076335877863,111.27480916030534
6275609731771,1.965873177,2,-12.121843005371092,-13.538013287353515,-2.1871032165527344,92.08396946564885,69.99236641221374,93.3969465648855
6275619774531,1.975915937,2,-11.90756195678711,-14.09586227416992,-1.054645831298828,64.03053435114504,152.27480916030535,61.30534351145038
6275629771458,1.985912864,2,-11.450269439697266,-13.299790222167967,0.06584054565429687,35.94656488549618,201.6030534351145,1.7786259541984732
6275639761094,1.9959025,2,-10.149020837402343,-11.998541619873047,1.0211270080566406,3.6717557251908395,218.21374045801528,-60.213740458015266
6275649772969,2.005914375,2,-9.026140258789061,-10.445901843261717,1.9608511596679685,-29.061068702290076,209.80152671755727,-105.46564885496183
6275659772604,2.01591401,2,-7.528567120361328,-9.509768994140625,2.408566870117187,-40.916030534351144,175.83969465648855,-133.6793893129771
6275669767500,2.025908906,2,-6.2392895263671875,-8.033743670654296,2.4001871643066406,-19.923664122137403,107.07633587786259,-147.58778625954199
6275679768021,2.035909427,2,-4.918887310791015,-7.194575988769531,2.205059729003906,-13.435114503816793,67.32824427480917,-148.78625954198472
6275689774166,2.045915572,2,-3.835511059570312,-7.1035963256835934,1.8171990600585937,-38.99236641221374,26.68702290076336,-131.77862595419847
6275699766250,2.055907656,2,-2.895786907958984,-6.999448553466796,1.1695675109863282,-35.0763358778626,-11.045801526717558,-120.23664122137404
6275709777604,2.06591901,2,-2.213439434814453,-6.755239984130859,0.7589619262695312,-21.748091603053435,-17.091603053435115,-108.12213740458016
6275719765833,2.075907239,2,-1.6639701538085936,-6.730100866699218,0.21428104858398436,-40.969465648854964,-42.412213740458014,-94.29007633587786
6275729768646,2.085910052,2,-1.734599102783203,-6.4092778442382805,-0.4225765930175781,-56.41984732824427,-62.7557251908397,-86.86259541984732
6275739761458,2.095902864,2,-1.7322049011230467,-6.278793853759765,-1.1528080993652343,-58.02290076335878,-72.16030534351145,-75.87786259541984
6275749762135,2.105903541,2,-1.2114660400390624,-6.507440112304687,-1.8064251525878905,-39.82442748091603,-63.19083969465649,-64.74809160305344
6275759775937,2.115917343,2,-0.6344634399414062,-6.361393811035156,-2.1068974609374997,-14.32824427480916,-43.16030534351145,-59.42748091603053
6275769767500,2.125908906,2,-0.37828386230468747,-6.062118603515625,-2.0638018310546875,-14.0,-9.145038167938932,-55.74809160305343
6275779768698,2.135910104,2,-0.12210428466796874,-5.895721588134765,-1.8327613708496093,-32.099236641221374,20.198473282442748,-47.18320610687023
6275789731719,2.145873125,2,-0.08858546142578125,-5.45877978515625,-1.4245499877929686,-27.702290076335878,45.778625954198475,-46.35114503816794
6275799768802,2.155910208,2,0.28490999755859375,-5.578489868164062,-1.0690110412597655,-15.977099236641221,46.732824427480914,-34.41984732824427
6275809769531,2.165910937,2,0.38666356811523434,-5.167884283447266,-0.7601590270996094,10.389312977099237,34.51145038167939,-33.11450381679389
6275819806562,2.175947968,2,1.071405242919922,-5.355829113769531,-0.6607996582031249,20.793893129770993,30.251908396946565,-22.83969465648855
6275829773489,2.185914895,2,1.0785878479003905,-5.136759661865234,-0.4034229797363281,22.16793893129771,28.47328244274809,-12.50381679389313
6275839765104,2.19590651,2,0.3699041564941406,-4.572925170898437,0.12808978881835936,2.3969465648854964,34.69465648854962,8.80916030534351
6275849770885,2.205912291,2,-0.9708487731933593,-4.814739538574218,0.02154781494140625,-17.435114503816795,-19.213740458015266,40.404580152671755
6275859767812,2.215909218,2,-2.360682836914062,-5.363011718749999,-0.44891281127929683,21.908396946564885,-84.53435114503817,72.2824427480916
6275869766927,2.225908333,2,-3.2345664428710936,-6.639121203613281,-1.0390835205078124,81.03053435114504,-119.05343511450381,103.50381679389314
6275879759948,2.235901354,2,-3.5601778686523438,-8.204929089355469,-1.744175909423828,100.83206106870229,-142.93893129770993,121.77099236641222
6275889765052,2.245906458,2,-4.7955859252929685,-8.358157995605469,-1.868674395751953,88.38931297709924,-120.82442748091603,121.4885496183206
6275899726771,2.255868177,2,-6.1830257873535155,-8.245630517578125,-1.5346832641601562,36.98473282442748,-59.62595419847328,108.77862595419847
6275909769635,2.265911041,2,-7.618349682617187,-9.31464155883789,-1.3180080139160155,-1.297709923664122,-58.43511450381679,136.84732824427482
6275919766666,2.275908072,2,-9.247603912353515,-11.111489904785156,-1.1671733093261718,70.99236641221374,-78.69465648854961,186.9618320610687
6275929735885,2.285877291,2,-12.41752691040039,-11.529278094482422,-1.5478513732910155,148.29770992366412,-138.3587786259542,227.13740458015266
6275939777343,2.295918749,2,-15.729904907226562,-12.539631195068358,-1.5454571716308594,137.2824427480916,-101.89312977099236,250.12977099236642
6275949770468,2.305911874,2,-17.035941912841796,-15.553931085205077,-0.9433154541015625,87.70229007633588,14.274809160305344,250.12977099236642
6275959765156,2.315906562,2,-18.295291986083985,-16.683994268798827,0.06703764648437499,102.91603053435115,105.47328244274809,215.0229007633588
6275969766198,2.325907604,2,-17.41063447265625,-17.342399725341796,0.958877764892578,106.43511450381679,162.93129770992365,117.95419847328245
6275979765312,2.335906718,2,-15.236699365234374,-16.399084271240234,1.6460136413574218,50.45038167938932,190.94656488549617,-6.67175572519084
6275989772031,2.345913437,2,-13.38717858276367,-13.565546606445311,2.0542250244140625,-58.63358778625954,184.61068702290078,-134.06106870229007
6275999763854,2.35590526,2,-10.94269868774414,-10.837353814697265,2.146401788330078,-163.61832061068702,157.4198473282443,-224.77862595419847
6276009775468,2.365916874,2,-8.117540728759765,-8.36294639892578,1.89620771484375,-153.7709923664122,98.02290076335878,-250.13740458015266
6276019765416,2.375906822,2,-6.430825659179687,-5.383362432861328,1.8100164550781248,-78.4885496183206,66.61832061068702,-250.13740458015266
6276029772500,2.385913906,2,-3.890577697753906,-4.6998178588867185,1.3000515014648437,-75.46564885496183,16.984732824427482,-250.13740458015266
6276039726406,2.395867812,2,-1.8722656982421875,-4.85184966430664,0.7134720947265625,-68.69465648854961,-34.45038167938932,-226.44274809160305
6276049771666,2.405913072,2,-1.1192892761230469,-4.189852905273438,-0.0909796630859375,-33.14503816793893,-71.97709923664122,-196.53435114503816
6276059768750,2.415910156,2,-0.22505495605468748,-4.467580297851562,-0.7589619262695312,-28.33587786259542,-81.74809160305344,-151.93129770992365
6276069768385,2.425909791,2,0.19871873779296872,-4.878185882568359,-1.4041992736816404,-27.328244274809162,-69.08396946564885,-111.16793893129771
6276079769635,2.435911041,2,0.5159504577636719,-5.294776971435547,-1.7896657409667969,-16.793893129770993,-46.43511450381679,-79.36641221374046
6276089779270,2.445920676,2,0.82360537109375,-5.796362219238281,-1.9009961181640624,-5.885496183206107,-6.534351145038168,-50.97709923664122
6276099765208,2.455906614,2,0.6596025573730468,-6.064512805175781,-1.608903515625,-3.633587786259542,42.67175572519084,-27.18320610687023
6276109768177,2.465909583,2,0.43933600463867184,-6.229712719726562,-1.052251629638672,-11.992366412213741,91.29770992366412,-10.076335877862595
6276119762812,2.475904218,2,0.015562310791015624,-6.331466290283203,-0.17836802368164062,-21.33587786259542,125.4885496183206,2.2595419847328246
6276129761927,2.485903333,2,-0.31004911499023435,-6.381744525146484,0.41419688720703124,-23.977099236641223,127.66412213740458,6.572519083969466
6276139770833,2.495912239,2,-0.18076222534179687,-6.479906793212891,0.8499415893554687,-12.412213740458014,113.35114503816794,5.091603053435114
6276149765729,2.505907135,2,-0.03232172241210937,-6.217741711425781,1.1240776794433593,1.1145038167938932,84.22137404580153,-5.015267175572519
6276159773281,2.515914687,2,0.32082302246093747,-6.0321910827636716,1.2701239807128906,-6.343511450381679,46.541984732824424,-11.618320610687023
6276169777864,2.52591927,2,0.22864625854492185,-5.5270145324707025,1.227028350830078,-15.213740458015268,17.0381679389313,-13.740458015267176
6276179770052,2.535911458,2,0.4944026428222656,-5.427655163574219,1.0534487304687499,-15.083969465648854,-24.564885496183205,-3.6030534351145036
6276189770104,2.54591151,2,-0.09576806640624999,-5.033808990478516,0.8499415893554687,-4.519083969465649,-41.404580152671755,16.625954198473284
6276199764948,2.555906354,2,-1.0726023437499999,-5.328295794677734,0.316034619140625,-22.68702290076336,-89.58778625954199,47.74045801526717
6276209762395,2.565903801,2,-2.8526912780761715,-5.829881042480468,-0.46208092041015625,-21.366412213740457,-149.08396946564886,81.99236641221374
6276219768593,2.575909999,2,-4.163516687011718,-6.678625531005859,-1.5957354064941405,5.213740458015267,-192.9083969465649,107.72519083969466
6276229770520,2.585911926,2,-5.538985540771484,-7.710526446533203,-2.2254104431152344,23.47328244274809,-194.33587786259542,127.08396946564885
6276239765572,2.595906978,2,-6.104017132568359,-9.087192401123046,-2.7545290100097652,24.3206106870229,-185.83969465648855,146.85496183206106
6276249764114,2.60590552,2,-7.886500268554687,-9.020154754638671,-2.6779145568847653,30.763358778625953,-147.10687022900763,138.09923664122138
6276259763489,2.615904895,2,-9.622296472167967,-9.617508068847656,-2.8718448913574215,-4.6106870229007635,-151.61832061068702,143.3969465648855
6276269769062,2.625910468,2,-10.988188519287108,-11.232397088623046,-3.2609026611328122,3.6259541984732824,-161.04580152671755,174.96946564885496
6276279759791,2.635901197,2,-12.648567370605468,-12.088324182128906,-3.7924154296875,67.64885496183206,-162.13740458015266,182.3740458015267
6276289785052,2.645926458,2,-13.74630883178711,-13.086706274414063,-3.67749375,92.1526717557252,-89.78625954198473,170.21374045801528
6276299777656,2.655919062,2,-13.77025084838867,-14.605827227783202,-3.3207577026367185,59.3206106870229,-2.885496183206107,145.6030534351145
6276309769062,2.665910468,2,-13.526042279052733,-14.867992309570312,-2.4875755249023435,48.045801526717554,91.64885496183206,82.58015267175573
6276319764322,2.675905728,2,-12.743138336181639,-14.195221643066406,-1.1324573852539062,41.732824427480914,179.45801526717557,16.53435114503817
6276329785833,2.685927239,2,-11.352107171630859,-12.621034051513671,0.26815058593749996,10.801526717557252,229.72519083969465,-56.11450381679389
6276339773906,2.695915312,2,-9.603142858886718,-10.931924780273437,1.3634978454589843,-33.80152671755725,229.68702290076337,-112.81679389312977
6276349771770,2.705913176,2,-8.16542476196289,-9.187748870849608,1.9680337646484374,-53.55725190839695,183.6793893129771,-148.72519083969465
6276359769322,2.715910728,2,-6.53138212890625,-8.060079888916015,2.051830822753906,-36.62595419847328,121.16793893129771,-157.2290076335878
6276369773750,2.725915156,2,-5.366603021240234,-7.165845568847656,1.7860744384765623,-9.786259541984732,53.229007633587784,-146.0
6276379764375,2.735905781,2,-4.452017987060547,-7.157465863037109,1.3000515014648437,-5.2748091603053435,9.67175572519084,-117.48091603053435
6276389763020,2.745904426,2,-4.090493536376953,-7.214926702880859,0.8319850769042968,-11.34351145038168,-30.99236641221374,-90.25190839694656
6276399813854,2.75595526,2,-4.094084838867187,-7.466317877197265,0.1197100830078125,-17.290076335877863,-57.786259541984734,-71.46564885496183
6276409733281,2.765874687,2,-3.9731776550292968,-7.87812056274414,-0.729034405517578,-22.30534351145038,-67.09923664122137,-55.778625954198475
6276419771093,2.775912499,2,-3.7110125732421873,-7.903259680175781,-1.2126631408691406,-19.923664122137403,-52.595419847328245,-57.083969465648856
6276429769635,2.785911041,2,-3.303998291015625,-7.829039428710937,-1.429338391113281,-30.34351145038168,-22.587786259541986,-63.656488549618324
6276439770000,2.795911406,2,-2.483984222412109,-7.540538128662109,-1.4975731384277342,-45.61832061068702,8.748091603053435,-76.8854961832061
6276449774270,2.805915676,2,-1.7932570434570312,-7.0269818725585935,-1.2581529724121092,-49.56488549618321,38.01526717557252,-88.8854961832061
6276459774322,2.815915728,2,-1.0630255371093749,-6.266822845458984,-1.073799444580078,-46.52671755725191,55.45038167938932,-99.90076335877863
6276469772343,2.825913749,2,-0.4560954162597656,-5.717353564453124,-0.8511386901855468,-44.778625954198475,65.3587786259542,-100.30534351145039
6276479769062,2.835910468,2,0.14963760375976562,-5.3007624755859375,-0.6871358764648438,-37.17557251908397,70.54198473282443,-94.25954198473282
6276489776041,2.845917447,2,0.6428431457519531,-4.950011932373046,-0.4608838195800781,-23.770992366412212,65.70229007633588,-82.81679389312977
6276499769895,2.855911301,2,1.025915411376953,-4.791994622802734,-0.28730419921875,-10.17557251908397,55.81679389312977,-65.93129770992367
6276509770104,2.86591151,2,1.4508862060546874,-4.837484454345703,-0.06344634399414062,1.0534351145038168,44.37404580152672,-43.97709923664122
6276519764322,2.875905728,2,1.5251064575195312,-4.815936639404296,0.06105214233398437,10.259541984732824,33.70992366412214,-22.229007633587788
6276529774270,2.885915676,2,1.4053963745117186,-4.961982940673828,0.16041151123046873,11.541984732824428,25.564885496183205,5.435114503816794
6276539768697,2.895910103,2,0.9564835632324218,-5.270834954833984,0.4070142822265625,9.396946564885496,23.083969465648856,37.74045801526717
6276549773749,2.905915155,2,-0.38786066894531246,-5.585672473144531,0.7625532287597656,0.24427480916030533,17.366412213740457,70.3206106870229
6276559771979,2.915913385,2,-2.598905902099609,-6.148309863281249,0.6667851623535156,-15.740458015267176,-34.458015267175576,101.49618320610686
6276569773385,2.925914791,2,-4.222174627685547,-7.502230902099609,0.076614453125,2.6030534351145036,-106.56488549618321,133.58778625954199
6276579769166,2.935910572,2,-5.467159490966797,-8.449137658691406,-0.7900865478515624,47.32824427480916,-159.9083969465649,134.2824427480916
6276589769322,2.945910728,2,-6.694187841796874,-9.150638745117186,-1.4987702392578124,48.99236641221374,-182.25190839694656,129.24427480916032
6276599771979,2.955913385,2,-7.289146954345703,-10.320206256103514,-2.043451116943359,14.206106870229007,-172.10687022900763,123.32824427480917
6276609771510,2.965912916,2,-7.811082916259765,-10.557232220458983,-2.402581365966797,2.66412213740458,-169.93129770992365,98.04580152671755
6276619767187,2.975908593,2,-8.773551983642578,-9.228450299072264,-2.3451205261230466,5.137404580152672,-133.29007633587787,53.88549618320611
6276629767239,2.985908645,2,-8.542511523437499,-9.647435589599608,-2.6683377502441403,-31.80916030534351,-121.22900763358778,48.0763358778626
6276639778020,2.995919426,2,-9.193734375,-9.63307037963867,-2.7856536315917966,-11.13740458015267,-115.77862595419847,47.02290076335878
6276649775937,3.005917343,2,-9.49300958251953,-10.313023651123046,-3.308786694335937,25.50381679389313,-135.5114503816794,65.09160305343511
6276659775312,3.015916718,2,-10.594342346191405,-10.620678564453124,-3.745728497314453,38.06870229007634,-131.38167938931298,77.09160305343511
6276669783489,3.025924895,2,-10.929530578613281,-11.253944903564452,-4.084508032226562,14.549618320610687,-98.33587786259542,73.97709923664122
6276679773281,3.035914687,2,-10.977414611816405,-11.834538806152343,-3.824737152099609,11.076335877862595,-19.0381679389313,51.16030534351145
6276689770781,3.045912187,2,-10.238803399658202,-12.382810986328124,-3.5697546752929687,30.061068702290076,21.27480916030534,27.603053435114504
6276699770260,3.055911666,2,-9.730035546875,-11.544840405273437,-2.8311434631347656,55.64885496183206,85.31297709923665,-17.137404580152673
6276709767656,3.065909062,2,-8.950722906494141,-11.027692846679686,-1.7298106994628906,25.633587786259543,148.70229007633588,-41.81679389312977
6276719774895,3.075916301,2,-8.404844927978516,-10.046070166015625,-0.6488286499023437,-3.0,174.4732824427481,-63.603053435114504
6276729774687,3.085916093,2,-7.826645227050781,-8.987833032226561,0.16041151123046873,0.8702290076335878,172.9236641221374,-80.46564885496183
6276739771249,3.095912655,2,-6.710947253417968,-8.64426509399414,0.7517793212890624,14.786259541984732,159.40458015267177,-82.49618320610686
6276749777656,3.105919062,2,-5.218162518310547,-8.856151940917968,0.8786720092773437,29.129770992366414,131.27480916030535,-76.93129770992367
6276759775312,3.115916718,2,-4.936843823242187,-8.01818135986328,0.8116343627929687,34.49618320610687,87.53435114503817,-80.12213740458016
6276769772864,3.12591427,2,-4.576516473388671,-8.034940771484374,0.8020575561523438,7.435114503816794,83.74045801526718,-65.70229007633588
6276779773645,3.135915051,2,-3.9504327392578125,-8.686163623046875,0.8259995727539062,-0.3435114503816794,84.1526717557252,-46.45038167938932
6276789772291,3.145913697,2,-3.5913024902343746,-8.793902697753905,0.7661445312499999,31.938931297709924,72.83206106870229,-42.17557251908397
6276799771406,3.155912812,2,-3.4201170715332028,-8.804676605224609,0.8726865051269531,35.87786259541985,82.51908396946565,-38.282442748091604
6276809776979,3.165918385,2,-3.172317199707031,-9.072827191162109,1.0319009155273438,4.740458015267175,99.45038167938931,-32.02290076335878
6276819763385,3.175904791,2,-2.8574796813964842,-9.062053283691405,1.3060370056152344,-13.419847328244275,110.58015267175573,-37.12213740458015
6276829764426,3.185905832,2,-2.555810272216797,-8.522160809326172,1.5310919616699217,-13.244274809160306,110.08396946564885,-49.61068702290076
6276839767968,3.195909374,2,-2.47081611328125,-7.894879974365234,1.6603788513183593,-22.633587786259543,106.74809160305344,-58.603053435114504
6276849778072,3.205919478,2,-1.656787548828125,-7.747636572265624,1.4544775085449217,-40.69465648854962,67.1145038167939,-60.412213740458014
6276859769062,3.215910468,2,-1.3251906188964844,-7.138312249755859,1.467645617675781,-23.52671755725191,73.34351145038168,-61.57251908396947
6276869780156,3.225921562,2,-1.0582371337890624,-6.758831286621094,1.4832079284667967,-31.198473282442748,54.55725190839695,-54.038167938931295
6276879767395,3.235908801,2,-0.9708487731933593,-6.587645867919922,1.6077064147949218,-42.091603053435115,37.50381679389313,-43.541984732824424
6276889776874,3.24591828,2,-0.7685387329101562,-6.372167718505859,1.629254229736328,-39.48091603053435,17.984732824427482,-34.76335877862596
6276899794218,3.255935624,2,-0.5434837768554687,-6.38413872680664,1.4281412902832031,-38.68702290076336,-14.549618320610687,-24.801526717557252
6276909773124,3.26591453,2,-0.9085995300292968,-6.0537388977050774,1.0402806213378906,-43.282442748091604,-58.99236641221374,-17.27480916030534
6276919769843,3.275911249,2,-1.4041992736816404,-6.124367846679687,0.4704606262207031,-53.030534351145036,-102.1145038167939,-5.412213740458015
6276929777499,3.285918905,2,-1.879448303222656,-6.234501123046875,-0.5111620544433594,-51.06106870229008,-145.74809160305344,4.603053435114504
6276939775989,3.295917395,2,-2.596511700439453,-6.218938812255859,-1.4640543151855467,-37.908396946564885,-179.3206106870229,10.557251908396946
6276949767916,3.305909322,2,-2.8275521606445313,-6.494272003173828,-2.3223756103515623,-33.954198473282446,-187.48091603053436,17.35114503816794
6276959777395,3.315918801,2,-3.3482910217285156,-6.616376287841796,-2.986766571044922,-35.091603053435115,-191.03053435114504,22.72519083969466
6276969815624,3.32595703,2,-3.2118215270996093,-6.835445739746094,-3.427299676513672,-29.251908396946565,-176.72519083969465,19.99236641221374
6276979774374,3.33591578,2,-3.6535517333984373,-6.56968935546875,-3.465606903076172,-24.564885496183205,-141.67175572519085,22.984732824427482
6276989772291,3.345913697,2,-4.96677134399414,-6.1459156616210935,-3.6439749267578123,-33.61068702290076,-158.2824427480916,28.00763358778626
6276999770676,3.355912082,2,-5.529408734130859,-6.566098052978515,-3.8235400512695312,-18.427480916030536,-163.04580152671755,39.74045801526717
6277009776197,3.365917603,2,-6.2021794006347655,-7.1035963256835934,-4.147954376220703,29.633587786259543,-154.8854961832061,58.603053435114504
6277019763228,3.375904634,2,-7.090428216552734,-7.770381488037109,-4.349067315673828,58.14503816793893,-150.08396946564886,72.77862595419847
6277029729843,3.385871249,2,-7.509413507080078,-9.023746057128905,-4.570530969238281,59.32824427480916,-123.29007633587786,90.73282442748092
6277039774322,3.395915728,2,-8.013392956542969,-10.02332525024414,-4.487931011962891,67.06870229007633,-72.36641221374046,92.25190839694656
6277049772864,3.40591427,2,-8.34498988647461,-11.086350787353515,-4.39216294555664,70.2442748091603,-41.31297709923664,92.67175572519083
6277059765885,3.415907291,2,-8.688557824707031,-11.361683978271484,-3.890577697753906,84.67175572519083,10.366412213740459,76.3587786259542
6277069774426,3.425915832,2,-9.21887349243164,-11.320982550048827,-2.953247747802734,83.56488549618321,87.36641221374046,61.42748091603053
6277079770312,3.435911718,2,-9.476250170898437,-11.481394061279296,-1.6723498596191406,70.22137404580153,142.42748091603053,51.57251908396947
6277089813176,3.445954582,2,-9.892841259765625,-11.240776794433593,-0.5901707092285156,79.7175572519084,176.3969465648855,37.12213740458015
6277099776822,3.455918228,2,-10.066420880126952,-11.422736120605467,0.8655039001464844,102.12213740458016,210.6793893129771,35.76335877862596
6277109773645,3.465915051,2,-9.477447271728515,-11.921927166748047,1.9943699829101562,120.16030534351145,228.2824427480916,31.091603053435115
6277119766718,3.475908124,2,-8.963891015625,-12.139799517822265,3.0705636291503904,117.58015267175573,232.93129770992365,15.48091603053435
6277129779739,3.485921145,2,-8.36294639892578,-11.923124267578125,3.9791631591796874,79.12977099236642,215.48091603053436,-14.587786259541986
6277139770676,3.495912082,2,-7.637503295898437,-11.450269439697266,4.554968658447265,21.14503816793893,180.0381679389313,-47.97709923664122
6277149775937,3.505917343,2,-6.937199310302734,-10.620678564453124,4.657919329833984,-18.022900763358777,118.05343511450381,-78.21374045801527
6277159769687,3.515911093,2,-6.297947467041015,-9.512163195800781,4.460397692871093,-30.0,55.038167938931295,-102.13740458015268
6277169771562,3.525912968,2,-5.279214660644531,-8.67658681640625,3.6391865234374996,-43.42748091603053,-30.625954198473284,-113.23664122137404
6277179730885,3.535872291,2,-4.684255548095702,-8.079233502197265,2.4672248107910155,-46.786259541984734,-99.41984732824427,-112.10687022900764
6277189775468,3.545916874,2,-4.321533996582031,-7.62912359008789,1.064222637939453,-51.74809160305343,-150.38167938931298,-100.79389312977099
6277199766666,3.555908072,2,-4.2125978210449215,-7.617152581787109,-0.3064578125,-59.091603053435115,-174.94656488549617,-83.54198473282443
6277209770208,3.565911614,2,-4.576516473388671,-7.483077288818359,-1.458068811035156,-57.61068702290076,-172.793893129771,-69.99236641221374
6277219768905,3.575910311,2,-4.169502191162109,-8.091204510498047,-2.421734979248047,-52.954198473282446,-145.08396946564886,-54.79389312977099
6277229975312,3.586116718,2,-3.88818349609375,-8.23006820678711,-2.959233251953125,-37.33587786259542,-99.72519083969466,-51.42748091603053
6277240572708,3.596714114,2,-3.337517114257812,-8.067262493896484,-3.095702746582031,-33.732824427480914,-45.02290076335878,-55.458015267175576
6277250561562,3.606702968,2,-2.750937707519531,-7.635109094238281,-2.925714428710937,-44.70992366412214,17.12213740458015,-61.725190839694655
6277260561822,3.616703228,2,-2.3415292236328122,-7.013813763427734,-2.1595698974609374,-56.961832061068705,70.62595419847328,-67.52671755725191
6277270567812,3.626709218,2,-1.9488801513671874,-6.317101080322265,-1.3563152404785155,-59.12213740458015,103.90839694656489,-71.22900763358778
6277280574999,3.636716405,2,-1.1887211242675781,-6.011840368652344,-0.6823474731445313,-52.81679389312977,112.42748091603053,-70.4885496183206
6277290547760,3.646689166,2,-0.7314286071777343,-5.453991381835937,-0.21188684692382811,-39.19083969465649,101.73282442748092,-66.45801526717557
6277300556093,3.656697499,2,-0.5207388610839844,-5.006275671386718,0.20949264526367187,-38.83206106870229,70.77862595419847,-61.770992366412216
6277311713801,3.667855207,2,-0.2753331909179687,-4.857835168457031,0.2765302917480469,-25.404580152671755,-38.12213740458015,-50.55725190839695
6277321174114,3.67731552,2,0.06943184814453125,-4.765658404541015,-0.29927520751953124,-25.404580152671755,-38.12213740458015,-48.44274809160305
6277330518072,3.686659478,2,0.105344873046875,-4.370615130615234,-0.7721300354003906,-2.3893129770992365,-83.38167938931298,-48.44274809160305
6277340598280,3.696739686,2,0.3016694091796875,-4.303577484130859,-1.5251064575195312,-3.114503816793893,-118.19847328244275,-37.6793893129771
6277350565051,3.706706457,2,0.23582886352539062,-4.402936853027343,-2.233790148925781,-7.1679389312977095,-137.82442748091603,-20.763358778625953
6277360556301,3.716697707,2,-0.430956298828125,-4.357447021484375,-2.7629087158203123,4.33587786259542,-140.29770992366412,1.5572519083969465
6277370554895,3.726696301,2,-1.6136919189453125,-4.557362860107421,-2.858676782226562,20.81679389312977,-121.42748091603053,35.50381679389313
6277380557707,3.736699113,2,-1.9105729248046874,-5.7317187744140625,-3.1352070739746094,44.274809160305345,-103.16793893129771,66.3587786259542
6277390552395,3.746693801,2,-2.6384102294921874,-7.41244833984375,-3.5805285827636717,75.05343511450381,-101.78625954198473,113.4885496183206
6277400550728,3.756692134,2,-4.519055633544921,-8.372523205566406,-3.4392706848144527,106.81679389312977,-82.76335877862596,142.5801526717557
6277410559478,3.766700884,2,-7.0473325866699215,-9.37808790283203,-2.986766571044922,112.53435114503817,-40.19083969465649,178.33587786259542
6277420556041,3.776697447,2,-9.345766180419922,-11.171344946289063,-2.2972364929199216,108.30534351145039,23.717557251908396,220.0763358778626
6277430558176,3.786699582,2,-11.79264027709961,-13.03044253540039,-1.408987677001953,124.91603053435115,69.56488549618321,250.12977099236642
6277440564791,3.796706197,2,-14.044386938476562,-14.675259075927734,-0.1292868896484375,160.74045801526717,111.43511450381679,248.4198473282443
6277450565676,3.806707082,2,-15.71793389892578,-15.929820745849609,1.2294225524902342,176.8091603053435,150.14503816793894,230.10687022900763
6277460555051,3.816696457,2,-15.819687469482421,-17.296909893798826,2.5354595581054684,153.87786259541986,191.793893129771,172.38931297709922
6277470568957,3.826710363,2,-14.976928485107422,-16.885107208251952,3.379415643310547,107.62595419847328,192.45038167938932,66.59541984732824
6277480561197,3.836702603,2,-13.342885852050781,-15.205574743652344,4.04739790649414,17.931297709923665,181.6030534351145,-47.0
6277490552707,3.846694113,2,-11.180921752929686,-12.72398472290039,4.024652990722656,-92.80916030534351,132.23664122137404,-155.49618320610688
6277500561562,3.856702968,2,-9.178172064208983,-10.029310754394531,3.4775779113769527,-153.44274809160305,61.603053435114504,-226.68702290076337
6277510561822,3.866703228,2,-6.842628344726562,-7.807491613769531,2.3810335510253906,-136.93893129770993,-28.19083969465649,-250.13740458015266
6277520557812,3.876699218,2,-5.2265422241210935,-5.907692596435546,1.2413935607910156,-90.33587786259542,-101.93129770992367,-249.05343511450383
6277530556457,3.886697863,2,-3.199850518798828,-5.730521673583984,-0.21068974609375,-73.09923664122137,-145.793893129771,-168.0
6277540609530,3.896750936,2,-2.6958710693359373,-5.392939239501953,-1.2964601989746094,-56.656488549618324,-161.8091603053435,-119.9618320610687
6277550564895,3.906706301,2,-2.086546746826172,-5.941211419677734,-2.024297503662109,-46.36641221374046,-142.38931297709922,-87.25954198473282
6277560552759,3.916694165,2,-1.6651672546386718,-6.4667386840820305,-2.7066449768066403,-28.022900763358777,-114.09923664122137,-68.81679389312977
6277570553228,3.926694634,2,-1.5562310791015623,-6.603208178710937,-3.019088293457031,-19.51145038167939,-77.12977099236642,-56.778625954198475
6277580549218,3.936690624,2,-1.4053963745117186,-6.660669018554687,-3.1579519897460937,-31.954198473282442,-26.15267175572519,-53.9236641221374
6277590553541,3.946694947,2,-1.1911153259277343,-6.405686541748047,-2.858676782226562,-39.74045801526717,28.572519083969464,-52.2442748091603
6277600558332,3.956699738,2,-1.01514150390625,-6.129156249999999,-2.2601263671875,-36.61068702290076,70.95419847328245,-51.412213740458014
6277610561197,3.966702603,2,-0.6452373474121094,-5.810727429199218,-1.70467158203125,-25.435114503816795,96.62595419847328,-48.900763358778626
6277620565155,3.976706561,2,-0.27892449340820313,-5.456385583496093,-1.102529864501953,-17.52671755725191,109.78625954198473,-44.541984732824424
6277630556874,3.98669828,2,0.10175357055664062,-5.179855291748047,-0.4800374328613281,-16.068702290076335,110.90839694656489,-39.32824427480916
6277640560416,3.996701822,2,0.5147533569335937,-4.989516259765625,-0.06823474731445311,-13.19083969465649,100.87022900763358,-32.87022900763359
6277650550312,4.006691718,2,0.622492431640625,-4.7572786987304685,0.2980781066894531,-3.885496183206107,71.41221374045801,-23.282442748091604
6277660558957,4.016700363,2,1.1168950744628905,-4.7955859252929685,0.062249243164062495,10.458015267175572,15.282442748091603,-9.13740458015267
6277670555364,4.02669677,2,1.0474632263183594,-4.517858532714843,0.09457096557617187,32.19847328244275,5.320610687022901,18.885496183206108
6277680552655,4.036694061,2,0.7481880187988281,-4.7010149597167965,0.09217676391601562,17.587786259541986,-18.748091603053435,48.00763358778626
6277690502447,4.046643853,2,-0.10295067138671875,-4.978742352294922,-0.12090718383789062,12.541984732824428,-34.38167938931298,77.73282442748092
6277700557187,4.056698593,2,-2.0278888061523435,-5.026626385498046,-0.181959326171875,22.81679389312977,-63.97709923664122,112.65648854961832
6277710555676,4.066697082,2,-2.750937707519531,-6.770802294921874,-0.6189011291503906,36.68702290076336,-77.58778625954199,132.793893129771
6277720556978,4.076698384,2,-3.812766143798828,-7.997830645751953,-1.1827356201171875,63.961832061068705,-110.4885496183206,151.3053435114504
6277730560676,4.086702082,2,-4.989516259765625,-9.323021264648437,-1.6316484313964843,80.32824427480917,-120.91603053435115,163.06870229007635
6277740546822,4.096688228,2,-6.95874712524414,-10.156203442382813,-1.753752716064453,83.81679389312977,-110.1526717557252,180.206106870229
6277750552447,4.106693853,2,-8.756792572021483,-11.462240447998047,-1.792059942626953,81.87786259541984,-84.92366412213741,197.05343511450383
6277760661978,4.116803384,2,-10.53329020385742,-12.83890640258789,-1.5897499023437498,92.64885496183206,-12.702290076335878,206.82442748091603
6277770567447,4.126708853,2,-12.695254302978515,-13.978546392822265,-1.22583125,118.77099236641222,63.06106870229008,204.05343511450383
6277780562811,4.136704217,2,-14.437036010742187,-15.3611978515625,-0.20231004028320312,133.96946564885496,145.80152671755727,171.41221374045801
6277790538593,4.146679999,2,-15.148113903808593,-16.606182714843747,1.1228805786132812,130.48091603053436,144.74809160305344,104.19083969465649
6277800568801,4.156710207,2,-14.528015673828124,-17.381904052734374,2.4899697265625,114.42748091603053,228.793893129771,-8.908396946564885
6277810549426,4.166690832,2,-13.29859312133789,-15.898696124267577,3.7576995056152342,77.93893129770993,219.0916030534351,-111.16793893129771
6277820604426,4.176745832,2,-11.173739147949219,-13.727155218505859,4.507084625244141,-30.106870229007633,166.74809160305344,-185.21374045801528
6277830556926,4.186698332,2,-9.405621221923827,-11.481394061279296,4.716577270507813,-136.00763358778627,80.91603053435115,-234.81679389312978
6277840558020,4.196699426,2,-7.333439685058593,-9.044096771240234,4.021061688232422,-138.7709923664122,-19.053435114503817,-249.0763358778626
6277850503384,4.20664479,2,-5.687426043701172,-6.855796453857422,3.2537200561523436,-96.7175572519084,-92.95419847328245,-226.82442748091603
6277860566926,4.216708332,2,-3.9312791259765625,-5.835866546630859,1.9201497314453124,-80.40458015267176,-149.23664122137404,-187.1908396946565
6277870548124,4.22668953,2,-2.7174188842773437,-5.572504364013671,0.6308721374511719,-79.93893129770993,-186.3206106870229,-148.4198473282443
6277880558541,4.236699947,2,-2.2469582580566403,-5.537788439941406,-0.7122749938964843,-72.8473282442748,-193.12213740458014,-116.74045801526718
6277890553384,4.24669479,2,-1.9105729248046874,-5.797559320068359,-1.8938135131835936,-60.76335877862596,-170.53435114503816,-92.07633587786259
6277900548384,4.25668979,2,-1.6627730529785156,-6.045359191894531,-2.7736826232910157,-45.14503816793893,-120.73282442748092,-80.6030534351145
6277910546978,4.266688384,2,-1.1743559143066407,-5.966350537109375,-3.1376012756347653,-36.770992366412216,-66.74045801526718,-73.05343511450381
6277920552916,4.276694322,2,-1.1563994018554686,-5.655104321289063,-3.277662072753906,-54.61068702290076,-52.69465648854962,-67.40458015267176
6277930541197,4.286682603,2,-0.7948749511718749,-5.627571002197265,-3.4440590881347655,-75.90076335877863,-8.061068702290076,-65.92366412213741
6277940556405,4.296697811,2,-0.5027823486328125,-5.129577056884766,-3.248931652832031,-51.11450381679389,18.64885496183206,-61.33587786259542
6277950553124,4.30669453,2,0.13766659545898435,-4.802768530273437,-3.034650604248047,-29.80916030534351,39.79389312977099,-53.916030534351144
6277960554218,4.316695624,2,0.44412440795898434,-4.31554849243164,-2.549824768066406,-20.51145038167939,54.9236641221374,-40.48854961832061
6277970550728,4.326692134,2,0.7158662963867187,-4.048595007324218,-2.176329309082031,-23.206106870229007,57.847328244274806,-24.34351145038168
6277980552707,4.336694113,2,0.7948749511718749,-3.9468414367675777,-1.6412252380371093,-16.954198473282442,42.038167938931295,-3.282442748091603
6277990554113,4.346695519,2,0.9696516723632812,-4.088099334716796,-1.2976572998046874,6.587786259541985,21.99236641221374,22.954198473282442
6278000552343,4.356693749,2,0.7517793212890624,-4.283226770019531,-1.1659762084960936,37.045801526717554,4.526717557251908,52.091603053435115
6278010568905,4.366710311,2,0.18076222534179687,-4.7764323120117185,-0.9732429748535155,43.23664122137404,-6.427480916030534,83.12213740458016
6278020553020,4.376694426,2,-0.5997475158691405,-5.5820811706542965,-0.9816226806640624,50.221374045801525,-20.82442748091603,107.97709923664122
6278030557134,4.38669854,2,-2.0973206542968748,-6.102820031738281,-0.9038111267089843,60.2442748091603,-33.25190839694657,129.38931297709922
6278040550988,4.396692394,2,-3.1830911071777344,-7.268796240234375,-0.8762778076171874,78.6412213740458,-59.41984732824427,152.42748091603053
6278050557291,4.406698697,2,-4.2125978210449215,-8.738836059570312,-1.351526837158203,103.43511450381679,-63.656488549618324,159.09923664122138
6278060552343,4.416693749,2,-5.9208607055664055,-9.496600885009766,-1.446097802734375,111.58778625954199,-31.47328244274809,168.87786259541986
6278070549895,4.426691301,2,-7.13112964477539,-10.63025537109375,-1.199495031738281,110.80916030534351,22.18320610687023,174.5114503816794
6278080559947,4.436701353,2,-7.767987286376953,-12.156558929443358,-0.7398083129882812,114.70229007633588,61.47328244274809,170.72519083969465
6278090543280,4.446684686,2,-9.113528619384764,-12.818555688476561,0.12330138549804687,117.19847328244275,111.00763358778626,166.10687022900763
6278100554582,4.456695988,2,-10.608707556152343,-13.365630767822266,1.2892775939941405,107.96946564885496,152.32824427480915,158.6030534351145
6278110576509,4.466717915,2,-11.432312927246093,-14.252682482910155,2.464830609130859,107.06870229007633,178.17557251908397,128.4885496183206
6278120548853,4.476690259,2,-11.790246075439452,-14.692018487548827,3.6104561035156246,81.1526717557252,189.96946564885496,73.53435114503817
6278130546874,4.48668828,2,-11.532869396972655,-14.379575170898436,4.37300933227539,8.86259541984733,185.1679389312977,5.67175572519084
6278140558593,4.496699999,2,-10.511742388916016,-13.827711688232421,5.0960582336425775,-71.09160305343511,139.36641221374046,-70.14503816793894
6278150550207,4.506691613,2,-8.912415679931641,-12.427103717041016,5.15830747680664,-113.81679389312977,71.98473282442748,-131.65648854961833
6278160553697,4.516695103,2,-7.921216192626953,-10.165780249023436,5.032611889648437,-121.6793893129771,-9.183206106870228,-163.65648854961833
6278170550936,4.526692342,2,-6.222530114746093,-8.31865366821289,4.248510845947266,-117.59541984732824,-106.52671755725191,-174.38931297709922
6278180557863,4.536699269,2,-5.210979913330078,-6.546944439697265,3.0166940917968748,-119.0,-181.24427480916032,-158.21374045801528
6278190551145,4.546692551,2,-4.151545678710937,-5.935225915527344,1.4018050720214843,-105.61068702290076,-240.0763358778626,-136.0763358778626
6278200547395,4.556688801,2,-3.8103719421386715,-5.327098693847656,0.11372457885742186,-87.72519083969466,-250.13740458015266,-107.83206106870229
6278210561665,4.566703071,2,-3.699041564941406,-5.233724829101562,-1.3551181396484375,-75.3969465648855,-250.13740458015266,-78.57251908396947
6278220553749,4.576695155,2,-3.470395306396484,-5.4779333984375,-2.327164013671875,-64.58015267175573,-250.13740458015266,-55.267175572519086
6278230542915,4.586684321,2,-3.7576995056152342,-5.820304235839844,-3.4069489624023435,-57.274809160305345,-250.13740458015266,-30.557251908396946
6278240557030,4.596698436,2,-4.356249920654297,-6.263231542968749,-5.049371301269531,-36.63358778625954,-208.18320610687022,4.480916030534351
6278250547968,4.606689374,2,-4.797980126953124,-7.229291912841797,-5.558139154052734,-10.099236641221374,-167.3206106870229,29.84732824427481
6278260546457,4.616687863,2,-5.6766521362304685,-8.215702996826172,-5.853823059082031,5.679389312977099,-122.87786259541984,47.38931297709924
6278270497499,4.626638905,2,-6.681019732666015,-9.045293872070312,-5.728127471923828,15.335877862595419,-48.43511450381679,63.86259541984733
6278280554270,4.636695676,2,-7.486668591308593,-10.143035333251953,-5.1511248718261715,25.366412213740457,29.35114503816794,52.86259541984733
6278290551405,4.646692811,2,-7.906850982666016,-10.742782849121093,-4.262876055908203,31.015267175572518,120.01526717557252,31.549618320610687
6278300555311,4.656696717,2,-7.70573804321289,-11.077971081542968,-2.958036151123047,29.53435114503817,194.24427480916032,7.3816793893129775
6278310551822,4.666693228,2,-7.286752752685547,-10.663774194335938,-1.3670891479492187,23.96946564885496,241.89312977099237,-12.32824427480916
6278320554113,4.676695519,2,-7.173028173828125,-9.925162982177733,0.06703764648437499,19.83206106870229,250.12977099236642,-17.595419847328245
6278330554113,4.686695519,2,-6.5768719604492185,-9.702502227783203,1.0115502014160156,35.2442748091603,248.63358778625954,-25.0381679389313
6278340576197,4.696717603,2,-5.889736083984375,-9.60793126220703,1.629254229736328,45.13740458015267,204.93129770992365,-36.58015267175573
6278350544530,4.706685936,2,-5.3570262145996095,-9.156624249267578,1.848323681640625,31.923664122137403,164.76335877862596,-44.37404580152672
6278360553384,4.71669479,2,-4.371812231445312,-9.175777862548827,2.318784307861328,16.251908396946565,151.04580152671755,-58.12213740458015
6278370557863,4.726699269,2,-3.7900212280273435,-8.598775262451172,2.1966800231933594,-10.01526717557252,106.7557251908397,-73.44274809160305
6278380551561,4.736692967,2,-2.916137622070312,-8.366537701416014,2.1799206115722654,-18.0,80.54961832061069,-89.8854961832061
6278390550259,4.746691665,2,-2.29843359375,-7.487865692138671,1.8902222106933593,-24.641221374045802,43.786259541984734,-98.74809160305344
6278400610415,4.756751821,2,-1.3239935180664062,-6.871358764648437,1.4772224243164063,-25.83206106870229,5.702290076335878,-107.77099236641222
6278410558072,4.766699478,2,-0.5626373901367188,-5.944802722167968,1.035492218017578,-30.99236641221374,-5.66412213740458,-104.87786259541984
6278420559478,4.776700884,2,-0.0383072265625,-5.085284326171875,0.6823474731445313,-37.19083969465649,-25.801526717557252,-94.89312977099236
6278430549999,4.786691405,2,0.43933600463867184,-4.894945294189453,0.3938461730957031,-25.297709923664122,-45.778625954198475,-82.29770992366412
6278440556353,4.796697759,2,0.9876081848144531,-4.4184991638183595,-0.02633621826171875,-3.4656488549618323,-58.56488549618321,-62.954198473282446
6278450550884,4.80669229,2,1.4736311218261717,-4.401739752197265,-0.38666356811523434,14.931297709923664,-75.33587786259542,-47.12213740458015
6278460565624,4.81670703,2,1.697488977050781,-4.149151477050781,-0.08858546142578125,17.587786259541986,-69.0381679389313,-25.35114503816794
6278470550520,4.826691926,2,1.3934253662109375,-4.614823699951172,-0.23702596435546874,15.618320610687023,-76.58015267175573,6.969465648854962
6278480554374,4.83669578,2,1.0414777221679687,-5.102043737792968,-0.33758243408203126,30.290076335877863,-85.29770992366412,51.045801526717554
6278490551457,4.846692863,2,0.2214636535644531,-5.533000036621093,-1.1851298217773436,32.87022900763359,-114.8473282442748,93.18320610687023
6278500547551,4.856688957,2,-1.5933412048339843,-7.556100439453124,-1.1851298217773436,31.740458015267176,-115.25954198473282,144.12977099236642
6278510546197,4.866687603,2,-3.716998077392578,-9.235632904052734,-1.1959037292480468,81.87786259541984,-134.46564885496184,171.38931297709922
6278520538280,4.876679686,2,-5.965153436279296,-10.90439146118164,-1.3934253662109375,131.0,-159.0381679389313,186.24427480916032
6278530550415,4.886691821,2,-7.419630944824219,-11.349712969970703,-1.9045874206542968,129.35114503816794,-163.01526717557252,184.83969465648855
6278540560520,4.896701926,2,-9.74799205932617,-13.491326354980467,-1.868674395751953,68.70229007633588,-116.00763358778626,201.58778625954199
6278550547915,4.906689321,2,-10.940304486083983,-14.405911389160156,-1.6735469604492186,74.2442748091603,-67.21374045801527,189.77862595419847
6278560556353,4.916697759,2,-13.066355560302734,-15.467739825439452,-1.3563152404785155,101.16793893129771,-11.587786259541986,166.94656488549617
6278570549947,4.926691353,2,-14.031218829345702,-16.686388470458983,-0.7350199096679687,122.55725190839695,76.35114503816794,126.38167938931298
6278580554322,4.936695728,2,-13.378798876953125,-15.57069049682617,0.9217676391601562,118.52671755725191,179.76335877862596,55.50381679389313
6278590547395,4.946688801,2,-14.250288281249999,-14.955380670166015,2.577358087158203,41.52671755725191,250.12977099236642,-12.511450381679388
6278600552186,4.956693592,2,-12.447454431152343,-13.309367028808593,3.901351605224609,-26.916030534351144,250.12977099236642,-93.95419847328245
6278610550624,4.96669203,2,-10.669759698486327,-10.813411798095702,3.9408559326171875,-69.34351145038168,233.3740458015267,-163.68702290076337
6278620554738,4.976696144,2,-8.57962164916992,-9.133879333496093,4.011484881591796,-101.1145038167939,169.91603053435114,-197.8091603053435
6278630552759,4.986694165,2,-6.745663177490234,-7.739256866455078,3.7433342956542965,-81.50381679389314,97.5114503816794,-196.0916030534351
6278640559165,4.996700571,2,-5.23492192993164,-6.6271501953125,3.068169427490234,-24.633587786259543,18.66412213740458,-188.85496183206106
6278650555624,5.00669703,2,-3.7576995056152342,-6.254851837158203,2.1583727966308595,-16.198473282442748,-48.70992366412214,-161.5648854961832
6278660556874,5.01669828,2,-2.299630694580078,-6.367379315185547,1.209071838378906,-30.946564885496183,-86.62595419847328,-130.89312977099237
6278670547238,5.026688644,2,-1.7693150268554687,-6.410474945068359,0.373495458984375,-35.099236641221374,-116.58778625954199,-107.2824427480916
6278680547030,5.036688436,2,-1.6112977172851561,-6.186617089843749,-0.59376201171875,-27.015267175572518,-136.8091603053435,-93.6412213740458
6278690549842,5.046691248,2,-1.5981296081542968,-6.174646081542968,-1.4053963745117186,-23.290076335877863,-125.90839694656489,-77.74809160305344
6278700541301,5.056682707,2,-1.4592659118652342,-6.264428643798828,-2.003946789550781,-34.36641221374046,-93.93893129770993,-63.44274809160305
6278710541874,5.06668328,2,-1.158793603515625,-6.198588098144531,-2.360682836914062,-45.412213740458014,-63.57251908396947,-49.18320610687023
6278720558957,5.076700363,2,-1.22583125,-6.068104107666016,-2.612074011230469,-42.67175572519084,-34.56488549618321,-37.213740458015266
6278730542759,5.086684165,2,-1.0953472595214844,-6.0333881835937495,-2.503137835693359,-34.465648854961835,-4.0458015267175576,-24.984732824427482
6278740559894,5.0967013,2,-0.9469067565917968,-5.965153436279296,-2.2361843505859373,-24.625954198473284,21.610687022900763,-15.305343511450381
6278750551613,5.106693019,2,-0.9445125549316405,-5.893327386474609,-1.820790362548828,-20.51145038167939,37.732824427480914,-7.0534351145038165
6278760558280,5.116699686,2,-1.0283096130371092,-5.849034655761718,-1.3335703247070312,-19.03053435114504,49.3206106870229,1.0381679389312977
6278770564634,5.12670604,2,-0.9900023864746094,-5.846640454101562,-0.9600748657226562,-13.106870229007633,48.7557251908397,6.961832061068702
6278780561092,5.136702498,2,-0.9792284790039062,-6.143521459960938,-0.6727706665039062,-3.549618320610687,37.93129770992366,15.450381679389313
6278790548749,5.146690155,2,-1.0666168395996094,-6.271611248779297,-0.5051765502929687,12.580152671755725,10.198473282442748,18.229007633587788
6278800557290,5.156698696,2,-1.2713210815429687,-6.393715533447265,-0.6057330200195312,24.259541984732824,-15.122137404580153,22.72519083969466
6278810551353,5.166692759,2,-1.7657237243652342,-6.509834313964843,-0.5662286926269531,28.84732824427481,-25.17557251908397,32.404580152671755
6278820552290,5.176693696,2,-1.4532804077148436,-7.371746911621093,-0.7410054138183594,40.57251908396947,-26.435114503816795,41.916030534351144
6278830554061,5.186695467,2,-1.926135235595703,-7.45075556640625,-0.7661445312499999,64.32824427480917,-35.35114503816794,51.58015267175573
6278840562082,5.196703488,2,-2.013523596191406,-7.861361151123046,-0.7314286071777343,68.87786259541984,-12.98473282442748,62.99236641221374
6278850554009,5.206695415,2,-2.615665313720703,-8.26837543334961,-0.2454056701660156,63.038167938931295,25.16030534351145,82.78625954198473
6278860557342,5.216698748,2,-4.06655151977539,-8.941146099853515,0.3220201232910156,63.25190839694657,38.36641221374046,113.00763358778626
6278870549946,5.226691352,2,-6.782773303222656,-9.76116016845703,0.9816226806640624,79.07633587786259,30.47328244274809,155.9770992366412
6278880558176,5.236699582,2,-9.178172064208983,-11.221623181152344,1.504755743408203,117.56488549618321,27.328244274809162,194.06870229007635
6278890554061,5.246695467,2,-11.0707884765625,-13.429077111816406,2.003946789550781,143.81679389312978,43.10687022900763,228.70992366412213
6278900555728,5.256697134,2,-12.260706701660155,-15.57787310180664,2.7150246826171873,154.45038167938932,72.45801526717557,226.91603053435114
6278910562499,5.266703905,2,-13.006500518798827,-16.54153927001953,3.6260184143066403,139.0,102.42748091603053,175.21374045801528
6278920550884,5.27669229,2,-12.364854473876953,-16.578649395751953,4.2317514343261715,62.49618320610687,120.77862595419847,81.91603053435115
6278930549374,5.28669078,2,-11.04564935913086,-15.320496423339844,4.590881683349609,-55.595419847328245,123.52671755725191,-30.80916030534351
6278940605259,5.296746665,2,-9.004592443847656,-12.79341657104492,4.242525341796875,-136.78625954198472,81.52671755725191,-129.33587786259542
6278950559999,5.306701405,2,-7.9463553100585935,-8.832209924316405,3.746925598144531,-160.7709923664122,7.129770992366412,-211.5648854961832
6278960561874,5.31670328,2,-5.523423229980469,-7.400477331542969,2.6336218261718747,-182.54198473282443,-56.16030534351145,-221.51908396946564
6278970550780,5.326692186,2,-4.414907861328125,-5.623979699707031,1.2605471740722656,-146.55725190839695,-137.9083969465649,-212.70229007633588
6278980560780,5.336702186,2,-3.5613749694824217,-4.843469958496094,-0.105344873046875,-99.59541984732824,-191.46564885496184,-174.22137404580153
6278990557342,5.346698748,2,-3.066972326660156,-4.972756848144531,-1.2725181823730467,-68.22900763358778,-210.24427480916032,-125.2442748091603
6279000543124,5.35668453,2,-2.7748797241210936,-5.5820811706542965,-2.3774422485351563,-52.38167938931298,-214.12977099236642,-77.45801526717557
6279010551144,5.36669255,2,-3.009511486816406,-6.189011291503906,-3.326743206787109,-40.656488549618324,-191.9236641221374,-43.79389312977099
6279020557811,5.376699217,2,-2.971204260253906,-6.926425402832031,-3.9456443359374997,-38.36641221374046,-151.75572519083968,-22.083969465648856
6279030543540,5.386684946,2,-2.7844565307617186,-7.696161236572265,-4.358644122314453,-31.435114503816795,-108.61832061068702,-7.229007633587786
6279040549217,5.396690623,2,-2.958036151123047,-7.669825018310546,-4.446032482910156,-15.923664122137405,-57.74045801526717,-11.702290076335878
6279050554738,5.406696144,2,-2.8000188415527343,-7.3274541809082026,-4.078522528076172,-20.198473282442748,3.816793893129771,-18.72519083969466
6279060551613,5.416693019,2,-2.31758720703125,-7.022193469238281,-3.289633081054687,-26.259541984732824,72.41221374045801,-22.061068702290076
6279070554269,5.426695675,2,-1.848323681640625,-6.382941625976562,-2.3068132995605466,-17.85496183206107,119.35114503816794,-27.954198473282442
6279080554061,5.436695467,2,-1.3060370056152344,-5.876567974853515,-1.332373223876953,-8.473282442748092,141.29770992366412,-28.282442748091604
6279090553176,5.446694582,2,-0.8786720092773437,-5.617994195556641,-0.49320554199218747,-1.5190839694656488,143.53435114503816,-22.0
6279100559373,5.456700779,2,-0.968454571533203,-5.066130712890625,0.18315642700195311,10.83969465648855,130.6259541984733,-12.992366412213741
6279110568488,5.466709894,2,-0.594959112548828,-5.370194323730469,0.44532150878906246,11.15267175572519,92.41984732824427,2.236641221374046
6279120559634,5.47670104,2,-0.8200140686035156,-5.438429071044921,0.9169792358398436,31.53435114503817,74.3587786259542,23.778625954198475
6279130567811,5.486709217,2,-0.9564835632324218,-5.832275244140624,1.1563994018554686,51.06870229007634,57.69465648854962,41.152671755725194
6279140564894,5.4967063,2,-1.70467158203125,-6.3901242309570305,1.332373223876953,41.37404580152672,30.908396946564885,64.38167938931298
6279150563384,5.50670479,2,-2.4253262817382812,-7.182604980468749,1.5682020874023437,38.06106870229008,8.374045801526718,75.91603053435115
6279160560936,5.516702342,2,-3.23696064453125,-7.930792999267577,1.8052280517578123,51.3587786259542,-10.419847328244275,83.30534351145039
6279170559946,5.526701352,2,-3.038241906738281,-9.089586602783202,1.6519991455078125,67.36641221374046,-65.09923664122137,88.08396946564885
6279180562707,5.536704113,2,-5.160701678466797,-8.769960681152343,1.4712369201660156,89.91603053435115,-134.95419847328245,93.52671755725191
6279190560780,5.546702186,2,-7.413645440673828,-9.855731134033203,0.9923965881347656,79.54198473282443,-161.14503816793894,139.1679389312977
6279200567498,5.556708904,2,-10.150217938232421,-11.241973895263671,0.11013327636718749,74.64885496183206,-191.8854961832061,182.29770992366412
6279210568488,5.566709894,2,-12.850877410888671,-12.442666027832031,-0.7326257080078125,84.83206106870229,-174.5114503816794,202.6030534351145
6279220558696,5.576700102,2,-14.174870928955077,-14.629769244384764,-0.7601590270996094,83.87786259541984,-89.69465648854961,209.18320610687022
6279230566144,5.58670755,2,-14.091073870849609,-16.60019721069336,-0.5422866760253906,89.8854961832061,-12.98473282442748,172.45038167938932
6279240572863,5.596714269,2,-13.729549420166014,-16.881515905761717,0.0526724365234375,93.81679389312977,59.83969465648855,89.16793893129771
6279250556301,5.606697707,2,-12.549208001708983,-15.595829614257811,0.9983820922851562,40.13740458015267,133.5648854961832,-8.19083969465649
6279260554009,5.616695415,2,-11.116278308105468,-13.034033837890624,1.908178723144531,-61.06870229007634,190.26717557251908,-108.70229007633588
6279270570519,5.626711925,2,-9.752780462646484,-10.435127935791016,2.517503045654297,-140.38167938931298,199.1679389312977,-170.45038167938932
6279280576144,5.63671755,2,-7.0473325866699215,-8.761580975341797,2.4684219116210935,-133.94656488549617,165.42748091603053,-195.34351145038167
6279290566248,5.646707654,2,-5.98191284790039,-7.147889056396484,2.1547814941406247,-76.2442748091603,100.68702290076335,-191.5801526717557
6279300563644,5.65670505,2,-4.199429711914062,-6.6319385986328125,1.9847931762695312,-33.45038167938932,63.49618320610687,-169.5114503816794
6279310566665,5.666708071,2,-2.8335376647949215,-6.706158850097656,1.7489643127441405,-21.53435114503817,20.984732824427482,-137.91603053435114
6279320566300,5.676707706,2,-2.213439434814453,-6.694187841796874,1.3156138122558594,-20.64885496183206,-22.748091603053435,-114.04580152671755
6279330563123,5.686704529,2,-2.3415292236328122,-6.175843182373047,0.6967126831054687,-31.595419847328245,-49.70992366412214,-102.12213740458016
6279340575363,5.696716769,2,-1.9871873779296874,-6.388927130126953,0.10893617553710937,-56.37404580152672,-55.49618320610687,-84.30534351145039
6279350571769,5.706713175,2,-1.6735469604492186,-6.299144567871093,-0.5530605834960938,-56.38167938931298,-69.9618320610687,-82.89312977099236
6279360559269,5.716700675,2,-1.246181964111328,-5.795165118408203,-1.159990704345703,-48.56488549618321,-73.08396946564885,-87.09923664122137
6279370570467,5.726711873,2,-0.5770026000976562,-5.379771130371093,-1.7214309936523438,-53.54961832061068,-54.282442748091604,-88.38931297709924
6279380562446,5.736703852,2,-0.11731588134765625,-4.592078784179687,-1.6807295654296874,-58.541984732824424,-28.610687022900763,-92.82442748091603
6279390561925,5.746703331,2,0.7757213378906249,-4.349067315673828,-1.7800889343261719,-61.42748091603053,-6.244274809160306,-84.80916030534351
6279400565467,5.756706873,2,1.1743559143066407,-3.853467572021484,-1.5011644409179687,-40.19083969465649,9.893129770992367,-74.12977099236642
6279410567603,5.766709009,2,1.3192051147460937,-3.6260184143066403,-1.2701239807128906,-11.053435114503817,14.84732824427481,-56.55725190839695
6279420571821,5.776713227,2,1.6304513305664061,-3.8391023620605464,-0.9325415466308593,20.03053435114504,12.870229007633588,-36.229007633587784
6279430564530,5.786705936,2,1.7753005310058592,-4.0988732421875,-0.814028564453125,47.74809160305343,14.297709923664122,-4.587786259541985
6279440573384,5.79671479,2,1.399410870361328,-4.3813890380859375,-0.316034619140625,54.099236641221374,24.19083969465649,31.61832061068702
6279450557342,5.806698748,2,0.46686932373046874,-4.450820886230469,0.06584054565429687,41.63358778625954,31.778625954198475,72.0381679389313
6279460575311,5.816716717,2,-1.9632453613281249,-5.427655163574219,-0.21787235107421873,15.977099236641221,2.3282442748091605,131.12977099236642
6279470563332,5.826704738,2,-5.072116217041016,-7.0090253601074215,-0.1592144104003906,40.25954198473283,-38.282442748091604,178.17557251908397
6279480564478,5.836705884,2,-7.101202124023437,-9.666589202880859,-0.2825157958984375,119.91603053435115,-60.83969465648855,235.6030534351145
6279490563384,5.84670479,2,-9.867702142333984,-11.592724438476562,-0.25139117431640623,174.54961832061068,-100.82442748091603,250.12977099236642
6279500570571,5.856711977,2,-11.680112799072266,-13.589488623046874,-0.3232172241210937,173.5267175572519,-98.09160305343511,246.9083969465649
6279510509946,5.866651352,2,-13.494917657470703,-15.081076257324218,-0.05985504150390625,136.10687022900763,-54.55725190839695,226.41221374045801
6279520576717,5.876718123,2,-14.508862060546875,-16.563087084960937,0.2813186950683594,91.92366412213741,2.9923664122137406,183.25190839694656
6279530564217,5.886705623,2,-14.513650463867187,-16.83482897338867,0.7817068420410156,83.10687022900764,57.57251908396947,108.7175572519084
6279540673644,5.89681505,2,-13.906720343017577,-16.12614528198242,1.697488977050781,73.74809160305344,131.4198473282443,25.31297709923664
6279550565259,5.906706665,2,-11.886014141845703,-14.744690924072264,2.5438392639160154,22.923664122137403,187.29770992366412,-57.06870229007634
6279560575727,5.916717133,2,-9.273940130615234,-12.605471740722656,2.9831752685546875,-51.87022900763359,211.78625954198472,-134.31297709923663
6279570568957,5.926710363,2,-8.034940771484374,-10.442310540771484,3.5889082885742187,-113.41221374045801,213.34351145038167,-176.12213740458014
6279580560311,5.936701717,2,-6.4284314575195305,-8.598775262451172,3.919308117675781,-105.17557251908397,165.8854961832061,-200.0381679389313
6279590568696,5.946710102,2,-4.696226556396484,-7.031770275878906,3.6846763549804686,-53.969465648854964,89.72519083969466,-206.74045801526717
6279600572082,5.956713488,2,-2.5821464904785154,-6.586448767089843,3.2417490478515623,-31.81679389312977,25.83206106870229,-185.96946564885496
6279610562967,5.966704373,2,-1.5670049865722655,-6.010643267822266,2.6862942626953124,-36.221374045801525,-21.740458015267176,-164.25190839694656
6279620564165,5.976705571,2,-0.949300958251953,-5.668272430419922,1.9213468322753906,-61.23664122137404,-63.44274809160305,-141.98473282442748
6279630572290,5.986713696,2,-0.9133879333496093,-5.148730670166016,1.006761798095703,-75.25954198473282,-103.87786259541984,-121.97709923664122
6279640563644,5.99670505,2,-0.7410054138183594,-4.910507604980468,0.1197100830078125,-70.1145038167939,-128.4732824427481,-102.7175572519084
6279650569582,6.006710988,2,-0.24779987182617186,-4.791994622802734,-0.8092401611328125,-55.587786259541986,-126.81679389312977,-85.30534351145039
6279660551561,6.016692967,2,0.46806642456054687,-4.7764323120117185,-1.4209586853027343,-48.267175572519086,-110.38931297709924,-69.58778625954199
6279670557342,6.026698748,2,0.38187516479492184,-4.2149920227050774,-1.7764976318359373,-50.50381679389313,-88.35114503816794,-65.58778625954199
6279680569009,6.036710415,2,0.4381389038085937,-3.784035723876953,-1.7022773803710936,-60.94656488549618,-63.01526717557252,-63.33587786259542
6279690566561,6.046707967,2,0.9217676391601562,-3.7576995056152342,-1.649604943847656,-57.61068702290076,-56.87786259541985,-51.29007633587786
6279700563748,6.056705154,2,0.7601590270996094,-3.2070331237792966,-1.725022296142578,-29.770992366412212,-84.6412213740458,-50.343511450381676
6279710576405,6.066717811,2,0.03591302490234375,-2.319981408691406,-1.707065783691406,-5.786259541984733,-114.61068702290076,-38.49618320610687
6279720580259,6.076721665,2,0.5614402893066406,-2.9185318237304685,-2.722207287597656,5.755725190839694,-148.44274809160305,-2.8931297709923665
6279730558436,6.086699842,2,-0.12210428466796874,-4.278438366699218,-3.447650390625,37.12213740458015,-155.54198473282443,75.70229007633588
6279740633957,6.096775363,2,-2.636016027832031,-4.406528155517578,-3.6942531616210936,108.10687022900764,-117.47328244274809,111.55725190839695
6279750563540,6.106704946,2,-4.061763116455078,-7.528567120361328,-3.812766143798828,134.83969465648855,-50.732824427480914,208.87022900763358
6279760558175,6.116699581,2,-7.298723760986328,-11.399991204833984,-2.4564509033203126,199.9236641221374,32.7557251908397,250.12977099236642
6279770562967,6.126704373,2,-11.475408557128906,-12.96101068725586,-0.5386953735351562,250.12977099236642,120.52671755725191,250.12977099236642
6279780574009,6.136715415,2,-14.213178155517577,-15.261838482666015,2.1643583007812497,250.12977099236642,250.12977099236642,250.12977099236642
6279790562654,6.14670406,2,-15.464148522949218,-17.681179260253906,5.035006091308594,229.34351145038167,250.12977099236642,250.12977099236642
6279800557550,6.156698956,2,-16.17163511352539,-18.225860137939453,7.079654309082031,162.66412213740458,250.12977099236642,198.4885496183206
6279810564634,6.16670604,2,-15.935806249999999,-17.577031488037107,7.995436444091796,62.57251908396947,250.12977099236642,67.21374045801527
6279820610779,6.176752185,2,-14.092270971679687,-15.47611953125,7.887697369384765,-35.595419847328245,171.24427480916032,-70.09923664122137
6279830565832,6.186707238,2,-11.212046374511718,-12.62223115234375,6.822277630615234,-108.9618320610687,70.2442748091603,-182.35114503816794
6279840624998,6.196766404,2,-8.730456353759765,-9.570821136474608,4.976348150634766,-158.94656488549617,-46.656488549618324,-249.36641221374046
6279850580467,6.206721873,2,-7.875726361083984,-6.505045910644531,3.268085266113281,-175.80152671755727,-135.206106870229,-250.13740458015266
6279860557290,6.216698696,2,-5.839457849121094,-6.1650692749023435,1.9117700256347656,-171.45801526717557,-173.54961832061068,-235.96946564885496
6279870563904,6.22670531,2,-4.16231958618164,-5.874173773193359,0.3555389465332031,-99.42748091603053,-216.74809160305344,-204.3206106870229
6279880560467,6.236701873,2,-3.1184476623535153,-5.181052392578125,-1.1540052001953125,-45.01526717557252,-243.0381679389313,-175.94656488549617
6279890560207,6.246701613,2,-2.0446482177734375,-5.521029028320312,-2.379836450195312,-74.06870229007633,-224.03053435114504,-138.6793893129771
6279900564373,6.256705779,2,-1.7609353210449217,-5.767631799316406,-3.0418332092285154,-107.91603053435115,-179.0916030534351,-105.5114503816794
6279910567654,6.26670906,2,-1.6148890197753905,-5.743689782714843,-3.5290532470703124,-102.3587786259542,-141.9618320610687,-87.58778625954199
6279920563696,6.276705102,2,-1.6364368347167968,-5.533000036621093,-3.870226983642578,-70.3969465648855,-105.70229007633588,-71.63358778625954
6279930560102,6.286701508,2,-1.35990654296875,-5.849034655761718,-4.187458703613281,-42.7557251908397,-72.92366412213741,-48.48091603053435
6279940560519,6.296701925,2,-1.744175909423828,-5.910086798095703,-4.2137949218749995,-17.984732824427482,-39.79389312977099,-20.893129770992367
6279950560467,6.306701873,2,-2.072181536865234,-6.372167718505859,-4.00310517578125,0.9007633587786259,11.49618320610687,0.37404580152671757
6279960552706,6.316694112,2,-2.205059729003906,-7.190984686279297,-3.229778039550781,21.14503816793893,71.07633587786259,23.374045801526716
6279970560050,6.326701456,2,-2.337937921142578,-7.645883001708984,-2.2290017456054687,48.64885496183206,130.13740458015266,35.595419847328245
6279980555311,6.336696717,2,-2.7138275817871094,-7.963114721679687,-0.978031378173828,54.33587786259542,175.59541984732823,39.37404580152672
6279990552759,6.346694165,2,-2.881421697998047,-8.12711753540039,0.3555389465332031,43.587786259541986,200.2824427480916,36.961832061068705
6280000578956,6.356720362,2,-3.479972113037109,-7.981071234130859,1.4532804077148436,33.86259541984733,194.80152671755727,28.366412213740457
6280011203540,6.367344946,2,-2.531868255615234,-8.355763793945313,1.6220716247558593,25.244274809160306,135.89312977099237,13.244274809160306
6280020559113,6.376700519,2,-2.7090391784667966,-7.694964135742187,2.1930887207031247,32.87022900763359,130.25954198473283,-1.1145038167938932
6280030582759,6.386724165,2,-2.2840683837890623,-7.83981333618164,2.3319524169921872,7.229007633587786,78.96946564885496,-0.31297709923664124
6280040582238,6.396723644,2,-2.6108769104003904,-7.382520819091797,2.426523382568359,6.33587786259542,37.38931297709924,-0.816793893129771
6280050564321,6.406705727,2,-2.5821464904785154,-7.511807708740234,2.127248175048828,4.488549618320611,-16.69465648854962,5.748091603053435
6280060573071,6.416714477,2,-2.749740606689453,-7.794323504638672,1.3551181396484375,6.0458015267175576,-74.01526717557252,11.786259541984732
6280070574373,6.426715779,2,-3.2225954345703123,-7.941566906738281,0.469263525390625,11.473282442748092,-118.29007633587786,16.236641221374047
6280080570415,6.436711821,2,-3.3961750549316405,-8.28034644165039,-0.49320554199218747,10.01526717557252,-132.0229007633588,22.3206106870229
6280090564946,6.446706352,2,-3.860650177001953,-8.39526812133789,-1.0666168395996094,6.824427480916031,-121.08396946564885,25.015267175572518
6280100566404,6.45670781,2,-3.915716815185547,-8.88607946166992,-1.504755743408203,5.435114503816794,-96.2442748091603,28.946564885496183
6280110560571,6.466701977,2,-4.313154290771484,-8.58680425415039,-1.581370196533203,12.396946564885496,-72.06106870229007,21.0
6280120564321,6.476705727,2,-3.794809631347656,-8.998606939697265,-1.5658078857421873,8.007633587786259,-22.53435114503817,24.702290076335878
6280130572134,6.48671354,2,-3.7421371948242186,-8.384494213867187,-1.1575965026855468,6.267175572519084,14.0,13.900763358778626
6280140572811,6.496714217,2,-3.289633081054687,-8.176198669433592,-0.6715735656738281,-7.7251908396946565,45.35114503816794,10.961832061068701
6280150567446,6.506708852,2,-3.308786694335937,-7.62912359008789,-0.003591302490234375,-10.80916030534351,61.30534351145038,7.702290076335878
6280160577290,6.516718696,2,-3.9145197143554684,-7.381323718261719,0.7781155395507812,-4.763358778625954,54.54961832061068,19.33587786259542
6280170568019,6.526709425,2,-3.7002386657714843,-8.412027532958984,1.1240776794433593,21.3206106870229,16.374045801526716,36.44274809160305
6280180560831,6.536702237,2,-4.562151263427734,-8.288726147460936,1.045069024658203,80.7557251908397,-46.274809160305345,44.67175572519084
6280190565988,6.546707394,2,-4.8877626892089845,-9.169792358398437,0.5255272644042969,85.8473282442748,-67.19847328244275,67.53435114503817
6280200562706,6.556704112,2,-5.743689782714843,-10.320206256103514,0.35314474487304687,59.16793893129771,-72.83206106870229,86.80152671755725
6280210557811,6.566699217,2,-7.006631158447266,-10.983400115966797,0.2705447875976562,76.12977099236642,-66.54961832061069,93.9618320610687
6280220561300,6.576702706,2,-7.632714892578124,-11.682507000732421,0.3184288208007812,103.16793893129771,-31.717557251908396,95.58015267175573
6280230557081,6.586698487,2,-8.073247998046874,-12.273874810791014,0.6200982299804687,98.58015267175573,18.740458015267176,91.54961832061069
6280240561092,6.596702498,2,-8.640673791503906,-12.600683337402343,1.3527239379882812,66.89312977099236,78.48091603053435,77.18320610687023
6280250515988,6.606657394,2,-8.896853369140624,-12.437877624511717,2.1906945190429687,30.954198473282442,123.66412213740458,51.49618320610687
6280260566561,6.616707967,2,-8.627505682373046,-11.870451831054687,2.991554974365234,7.679389312977099,146.84732824427482,14.114503816793894
6280270561456,6.626702862,2,-7.738059765625,-11.250353601074218,3.632003918457031,-5.938931297709924,144.53435114503816,-16.9618320610687
6280280583436,6.636724842,2,-7.255628131103515,-10.037690460205077,3.9564182434082027,-18.946564885496183,116.56488549618321,-46.969465648854964
6280290582967,6.646724373,2,-6.244077929687499,-9.830592016601562,3.4165257690429685,-54.94656488549618,56.74809160305343,-54.98473282442748
6280300568904,6.65671031,2,-5.833472344970703,-9.472658868408203,3.0885201416015624,-42.778625954198475,24.19083969465649,-52.83206106870229
6280310576092,6.666717498,2,-5.9783215454101555,-9.003395343017578,2.577358087158203,-24.6793893129771,-30.198473282442748,-52.31297709923664
6280320569269,6.676710675,2,-5.517437725830078,-9.149441644287108,1.8351555725097655,-26.61832061068702,-60.54961832061068,-47.47328244274809
6280330557186,6.686698592,2,-5.4707507934570305,-9.004592443847656,1.2102689392089843,-25.435114503816795,-82.36641221374046,-49.534351145038165
6280340577290,6.696718696,2,-5.4515971801757805,-8.670601312255858,0.488417138671875,-38.98473282442748,-87.55725190839695,-55.11450381679389
6280350573331,6.706714737,2,-5.148730670166016,-8.582015850830077,-0.03232172241210937,-61.7557251908397,-71.33587786259542,-58.97709923664122
6280360570258,6.716711664,2,-4.522646936035156,-8.31865366821289,-0.41060558471679687,-63.282442748091604,-60.2442748091603,-68.46564885496183
6280370563019,6.726704425,2,-3.842693664550781,-7.600393170166015,-0.8906430175781249,-56.25954198473283,-50.0763358778626,-82.09923664122137
6280380566769,6.736708175,2,-3.1387983764648437,-6.879738470458984,-1.01514150390625,-67.96946564885496,-30.900763358778626,-86.87786259541984
6280390567863,6.746709269,2,-2.5725696838378904,-6.379350323486328,-1.0175357055664063,-82.63358778625954,-12.244274809160306,-84.83969465648855
6280400609633,6.756751039,2,-2.0458453186035155,-5.858611462402344,-1.0582371337890624,-79.06106870229007,-2.8931297709923665,-80.93129770992367
6280410568540,6.766709946,2,-1.5442600708007812,-5.408501550292969,-1.042674822998047,-60.80916030534351,-0.20610687022900764,-75.23664122137404
6280420574998,6.776716404,2,-1.1563994018554686,-5.087678527832031,-0.9971849914550781,-44.49618320610687,-5.32824427480916,-69.23664122137404
6280430566873,6.786708279,2,-0.37828386230468747,-5.1128176452636716,-1.1252747802734375,-31.83969465648855,-13.84732824427481,-61.458015267175576
6280440567550,6.796708956,2,0.017956512451171875,-4.740519287109374,-1.0797849487304687,-19.358778625954198,-20.610687022900763,-52.93893129770992
6280450577810,6.806719216,2,0.13168109130859373,-4.605246893310547,-1.1444283935546875,-20.045801526717558,-33.37404580152672,-39.89312977099237
6280460562394,6.8167038,2,-0.11372457885742186,-4.446032482910156,-1.2246341491699217,-7.557251908396947,-40.87786259541985,-23.244274809160306
6280470565154,6.82670656,2,-0.18435352783203124,-4.4568063903808595,-1.1348515869140625,14.229007633587786,-42.61068702290076,-3.3893129770992365
6280480569581,6.836710987,2,-0.1771709228515625,-4.923675714111328,-1.1815385192871093,36.12213740458015,-45.343511450381676,20.938931297709924
6280490559790,6.846701196,2,-0.023942016601562498,-6.1842228881835934,-1.4891934326171874,64.65648854961832,-31.61832061068702,60.61068702290076
6280500554946,6.856696352,2,-1.5562310791015623,-6.406883642578125,-1.3251906188964844,83.6793893129771,-4.770992366412214,93.54198473282443
6280510565258,6.866706664,2,-3.172317199707031,-7.466317877197265,-0.8020575561523438,74.38167938931298,44.81679389312977,135.23664122137404
6280520563592,6.876704998,2,-5.872976672363281,-8.923189587402343,0.32561142578124996,73.78625954198473,74.12977099236642,179.38167938931298
6280530556404,6.88669781,2,-8.262389929199218,-10.528501800537109,1.5095441467285156,130.0229007633588,78.09160305343511,207.80152671755727
6280540573696,6.896715102,2,-10.663774194335938,-11.93270107421875,2.616862414550781,192.73282442748092,75.25190839694656,223.96946564885496
6280550566300,6.906707706,2,-12.350489263916016,-14.24909118041992,3.4775779113769527,187.54198473282443,84.47328244274809,239.98473282442748
6280560561404,6.91670281,2,-13.632584252929687,-15.920243939208984,4.273649963378906,153.08396946564886,82.17557251908397,211.93893129770993
6280570570258,6.926711664,2,-14.18564483642578,-16.547524774169922,4.778826513671874,96.27480916030534,80.30534351145039,140.9236641221374
6280580564790,6.936706196,2,-13.14536421508789,-16.655263848876952,4.717774371337891,19.572519083969464,74.87786259541984,46.16030534351145
6280590560779,6.946702185,2,-11.455057843017578,-14.454992523193358,4.25808765258789,-47.69465648854962,47.94656488549618,-67.22137404580153
6280600567029,6.956708435,2,-9.513360296630859,-11.70166061401367,3.336320013427734,-124.7557251908397,15.679389312977099,-156.90076335877862
6280610565727,6.966707133,2,-8.367734802246094,-8.64426509399414,2.488772625732422,-172.40458015267177,-12.633587786259541,-201.85496183206106
6280620560623,6.976702029,2,-6.956352923583984,-7.382520819091797,2.0649989318847655,-169.83969465648855,-37.11450381679389,-204.87786259541986
6280630564790,6.986706196,2,-4.814739538574218,-7.107187628173827,1.3383587280273437,-101.09923664122137,-70.45801526717557,-179.87786259541986
6280640588852,6.996730258,2,-3.4536358947753905,-6.303932971191406,0.3268085266113281,-16.221374045801525,-114.50381679389314,-158.31297709923663
6280650566456,7.006707862,2,-2.663549346923828,-6.372167718505859,-0.39264907226562495,-19.480916030534353,-118.91603053435115,-122.69465648854961
6280660566352,7.016707758,2,-2.43250888671875,-6.41646044921875,-0.7673416320800781,-66.87786259541984,-94.83206106870229,-98.78625954198473
6280670566040,7.026707446,2,-2.347514727783203,-6.4655415832519525,-1.139639990234375,-82.44274809160305,-78.73282442748092,-83.54198473282443
6280680561717,7.036703123,2,-2.080561242675781,-6.155492468261718,-1.5897499023437498,-56.732824427480914,-65.92366412213741,-79.56488549618321
6280690559894,7.0467013,2,-1.533486163330078,-5.838260748291015,-1.7800889343261719,-39.969465648854964,-43.916030534351144,-79.37404580152672
6280700560467,7.056701873,2,-0.8858546142578124,-5.438429071044921,-1.7190367919921874,-48.20610687022901,-12.145038167938932,-76.42748091603053
6280710567706,7.066709112,2,-0.5051765502929687,-4.989516259765625,-1.619677423095703,-60.587786259541986,10.84732824427481,-70.70229007633588
6280720565310,7.076706716,2,-0.17836802368164062,-4.655525128173828,-1.4053963745117186,-53.656488549618324,21.259541984732824,-64.7175572519084
6280730522967,7.086664373,2,0.2932897033691406,-4.155136981201172,-1.0941501586914062,-32.58015267175573,20.603053435114504,-56.213740458015266
6280740572967,7.096714373,2,0.709880792236328,-4.140771771240234,-1.005564697265625,-10.473282442748092,15.900763358778626,-36.82442748091603
6280750527915,7.106669321,2,0.5051765502929687,-3.8379052612304685,-0.7829039428710937,8.206106870229007,4.587786259541985,-18.404580152671755
6280760562237,7.116703643,2,0.2705447875976562,-4.310760089111328,-0.5614402893066406,16.793893129770993,-5.190839694656488,11.664122137404581
6280770567498,7.126708904,2,-0.04668693237304687,-4.856638067626953,-0.5207388610839844,38.11450381679389,-7.862595419847328,43.38167938931298
6280780559529,7.136700935,2,-0.5770026000976562,-5.416881256103515,-0.7230489013671875,56.595419847328245,-31.083969465648856,65.76335877862596
6280790574894,7.1467163,2,-1.9524714538574217,-6.555324145507812,-0.967257470703125,71.74045801526718,-35.42748091603053,112.53435114503817
6280800570727,7.156712133,2,-3.5482068603515624,-7.654262707519531,-1.1109095703125,85.73282442748092,-28.38167938931298,142.13740458015266
6280810555675,7.166697081,2,-6.301538769531249,-9.239224206542968,-0.3435679382324219,99.98473282442748,-13.648854961832061,176.61068702290078
6280820569789,7.176711195,2,-8.25520732421875,-10.727220538330078,0.11013327636718749,151.0916030534351,2.4122137404580153,194.40458015267177
6280830565467,7.186706873,2,-10.109516510009765,-12.454637036132812,0.9433154541015625,188.16030534351145,20.6793893129771,204.70229007633588
6280840568019,7.196709425,2,-11.943474981689452,-14.030021728515624,2.043451116943359,190.6793893129771,66.73282442748092,208.40458015267177
6280850565102,7.206706508,2,-13.517662573242188,-15.173253021240233,3.0885201416015624,160.82442748091603,111.0,188.74045801526717
6280860572602,7.216714008,2,-14.308946221923827,-16.270994482421873,4.319139794921875,122.25954198473282,159.8091603053435,149.87786259541986
6280870562446,7.226703852,2,-14.068328955078124,-16.469713220214842,5.160701678466797,89.46564885496183,175.59541984732823,78.98473282442748
6280880567289,7.236708695,2,-12.824541192626953,-15.464148522949218,5.561730456542969,29.908396946564885,171.01526717557252,-15.045801526717558
6280890577342,7.246718748,2,-10.685322009277343,-13.724761016845703,5.6203883972167965,-65.16030534351145,152.66412213740458,-104.79389312977099
6280900588435,7.256729841,2,-8.465897070312499,-11.322179650878905,4.875791680908203,-134.3740458015267,93.70229007633588,-177.76335877862596
6280910572237,7.266713643,2,-7.679401824951172,-8.400056524658202,4.369418029785156,-154.93129770992365,27.755725190839694,-224.19847328244273
6280920564269,7.276705675,2,-5.659892724609374,-7.0832456115722655,3.544615557861328,-139.7175572519084,-32.02290076335878,-224.42748091603053
6280930570154,7.28671156,2,-3.6762966491699216,-6.104017132568359,2.2649147705078123,-90.40458015267176,-113.55725190839695,-217.38167938931298
6280940564581,7.296705987,2,-2.402581365966797,-5.342661004638671,1.158793603515625,-66.1145038167939,-148.95419847328245,-194.90076335877862
6280950569164,7.30671057,2,-1.8602946899414061,-4.885368487548828,0.028730419921875,-86.05343511450381,-168.87786259541986,-160.25954198473283
6280960563227,7.316704633,2,-1.5969325073242187,-5.007472772216796,-0.8307879760742187,-101.66412213740458,-168.17557251908397,-127.76335877862596
6280970612342,7.326753748,2,-1.0019733947753906,-5.479130499267578,-1.944091748046875,-80.2442748091603,-163.5648854961832,-98.25954198473282
6280980562289,7.336703695,2,-0.8499415893554687,-5.294776971435547,-2.730586993408203,-39.045801526717554,-149.6030534351145,-78.33587786259542
6280990565102,7.346706508,2,-0.7110778930664062,-5.746083984375,-3.2525229553222657,-24.19083969465649,-114.65648854961832,-50.50381679389313
6281000549737,7.356691143,2,-1.3587094421386718,-5.856217260742187,-3.4715924072265625,-18.480916030534353,-75.55725190839695,-22.862595419847327
6281010559789,7.366701195,2,-1.504755743408203,-6.366182214355469,-3.4057518615722655,-1.748091603053435,-9.419847328244275,-4.358778625954199
6281020586300,7.376727706,2,-1.3096283081054687,-6.947973217773437,-2.7162217834472653,18.17557251908397,69.3969465648855,16.603053435114504
6281030565414,7.38670682,2,-1.697488977050781,-6.891709478759765,-1.6041151123046875,24.68702290076336,129.13740458015266,21.862595419847327
6281040570883,7.396712289,2,-1.9967641845703124,-7.020996368408203,-0.21906945190429686,9.404580152671755,176.8091603053435,28.931297709923665
6281050522758,7.406664164,2,-2.039859814453125,-7.280767248535156,1.1528080993652343,6.122137404580153,191.36641221374046,30.061068702290076
6281060582289,7.416723695,2,-2.272097375488281,-6.987477545166016,2.1116858642578125,22.31297709923664,165.10687022900763,22.938931297709924
6281070575779,7.426717185,2,-1.3766659545898436,-7.212532501220703,2.032677209472656,20.022900763358777,88.77099236641222,13.49618320610687
6281080577550,7.436718956,2,-1.5406687683105469,-6.720524060058593,2.416946575927734,17.99236641221374,72.38931297709924,7.732824427480916
6281090572810,7.446714216,2,-1.2521674682617188,-6.771999395751953,2.4768016174316405,-5.648854961832061,35.87022900763359,8.916030534351146
6281100569633,7.456711039,2,-1.649604943847656,-6.418854650878906,2.0183119995117185,-12.977099236641221,-22.076335877862597,11.946564885496183
6281110566456,7.466707862,2,-2.2074539306640624,-6.324283685302734,1.5873557006835937,-1.5648854961832062,-70.49618320610686,22.129770992366414
6281120577654,7.47671906,2,-2.039859814453125,-7.117961535644531,0.7302315063476562,22.14503816793893,-100.94656488549619,34.3587786259542
6281130560883,7.486702289,2,-1.5729904907226562,-7.672219219970703,-0.07302315063476562,46.62595419847328,-105.62595419847328,48.12977099236641
6281140566456,7.496707862,2,-2.829946362304687,-7.414842541503906,-0.3603273498535156,27.885496183206108,-97.25190839694656,50.74045801526717
6281150561196,7.506702602,2,-4.1575311828613275,-8.22288560180664,0.1149216796875,3.572519083969466,-52.70229007633588,68.35114503816794
6281160554894,7.5166963,2,-4.7117888671875,-8.60595786743164,0.42018239135742186,36.48091603053435,-69.45038167938931,74.08396946564885
6281170554321,7.526695727,2,-6.098031628417968,-8.726865051269531,0.42018239135742186,89.30534351145039,-103.94656488549619,89.80152671755725
6281180559946,7.536701352,2,-7.989450939941406,-9.892841259765625,0.22864625854492185,88.23664122137404,-113.78625954198473,129.83969465648855
6281190553696,7.546695102,2,-9.369708197021485,-11.84890401611328,-0.037110125732421874,71.90839694656489,-107.92366412213741,160.95419847328245
6281200558383,7.556699789,2,-9.976638317871092,-13.49012925415039,-0.25737667846679685,99.35114503816794,-75.05343511450381,157.44274809160305
6281210567185,7.566708591,2,-10.913968267822264,-14.54956348876953,0.1771709228515625,125.36641221374046,-5.969465648854962,145.93893129770993
6281220561196,7.576702602,2,-12.424709515380858,-15.249867474365233,1.4018050720214843,112.95419847328245,96.05343511450381,136.3969465648855
6281230557862,7.586699268,2,-12.704831109619139,-15.2845833984375,2.9927520751953125,80.95419847328245,205.10687022900763,82.25190839694656
6281240552758,7.596694164,2,-10.141838232421874,-15.198392138671874,4.514267230224609,33.47328244274809,250.12977099236642,-6.442748091603053
6281250564529,7.606705935,2,-8.650250598144531,-12.458228338623046,5.213374114990234,-38.0,217.0,-105.09923664122137
6281260566508,7.616707914,2,-8.10796392211914,-9.564835632324218,5.007472772216796,-132.00763358778627,136.66412213740458,-162.36641221374046
6281270561873,7.626703279,2,-7.003039855957031,-8.055291485595703,4.331110803222656,-159.00763358778627,62.11450381679389,-165.36641221374046
6281280568123,7.636709529,2,-5.164292980957031,-7.100005023193359,3.0526071166992184,-90.96946564885496,-14.15267175572519,-152.48091603053436
6281290563800,7.646705206,2,-4.062960217285156,-6.874950067138672,2.1691467041015624,-39.045801526717554,-74.96946564885496,-128.14503816793894
6281300559581,7.656700987,2,-3.299209887695312,-7.4699091796875,1.3946224670410154,-34.85496183206107,-107.06106870229007,-89.25190839694656
6281310556560,7.666697966,2,-3.2800562744140622,-7.584830859375,0.4955997436523437,-33.396946564885496,-135.0,-73.02290076335878
6281320556925,7.676698331,2,-3.806780639648437,-7.5142019104003905,-0.42018239135742186,-43.06870229007634,-140.08396946564886,-61.954198473282446
6281330553904,7.68669531,2,-3.7984009338378906,-7.606378674316406,-0.7972691528320313,-58.83969465648855,-102.41984732824427,-57.969465648854964
6281340560935,7.696702341,2,-3.001131781005859,-7.856572747802734,-1.3335703247070312,-65.61832061068702,-75.78625954198473,-60.58015267175573
6281350609477,7.706750883,2,-2.501940734863281,-7.363367205810547,-1.7393875061035156,-54.7557251908397,-53.68702290076336,-72.37404580152672
6281360569893,7.716711299,2,-1.9428946472167967,-6.519411120605469,-1.6519991455078125,-58.541984732824424,-21.557251908396946,-82.36641221374046
6281370555571,7.726696977,2,-1.4891934326171874,-5.942408520507812,-1.5562310791015623,-73.09923664122137,11.83206106870229,-80.56488549618321
6281380556508,7.736697914,2,-0.9421183532714843,-5.604826086425781,-1.2964601989746094,-67.76335877862596,32.717557251908396,-72.36641221374046
6281390558539,7.746699945,2,-0.4800374328613281,-5.121197351074218,-0.9947907897949219,-35.82442748091603,38.94656488549618,-63.85496183206107
6281400560623,7.756702029,2,0.14006079711914063,-4.830301849365234,-0.7529764221191406,-7.648854961832061,43.656488549618324,-49.88549618320611
6281410555987,7.766697393,2,0.4752490295410156,-4.69263525390625,-0.4261678955078125,-0.25190839694656486,46.63358778625954,-31.99236641221374
6281420568175,7.776709581,2,0.5686228942871093,-4.811148236083984,-0.2645592834472656,-4.564885496183206,39.0,-11.473282442748092
6281430565310,7.786706716,2,0.14484920043945312,-4.709394665527343,-0.020350714111328123,9.49618320610687,25.38167938931298,2.66412213740458
6281440562289,7.796703695,2,-0.11372457885742186,-4.987122058105468,0.4165910888671875,29.15267175572519,32.213740458015266,28.83969465648855
6281450613279,7.806754685,2,-0.5734112976074218,-5.890933184814453,0.38307226562499996,27.610687022900763,-1.5267175572519085,53.3206106870229
6281460553956,7.816695362,2,-1.2210428466796874,-6.421248852539062,0.30526071166992186,50.770992366412216,-10.648854961832061,76.6793893129771
6281470579685,7.826721091,2,-2.7198130859375,-7.015010864257812,-0.10414777221679687,53.10687022900763,-43.83206106870229,100.1145038167939
6281480555206,7.836696612,2,-5.130774157714844,-7.813477117919922,-0.11372457885742186,42.12213740458015,-59.2442748091603,123.90839694656489
6281490554789,7.846696195,2,-6.387730029296875,-9.48702407836914,-0.3327940307617187,68.91603053435115,-82.27480916030534,149.0229007633588
6281500564164,7.85670557,2,-8.540117321777343,-10.135852728271484,-0.49200844116210934,132.45801526717557,-106.52671755725191,150.74809160305344
6281510557081,7.866698487,2,-9.622296472167967,-12.495338464355468,-0.5231330627441406,151.06870229007635,-65.22137404580153,185.84732824427482
6281520555050,7.876696456,2,-10.869675537109375,-14.408305590820312,0.03232172241210937,162.0381679389313,2.3053435114503817,193.87786259541986
6281530500987,7.886642393,2,-12.558784808349609,-15.33486163330078,1.2006921325683593,158.9618320610687,89.69465648854961,170.46564885496184
6281540624320,7.896765726,2,-13.072341064453123,-16.50562624511719,2.8754361938476563,128.36641221374046,191.42748091603053,136.87022900763358
6281550614529,7.906755935,2,-13.41351480102539,-16.09502066040039,4.641159918212891,104.29770992366412,250.12977099236642,68.53435114503817
6281560562393,7.916703799,2,-11.628637463378906,-15.56470499267578,5.960365032958984,45.412213740458014,250.12977099236642,-16.435114503816795
6281570566143,7.926707549,2,-9.952696301269532,-13.359645263671874,6.603208178710937,-42.717557251908396,250.12977099236642,-112.65648854961832
6281580566404,7.93670781,2,-8.643067993164061,-10.376469995117187,6.4463879699707025,-130.05343511450383,187.14503816793894,-187.54961832061068
6281590565102,7.946706508,2,-6.203376501464843,-8.438363751220702,5.65031591796875,-164.15267175572518,94.20610687022901,-229.05343511450383
6281600557498,7.956698904,2,-4.29639487915039,-6.415263348388671,5.064933612060546,-109.93129770992367,18.076335877862597,-241.8854961832061
6281610558331,7.966699737,2,-2.421734979248047,-5.25407554321289,3.896563201904297,-69.58015267175573,-87.41984732824427,-226.2290076335878
6281620558643,7.976700049,2,-1.2832920898437499,-4.426878869628906,2.6240450195312497,-70.16030534351145,-160.54961832061068,-205.19847328244273
6281630547706,7.986689112,2,-0.9959878906249999,-3.9432501342773434,1.4927847351074217,-96.89312977099236,-204.1679389312977,-168.46564885496184
6281640571873,7.996713279,2,-0.8463502868652343,-3.7229835815429686,0.07900865478515624,-110.76335877862596,-237.29007633587787,-137.76335877862596
6281650612029,8.006753435,2,-0.3136404174804687,-3.6439749267578123,-1.2665326782226562,-96.03053435114504,-249.64885496183206,-114.13740458015268
6281660557237,8.016698643,2,0.3806780639648437,-3.794809631347656,-2.3044190979003907,-65.70992366412214,-232.7175572519084,-92.61068702290076
6281670554841,8.026696247,2,1.0630255371093749,-3.8558617736816405,-3.0214824951171875,-47.25190839694657,-205.27480916030535,-71.54198473282443
6281680561820,8.036703226,2,1.467645617675781,-4.06655151977539,-3.754108203125,-48.86259541984733,-195.36641221374046,-51.82442748091603
6281690552185,8.046693591,2,-0.6380547424316406,-2.779668127441406,-4.055777612304687,-52.954198473282446,-224.29007633587787,-48.274809160305345
6281700557497,8.056698903,2,-1.4353238952636718,-3.4584242980957027,-4.898536596679687,-59.786259541984734,-250.13740458015266,-5.183206106870229
6281710554060,8.066695466,2,-2.2541408630371094,-4.44962378540039,-5.2456958374023435,5.564885496183206,-180.86259541984734,50.52671755725191
6281720559112,8.076700518,2,-2.3523031311035156,-6.339845996093749,-5.701791253662109,90.1526717557252,-88.69465648854961,108.72519083969466
6281730559893,8.086701299,2,-3.475183709716797,-7.905653881835937,-5.415684155273437,131.7175572519084,-8.618320610687023,155.06870229007635
6281740548904,8.09669031,2,-5.145139367675781,-9.252392315673827,-4.347870214843749,142.64885496183206,101.09160305343511,183.0381679389313
6281750618227,8.106759633,2,-7.750030773925781,-10.50815108642578,-1.9859902770996092,148.93129770992365,232.24427480916032,211.1145038167939
6281760566664,8.11670807,2,-9.497797985839844,-11.458649145507811,0.3806780639648437,173.06106870229007,250.12977099236642,212.76335877862596
6281770570622,8.126712028,2,-12.054805358886718,-11.690886706542969,2.906560815429687,194.8091603053435,250.12977099236642,200.48091603053436
6281780570935,8.136712341,2,-11.696872210693359,-13.526042279052733,4.225765930175781,164.45801526717557,250.12977099236642,172.5114503816794
6281790575675,8.146717081,2,-12.006921325683592,-14.26225928955078,5.683834741210937,156.61832061068702,250.12977099236642,131.83969465648855
6281800560258,8.156701664,2,-11.595118640136718,-14.743493823242186,6.955155822753905,119.85496183206106,250.12977099236642,71.58015267175573
6281810557445,8.166698851,2,-10.76313356323242,-14.37718096923828,7.631517791748046,66.77862595419847,223.80152671755727,0.3969465648854962
6281820591820,8.176733226,2,-9.37210239868164,-13.182474340820312,7.224503509521484,-2.954198473282443,104.69465648854961,-75.7175572519084
6281830562445,8.186703851,2,-7.575254052734374,-11.694478009033203,6.611587884521484,-39.94656488549618,38.30534351145038,-132.9083969465649
6281840553175,8.196694581,2,-6.150704064941406,-9.654618194580078,5.521029028320312,-67.80152671755725,-19.221374045801525,-168.09923664122138
6281850597341,8.206738747,2,-5.285200164794921,-7.978677032470703,4.509478826904297,-106.38167938931298,-67.77099236641222,-181.12213740458014
6281860559737,8.216701143,2,-4.302380383300781,-7.174225274658203,3.7193922790527343,-115.16793893129771,-101.91603053435115,-165.27480916030535
6281870552862,8.226694268,2,-3.342305517578125,-6.768408093261718,2.5629928771972654,-82.52671755725191,-152.86259541984734,-146.3206106870229
6281880555362,8.236696768,2,-3.0322564025878904,-6.449979272460937,1.1228805786132812,-63.412213740458014,-216.86259541984734,-119.38931297709924
6281890555414,8.24669682,2,-3.2632968627929686,-6.739677673339843,-0.2609679809570312,-70.38931297709924,-234.00763358778627,-84.25190839694656
6281900560987,8.256702393,2,-3.1603461914062496,-7.3849150207519525,-1.3084312072753905,-78.62595419847328,-216.3587786259542,-59.57251908396947
6281910548279,8.266689685,2,-3.6667198425292966,-7.593210565185546,-2.070984436035156,-65.45038167938931,-181.70992366412213,-46.51908396946565
6281920559112,8.276700518,2,-3.3207577026367185,-8.020575561523437,-2.6001030029296874,-55.0763358778626,-145.50381679389312,-39.778625954198475
6281930558643,8.286700049,2,-2.905363714599609,-8.067262493896484,-3.009511486816406,-50.94656488549618,-110.3587786259542,-46.9236641221374
6281940549216,8.296690622,2,-1.5490484741210937,-8.087613208007811,-3.2046389221191403,-50.36641221374046,-50.221374045801525,-52.541984732824424
6281950543279,8.306684685,2,3.527856146240234,-6.5206082214355465,-2.91134921875,-27.641221374045802,101.82442748091603,-85.19847328244275
6281960561508,8.316702914,2,-1.2617442749023438,-3.113659259033203,-0.6596025573730468,-174.51908396946564,207.75572519083968,-80.50381679389314
6281970555727,8.326697133,2,-1.9752163696289062,-5.313930584716797,0.6823474731445313,-250.13740458015266,162.85496183206106,15.923664122137405
6281980551247,8.336692653,2,-0.6212953308105469,-5.950788226318359,0.6081272216796875,-83.54198473282443,88.10687022900764,29.85496183206107
6281990505206,8.346646612,2,-0.6823474731445313,-4.684255548095702,0.31483751831054685,123.22900763358778,1.8931297709923665,16.87786259541985
6282000567602,8.356709008,2,-0.679953271484375,-5.985504150390625,-0.22026655273437498,31.0,-53.45038167938932,49.396946564885496
6282010571352,8.366712758,2,-2.4756045166015626,-7.230489013671875,-0.4369418029785156,-93.46564885496183,-100.42748091603053,66.46564885496183
6282020565831,8.376707237,2,-3.5613749694824217,-7.096413720703125,-1.2629413757324217,-54.9236641221374,-152.0381679389313,43.58015267175573
6282030560727,8.386702133,2,-3.356670727539062,-7.0269818725585935,-2.1619640991210938,25.114503816793892,-176.82442748091603,29.610687022900763
6282040546039,8.396687445,2,-3.361459130859375,-7.117961535644531,-2.9185318237304685,32.152671755725194,-177.74045801526717,33.3587786259542
6282050561664,8.40670307,2,-4.294000677490234,-7.416039642333984,-3.1651345947265623,-6.137404580152672,-147.95419847328245,49.48854961832061
6282060549060,8.416690466,2,-5.15830747680664,-8.526949212646484,-3.5027170288085934,-12.67175572519084,-110.32824427480917,79.46564885496183
6282070546456,8.426687862,2,-6.713341455078124,-9.096769207763671,-2.8095956481933593,36.06106870229008,-50.10687022900763,96.54198473282443
6282080578904,8.43672031,2,-6.215347509765625,-10.687716210937499,-2.8514941772460936,63.67175572519084,-13.954198473282442,112.23664122137404
6282090556872,8.446698278,2,-8.24203921508789,-11.347318768310545,-2.1224597717285154,73.5114503816794,-4.297709923664122,117.62595419847328
6282100554841,8.456696247,2,-8.39526812133789,-13.196839550781249,-1.341950030517578,95.10687022900764,68.22137404580153,135.09923664122138
6282110549424,8.46669083,2,-9.549273321533203,-13.844471099853514,-0.0383072265625,133.61068702290078,120.77099236641222,125.97709923664122
6282120549320,8.476690726,2,-10.020931048583984,-14.762647436523437,1.322796417236328,126.33587786259542,170.0916030534351,111.98473282442748
6282130548018,8.486689424,2,-10.625466967773438,-14.654908361816405,2.7665000183105466,92.19083969465649,196.54198473282443,67.38167938931298
6282140550570,8.496691976,2,-9.69771382446289,-14.519635968017576,3.6547488342285153,39.76335877862596,197.87786259541986,14.335877862595419
6282150555674,8.50669708,2,-7.625532287597656,-13.293804718017578,3.9037458068847655,-13.83969465648855,163.22137404580153,-57.51908396946565
6282160563435,8.516704841,2,-7.173028173828125,-10.48301196899414,3.897760302734375,-74.62595419847328,108.96946564885496,-120.51908396946565
6282170554216,8.526695622,2,-5.680243438720702,-8.699331732177734,3.3482910217285156,-125.12213740458016,46.93893129770992,-144.93129770992365
6282180561351,8.536702757,2,-4.149151477050781,-7.331045483398437,2.2385785522460937,-113.33587786259542,-25.64885496183206,-146.4732824427481
6282190554945,8.546696351,2,-3.7409400939941406,-6.062118603515625,0.7996633544921875,-85.19083969465649,-96.73282442748092,-128.49618320610688
6282200555831,8.556697237,2,-3.2812533752441406,-6.060921502685546,-0.48722003784179685,-77.94656488549619,-127.78625954198473,-90.29007633587786
6282210552862,8.566694268,2,-3.1364041748046874,-6.284779357910156,-1.3850456604003905,-69.87786259541984,-136.12977099236642,-55.267175572519086
6282220556039,8.576697445,2,-3.0609868225097654,-6.981492041015625,-2.024297503662109,-45.23664122137404,-107.93893129770993,-32.31297709923664
6282230542810,8.586684216,2,-2.9843723693847655,-7.241262921142578,-2.5941174987792968,-20.52671755725191,-107.78625954198473,-25.49618320610687
