timestamp_ns,t_s,sensor_id,ax,ay,az,gx,gy,gz
5292529696469,0.1709075,1,0.2885013000488281,1.7178396911621092,-11.200075366210937,-0.732824427480916,0.5572519083969466,-1.3969465648854962
5292536327354,0.177538385,1,0.1879448303222656,1.7094599853515624,-11.233594189453123,-0.816793893129771,0.5877862595419847,-1.2366412213740459
5292542990427,0.184201458,1,0.1927332336425781,1.7477672119140624,-11.150994232177734,-0.8549618320610687,0.5954198473282443,-1.3358778625954197
5292549654437,0.190865468,1,0.1927332336425781,1.7477672119140624,-11.139023223876952,-0.8396946564885496,0.549618320610687,-1.3206106870229009
5292556323448,0.197534479,1,0.2825157958984375,1.7513585144042967,-11.139023223876952,-0.8091603053435115,0.7480916030534351,-1.3740458015267176
5292562986989,0.20419802,1,0.24181436767578124,1.7226280944824217,-11.251550701904296,-0.8091603053435115,0.6641221374045801,-1.3129770992366412
5292569651260,0.210862291,1,0.21068974609375,1.7717092285156248,-11.174936248779296,-0.8015267175572519,0.6641221374045801,-1.3511450381679388
5292576324958,0.217535989,1,0.1867477294921875,1.7238251953125,-11.171344946289063,-0.7557251908396947,0.5954198473282443,-1.3511450381679388
5292582985114,0.224196145,1,0.201112939453125,1.7166425903320313,-11.218031878662108,-0.816793893129771,0.6259541984732825,-1.3511450381679388
5292589652719,0.23086375,1,0.18914193115234373,1.7322049011230467,-11.183315954589844,-0.7786259541984732,0.6259541984732825,-1.297709923664122
5292596323344,0.237534375,1,0.18914193115234373,1.7417817077636717,-11.166556542968749,-0.7786259541984732,0.5190839694656488,-1.381679389312977
5292602984958,0.244195989,1,0.21906945190429686,1.7130512878417967,-11.19887826538086,-0.8396946564885496,0.5114503816793893,-1.2748091603053435
5292609654021,0.250865052,1,0.2346317626953125,1.7657237243652342,-11.143811627197264,-0.8091603053435115,0.549618320610687,-1.3435114503816794
5292616323812,0.257534843,1,0.2609679809570312,1.725022296142578,-11.180921752929686,-0.8244274809160306,0.5419847328244275,-1.3129770992366412
5292622984333,0.264195364,1,0.2454056701660156,1.7082628845214842,-11.14022032470703,-0.9007633587786259,0.5419847328244275,-1.3053435114503817
5292629652510,0.270863541,1,0.21787235107421873,1.7262193969726563,-11.227608685302734,-0.8091603053435115,0.5114503816793893,-1.282442748091603
5292636321989,0.27753302,1,0.29089550170898437,1.7549498168945312,-11.19169566040039,-0.816793893129771,0.5648854961832062,-1.2595419847328244
5292642985583,0.284196614,1,0.19512743530273435,1.7310078002929687,-11.161768139648437,-0.8015267175572519,0.6717557251908397,-1.3511450381679388
5292649653344,0.290864375,1,0.22864625854492185,1.7501614135742187,-11.143811627197264,-0.8091603053435115,0.5725190839694656,-1.2900763358778626
5292656322041,0.297533072,1,0.20470424194335937,1.7561469177246092,-11.123460913085937,-0.7938931297709924,0.5419847328244275,-1.366412213740458
5292662987510,0.304198541,1,0.23822306518554687,1.7681179260253905,-11.204863769531249,-0.8320610687022901,0.5877862595419847,-1.3358778625954197
5292669652041,0.310863072,1,0.26336218261718747,1.744175909423828,-11.209652172851563,-0.7938931297709924,0.6259541984732825,-1.3282442748091603
5292676321052,0.317532083,1,0.19512743530273435,1.753752716064453,-11.17852755126953,-0.8015267175572519,0.5572519083969466,-1.3206106870229009
5292682986989,0.32419802,1,0.20470424194335937,1.7681179260253905,-11.168950744628905,-0.8320610687022901,0.5954198473282443,-1.3740458015267176
5292689652979,0.33086401,1,0.20470424194335937,1.7238251953125,-11.173739147949219,-0.7709923664122137,0.5267175572519084,-1.3358778625954197
5292696321052,0.337532083,1,0.22026655273437498,1.7238251953125,-11.146205828857422,-0.8320610687022901,0.4961832061068702,-1.3206106870229009
5292702985791,0.344196822,1,0.22385785522460935,1.6747440612792968,-11.146205828857422,-0.9007633587786259,0.6717557251908397,-1.3358778625954197
5292709653604,0.350864635,1,0.239420166015625,1.7238251953125,-11.180921752929686,-0.9007633587786259,0.5419847328244275,-1.282442748091603
5292716321469,0.3575325,1,0.27293898925781246,1.68551796875,-11.226411584472656,-0.7557251908396947,0.5419847328244275,-1.3435114503816794
5292722987927,0.364198958,1,0.24899697265624998,1.707065783691406,-11.202469567871093,-0.8015267175572519,0.5725190839694656,-1.3435114503816794
5292729652771,0.370863802,1,0.19512743530273435,1.7609353210449217,-11.212046374511718,-0.8854961832061069,0.6183206106870229,-1.366412213740458
5292736320791,0.377531822,1,0.22744915771484372,1.7298106994628906,-11.202469567871093,-0.7786259541984732,0.5190839694656488,-1.2595419847328244
5292742987250,0.384198281,1,0.20949264526367187,1.715445489501953,-11.171344946289063,-0.8015267175572519,0.5801526717557252,-1.213740458015267
5292749654073,0.390865104,1,0.21068974609375,1.7334020019531249,-11.194089862060546,-0.8320610687022901,0.6564885496183206,-1.3053435114503817
5292756323135,0.397534166,1,0.20709844360351562,1.714248388671875,-11.195286962890624,-0.7709923664122137,0.5954198473282443,-1.3587786259541985
5292762986833,0.404197864,1,0.20470424194335937,1.7310078002929687,-11.261127508544922,-0.7938931297709924,0.6030534351145038,-1.3206106870229009
5292769651052,0.410862083,1,0.22266075439453123,1.6998831787109374,-11.168950744628905,-0.8473282442748091,0.549618320610687,-1.3282442748091603
5292776323135,0.417534166,1,0.2166752502441406,1.7226280944824217,-11.164162341308593,-0.7862595419847328,0.5877862595419847,-1.3053435114503817
5292782986416,0.424197447,1,0.18315642700195311,1.7166425903320313,-11.197681164550781,-0.8702290076335878,0.6259541984732825,-1.3740458015267176
5292789652250,0.430863281,1,0.20949264526367187,1.7202338928222656,-11.215637677001952,-0.7938931297709924,0.549618320610687,-1.3358778625954197
5292796322146,0.437533177,1,0.21308394775390624,1.7286135986328124,-11.209652172851563,-0.7251908396946565,0.5725190839694656,-1.282442748091603
5292802986625,0.444197656,1,0.24301146850585936,1.7489643127441405,-11.182118853759764,-0.8778625954198473,0.5572519083969466,-1.3129770992366412
5292809652146,0.450863177,1,0.229843359375,1.7286135986328124,-11.088744989013671,-0.7709923664122137,0.6030534351145038,-1.3282442748091603
5292816322093,0.457533124,1,0.16639701538085935,1.7884686401367187,-11.258733306884764,-0.7862595419847328,0.5267175572519084,-1.3358778625954197
5292822986208,0.464197239,1,0.24301146850585936,1.7525556152343749,-11.170147845458983,-0.816793893129771,0.6183206106870229,-1.3053435114503817
5292829652302,0.470863333,1,0.24301146850585936,1.697488977050781,-11.133037719726563,-0.7862595419847328,0.4961832061068702,-1.282442748091603
5292836321885,0.477532916,1,0.229843359375,1.697488977050781,-11.159373937988281,-0.816793893129771,0.6183206106870229,-1.3435114503816794
5292842985427,0.484196458,1,0.2454056701660156,1.7010802795410156,-11.159373937988281,-0.816793893129771,0.5877862595419847,-1.3969465648854962
5292849655218,0.490866249,1,0.20470424194335937,1.734599102783203,-11.186907257080078,-0.816793893129771,0.5725190839694656,-1.366412213740458
5292856323291,0.497534322,1,0.18076222534179687,1.7501614135742187,-11.186907257080078,-0.7633587786259542,0.5725190839694656,-1.3129770992366412
5292862987979,0.50419901,1,0.22505495605468748,1.7453730102539062,-11.194089862060546,-0.7938931297709924,0.4961832061068702,-1.3129770992366412
5292869653239,0.51086427,1,0.23702596435546874,1.7357962036132812,-11.184513055419922,-0.8015267175572519,0.5877862595419847,-1.3206106870229009
5292876322927,0.517533958,1,0.2657563842773437,1.7190367919921874,-11.174936248779296,-0.7175572519083969,0.6717557251908397,-1.3282442748091603
5292882985427,0.524196458,1,0.3076549133300781,1.7621324218749999,-11.176133349609374,-0.8473282442748091,0.549618320610687,-1.3587786259541985
5292889650375,0.530861406,1,0.23223756103515625,1.7381904052734374,-11.1474029296875,-0.8473282442748091,0.4580152671755725,-1.3511450381679388
5292896322614,0.537533645,1,0.19153613281249998,1.6998831787109374,-11.165359442138671,-0.7709923664122137,0.5801526717557252,-1.297709923664122
5292902995948,0.544206979,1,0.21428104858398436,1.7298106994628906,-11.135431921386719,-0.8320610687022901,0.44274809160305345,-1.3893129770992367
5292909658291,0.550869322,1,0.22864625854492185,1.7082628845214842,-11.186907257080078,-0.8091603053435115,0.6412213740458015,-1.297709923664122
5292916328187,0.557539218,1,0.2609679809570312,1.7657237243652342,-11.228805786132812,-0.7862595419847328,0.5419847328244275,-1.3282442748091603
5292922985375,0.564196406,1,0.25139117431640623,1.7489643127441405,-11.221623181152344,-0.7709923664122137,0.5190839694656488,-1.3129770992366412
5292929653135,0.570864166,1,0.2059013427734375,1.753752716064453,-11.14022032470703,-0.8625954198473282,0.6259541984732825,-1.3358778625954197
5292936323656,0.577534687,1,0.26695348510742184,1.6998831787109374,-11.137826123046874,-0.8015267175572519,0.5877862595419847,-1.366412213740458
5292942986781,0.584197812,1,0.20350714111328125,1.7453730102539062,-11.150994232177734,-0.7786259541984732,0.5343511450381679,-1.3511450381679388
5292949653343,0.590864374,1,0.229843359375,1.7286135986328124,-11.218031878662108,-0.8396946564885496,0.48854961832061067,-1.3053435114503817
5292956321000,0.597532031,1,0.20949264526367187,1.7238251953125,-11.235988391113281,-0.7557251908396947,0.48091603053435117,-1.3282442748091603
5292962985635,0.604196666,1,0.22505495605468748,1.7932570434570312,-11.158176837158203,-0.7633587786259542,0.5114503816793893,-1.2671755725190839
5292969653135,0.610864166,1,0.22864625854492185,1.6927005737304686,-11.18571015625,-0.8473282442748091,0.5190839694656488,-1.3129770992366412
5292976320479,0.61753151,1,0.22864625854492185,1.7178396911621092,-11.201272467041015,-0.7404580152671756,0.6259541984732825,-1.381679389312977
5292982985583,0.624196614,1,0.23702596435546874,1.7178396911621092,-11.29344923095703,-0.7938931297709924,0.6870229007633588,-1.3053435114503817
5292989652718,0.630863749,1,0.239420166015625,1.7357962036132812,-11.14022032470703,-0.8244274809160306,0.6106870229007634,-1.3053435114503817
5292996320323,0.637531354,1,0.24061726684570311,1.7202338928222656,-11.215637677001952,-0.8244274809160306,0.5877862595419847,-1.297709923664122
5293002985739,0.64419677,1,0.229843359375,1.7178396911621092,-11.150994232177734,-0.8091603053435115,0.5877862595419847,-1.3206106870229009
5293009652614,0.650863645,1,0.21428104858398436,1.7298106994628906,-11.176133349609374,-0.9083969465648855,0.5725190839694656,-1.3206106870229009
5293016320895,0.657531926,1,0.19632453613281248,1.715445489501953,-11.202469567871093,-0.8702290076335878,0.6106870229007634,-1.3282442748091603
5293022986625,0.664197656,1,0.22266075439453123,1.7010802795410156,-11.183315954589844,-0.7938931297709924,0.5648854961832062,-1.3587786259541985
5293029652250,0.670863281,1,0.18435352783203124,1.7082628845214842,-11.154585534667968,-0.9083969465648855,0.5419847328244275,-1.282442748091603
5293036323083,0.677534114,1,0.2166752502441406,1.6711527587890624,-11.195286962890624,-0.8854961832061069,0.5954198473282443,-1.2748091603053435
5293042986416,0.684197447,1,0.2166752502441406,1.7357962036132812,-11.194089862060546,-0.7175572519083969,0.5038167938931297,-1.2671755725190839
5293049650843,0.690861874,1,0.229843359375,1.696291876220703,-11.137826123046874,-0.7938931297709924,0.5648854961832062,-1.3358778625954197
5293056320739,0.69753177,1,0.24660277099609373,1.725022296142578,-11.24915650024414,-0.8015267175572519,0.5877862595419847,-1.3206106870229009
5293062985739,0.70419677,1,0.28012159423828126,1.753752716064453,-11.188104357910156,-0.7786259541984732,0.6183206106870229,-1.3129770992366412
5293069651104,0.710862135,1,0.258573779296875,1.7310078002929687,-11.17852755126953,-0.8778625954198473,0.549618320610687,-1.3511450381679388
5293076321573,0.717532604,1,0.2609679809570312,1.7310078002929687,-11.214440576171874,-0.732824427480916,0.4732824427480916,-1.3511450381679388
5293082986208,0.724197239,1,0.22744915771484372,1.7501614135742187,-11.167753643798827,-0.7862595419847328,0.5267175572519084,-1.3358778625954197
5293089651312,0.730862343,1,0.2454056701660156,1.725022296142578,-11.117475408935546,-0.9312977099236641,0.6106870229007634,-1.3129770992366412
5293096323239,0.73753427,1,0.2657563842773437,1.7429788085937499,-11.110292803955078,-0.7633587786259542,0.5114503816793893,-1.3358778625954197
5293102985635,0.744196666,1,0.19991583862304688,1.7214309936523438,-11.119869610595703,-0.8320610687022901,0.5419847328244275,-1.2748091603053435
5293109651520,0.750862551,1,0.22385785522460935,1.7393875061035156,-11.166556542968749,-0.816793893129771,0.5114503816793893,-1.2748091603053435
5293116319385,0.757530416,1,0.22385785522460935,1.763329522705078,-11.162965240478515,-0.7862595419847328,0.4961832061068702,-1.3282442748091603
5293122984229,0.76419526,1,0.20231004028320312,1.763329522705078,-11.207257971191405,-0.7862595419847328,0.549618320610687,-1.2748091603053435
5293129652979,0.77086401,1,0.23343466186523437,1.7226280944824217,-11.207257971191405,-0.7862595419847328,0.5877862595419847,-1.381679389312977
5293136321260,0.777532291,1,0.2549824768066406,1.7369933044433592,-11.128249316406249,-0.7862595419847328,0.6259541984732825,-1.4045801526717556
5293142983864,0.784194895,1,0.1975216369628906,1.7800889343261719,-11.189301458740234,-0.7404580152671756,0.6259541984732825,-1.3358778625954197
5293149651625,0.790862656,1,0.21068974609375,1.7573440185546874,-11.183315954589844,-0.8244274809160306,0.5801526717557252,-1.3358778625954197
5293156321781,0.797532812,1,0.2262520568847656,1.7705121276855467,-11.17852755126953,-0.8015267175572519,0.4961832061068702,-1.3358778625954197
5293162985270,0.804196301,1,0.2346317626953125,1.7130512878417967,-11.202469567871093,-0.8549618320610687,0.48091603053435117,-1.2366412213740459
5293169651729,0.81086276,1,0.21787235107421873,1.6747440612792968,-11.165359442138671,-0.8473282442748091,0.4580152671755725,-1.3587786259541985
5293176321468,0.817532499,1,0.2166752502441406,1.725022296142578,-11.194089862060546,-0.8473282442748091,0.6641221374045801,-1.3435114503816794
5293182985635,0.824196666,1,0.21068974609375,1.7405846069335937,-11.247959399414063,-0.7786259541984732,0.4961832061068702,-1.3206106870229009
5293189653395,0.830864426,1,0.2885013000488281,1.7549498168945312,-11.19887826538086,-0.8473282442748091,0.5725190839694656,-1.3206106870229009
5293196321260,0.837532291,1,0.20470424194335937,1.714248388671875,-11.161768139648437,-0.8320610687022901,0.6106870229007634,-1.3206106870229009
5293202986833,0.844197864,1,0.1771709228515625,1.725022296142578,-11.156979736328124,-0.7404580152671756,0.6106870229007634,-1.2366412213740459
5293209653395,0.850864426,1,0.22385785522460935,1.7513585144042967,-11.142614526367186,-0.8625954198473282,0.46564885496183206,-1.3053435114503817
5293216319385,0.857530416,1,0.20350714111328125,1.7741034301757812,-11.192892761230468,-0.8244274809160306,0.549618320610687,-1.2900763358778626
5293222985895,0.864196926,1,0.27892449340820313,1.7369933044433592,-11.164162341308593,-0.7557251908396947,0.4961832061068702,-1.3129770992366412
5293229651885,0.870862916,1,0.28371289672851563,1.7118541870117185,-11.206060870361327,-0.9312977099236641,0.6106870229007634,-1.2748091603053435
5293236319906,0.877530937,1,0.21787235107421873,1.734599102783203,-11.2240173828125,-0.8778625954198473,0.5954198473282443,-1.366412213740458
5293242987145,0.884198176,1,0.2597708801269531,1.7369933044433592,-11.161768139648437,-0.7633587786259542,0.4961832061068702,-1.3740458015267176
5293249651833,0.890862864,1,0.21787235107421873,1.7178396911621092,-11.207257971191405,-0.8320610687022901,0.6106870229007634,-1.3282442748091603
5293256321208,0.897532239,1,0.1879448303222656,1.7190367919921874,-11.186907257080078,-0.8473282442748091,0.6106870229007634,-1.3435114503816794
5293262986000,0.904197031,1,0.1879448303222656,1.7669208251953124,-11.171344946289063,-0.8091603053435115,0.5877862595419847,-1.3358778625954197
5293269656000,0.910867031,1,0.1975216369628906,1.7669208251953124,-11.033678350830078,-0.8549618320610687,0.6183206106870229,-1.3129770992366412
5293276321572,0.917532603,1,0.21068974609375,1.7166425903320313,-11.186907257080078,-0.7938931297709924,0.5954198473282443,-1.3358778625954197
5293282989958,0.924200989,1,0.2214636535644531,1.7190367919921874,-11.190498559570312,-0.7938931297709924,0.48854961832061067,-1.381679389312977
5293289655010,0.930866041,1,0.24779987182617186,1.7298106994628906,-11.263521710205078,-0.7709923664122137,0.48854961832061067,-1.3282442748091603
5293296329229,0.93754026,1,0.21188684692382811,1.7429788085937499,-11.12226381225586,-0.8931297709923665,0.6259541984732825,-1.3282442748091603
5293302987510,0.944198541,1,0.24779987182617186,1.7262193969726563,-11.174936248779296,-0.9083969465648855,0.5114503816793893,-1.3282442748091603
5293309650322,0.950861353,1,0.24181436767578124,1.7214309936523438,-11.189301458740234,-0.7786259541984732,0.5419847328244275,-1.3206106870229009
5293316323187,0.957534218,1,0.20350714111328125,1.7501614135742187,-11.206060870361327,-0.8473282442748091,0.5114503816793893,-1.366412213740458
5293322985635,0.964196666,1,0.21428104858398436,1.7621324218749999,-11.220426080322264,-0.8091603053435115,0.5648854961832062,-1.3053435114503817
5293329651468,0.970862499,1,0.22385785522460935,1.7800889343261719,-11.17852755126953,-0.7786259541984732,0.5725190839694656,-1.3129770992366412
5293336322302,0.977533333,1,0.22744915771484372,1.7609353210449217,-11.166556542968749,-0.9465648854961832,0.6183206106870229,-1.3053435114503817
5293342985791,0.984196822,1,0.229843359375,1.7429788085937499,-11.158176837158203,-0.816793893129771,0.6030534351145038,-1.3053435114503817
5293349651729,0.99086276,1,0.2561795776367187,1.734599102783203,-11.24915650024414,-0.6946564885496184,0.48854961832061067,-1.2748091603053435
5293356322406,0.997533437,1,0.23343466186523437,1.734599102783203,-11.2240173828125,-0.8244274809160306,0.5954198473282443,-1.3511450381679388
5293362985895,1.004196926,1,0.20829554443359374,1.734599102783203,-11.159373937988281,-0.8702290076335878,0.5954198473282443,-1.282442748091603
5293369647770,1.010858801,1,0.19991583862304688,1.7944541442871094,-11.16057103881836,-0.7557251908396947,0.5648854961832062,-1.3435114503816794
5293376321729,1.01753276,1,0.22026655273437498,1.7214309936523438,-11.182118853759764,-0.8549618320610687,0.6030534351145038,-1.3129770992366412
5293382986572,1.024197603,1,0.23223756103515625,1.7657237243652342,-11.194089862060546,-0.7480916030534351,0.48091603053435117,-1.2900763358778626
5293389651052,1.030862083,1,0.22864625854492185,1.7585411193847655,-11.17254204711914,-0.816793893129771,0.5267175572519084,-1.2900763358778626
5293396322458,1.037533489,1,0.23582886352539062,1.7429788085937499,-11.141417425537108,-0.8778625954198473,0.5572519083969466,-1.3435114503816794
5293402984697,1.044195728,1,0.23582886352539062,1.7226280944824217,-11.262324609375,-0.816793893129771,0.5190839694656488,-1.3435114503816794
5293409652510,1.050863541,1,0.22505495605468748,1.7226280944824217,-11.143811627197264,-0.816793893129771,0.6259541984732825,-1.3435114503816794
5293416323395,1.057534426,1,0.18435352783203124,1.7381904052734374,-11.143811627197264,-0.8244274809160306,0.648854961832061,-1.3206106870229009
5293422982979,1.06419401,1,0.1879448303222656,1.7262193969726563,-11.184513055419922,-0.8244274809160306,0.5267175572519084,-1.3129770992366412
5293429651677,1.070862708,1,0.24779987182617186,1.6891092712402342,-11.269507214355468,-0.7786259541984732,0.5267175572519084,-1.3435114503816794
5293436321677,1.077532708,1,0.2597708801269531,1.6771382629394531,-11.207257971191405,-0.7709923664122137,0.5190839694656488,-1.3435114503816794
5293442982770,1.084193801,1,0.1640028137207031,1.697488977050781,-11.251550701904296,-0.7557251908396947,0.5343511450381679,-1.3435114503816794
5293449652979,1.09086401,1,0.20231004028320312,1.7609353210449217,-11.186907257080078,-0.7480916030534351,0.48091603053435117,-1.3511450381679388
5293456322562,1.097533593,1,0.2765302917480469,1.7405846069335937,-11.176133349609374,-0.7709923664122137,0.5419847328244275,-1.2595419847328244
5293462984229,1.10419526,1,0.23702596435546874,1.7178396911621092,-11.202469567871093,-0.8320610687022901,0.549618320610687,-1.3206106870229009
5293469653708,1.110864739,1,0.26336218261718747,1.678335363769531,-11.166556542968749,-0.8244274809160306,0.5038167938931297,-1.297709923664122
5293476322927,1.117533958,1,0.23822306518554687,1.707065783691406,-11.143811627197264,-0.8854961832061069,0.5572519083969466,-1.4122137404580153
5293482986364,1.124197395,1,0.19871873779296872,1.7130512878417967,-11.192892761230468,-0.7404580152671756,0.5801526717557252,-1.3740458015267176
5293489651833,1.130862864,1,0.21188684692382811,1.7357962036132812,-11.162965240478515,-0.7938931297709924,0.48091603053435117,-1.3358778625954197
5293496321260,1.137532291,1,0.18555062866210936,1.7609353210449217,-11.141417425537108,-0.8549618320610687,0.5572519083969466,-1.2442748091603053
5293502985374,1.144196405,1,0.20829554443359374,1.7477672119140624,-11.15338843383789,-0.7938931297709924,0.5877862595419847,-1.4198473282442747
5293509653447,1.150864478,1,0.239420166015625,1.695094775390625,-11.190498559570312,-0.8396946564885496,0.5801526717557252,-1.3740458015267176
5293516320531,1.157531562,1,0.20949264526367187,1.7573440185546874,-11.19169566040039,-0.8778625954198473,0.48854961832061067,-1.2213740458015268
5293522983968,1.164194999,1,0.2154781494140625,1.7597382202148437,-11.204863769531249,-0.8091603053435115,0.5877862595419847,-1.3587786259541985
5293529652562,1.170863593,1,0.2537853759765625,1.753752716064453,-11.146205828857422,-0.7404580152671756,0.48854961832061067,-1.282442748091603
5293536320895,1.177531926,1,0.26336218261718747,1.7262193969726563,-11.184513055419922,-0.9541984732824428,0.5648854961832062,-1.3511450381679388
5293542986677,1.184197708,1,0.21428104858398436,1.6986860778808592,-11.182118853759764,-0.8244274809160306,0.5648854961832062,-1.3587786259541985
5293549652145,1.190863176,1,0.21428104858398436,1.7226280944824217,-11.141417425537108,-0.7633587786259542,0.5038167938931297,-1.297709923664122
5293556321520,1.197532551,1,0.20470424194335937,1.7226280944824217,-11.058817468261719,-0.8473282442748091,0.6030534351145038,-1.3435114503816794
5293562986729,1.20419776,1,0.2561795776367187,1.6998831787109374,-11.212046374511718,-0.8015267175572519,0.5877862595419847,-1.3053435114503817
5293569652562,1.210863593,1,0.21068974609375,1.7453730102539062,-11.167753643798827,-0.8015267175572519,0.5038167938931297,-1.3053435114503817
5293576323604,1.217534635,1,0.1927332336425781,1.725022296142578,-11.154585534667968,-0.7480916030534351,0.5038167938931297,-1.3511450381679388
5293582986364,1.224197395,1,0.27174188842773433,1.734599102783203,-11.128249316406249,-0.9007633587786259,0.5954198473282443,-1.3511450381679388
5293589649437,1.230860468,1,0.23702596435546874,1.725022296142578,-11.235988391113281,-0.7480916030534351,0.6183206106870229,-1.3129770992366412
5293596320947,1.237531978,1,0.258573779296875,1.7609353210449217,-11.196484063720703,-0.8396946564885496,0.549618320610687,-1.3206106870229009
5293602986468,1.244197499,1,0.26216508178710934,1.7453730102539062,-11.228805786132812,-0.8778625954198473,0.5954198473282443,-1.3435114503816794
5293609650947,1.250861978,1,0.19991583862304688,1.7310078002929687,-11.17852755126953,-0.7404580152671756,0.5343511450381679,-1.3358778625954197
5293616321572,1.257532603,1,0.21308394775390624,1.70467158203125,-11.164162341308593,-0.816793893129771,0.5267175572519084,-1.3358778625954197
5293622984749,1.26419578,1,0.20709844360351562,1.7501614135742187,-11.188104357910156,-0.8244274809160306,0.6106870229007634,-1.2900763358778626
5293629651781,1.270862812,1,0.27293898925781246,1.7453730102539062,-11.097124694824219,-0.7404580152671756,0.5114503816793893,-1.3587786259541985
5293636329749,1.27754078,1,0.20709844360351562,1.7525556152343749,-11.165359442138671,-0.8854961832061069,0.5725190839694656,-1.3435114503816794
5293642987562,1.284198593,1,0.24660277099609373,1.744175909423828,-11.152191333007812,-0.8931297709923665,0.5877862595419847,-1.3053435114503817
5293649651520,1.290862551,1,0.2154781494140625,1.7262193969726563,-11.208455072021483,-0.816793893129771,0.46564885496183206,-1.3282442748091603
5293656325270,1.297536301,1,0.22385785522460935,1.734599102783203,-11.174936248779296,-0.916030534351145,0.6641221374045801,-1.2595419847328244
5293662985010,1.304196041,1,0.23343466186523437,1.7501614135742187,-11.227608685302734,-0.8396946564885496,0.6030534351145038,-1.3129770992366412
5293669653551,1.310864582,1,0.19871873779296872,1.753752716064453,-11.111489904785156,-0.7404580152671756,0.5572519083969466,-1.3358778625954197
5293676329749,1.31754078,1,0.25737667846679685,1.772906329345703,-11.18571015625,-0.8091603053435115,0.5114503816793893,-1.2748091603053435
5293682986468,1.324197499,1,0.22266075439453123,1.725022296142578,-11.130643518066405,-0.816793893129771,0.648854961832061,-1.381679389312977
5293689653343,1.330864374,1,0.22266075439453123,1.7669208251953124,-11.177330450439452,-0.7938931297709924,0.5572519083969466,-1.3511450381679388
5293696322093,1.337533124,1,0.2657563842773437,1.7669208251953124,-11.16057103881836,-0.9007633587786259,0.5572519083969466,-1.3206106870229009
5293702984854,1.344195885,1,0.19393033447265623,1.7298106994628906,-11.16057103881836,-0.8778625954198473,0.6106870229007634,-1.366412213740458
5293709651624,1.350862655,1,0.20829554443359374,1.7393875061035156,-11.171344946289063,-0.8778625954198473,0.5877862595419847,-1.3740458015267176
5293716323031,1.357534062,1,0.20470424194335937,1.7034744812011717,-11.162965240478515,-0.7557251908396947,0.5877862595419847,-1.282442748091603
5293722983343,1.364194374,1,0.2501940734863281,1.7357962036132812,-11.190498559570312,-0.8473282442748091,0.5801526717557252,-1.282442748091603
5293729651937,1.370862968,1,0.19991583862304688,1.6986860778808592,-11.148600030517578,-0.7251908396946565,0.6106870229007634,-1.3893129770992367
5293736323864,1.377534895,1,0.21188684692382811,1.7465701110839842,-11.184513055419922,-0.8091603053435115,0.549618320610687,-1.3740458015267176
5293742985895,1.384196926,1,0.21188684692382811,1.7322049011230467,-11.141417425537108,-0.8702290076335878,0.6183206106870229,-1.3740458015267176
5293749651729,1.39086276,1,0.23822306518554687,1.744175909423828,-11.183315954589844,-0.8396946564885496,0.6259541984732825,-1.3893129770992367
5293756320791,1.397531822,1,0.22864625854492185,1.7393875061035156,-11.209652172851563,-0.7862595419847328,0.48854961832061067,-1.2061068702290076
5293762984176,1.404195207,1,0.22744915771484372,1.7310078002929687,-11.18571015625,-0.8473282442748091,0.549618320610687,-1.3358778625954197
5293769653291,1.410864322,1,0.24660277099609373,1.7286135986328124,-11.225214483642578,-0.7557251908396947,0.5190839694656488,-1.3053435114503817
5293776320322,1.417531353,1,0.2214636535644531,1.7118541870117185,-11.161768139648437,-0.8091603053435115,0.5877862595419847,-1.2748091603053435
5293782985479,1.42419651,1,0.28371289672851563,1.6579846496582031,-11.182118853759764,-0.8854961832061069,0.5954198473282443,-1.2900763358778626
5293789652614,1.430863645,1,0.23343466186523437,1.7393875061035156,-11.190498559570312,-0.7862595419847328,0.6259541984732825,-1.2442748091603053
5293796320270,1.437531301,1,0.20231004028320312,1.7669208251953124,-11.188104357910156,-0.8091603053435115,0.48854961832061067,-1.2748091603053435
5293802985479,1.44419651,1,0.2561795776367187,1.70467158203125,-11.25514200439453,-0.8473282442748091,0.5954198473282443,-1.3435114503816794
5293809651312,1.450862343,1,0.2657563842773437,1.7178396911621092,-11.218031878662108,-0.7404580152671756,0.4732824427480916,-1.3358778625954197
5293816320739,1.45753177,1,0.22864625854492185,1.7621324218749999,-11.220426080322264,-0.8473282442748091,0.5038167938931297,-1.2442748091603053
5293822984072,1.464195103,1,0.19153613281249998,1.6998831787109374,-11.214440576171874,-0.8320610687022901,0.6183206106870229,-1.282442748091603
5293829652770,1.470863801,1,0.1771709228515625,1.7525556152343749,-11.17852755126953,-0.7557251908396947,0.6106870229007634,-1.366412213740458
5293836324541,1.477535572,1,0.1771709228515625,1.7525556152343749,-11.204863769531249,-0.8015267175572519,0.648854961832061,-1.251908396946565
5293842987458,1.484198489,1,0.24181436767578124,1.7525556152343749,-11.196484063720703,-0.8854961832061069,0.648854961832061,-1.3206106870229009
5293849650478,1.490861509,1,0.23582886352539062,1.7609353210449217,-11.196484063720703,-0.732824427480916,0.549618320610687,-1.2900763358778626
5293856321885,1.497532916,1,0.21428104858398436,1.7405846069335937,-11.162965240478515,-0.732824427480916,0.48854961832061067,-1.3282442748091603
5293862986676,1.504197707,1,0.20949264526367187,1.7405846069335937,-11.141417425537108,-0.8244274809160306,0.48854961832061067,-1.3282442748091603
5293869650166,1.510861197,1,0.24779987182617186,1.7417817077636717,-11.239579693603515,-0.816793893129771,0.549618320610687,-1.3282442748091603
5293876321885,1.517532916,1,0.22266075439453123,1.763329522705078,-11.213243475341796,-0.7786259541984732,0.5267175572519084,-1.282442748091603
5293882983395,1.524194426,1,0.21787235107421873,1.7334020019531249,-11.190498559570312,-0.8473282442748091,0.6183206106870229,-1.297709923664122
5293889651208,1.530862239,1,0.19393033447265623,1.7621324218749999,-11.197681164550781,-0.7633587786259542,0.6183206106870229,-1.3282442748091603
5293896323343,1.537534374,1,0.24899697265624998,1.7298106994628906,-11.165359442138671,-0.7709923664122137,0.5725190839694656,-1.3587786259541985
5293902985478,1.544196509,1,0.229843359375,1.7106570861816406,-11.213243475341796,-0.8396946564885496,0.5801526717557252,-1.3206106870229009
5293909649749,1.55086078,1,0.18435352783203124,1.707065783691406,-11.194089862060546,-0.8854961832061069,0.6335877862595419,-1.3206106870229009
5293916318447,1.557529478,1,0.17118541870117188,1.7226280944824217,-11.239579693603515,-0.816793893129771,0.4732824427480916,-1.3358778625954197
5293922985166,1.564196197,1,0.2549824768066406,1.7034744812011717,-11.180921752929686,-0.8320610687022901,0.6259541984732825,-1.3511450381679388
5293929651572,1.570862603,1,0.22266075439453123,1.7286135986328124,-11.161768139648437,-0.8549618320610687,0.5343511450381679,-1.297709923664122
5293936321468,1.577532499,1,0.21787235107421873,1.7573440185546874,-11.214440576171874,-0.816793893129771,0.5801526717557252,-1.3587786259541985
5293942983916,1.584194947,1,0.25258827514648435,1.7310078002929687,-11.17852755126953,-0.8702290076335878,0.6335877862595419,-1.3053435114503817
5293949651208,1.590862239,1,0.31004911499023435,1.7334020019531249,-11.165359442138671,-0.8320610687022901,0.549618320610687,-1.3129770992366412
5293956321624,1.597532655,1,0.2059013427734375,1.7501614135742187,-11.109095703125,-0.8931297709923665,0.5190839694656488,-1.297709923664122
5293962984020,1.604195051,1,0.19512743530273435,1.7393875061035156,-11.207257971191405,-0.8549618320610687,0.6030534351145038,-1.3282442748091603
5293969652458,1.610863489,1,0.2442085693359375,1.7082628845214842,-11.176133349609374,-0.8091603053435115,0.5343511450381679,-1.366412213740458
5293976322041,1.617533072,1,0.2442085693359375,1.734599102783203,-11.127052215576171,-0.7557251908396947,0.6335877862595419,-1.3129770992366412
5293982983343,1.624194374,1,0.19512743530273435,1.734599102783203,-11.197681164550781,-0.8854961832061069,0.6259541984732825,-1.3740458015267176
5293989653603,1.630864634,1,0.22266075439453123,1.7322049011230467,-11.197681164550781,-0.8320610687022901,0.4351145038167939,-1.3358778625954197
5293996323395,1.637534426,1,0.24061726684570311,1.7130512878417967,-11.13423482055664,-0.8320610687022901,0.5572519083969466,-1.3358778625954197
5294002991833,1.644202864,1,0.2693476867675781,1.705868682861328,-11.195286962890624,-0.7480916030534351,0.5572519083969466,-1.3129770992366412
5294009656103,1.650867134,1,0.2657563842773437,1.696291876220703,-11.176133349609374,-0.8244274809160306,0.549618320610687,-1.3129770992366412
5294016319593,1.657530624,1,0.201112939453125,1.7753005310058592,-11.245565197753905,-0.7633587786259542,0.5877862595419847,-1.3206106870229009
5294022986364,1.664197395,1,0.2537853759765625,1.714248388671875,-11.131840618896483,-0.7557251908396947,0.4732824427480916,-1.297709923664122
5294029655166,1.670866197,1,0.24301146850585936,1.7298106994628906,-11.180921752929686,-0.816793893129771,0.6030534351145038,-1.2900763358778626
5294036322562,1.677533593,1,0.21308394775390624,1.7334020019531249,-11.209652172851563,-0.7557251908396947,0.5877862595419847,-1.3282442748091603
5294042987041,1.684198072,1,0.229843359375,1.715445489501953,-11.264718811035156,-0.7404580152671756,0.48854961832061067,-1.2671755725190839
5294049655583,1.690866614,1,0.20709844360351562,1.7776947326660155,-11.150994232177734,-0.7709923664122137,0.5801526717557252,-1.3282442748091603
5294056327041,1.697538072,1,0.2537853759765625,1.7166425903320313,-11.167753643798827,-0.8320610687022901,0.5877862595419847,-1.366412213740458
5294062986937,1.704197968,1,0.23582886352539062,1.7405846069335937,-11.136629022216797,-0.7938931297709924,0.549618320610687,-1.251908396946565
5294069651208,1.710862239,1,0.2262520568847656,1.7525556152343749,-11.19887826538086,-0.8702290076335878,0.5572519083969466,-1.3511450381679388
5294076320843,1.717531874,1,0.20470424194335937,1.7609353210449217,-11.221623181152344,-0.8396946564885496,0.5801526717557252,-1.4198473282442747
5294082985322,1.724196353,1,0.2645592834472656,1.7741034301757812,-11.18571015625,-0.8473282442748091,0.5954198473282443,-1.3740458015267176
5294089653030,1.730864061,1,0.24779987182617186,1.7477672119140624,-11.196484063720703,-0.8931297709923665,0.5725190839694656,-1.297709923664122
5294096321416,1.737532447,1,0.18555062866210936,1.7022773803710936,-11.215637677001952,-0.7862595419847328,0.5419847328244275,-1.3129770992366412
5294102985687,1.744196718,1,0.21906945190429686,1.7286135986328124,-11.176133349609374,-0.8015267175572519,0.5572519083969466,-1.3511450381679388
5294109653708,1.750864739,1,0.21068974609375,1.7022773803710936,-11.206060870361327,-0.8244274809160306,0.5648854961832062,-1.3129770992366412
5294116322822,1.757533853,1,0.2861070983886719,1.7357962036132812,-11.16057103881836,-0.7862595419847328,0.6106870229007634,-1.381679389312977
5294122985947,1.764196978,1,0.2861070983886719,1.744175909423828,-11.228805786132812,-0.8320610687022901,0.5877862595419847,-1.3511450381679388
5294129650687,1.770861718,1,0.25737667846679685,1.744175909423828,-11.295843432617186,-0.8091603053435115,0.5954198473282443,-1.2366412213740459
5294136321416,1.777532447,1,0.2262520568847656,1.725022296142578,-11.142614526367186,-0.8473282442748091,0.5419847328244275,-1.3129770992366412
5294142986624,1.784197655,1,0.2214636535644531,1.7453730102539062,-11.213243475341796,-0.8473282442748091,0.5801526717557252,-1.3358778625954197
5294149652145,1.790863176,1,0.21906945190429686,1.707065783691406,-11.208455072021483,-0.9007633587786259,0.5801526717557252,-1.3435114503816794
5294156323030,1.797534061,1,0.24181436767578124,1.7034744812011717,-11.149797131347656,-0.8396946564885496,0.5343511450381679,-1.3435114503816794
5294162986520,1.804197551,1,0.21428104858398436,1.7525556152343749,-11.220426080322264,-0.8473282442748091,0.5343511450381679,-1.3587786259541985
5294169649853,1.810860884,1,0.21428104858398436,1.7489643127441405,-11.218031878662108,-0.8473282442748091,0.5572519083969466,-1.2595419847328244
5294176320322,1.817531353,1,0.2741360900878906,1.7956512451171873,-11.155782635498046,-0.8015267175572519,0.5648854961832062,-1.3206106870229009
5294182986260,1.824197291,1,0.20949264526367187,1.7202338928222656,-11.19169566040039,-0.6946564885496184,0.5877862595419847,-1.3587786259541985
5294189651624,1.830862655,1,0.277727392578125,1.7178396911621092,-11.110292803955078,-0.8015267175572519,0.6106870229007634,-1.2748091603053435
5294196321572,1.837532603,1,0.18076222534179687,1.714248388671875,-11.158176837158203,-0.8320610687022901,0.549618320610687,-1.3206106870229009
5294202986051,1.844197082,1,0.21428104858398436,1.7310078002929687,-11.225214483642578,-0.7480916030534351,0.5877862595419847,-1.282442748091603
5294209653083,1.850864114,1,0.23104046020507812,1.725022296142578,-11.259930407714844,-0.8931297709923665,0.6106870229007634,-1.3435114503816794
5294216322666,1.857533697,1,0.16041151123046873,1.7405846069335937,-11.21683477783203,-0.8702290076335878,0.5725190839694656,-1.3358778625954197
5294222983916,1.864194947,1,0.17836802368164062,1.7130512878417967,-11.194089862060546,-0.7251908396946565,0.5343511450381679,-1.2900763358778626
5294229651468,1.870862499,1,0.21068974609375,1.7369933044433592,-11.159373937988281,-0.8244274809160306,0.5725190839694656,-1.3129770992366412
5294236322041,1.877533072,1,0.21068974609375,1.687912170410156,-11.289857928466796,-0.8320610687022901,0.6106870229007634,-1.3740458015267176
5294242982874,1.884193905,1,0.22744915771484372,1.772906329345703,-11.133037719726563,-0.7480916030534351,0.5648854961832062,-1.3053435114503817
5294249653603,1.890864634,1,0.24061726684570311,1.7298106994628906,-11.148600030517578,-0.8702290076335878,0.6564885496183206,-1.3511450381679388
5294256322405,1.897533436,1,0.18315642700195311,1.744175909423828,-11.177330450439452,-0.7633587786259542,0.5801526717557252,-1.251908396946565
5294262984280,1.904195311,1,0.18315642700195311,1.6436194396972654,-11.21084927368164,-0.8015267175572519,0.5267175572519084,-1.297709923664122
5294269652093,1.910863124,1,0.23702596435546874,1.6436194396972654,-11.202469567871093,-0.8320610687022901,0.5954198473282443,-1.3587786259541985
5294276322926,1.917533957,1,0.24061726684570311,1.7381904052734374,-11.202469567871093,-0.7709923664122137,0.5038167938931297,-1.2595419847328244
5294282984385,1.924195416,1,0.2657563842773437,1.7561469177246092,-11.286266625976562,-0.7709923664122137,0.5725190839694656,-1.3282442748091603
5294289652822,1.930863853,1,0.229843359375,1.6986860778808592,-11.24915650024414,-0.8320610687022901,0.5725190839694656,-1.3358778625954197
5294296322093,1.937533124,1,0.23822306518554687,1.7214309936523438,-11.194089862060546,-0.8625954198473282,0.6259541984732825,-1.3358778625954197
5294302986103,1.944197134,1,0.24061726684570311,1.6998831787109374,-11.177330450439452,-0.7786259541984732,0.5801526717557252,-1.3129770992366412
5294309653395,1.950864426,1,0.2442085693359375,1.7741034301757812,-11.18571015625,-0.7709923664122137,0.6106870229007634,-1.3282442748091603
5294316320687,1.957531718,1,0.18555062866210936,1.7262193969726563,-11.243170996093749,-0.8473282442748091,0.48091603053435117,-1.2748091603053435
5294322986364,1.964197395,1,0.2214636535644531,1.7525556152343749,-11.25514200439453,-0.7786259541984732,0.549618320610687,-1.4198473282442747
5294329651364,1.970862395,1,0.2346317626953125,1.7106570861816406,-11.207257971191405,-0.7938931297709924,0.5572519083969466,-1.3358778625954197
5294336319124,1.977530155,1,0.26695348510742184,1.7561469177246092,-11.149797131347656,-0.9083969465648855,0.5343511450381679,-1.3740458015267176
5294342986520,1.984197551,1,0.23702596435546874,1.7741034301757812,-11.18571015625,-0.8091603053435115,0.5114503816793893,-1.297709923664122
5294349652041,1.990863072,1,0.25737667846679685,1.7717092285156248,-11.262324609375,-0.8549618320610687,0.5572519083969466,-1.3282442748091603
5294356320635,1.997531666,1,0.26695348510742184,1.7214309936523438,-11.149797131347656,-0.8396946564885496,0.6259541984732825,-1.3893129770992367
5294362985999,2.00419703,1,0.20231004028320312,1.7262193969726563,-11.195286962890624,-0.8015267175572519,0.5114503816793893,-1.2900763358778626
5294369659280,2.010870311,1,0.16879121704101563,1.7286135986328124,-11.16057103881836,-0.8625954198473282,0.5954198473282443,-1.3206106870229009
5294376324176,2.017535207,1,0.2609679809570312,1.7669208251953124,-11.17852755126953,-0.8702290076335878,0.6106870229007634,-1.3206106870229009
5294382985895,2.024196926,1,0.23582886352539062,1.7369933044433592,-11.197681164550781,-0.732824427480916,0.5572519083969466,-1.3511450381679388
5294389653187,2.030864218,1,0.2166752502441406,1.7657237243652342,-11.214440576171874,-0.8091603053435115,0.6030534351145038,-1.3511450381679388
5294396318760,2.037529791,1,0.20829554443359374,1.7118541870117185,-11.233594189453123,-0.8091603053435115,0.5801526717557252,-1.2366412213740459
5294402989385,2.044200416,1,0.23104046020507812,1.7106570861816406,-11.208455072021483,-0.8549618320610687,0.6106870229007634,-1.251908396946565
5294409652145,2.050863176,1,0.23104046020507812,1.7776947326660155,-11.226411584472656,-0.8625954198473282,0.5725190839694656,-1.3206106870229009
5294416323655,2.057534686,1,0.22864625854492185,1.7776947326660155,-11.219228979492186,-0.7404580152671756,0.5419847328244275,-1.3206106870229009
5294422986572,2.064197603,1,0.2154781494140625,1.734599102783203,-11.219228979492186,-0.7099236641221374,0.5572519083969466,-1.3511450381679388
5294429650791,2.070861822,1,0.2537853759765625,1.68551796875,-11.228805786132812,-0.7099236641221374,0.5572519083969466,-1.297709923664122
5294436327510,2.077538541,1,0.21428104858398436,1.744175909423828,-11.209652172851563,-0.916030534351145,0.5572519083969466,-1.3282442748091603
5294442985791,2.084196822,1,0.2549824768066406,1.7429788085937499,-11.135431921386719,-0.8320610687022901,0.5877862595419847,-1.3282442748091603
5294449651312,2.090862343,1,0.20231004028320312,1.7429788085937499,-11.291055029296874,-0.7862595419847328,0.6335877862595419,-1.282442748091603
5294456319332,2.097530363,1,0.31004911499023435,1.7669208251953124,-11.162965240478515,-0.8473282442748091,0.5572519083969466,-1.282442748091603
5294462985478,2.104196509,1,0.25139117431640623,1.7573440185546874,-11.18571015625,-0.7175572519083969,0.5114503816793893,-1.2900763358778626
5294469657457,2.110868488,1,0.20949264526367187,1.7286135986328124,-11.161768139648437,-0.9083969465648855,0.5725190839694656,-1.3587786259541985
5294476323760,2.117534791,1,0.229843359375,1.725022296142578,-11.194089862060546,-0.8549618320610687,0.5648854961832062,-1.3206106870229009
5294482984489,2.12419552,1,0.22385785522460935,1.734599102783203,-11.18571015625,-0.7709923664122137,0.5954198473282443,-1.3282442748091603
5294489652978,2.130864009,1,0.24301146850585936,1.7226280944824217,-11.17852755126953,-0.8091603053435115,0.5572519083969466,-1.2671755725190839
5294496321468,2.137532499,1,0.22385785522460935,1.7322049011230467,-11.13423482055664,-0.8778625954198473,0.6030534351145038,-1.3893129770992367
5294502985634,2.144196665,1,0.24899697265624998,1.772906329345703,-11.188104357910156,-0.7633587786259542,0.5419847328244275,-1.3740458015267176
5294509652041,2.150863072,1,0.1927332336425781,1.7393875061035156,-11.184513055419922,-0.8091603053435115,0.549618320610687,-1.4122137404580153
5294516321572,2.157532603,1,0.22505495605468748,1.744175909423828,-11.190498559570312,-0.8702290076335878,0.6106870229007634,-1.3740458015267176
5294522989489,2.16420052,1,0.29089550170898437,1.6998831787109374,-11.164162341308593,-0.8396946564885496,0.5877862595419847,-1.3893129770992367
5294529654489,2.17086552,1,0.2346317626953125,1.7585411193847655,-11.228805786132812,-0.8549618320610687,0.6259541984732825,-1.366412213740458
5294536323343,2.177534374,1,0.22744915771484372,1.7022773803710936,-11.118672509765624,-0.8549618320610687,0.5267175572519084,-1.3282442748091603
5294542985478,2.184196509,1,0.26216508178710934,1.7645266235351562,-11.21084927368164,-0.732824427480916,0.5877862595419847,-1.366412213740458
5294549652041,2.190863072,1,0.26216508178710934,1.7334020019531249,-11.152191333007812,-0.8015267175572519,0.549618320610687,-1.2595419847328244
5294556322301,2.197533332,1,0.22864625854492185,1.7334020019531249,-11.162965240478515,-0.8778625954198473,0.6870229007633588,-1.3511450381679388
5294562985426,2.204196457,1,0.22864625854492185,1.7334020019531249,-11.162965240478515,-0.8091603053435115,0.48854961832061067,-1.3206106870229009
5294569653291,2.210864322,1,0.22744915771484372,1.6998831787109374,-11.208455072021483,-0.8091603053435115,0.5267175572519084,-1.3206106870229009
5294576321207,2.217532238,1,0.20350714111328125,1.7369933044433592,-11.24915650024414,-0.8549618320610687,0.5267175572519084,-1.3129770992366412
5294582986312,2.224197343,1,0.17836802368164062,1.7274164978027342,-11.251550701904296,-0.9083969465648855,0.6030534351145038,-1.3129770992366412
5294589822770,2.231033801,1,0.21428104858398436,1.7597382202148437,-11.135431921386719,-0.7175572519083969,0.5954198473282443,-1.366412213740458
5294596384124,2.237595155,1,0.22385785522460935,1.687912170410156,-11.188104357910156,-0.916030534351145,0.5954198473282443,-1.3587786259541985
5294602986989,2.24419802,1,0.1927332336425781,1.7549498168945312,-11.206060870361327,-0.8320610687022901,0.5801526717557252,-1.3511450381679388
5294609654176,2.250865207,1,0.2537853759765625,1.6938976745605467,-11.214440576171874,-0.8015267175572519,0.5267175572519084,-1.3435114503816794
5294616321780,2.257532811,1,0.21787235107421873,1.714248388671875,-11.162965240478515,-0.9389312977099237,0.6106870229007634,-1.282442748091603
5294622989072,2.264200103,1,0.20829554443359374,1.7130512878417967,-11.170147845458983,-0.8549618320610687,0.5648854961832062,-1.3893129770992367
5294629652509,2.27086354,1,0.1879448303222656,1.7525556152343749,-11.148600030517578,-0.8244274809160306,0.4732824427480916,-1.3053435114503817
5294636321207,2.277532238,1,0.22864625854492185,1.7190367919921874,-11.18571015625,-0.7938931297709924,0.6412213740458015,-1.3511450381679388
5294642985843,2.284196874,1,0.229843359375,1.744175909423828,-11.203666668701171,-0.8091603053435115,0.6106870229007634,-1.3435114503816794
5294649652562,2.290863593,1,0.229843359375,1.705868682861328,-11.209652172851563,-0.7938931297709924,0.5419847328244275,-1.297709923664122
5294656323395,2.297534426,1,0.24899697265624998,1.70467158203125,-11.173739147949219,-0.9236641221374046,0.5877862595419847,-1.3435114503816794
5294662986832,2.304197863,1,0.27892449340820313,1.753752716064453,-11.2240173828125,-0.7557251908396947,0.5801526717557252,-1.4045801526717556
5294669651207,2.310862238,1,0.17238251953125,1.705868682861328,-11.150994232177734,-0.816793893129771,0.5267175572519084,-1.381679389312977
5294676322093,2.317533124,1,0.20470424194335937,1.7501614135742187,-11.2240173828125,-0.8778625954198473,0.549618320610687,-1.3053435114503817
5294682986207,2.324197238,1,0.17836802368164062,1.734599102783203,-11.226411584472656,-0.8091603053435115,0.5954198473282443,-1.251908396946565
5294689651207,2.330862238,1,0.2609679809570312,1.7453730102539062,-11.141417425537108,-0.816793893129771,0.5877862595419847,-1.3587786259541985
5294696323187,2.337534218,1,0.2609679809570312,1.707065783691406,-11.176133349609374,-0.8702290076335878,0.6030534351145038,-1.2595419847328244
5294702985999,2.34419703,1,0.19991583862304688,1.707065783691406,-11.049240661621093,-0.7938931297709924,0.5648854961832062,-1.3053435114503817
5294709650114,2.350861145,1,0.24660277099609373,1.7334020019531249,-11.202469567871093,-0.8396946564885496,0.5954198473282443,-1.3358778625954197
5294716322353,2.357533384,1,0.21188684692382811,1.7621324218749999,-11.165359442138671,-0.8396946564885496,0.5190839694656488,-1.3358778625954197
5294722984905,2.364195936,1,0.23343466186523437,1.7130512878417967,-11.202469567871093,-0.8931297709923665,0.5190839694656488,-1.3435114503816794
5294729651416,2.370862447,1,0.229843359375,1.7357962036132812,-11.14022032470703,-0.7557251908396947,0.5114503816793893,-1.3435114503816794
5294736321416,2.377532447,1,0.201112939453125,1.8040309509277344,-11.164162341308593,-0.816793893129771,0.5114503816793893,-1.297709923664122
5294742984957,2.384195988,1,0.21428104858398436,1.7381904052734374,-11.196484063720703,-0.8702290076335878,0.6259541984732825,-1.3129770992366412
5294749651572,2.390862603,1,0.22385785522460935,1.725022296142578,-11.155782635498046,-0.8320610687022901,0.4961832061068702,-1.3435114503816794
5294756322301,2.397533332,1,0.2166752502441406,1.753752716064453,-11.274295617675781,-0.7480916030534351,0.5343511450381679,-1.3893129770992367
5294762984020,2.404195051,1,0.26216508178710934,1.7202338928222656,-11.215637677001952,-0.8625954198473282,0.5801526717557252,-1.3053435114503817
5294769652718,2.410863749,1,0.2561795776367187,1.7453730102539062,-11.179724652099608,-0.8015267175572519,0.5114503816793893,-1.3511450381679388
5294776321936,2.417532967,1,0.2454056701660156,1.7429788085937499,-11.165359442138671,-0.8244274809160306,0.6335877862595419,-1.2900763358778626
5294782983395,2.424194426,1,0.2442085693359375,1.7429788085937499,-11.131840618896483,-0.9007633587786259,0.5725190839694656,-1.3129770992366412
5294789654541,2.430865572,1,0.2166752502441406,1.715445489501953,-11.2240173828125,-0.8091603053435115,0.4732824427480916,-1.3358778625954197
5294796325218,2.437536249,1,0.20350714111328125,1.7501614135742187,-11.164162341308593,-0.8854961832061069,0.5572519083969466,-1.3206106870229009
5294802985270,2.444196301,1,0.22026655273437498,1.7561469177246092,-11.251550701904296,-0.8396946564885496,0.4961832061068702,-1.3587786259541985
5294809654228,2.450865259,1,0.1975216369628906,1.6927005737304686,-11.192892761230468,-0.7557251908396947,0.6259541984732825,-1.282442748091603
5294816321624,2.457532655,1,0.23702596435546874,1.7310078002929687,-11.123460913085937,-0.8549618320610687,0.5419847328244275,-1.3206106870229009
5294822984957,2.464195988,1,0.1867477294921875,1.763329522705078,-11.228805786132812,-0.7938931297709924,0.6259541984732825,-1.3129770992366412
5294829651989,2.47086302,1,0.17956512451171874,1.7178396911621092,-11.156979736328124,-0.8015267175572519,0.6030534351145038,-1.3587786259541985
5294836322041,2.477533072,1,0.17956512451171874,1.7082628845214842,-11.250353601074218,-0.8015267175572519,0.5954198473282443,-1.381679389312977
5294842986103,2.484197134,1,0.2442085693359375,1.7082628845214842,-11.159373937988281,-0.8473282442748091,0.5725190839694656,-1.297709923664122
5294849651832,2.490862863,1,0.2262520568847656,1.763329522705078,-11.159373937988281,-0.7938931297709924,0.5190839694656488,-1.4274809160305344
5294856328655,2.497539686,1,0.25139117431640623,1.7238251953125,-11.186907257080078,-0.7938931297709924,0.5877862595419847,-1.366412213740458
5294862987405,2.504198436,1,0.2561795776367187,1.7405846069335937,-11.167753643798827,-0.8320610687022901,0.5877862595419847,-1.3358778625954197
5294869651572,2.510862603,1,0.21906945190429686,1.7286135986328124,-11.117475408935546,-0.732824427480916,0.5801526717557252,-1.3358778625954197
5294876320426,2.517531457,1,0.2657563842773437,1.7094599853515624,-11.194089862060546,-0.816793893129771,0.4961832061068702,-1.3435114503816794
5294882984280,2.524195311,1,0.239420166015625,1.725022296142578,-11.197681164550781,-0.8320610687022901,0.5954198473282443,-1.3282442748091603
5294889651936,2.530862967,1,0.26216508178710934,1.7226280944824217,-11.166556542968749,-0.8396946564885496,0.6106870229007634,-1.3206106870229009
5294896330270,2.537541301,1,0.23343466186523437,1.7489643127441405,-11.227608685302734,-0.7480916030534351,0.5954198473282443,-1.3282442748091603
5294902987353,2.544198384,1,0.1975216369628906,1.7334020019531249,-11.192892761230468,-0.8702290076335878,0.5801526717557252,-1.366412213740458
5294909653239,2.55086427,1,0.1975216369628906,1.7513585144042967,-11.133037719726563,-0.7633587786259542,0.6030534351145038,-1.381679389312977
5294916317978,2.557529009,1,0.19871873779296872,1.7381904052734374,-11.154585534667968,-0.8473282442748091,0.5954198473282443,-1.2595419847328244
5294922986051,2.564197082,1,0.2154781494140625,1.7082628845214842,-11.174936248779296,-0.7786259541984732,0.5801526717557252,-1.3129770992366412
5294929652093,2.570863124,1,0.277727392578125,1.7477672119140624,-11.135431921386719,-0.8015267175572519,0.5954198473282443,-1.3587786259541985
5294936322978,2.577534009,1,0.2262520568847656,1.7609353210449217,-11.168950744628905,-0.8244274809160306,0.6030534351145038,-1.3435114503816794
5294942986416,2.584197447,1,0.24779987182617186,1.734599102783203,-11.139023223876952,-0.8320610687022901,0.6106870229007634,-1.3435114503816794
5294949651988,2.590863019,1,0.20949264526367187,1.7477672119140624,-11.192892761230468,-0.7862595419847328,0.5801526717557252,-1.3511450381679388
5294956322978,2.597534009,1,0.2549824768066406,1.7393875061035156,-11.222820281982422,-0.7404580152671756,0.5267175572519084,-1.3358778625954197
5294962985218,2.604196249,1,0.2454056701660156,1.7166425903320313,-11.23000288696289,-0.8778625954198473,0.5954198473282443,-1.2671755725190839
5294969650270,2.610861301,1,0.22026655273437498,1.7334020019531249,-11.225214483642578,-0.8091603053435115,0.48854961832061067,-1.2366412213740459
5294976321936,2.617532967,1,0.2346317626953125,1.7202338928222656,-11.170147845458983,-0.8091603053435115,0.6335877862595419,-1.2671755725190839
5294982986468,2.624197499,1,0.2346317626953125,1.7513585144042967,-11.150994232177734,-0.8396946564885496,0.5801526717557252,-1.3358778625954197
5294989650061,2.630861092,1,0.23582886352539062,1.7513585144042967,-11.183315954589844,-0.8625954198473282,0.6259541984732825,-1.3511450381679388
5294996321520,2.637532551,1,0.24181436767578124,1.7286135986328124,-11.183315954589844,-0.7633587786259542,0.6106870229007634,-1.3358778625954197
5295002984332,2.644195363,1,0.20470424194335937,1.7298106994628906,-11.19169566040039,-0.7633587786259542,0.6183206106870229,-1.3969465648854962
5295009651780,2.650862811,1,0.18435352783203124,1.7501614135742187,-11.156979736328124,-0.816793893129771,0.6183206106870229,-1.3129770992366412
5295016323082,2.657534113,1,0.20829554443359374,1.6699556579589843,-11.142614526367186,-0.8091603053435115,0.5114503816793893,-1.3129770992366412
5295022984384,2.664195415,1,0.2166752502441406,1.7298106994628906,-11.16057103881836,-0.8549618320610687,0.6030534351145038,-1.282442748091603
5295029651259,2.67086229,1,0.24181436767578124,1.7274164978027342,-11.12226381225586,-0.8396946564885496,0.5954198473282443,-1.3740458015267176
5295036373238,2.677584269,1,0.2609679809570312,1.7214309936523438,-11.183315954589844,-0.8091603053435115,0.46564885496183206,-1.3129770992366412
5295043684853,2.684895884,1,0.2214636535644531,1.7429788085937499,-11.196484063720703,-0.8244274809160306,0.46564885496183206,-1.3282442748091603
5295051119280,2.692330311,1,0.258573779296875,1.7381904052734374,-11.188104357910156,-0.8854961832061069,0.7022900763358778,-1.381679389312977
5295058529645,2.699740676,1,0.22266075439453123,1.696291876220703,-11.208455072021483,-0.8473282442748091,0.5801526717557252,-1.3435114503816794
5295065917561,2.707128592,1,0.2454056701660156,1.7118541870117185,-11.18571015625,-0.8091603053435115,0.48854961832061067,-1.3587786259541985
5295073266728,2.714477759,1,0.2262520568847656,1.763329522705078,-11.204863769531249,-0.7938931297709924,0.5725190839694656,-1.3206106870229009
5295080685061,2.721896092,1,0.2454056701660156,1.734599102783203,-11.183315954589844,-0.8320610687022901,0.5801526717557252,-1.2595419847328244
5295088121103,2.729332134,1,0.23702596435546874,1.7549498168945312,-11.202469567871093,-0.7709923664122137,0.6183206106870229,-1.3435114503816794
5295095487770,2.736698801,1,0.22266075439453123,1.695094775390625,-11.265915911865234,-0.816793893129771,0.5648854961832062,-1.2900763358778626
5295102901207,2.744112238,1,0.15562310791015624,1.7681179260253905,-11.146205828857422,-0.8473282442748091,0.6259541984732825,-1.3053435114503817
5295110275009,2.75148604,1,0.21068974609375,1.7034744812011717,-11.14022032470703,-0.7938931297709924,0.549618320610687,-1.366412213740458
5295117660113,2.758871144,1,0.19991583862304688,1.7501614135742187,-11.152191333007812,-0.7786259541984732,0.5190839694656488,-1.2595419847328244
5295125055634,2.766266665,1,0.23702596435546874,1.6938976745605467,-11.233594189453123,-0.8396946564885496,0.6106870229007634,-1.3129770992366412
5295132431416,2.773642447,1,0.2609679809570312,1.7238251953125,-11.148600030517578,-0.7938931297709924,0.5343511450381679,-1.3511450381679388
5295139831155,2.781042186,1,0.23822306518554687,1.7118541870117185,-11.176133349609374,-0.8778625954198473,0.549618320610687,-1.3587786259541985
5295147240218,2.788451249,1,0.23223756103515625,1.7477672119140624,-11.107898602294922,-0.9312977099236641,0.6030534351145038,-1.3511450381679388
5295154560686,2.795771717,1,0.25258827514648435,1.7202338928222656,-11.21683477783203,-0.7786259541984732,0.6106870229007634,-1.4045801526717556
5295161878134,2.803089165,1,0.19991583862304688,1.686715069580078,-11.262324609375,-0.7633587786259542,0.549618320610687,-1.3435114503816794
5295169242665,2.810453696,1,0.19991583862304688,1.696291876220703,-11.188104357910156,-0.7938931297709924,0.5190839694656488,-1.3053435114503817
5295176651207,2.817862238,1,0.23582886352539062,1.7369933044433592,-11.155782635498046,-0.7633587786259542,0.549618320610687,-1.3282442748091603
5295184113343,2.825324374,1,0.20231004028320312,1.744175909423828,-11.183315954589844,-0.7709923664122137,0.549618320610687,-1.3587786259541985
5295191514957,2.832725988,1,0.2501940734863281,1.7238251953125,-11.180921752929686,-0.8549618320610687,0.549618320610687,-1.3511450381679388
5295198868082,2.840079113,1,0.27293898925781246,1.6903063720703124,-11.145008728027342,-0.7557251908396947,0.6106870229007634,-1.3587786259541985
5295206240270,2.847451301,1,0.25737667846679685,1.714248388671875,-11.336544860839844,-0.8931297709923665,0.6106870229007634,-1.3206106870229009
5295213656676,2.854867707,1,0.23582886352539062,1.7166425903320313,-11.182118853759764,-0.8320610687022901,0.5419847328244275,-1.251908396946565
5295221056624,2.862267655,1,0.20829554443359374,1.7034744812011717,-11.21084927368164,-0.8396946564885496,0.5419847328244275,-1.3206106870229009
5295228468238,2.869679269,1,0.21428104858398436,1.7477672119140624,-11.188104357910156,-0.8244274809160306,0.6106870229007634,-1.3129770992366412
5295235863343,2.877074374,1,0.2059013427734375,1.7286135986328124,-11.28746372680664,-0.7557251908396947,0.6030534351145038,-1.3587786259541985
5295243291624,2.884502655,1,0.2454056701660156,1.7094599853515624,-11.176133349609374,-0.8091603053435115,0.6412213740458015,-1.2442748091603053
5295250710582,2.891921613,1,0.19393033447265623,1.744175909423828,-11.231199987792968,-0.8549618320610687,0.6335877862595419,-1.3740458015267176
5295258106624,2.899317655,1,0.24779987182617186,1.7621324218749999,-11.159373937988281,-0.7480916030534351,0.6030534351145038,-1.3358778625954197
5295265497405,2.906708436,1,0.24899697265624998,1.7166425903320313,-11.19169566040039,-0.8244274809160306,0.6106870229007634,-1.3206106870229009
5295272900843,2.914111874,1,0.21188684692382811,1.7573440185546874,-11.165359442138671,-0.7862595419847328,0.6106870229007634,-1.2671755725190839
5295280284645,2.921495676,1,0.21308394775390624,1.7190367919921874,-11.174936248779296,-0.8320610687022901,0.549618320610687,-1.3587786259541985
5295287670947,2.928881978,1,0.27293898925781246,1.7226280944824217,-11.192892761230468,-0.8320610687022901,0.5648854961832062,-1.3129770992366412
5295295157093,2.936368124,1,0.21428104858398436,1.7274164978027342,-11.177330450439452,-0.8015267175572519,0.5801526717557252,-1.3053435114503817
5295302524593,2.943735624,1,0.20470424194335937,1.7645266235351562,-11.179724652099608,-0.7404580152671756,0.5114503816793893,-1.3206106870229009
5295309856207,2.951067238,1,0.20709844360351562,1.7214309936523438,-11.238382592773437,-0.8702290076335878,0.549618320610687,-1.282442748091603
5295317165061,2.958376092,1,0.229843359375,1.7094599853515624,-11.146205828857422,-0.8091603053435115,0.6106870229007634,-1.3129770992366412
5295324506051,2.965717082,1,0.23702596435546874,1.7453730102539062,-11.225214483642578,-0.7938931297709924,0.5267175572519084,-1.3587786259541985
5295331854957,2.973065988,1,0.23822306518554687,1.725022296142578,-11.133037719726563,-0.8244274809160306,0.5343511450381679,-1.3129770992366412
5295339301572,2.980512603,1,0.24061726684570311,1.7178396911621092,-11.231199987792968,-0.7404580152671756,0.5038167938931297,-1.3587786259541985
5295346663968,2.987874999,1,0.23702596435546874,1.7848773376464844,-11.226411584472656,-0.8473282442748091,0.5648854961832062,-1.3435114503816794
5295354005113,2.995216144,1,0.16639701538085935,1.7010802795410156,-11.220426080322264,-0.8320610687022901,0.549618320610687,-1.2900763358778626
5295361341415,3.002552446,1,0.20829554443359374,1.6938976745605467,-11.206060870361327,-0.7709923664122137,0.5572519083969466,-1.2595419847328244
5295368701415,3.009912446,1,0.2561795776367187,1.7681179260253905,-11.206060870361327,-0.8931297709923665,0.5801526717557252,-1.3435114503816794
5295376079853,3.017290884,1,0.22505495605468748,1.7429788085937499,-11.171344946289063,-0.8015267175572519,0.45038167938931295,-1.2366412213740459
5295383402717,3.024613748,1,0.2501940734863281,1.7286135986328124,-11.206060870361327,-0.7633587786259542,0.5267175572519084,-1.2900763358778626
5295390711103,3.031922134,1,0.2166752502441406,1.7549498168945312,-11.118672509765624,-0.8015267175572519,0.7022900763358778,-1.3129770992366412
5295398027717,3.039238748,1,0.25258827514648435,1.7178396911621092,-11.177330450439452,-0.8091603053435115,0.549618320610687,-1.2900763358778626
5295405334697,3.046545728,1,0.2549824768066406,1.7238251953125,-11.183315954589844,-0.7938931297709924,0.5572519083969466,-1.297709923664122
5295412678603,3.053889634,1,0.24061726684570311,1.725022296142578,-11.156979736328124,-0.8396946564885496,0.6412213740458015,-1.3129770992366412
5295419947561,3.061158592,1,0.229843359375,1.7022773803710936,-11.143811627197264,-0.7099236641221374,0.46564885496183206,-1.3053435114503817
5295427307301,3.068518332,1,0.24660277099609373,1.734599102783203,-11.18571015625,-0.8396946564885496,0.5419847328244275,-1.2900763358778626
5295434708447,3.075919478,1,0.22385785522460935,1.7298106994628906,-11.137826123046874,-0.8625954198473282,0.5190839694656488,-1.2595419847328244
5295442030634,3.083241665,1,0.258573779296875,1.7214309936523438,-11.170147845458983,-0.7786259541984732,0.5267175572519084,-1.2900763358778626
5295449292457,3.090503488,1,0.23104046020507812,1.7262193969726563,-11.179724652099608,-0.8625954198473282,0.5572519083969466,-1.3358778625954197
5295456672613,3.097883644,1,0.20470424194335937,1.7190367919921874,-11.111489904785156,-0.7709923664122137,0.549618320610687,-1.282442748091603
5295463996624,3.105207655,1,0.2262520568847656,1.7357962036132812,-11.231199987792968,-0.732824427480916,0.5572519083969466,-1.2595419847328244
5295471363186,3.112574217,1,0.20949264526367187,1.7322049011230467,-11.285069525146485,-0.8778625954198473,0.5572519083969466,-1.3740458015267176
5295478701051,3.119912082,1,0.21787235107421873,1.7561469177246092,-11.220426080322264,-0.8091603053435115,0.5801526717557252,-1.3206106870229009
5295486021728,3.127232759,1,0.18076222534179687,1.7118541870117185,-11.170147845458983,-0.8244274809160306,0.5801526717557252,-1.282442748091603
5295493364540,3.134575571,1,0.19871873779296872,1.697488977050781,-11.143811627197264,-0.8778625954198473,0.6564885496183206,-1.3206106870229009
5295500721259,3.14193229,1,0.2262520568847656,1.7621324218749999,-11.164162341308593,-0.816793893129771,0.5877862595419847,-1.3206106870229009
5295508087613,3.149298644,1,0.17118541870117188,1.7561469177246092,-11.194089862060546,-0.8625954198473282,0.5267175572519084,-1.3129770992366412
5295515405530,3.156616561,1,0.23582886352539062,1.7130512878417967,-11.164162341308593,-0.8549618320610687,0.5648854961832062,-1.3511450381679388
5295522715061,3.163926092,1,0.18315642700195311,1.7202338928222656,-11.158176837158203,-0.7557251908396947,0.5801526717557252,-1.3435114503816794
5295530041624,3.171252655,1,0.25139117431640623,1.7657237243652342,-11.221623181152344,-0.8091603053435115,0.5190839694656488,-1.2900763358778626
5295537350113,3.178561144,1,0.2166752502441406,1.7262193969726563,-11.176133349609374,-0.7480916030534351,0.6030534351145038,-1.3511450381679388
5295544690426,3.185901457,1,0.2442085693359375,1.7597382202148437,-11.245565197753905,-0.7557251908396947,0.5419847328244275,-1.3740458015267176
5295552072978,3.193284009,1,0.22744915771484372,1.687912170410156,-11.244368096923827,-0.8320610687022901,0.5419847328244275,-1.2900763358778626
5295559395738,3.200606769,1,0.25258827514648435,1.7501614135742187,-11.161768139648437,-0.7557251908396947,0.5572519083969466,-1.3053435114503817
5295566710842,3.207921873,1,0.2932897033691406,1.7465701110839842,-11.250353601074218,-0.816793893129771,0.5267175572519084,-1.282442748091603
5295574033238,3.215244269,1,0.25139117431640623,1.7238251953125,-11.186907257080078,-0.916030534351145,0.648854961832061,-1.2671755725190839
5295581351155,3.222562186,1,0.2166752502441406,1.7322049011230467,-11.204863769531249,-0.8320610687022901,0.6259541984732825,-1.297709923664122
5295588701884,3.229912915,1,0.2154781494140625,1.7453730102539062,-11.179724652099608,-0.7786259541984732,0.6183206106870229,-1.3511450381679388
5295596134644,3.237345675,1,0.2501940734863281,1.7800889343261719,-11.161768139648437,-0.8854961832061069,0.549618320610687,-1.2595419847328244
5295603476988,3.244688019,1,0.229843359375,1.7334020019531249,-11.195286962890624,-0.8244274809160306,0.5877862595419847,-1.3282442748091603
5295610774332,3.251985363,1,0.1771709228515625,1.7190367919921874,-11.218031878662108,-0.7786259541984732,0.5801526717557252,-1.3053435114503817
5295618127092,3.259338123,1,0.229843359375,1.7202338928222656,-11.161768139648437,-0.8931297709923665,0.6106870229007634,-1.3358778625954197
5295625439697,3.266650728,1,0.2597708801269531,1.7274164978027342,-11.19887826538086,-0.8396946564885496,0.6030534351145038,-1.297709923664122
5295632794592,3.274005623,1,0.2166752502441406,1.7501614135742187,-11.142614526367186,-0.9389312977099237,0.4961832061068702,-1.3435114503816794
5295640125530,3.281336561,1,0.2059013427734375,1.7477672119140624,-11.222820281982422,-0.7022900763358778,0.5419847328244275,-1.3435114503816794
5295647393551,3.288604582,1,0.2693476867675781,1.7465701110839842,-11.212046374511718,-0.8396946564885496,0.549618320610687,-1.3282442748091603
5295654725790,3.295936821,1,0.20709844360351562,1.7274164978027342,-11.130643518066405,-0.8091603053435115,0.6412213740458015,-1.3206106870229009
5295662066311,3.303277342,1,0.21308394775390624,1.7130512878417967,-11.285069525146485,-0.7862595419847328,0.5267175572519084,-1.3282442748091603
5295669366155,3.310577186,1,0.1927332336425781,1.753752716064453,-11.194089862060546,-0.8396946564885496,0.5267175572519084,-1.2442748091603053
5295676727249,3.31793828,1,0.20949264526367187,1.697488977050781,-11.183315954589844,-0.8854961832061069,0.5419847328244275,-1.3435114503816794
5295684127874,3.325338905,1,0.20829554443359374,1.7226280944824217,-11.212046374511718,-0.8091603053435115,0.5343511450381679,-1.3129770992366412
5295691486415,3.332697446,1,0.26695348510742184,1.7561469177246092,-11.155782635498046,-0.8549618320610687,0.44274809160305345,-1.2900763358778626
5295698854176,3.340065207,1,0.21787235107421873,1.7621324218749999,-11.180921752929686,-0.8244274809160306,0.5877862595419847,-1.3129770992366412
5295706213707,3.347424738,1,0.25258827514648435,1.7286135986328124,-11.188104357910156,-0.7938931297709924,0.4732824427480916,-1.3282442748091603
5295713539384,3.354750415,1,0.16041151123046873,1.7525556152343749,-11.148600030517578,-0.8854961832061069,0.6030534351145038,-1.3282442748091603
5295720894280,3.362105311,1,0.22385785522460935,1.7453730102539062,-11.17254204711914,-0.8396946564885496,0.5877862595419847,-1.3893129770992367
5295728277874,3.369488905,1,0.2214636535644531,1.7753005310058592,-11.105504400634764,-0.7709923664122137,0.5190839694656488,-1.3587786259541985
5295735643030,3.376854061,1,0.20231004028320312,1.7238251953125,-11.124658013916015,-0.8091603053435115,0.5343511450381679,-1.366412213740458
5295742957301,3.384168332,1,0.19991583862304688,1.707065783691406,-11.19169566040039,-0.8320610687022901,0.5114503816793893,-1.3129770992366412
5295750328447,3.391539478,1,0.21428104858398436,1.7274164978027342,-11.196484063720703,-0.8015267175572519,0.5419847328244275,-1.3129770992366412
5295757642509,3.39885354,1,0.21906945190429686,1.7561469177246092,-11.173739147949219,-0.9007633587786259,0.5801526717557252,-1.2900763358778626
5295764979540,3.406190571,1,0.1879448303222656,1.7262193969726563,-11.164162341308593,-0.8396946564885496,0.549618320610687,-1.2748091603053435
5295772298551,3.413509582,1,0.19991583862304688,1.792059942626953,-11.12226381225586,-0.8473282442748091,0.7022900763358778,-1.3435114503816794
5295779657457,3.420868488,1,0.2454056701660156,1.772906329345703,-11.197681164550781,-0.8320610687022901,0.6259541984732825,-1.3587786259541985
5295786989228,3.428200259,1,0.18914193115234373,1.7034744812011717,-11.113884106445312,-0.816793893129771,0.5190839694656488,-1.3053435114503817
5295794345217,3.435556248,1,0.2154781494140625,1.7848773376464844,-11.168950744628905,-0.8625954198473282,0.5725190839694656,-1.3435114503816794
5295801653447,3.442864478,1,0.22385785522460935,1.6627730529785156,-11.152191333007812,-0.8091603053435115,0.5267175572519084,-1.3511450381679388
5295808949696,3.450160727,1,0.20949264526367187,1.707065783691406,-11.17254204711914,-0.8244274809160306,0.5877862595419847,-1.3358778625954197
5295816293134,3.457504165,1,0.19512743530273435,1.7166425903320313,-11.150994232177734,-0.916030534351145,0.648854961832061,-1.3511450381679388
5295823650165,3.464861196,1,0.23582886352539062,1.7310078002929687,-11.202469567871093,-0.8015267175572519,0.48854961832061067,-1.3282442748091603
5295830966259,3.47217729,1,0.2262520568847656,1.7178396911621092,-11.213243475341796,-0.816793893129771,0.5877862595419847,-1.3587786259541985
5295838378342,3.479589373,1,0.22385785522460935,1.697488977050781,-11.197681164550781,-0.9083969465648855,0.6717557251908397,-1.2748091603053435
5295845814957,3.487025988,1,0.20829554443359374,1.734599102783203,-11.202469567871093,-0.7786259541984732,0.5343511450381679,-1.366412213740458
5295853162457,3.494373488,1,0.229843359375,1.763329522705078,-11.174936248779296,-0.8625954198473282,0.5648854961832062,-1.3206106870229009
5295860523238,3.501734269,1,0.2561795776367187,1.725022296142578,-11.201272467041015,-0.8778625954198473,0.648854961832061,-1.3587786259541985
5295867850686,3.509061717,1,0.229843359375,1.7501614135742187,-11.196484063720703,-0.7938931297709924,0.5572519083969466,-1.3206106870229009
5295875208446,3.516419477,1,0.19871873779296872,1.7621324218749999,-11.165359442138671,-0.8320610687022901,0.6259541984732825,-1.282442748091603
5295882521519,3.52373255,1,0.24061726684570311,1.7226280944824217,-11.197681164550781,-0.7633587786259542,0.7022900763358778,-1.3129770992366412
5295889834228,3.531045259,1,0.2597708801269531,1.7525556152343749,-11.21084927368164,-0.8244274809160306,0.5801526717557252,-1.282442748091603
5295897137353,3.538348384,1,0.22505495605468748,1.7118541870117185,-11.1474029296875,-0.8702290076335878,0.6335877862595419,-1.3129770992366412
5295904483655,3.545694686,1,0.2166752502441406,1.7465701110839842,-11.156979736328124,-0.8015267175572519,0.549618320610687,-1.3206106870229009
5295911795374,3.553006405,1,0.16879121704101563,1.7106570861816406,-11.256339105224608,-0.816793893129771,0.48854961832061067,-1.3511450381679388
5295919146676,3.560357707,1,0.18555062866210936,1.6927005737304686,-11.197681164550781,-0.8244274809160306,0.6030534351145038,-1.3206106870229009
5295926525946,3.567736977,1,0.25258827514648435,1.7190367919921874,-11.220426080322264,-0.7557251908396947,0.5572519083969466,-1.3129770992366412
5295933771676,3.574982707,1,0.239420166015625,1.7621324218749999,-11.227608685302734,-0.9083969465648855,0.5419847328244275,-1.3435114503816794
5295941060374,3.582271405,1,0.24061726684570311,1.734599102783203,-11.203666668701171,-0.8015267175572519,0.45038167938931295,-1.3893129770992367
5295948357769,3.5895688,1,0.22744915771484372,1.6807295654296874,-11.148600030517578,-0.7404580152671756,0.5114503816793893,-1.3282442748091603
5295955662040,3.596873071,1,0.18076222534179687,1.7465701110839842,-11.235988391113281,-0.8854961832061069,0.5648854961832062,-1.3435114503816794
5295962916884,3.604127915,1,0.2262520568847656,1.7190367919921874,-11.17852755126953,-0.732824427480916,0.45038167938931295,-1.3282442748091603
5295970279019,3.61149005,1,0.1927332336425781,1.7453730102539062,-11.124658013916015,-0.7938931297709924,0.5419847328244275,-1.297709923664122
5295977633186,3.618844217,1,0.2154781494140625,1.7453730102539062,-11.162965240478515,-0.9312977099236641,0.5648854961832062,-1.2595419847328244
5295984962978,3.626174009,1,0.24061726684570311,1.7262193969726563,-11.201272467041015,-0.8931297709923665,0.6106870229007634,-1.3206106870229009
5295992315269,3.6335263,1,0.20231004028320312,1.7190367919921874,-11.176133349609374,-0.7862595419847328,0.5572519083969466,-1.3206106870229009
5295999652978,3.640864009,1,0.21188684692382811,1.7274164978027342,-11.171344946289063,-0.816793893129771,0.6335877862595419,-1.3587786259541985
5296007428446,3.648639477,1,0.21188684692382811,1.7477672119140624,-11.190498559570312,-0.7786259541984732,0.5267175572519084,-1.3969465648854962
5296015414228,3.656625259,1,0.1927332336425781,1.7453730102539062,-11.183315954589844,-0.8396946564885496,0.5572519083969466,-1.2900763358778626
5296022859644,3.664070675,1,0.24301146850585936,1.7609353210449217,-11.188104357910156,-0.8244274809160306,0.5419847328244275,-1.3206106870229009
5296030331623,3.671542654,1,0.2346317626953125,1.7310078002929687,-11.206060870361327,-0.8244274809160306,0.5572519083969466,-1.3358778625954197
5296037710165,3.678921196,1,0.1771709228515625,1.7381904052734374,-11.129446417236327,-0.7938931297709924,0.6564885496183206,-1.4045801526717556
5296045282405,3.686493436,1,0.21308394775390624,1.7429788085937499,-11.094730493164063,-0.8015267175572519,0.5419847328244275,-1.366412213740458
5296052716571,3.693927602,1,0.22026655273437498,1.7130512878417967,-11.143811627197264,-0.7633587786259542,0.549618320610687,-1.2366412213740459
5296060276051,3.701487082,1,0.22864625854492185,1.7226280944824217,-11.183315954589844,-0.8473282442748091,0.6183206106870229,-1.2366412213740459
5296067688238,3.708899269,1,0.20350714111328125,1.7178396911621092,-11.167753643798827,-0.8473282442748091,0.5877862595419847,-1.3129770992366412
5296075289540,3.716500571,1,0.277727392578125,1.6771382629394531,-11.225214483642578,-0.8854961832061069,0.6564885496183206,-1.3129770992366412
5296082698967,3.723909998,1,0.2442085693359375,1.7298106994628906,-11.219228979492186,-0.8625954198473282,0.6106870229007634,-1.3053435114503817
5296090047561,3.731258592,1,0.2825157958984375,1.7405846069335937,-11.182118853759764,-0.8320610687022901,0.5725190839694656,-1.2366412213740459
5296098190478,3.739401509,1,0.22864625854492185,1.7872715393066405,-11.150994232177734,-0.7862595419847328,0.5648854961832062,-1.2748091603053435
5296105909592,3.747120623,1,0.24660277099609373,1.725022296142578,-11.143811627197264,-0.8778625954198473,0.5877862595419847,-1.3358778625954197
5296113566103,3.754777134,1,0.19871873779296872,1.7585411193847655,-11.206060870361327,-0.7709923664122137,0.4122137404580153,-1.3282442748091603
5296121159228,3.762370259,1,0.19632453613281248,1.7034744812011717,-11.234791290283203,-0.8320610687022901,0.6412213740458015,-1.3282442748091603
5296128544592,3.769755623,1,0.1927332336425781,1.7298106994628906,-11.231199987792968,-0.8320610687022901,0.5572519083969466,-1.366412213740458
5296136089488,3.777300519,1,0.21787235107421873,1.7501614135742187,-11.050437762451171,-0.8320610687022901,0.6564885496183206,-1.2671755725190839
5296143492457,3.784703488,1,0.19871873779296872,1.7693150268554687,-11.184513055419922,-0.816793893129771,0.5648854961832062,-1.3740458015267176
5296150893394,3.792104425,1,0.2166752502441406,1.7094599853515624,-11.177330450439452,-0.8473282442748091,0.5419847328244275,-1.3129770992366412
5296158459123,3.799670154,1,0.21308394775390624,1.7334020019531249,-11.221623181152344,-0.8549618320610687,0.6717557251908397,-1.2900763358778626
5296165855217,3.807066248,1,0.20231004028320312,1.697488977050781,-11.202469567871093,-0.8625954198473282,0.5190839694656488,-1.2900763358778626
5296173283811,3.814494842,1,0.19991583862304688,1.753752716064453,-11.162965240478515,-0.816793893129771,0.5419847328244275,-1.4045801526717556
5296180878030,3.822089061,1,0.21787235107421873,1.7322049011230467,-11.15338843383789,-0.816793893129771,0.5190839694656488,-1.2671755725190839
5296188225582,3.829436613,1,0.1975216369628906,1.7405846069335937,-11.21084927368164,-0.8473282442748091,0.7022900763358778,-1.3358778625954197
5296195735894,3.836946925,1,0.21787235107421873,1.7298106994628906,-11.200075366210937,-0.8549618320610687,0.5114503816793893,-1.3435114503816794
5296203114384,3.844325415,1,0.25258827514648435,1.7573440185546874,-11.182118853759764,-0.7938931297709924,0.6717557251908397,-1.3435114503816794
5296210710165,3.851921196,1,0.26815058593749996,1.6986860778808592,-11.135431921386719,-0.816793893129771,0.6030534351145038,-1.2748091603053435
5296218129592,3.859340623,1,0.21068974609375,1.7226280944824217,-11.202469567871093,-0.7938931297709924,0.5038167938931297,-1.2900763358778626
5296225513134,3.866724165,1,0.258573779296875,1.725022296142578,-11.204863769531249,-0.8091603053435115,0.48854961832061067,-1.2595419847328244
5296233071363,3.874282394,1,0.23582886352539062,1.7082628845214842,-11.186907257080078,-0.8473282442748091,0.48091603053435117,-1.3053435114503817
5296240516051,3.881727082,1,0.23223756103515625,1.7609353210449217,-11.155782635498046,-0.8396946564885496,0.6259541984732825,-1.2748091603053435
5296248086780,3.889297811,1,0.2214636535644531,1.7094599853515624,-11.173739147949219,-0.8473282442748091,0.6106870229007634,-1.3206106870229009
5296255503030,3.896714061,1,0.24660277099609373,1.7034744812011717,-11.170147845458983,-0.8396946564885496,0.5801526717557252,-1.2442748091603053
5296263094540,3.904305571,1,0.19991583862304688,1.7094599853515624,-11.200075366210937,-0.8625954198473282,0.5877862595419847,-1.3358778625954197
5296270515634,3.911726665,1,0.23702596435546874,1.7573440185546874,-11.226411584472656,-0.816793893129771,0.5343511450381679,-1.3206106870229009
5296277902509,3.91911354,1,0.1867477294921875,1.7202338928222656,-11.226411584472656,-0.8473282442748091,0.6106870229007634,-1.297709923664122
5296285462353,3.926673384,1,0.2262520568847656,1.7322049011230467,-11.213243475341796,-0.8091603053435115,0.6106870229007634,-1.3587786259541985
5296292887300,3.934098331,1,0.24181436767578124,1.7322049011230467,-11.155782635498046,-0.8702290076335878,0.5419847328244275,-1.3206106870229009
5296300285634,3.941496665,1,0.24301146850585936,1.7166425903320313,-11.155782635498046,-0.7786259541984732,0.6335877862595419,-1.3282442748091603
5296307668707,3.948879738,1,0.25258827514648435,1.7465701110839842,-11.177330450439452,-0.8778625954198473,0.5877862595419847,-1.3053435114503817
5296315056571,3.956267602,1,0.28730419921875,1.7034744812011717,-11.19169566040039,-0.8015267175572519,0.5190839694656488,-1.3053435114503817
5296322455321,3.963666352,1,0.23104046020507812,1.7872715393066405,-11.143811627197264,-0.7175572519083969,0.6030534351145038,-1.3282442748091603
5296329821519,3.97103255,1,0.24899697265624998,1.753752716064453,-11.141417425537108,-0.7633587786259542,0.6106870229007634,-1.4045801526717556
5296337527092,3.978738123,1,0.25737667846679685,1.7202338928222656,-11.143811627197264,-0.732824427480916,0.5572519083969466,-1.381679389312977
5296344930686,3.986141717,1,0.21188684692382811,1.744175909423828,-11.14022032470703,-0.816793893129771,0.5801526717557252,-1.3206106870229009
5296352280946,3.993491977,1,0.2346317626953125,1.7693150268554687,-11.259930407714844,-0.8702290076335878,0.5572519083969466,-1.3511450381679388
5296359603238,4.000814269,1,0.20231004028320312,1.7010802795410156,-11.118672509765624,-0.8778625954198473,0.5572519083969466,-1.4351145038167938
5296366913498,4.008124529,1,0.2597708801269531,1.772906329345703,-11.141417425537108,-0.7862595419847328,0.5648854961832062,-1.366412213740458
5296374261155,4.015472186,1,0.19393033447265623,1.7393875061035156,-11.219228979492186,-0.8244274809160306,0.5725190839694656,-1.3358778625954197
5296381618134,4.022829165,1,0.26216508178710934,1.7262193969726563,-11.222820281982422,-0.8244274809160306,0.5267175572519084,-1.3129770992366412
5296388975373,4.030186404,1,0.258573779296875,1.7118541870117185,-11.267113012695312,-0.7633587786259542,0.6793893129770993,-1.2671755725190839
5296396293030,4.037504061,1,0.2166752502441406,1.7334020019531249,-11.209652172851563,-0.8244274809160306,0.6030534351145038,-1.2748091603053435
5296403655321,4.044866352,1,0.20470424194335937,1.7465701110839842,-11.180921752929686,-0.816793893129771,0.5419847328244275,-1.381679389312977
5296410984540,4.052195571,1,0.26216508178710934,1.7381904052734374,-11.228805786132812,-0.816793893129771,0.5648854961832062,-1.2748091603053435
5296418416675,4.059627706,1,0.20949264526367187,1.7573440185546874,-11.173739147949219,-0.7709923664122137,0.5725190839694656,-1.2595419847328244
5296425740894,4.066951925,1,0.2346317626953125,1.7369933044433592,-11.228805786132812,-0.8396946564885496,0.5725190839694656,-1.282442748091603
5296433062717,4.074273748,1,0.25258827514648435,1.7381904052734374,-11.142614526367186,-0.7862595419847328,0.5190839694656488,-1.450381679389313
5296440392300,4.081603331,1,0.2442085693359375,1.725022296142578,-11.165359442138671,-0.816793893129771,0.5267175572519084,-1.3206106870229009
5296447677040,4.088888071,1,0.2501940734863281,1.7549498168945312,-11.197681164550781,-0.7709923664122137,0.6641221374045801,-1.3206106870229009
5296455017092,4.096228123,1,0.24061726684570311,1.7166425903320313,-11.194089862060546,-0.8015267175572519,0.5648854961832062,-1.3511450381679388
5296462353967,4.103564998,1,0.2609679809570312,1.7310078002929687,-11.212046374511718,-0.7709923664122137,0.6030534351145038,-1.2900763358778626
5296469789800,4.111000831,1,0.2262520568847656,1.7130512878417967,-11.15338843383789,-0.9236641221374046,0.5877862595419847,-1.2900763358778626
5296477186623,4.118397654,1,0.25737667846679685,1.6819266662597656,-11.161768139648437,-0.7938931297709924,0.5572519083969466,-1.3282442748091603
5296484509488,4.125720519,1,0.2262520568847656,1.7034744812011717,-11.139023223876952,-0.6870229007633588,0.5114503816793893,-1.3511450381679388
5296491868186,4.133079217,1,0.22026655273437498,1.763329522705078,-11.179724652099608,-0.8015267175572519,0.5190839694656488,-1.3587786259541985
5296499197977,4.140409008,1,0.1927332336425781,1.6807295654296874,-11.168950744628905,-0.7938931297709924,0.549618320610687,-1.3358778625954197
5296506539175,4.147750206,1,0.181959326171875,1.7597382202148437,-11.238382592773437,-0.8473282442748091,0.6030534351145038,-1.3358778625954197
5296514018134,4.155229165,1,0.25737667846679685,1.697488977050781,-11.166556542968749,-0.7633587786259542,0.6030534351145038,-1.3053435114503817
5296521339071,4.162550102,1,0.26695348510742184,1.7010802795410156,-11.079168182373046,-0.8778625954198473,0.6106870229007634,-1.3358778625954197
5296528682821,4.169893852,1,0.18435352783203124,1.7238251953125,-11.177330450439452,-0.916030534351145,0.5801526717557252,-1.3282442748091603
5296536112092,4.177323123,1,0.22744915771484372,1.7226280944824217,-11.1474029296875,-0.8320610687022901,0.5572519083969466,-1.3206106870229009
5296543499644,4.184710675,1,0.23343466186523437,1.7274164978027342,-11.162965240478515,-0.8549618320610687,0.5877862595419847,-1.3282442748091603
5296550885686,4.192096717,1,0.21787235107421873,1.7549498168945312,-11.123460913085937,-0.8396946564885496,0.6106870229007634,-1.282442748091603
5296558231155,4.199442186,1,0.21068974609375,1.7741034301757812,-11.200075366210937,-0.6946564885496184,0.4732824427480916,-1.2748091603053435
5296565545582,4.206756613,1,0.19871873779296872,1.7561469177246092,-11.107898602294922,-0.8549618320610687,0.549618320610687,-1.3053435114503817
5296572895321,4.214106352,1,0.24779987182617186,1.7932570434570312,-11.188104357910156,-0.9312977099236641,0.6030534351145038,-1.3511450381679388
5296580234175,4.221445206,1,0.18315642700195311,1.7190367919921874,-11.204863769531249,-0.7251908396946565,0.5725190839694656,-1.3206106870229009
5296587547665,4.228758696,1,0.25737667846679685,1.7178396911621092,-11.16057103881836,-0.8244274809160306,0.6412213740458015,-1.3206106870229009
5296594926363,4.236137394,1,0.2166752502441406,1.753752716064453,-11.204863769531249,-0.7557251908396947,0.6335877862595419,-1.3206106870229009
5296602318030,4.243529061,1,0.24779987182617186,1.7489643127441405,-11.137826123046874,-0.7862595419847328,0.5877862595419847,-1.3435114503816794
5296609672769,4.2508838,1,0.22864625854492185,1.7513585144042967,-11.21683477783203,-0.8931297709923665,0.5190839694656488,-1.297709923664122
5296616993967,4.258204998,1,0.2597708801269531,1.70467158203125,-11.168950744628905,-0.816793893129771,0.6259541984732825,-1.251908396946565
5296624304280,4.265515311,1,0.26695348510742184,1.7310078002929687,-11.162965240478515,-0.8015267175572519,0.5648854961832062,-1.3587786259541985
5296631656050,4.272867081,1,0.23223756103515625,1.7262193969726563,-11.204863769531249,-0.8320610687022901,0.549618320610687,-1.366412213740458
5296638962248,4.280173279,1,0.21188684692382811,1.7477672119140624,-11.125855114746093,-0.7404580152671756,0.5419847328244275,-1.3511450381679388
5296646461155,4.287672186,1,0.21787235107421873,1.7322049011230467,-11.269507214355468,-0.8473282442748091,0.5954198473282443,-1.3893129770992367
5296653809123,4.295020154,1,0.23343466186523437,1.782483135986328,-11.165359442138671,-0.8320610687022901,0.5419847328244275,-1.2900763358778626
5296661157300,4.302368331,1,0.2561795776367187,1.7034744812011717,-11.165359442138671,-0.8091603053435115,0.5267175572519084,-1.297709923664122
5296668397196,4.309608227,1,0.2442085693359375,1.7717092285156248,-11.17852755126953,-0.8778625954198473,0.6106870229007634,-1.3358778625954197
5296675727977,4.316939008,1,0.21906945190429686,1.7513585144042967,-11.261127508544922,-0.8473282442748091,0.5114503816793893,-1.3358778625954197
5296683099071,4.324310102,1,0.19871873779296872,1.7262193969726563,-11.156979736328124,-0.7786259541984732,0.5954198473282443,-1.366412213740458
5296690411884,4.331622915,1,0.2262520568847656,1.7465701110839842,-11.227608685302734,-0.8702290076335878,0.5877862595419847,-1.297709923664122
5296697710894,4.338921925,1,0.25737667846679685,1.7214309936523438,-11.152191333007812,-0.8396946564885496,0.5190839694656488,-1.2900763358778626
5296705054957,4.346265988,1,0.18076222534179687,1.6711527587890624,-11.219228979492186,-0.7938931297709924,0.5648854961832062,-1.3206106870229009
5296712424904,4.353635935,1,0.24660277099609373,1.7465701110839842,-11.17852755126953,-0.8625954198473282,0.5725190839694656,-1.2671755725190839
5296719778394,4.360989425,1,0.2861070983886719,1.7262193969726563,-11.15338843383789,-0.7786259541984732,0.46564885496183206,-1.2671755725190839
5296727146571,4.368357602,1,0.16879121704101563,1.7322049011230467,-11.19169566040039,-0.8625954198473282,0.4961832061068702,-1.3282442748091603
5296734535165,4.375746196,1,0.25737667846679685,1.7226280944824217,-11.159373937988281,-0.8320610687022901,0.5954198473282443,-1.3740458015267176
5296741858811,4.383069842,1,0.25258827514648435,1.7764976318359373,-11.086350787353515,-0.7557251908396947,0.5267175572519084,-1.3435114503816794
5296749192821,4.390403852,1,0.2059013427734375,1.7190367919921874,-11.155782635498046,-0.8015267175572519,0.5114503816793893,-1.2748091603053435
5296756500425,4.397711456,1,0.24660277099609373,1.715445489501953,-11.127052215576171,-0.9236641221374046,0.5801526717557252,-1.2671755725190839
5296763859904,4.405070935,1,0.19512743530273435,1.715445489501953,-11.166556542968749,-0.7786259541984732,0.5343511450381679,-1.3740458015267176
5296771223029,4.41243406,1,0.229843359375,1.7369933044433592,-11.143811627197264,-0.8778625954198473,0.5572519083969466,-1.3282442748091603
5296778564436,4.419775467,1,0.2741360900878906,1.7214309936523438,-11.231199987792968,-0.7862595419847328,0.5725190839694656,-1.297709923664122
5296785897977,4.427109008,1,0.258573779296875,1.734599102783203,-11.141417425537108,-0.7938931297709924,0.5114503816793893,-1.2671755725190839
5296793251363,4.434462394,1,0.239420166015625,1.6891092712402342,-11.200075366210937,-0.7862595419847328,0.5419847328244275,-1.297709923664122
5296800594332,4.441805363,1,0.19512743530273435,1.696291876220703,-11.167753643798827,-0.7175572519083969,0.5572519083969466,-1.3282442748091603
5296807898290,4.449109321,1,0.25139117431640623,1.7549498168945312,-11.168950744628905,-0.8625954198473282,0.6030534351145038,-1.2671755725190839
5296815310217,4.456521248,1,0.2214636535644531,1.7477672119140624,-11.188104357910156,-0.8396946564885496,0.48091603053435117,-1.3129770992366412
5296822705582,4.463916613,1,0.2154781494140625,1.7334020019531249,-11.156979736328124,-0.732824427480916,0.549618320610687,-1.3587786259541985
5296830035634,4.471246665,1,0.22744915771484372,1.7681179260253905,-11.15338843383789,-0.7862595419847328,0.5648854961832062,-1.3740458015267176
5296837559644,4.478770675,1,0.2741360900878906,1.7166425903320313,-11.184513055419922,-0.8625954198473282,0.5801526717557252,-1.3053435114503817
5296844979748,4.486190779,1,0.21188684692382811,1.7417817077636717,-11.227608685302734,-0.8320610687022901,0.5190839694656488,-1.381679389312977
5296852288915,4.493499946,1,0.2166752502441406,1.7417817077636717,-11.171344946289063,-0.8778625954198473,0.48854961832061067,-1.2900763358778626
5296859530165,4.500741196,1,0.22266075439453123,1.7705121276855467,-11.162965240478515,-0.8244274809160306,0.5954198473282443,-1.282442748091603
5296866912352,4.508123383,1,0.19871873779296872,1.7513585144042967,-11.171344946289063,-0.8320610687022901,0.5877862595419847,-1.3282442748091603
5296874272352,4.515483383,1,0.22744915771484372,1.6795324645996093,-11.209652172851563,-0.816793893129771,0.5572519083969466,-1.297709923664122
5296881571363,4.522782394,1,0.21068974609375,1.7082628845214842,-11.18571015625,-0.816793893129771,0.5801526717557252,-1.3435114503816794
5296888931936,4.530142967,1,0.22744915771484372,1.7274164978027342,-11.208455072021483,-0.8473282442748091,0.46564885496183206,-1.3893129770992367
5296896306727,4.537517758,1,0.17597382202148437,1.7405846069335937,-11.19887826538086,-0.8854961832061069,0.5343511450381679,-1.3282442748091603
5296903716206,4.544927237,1,0.20949264526367187,1.7405846069335937,-11.202469567871093,-0.8396946564885496,0.6564885496183206,-1.3129770992366412
5296911110269,4.5523213,1,0.20949264526367187,1.7274164978027342,-11.192892761230468,-0.7404580152671756,0.5343511450381679,-1.282442748091603
5296918505217,4.559716248,1,0.2537853759765625,1.7609353210449217,-11.226411584472656,-0.8549618320610687,0.5801526717557252,-1.3206106870229009
5296925839123,4.567050154,1,0.201112939453125,1.695094775390625,-11.176133349609374,-0.8396946564885496,0.46564885496183206,-1.2748091603053435
5296933112925,4.574323956,1,0.23343466186523437,1.7274164978027342,-11.165359442138671,-0.9389312977099237,0.6335877862595419,-1.2748091603053435
5296940499592,4.581710623,1,0.21308394775390624,1.7262193969726563,-11.208455072021483,-0.7786259541984732,0.5725190839694656,-1.297709923664122
5296947936675,4.589147706,1,0.1927332336425781,1.7178396911621092,-11.164162341308593,-0.8473282442748091,0.6030534351145038,-1.282442748091603
5296955249331,4.596460362,1,0.2537853759765625,1.7513585144042967,-11.18571015625,-0.9236641221374046,0.6717557251908397,-1.3206106870229009
5296962565113,4.603776144,1,0.20829554443359374,1.6771382629394531,-11.21683477783203,-0.8015267175572519,0.5419847328244275,-1.3358778625954197
5296969927769,4.6111388,1,0.17357962036132812,1.7034744812011717,-11.15338843383789,-0.8396946564885496,0.5419847328244275,-1.2748091603053435
5296977273863,4.618484894,1,0.22864625854492185,1.8004396484374998,-11.170147845458983,-0.8778625954198473,0.5343511450381679,-1.3053435114503817
5296984643654,4.625854685,1,0.26815058593749996,1.7178396911621092,-11.194089862060546,-0.816793893129771,0.5343511450381679,-1.3129770992366412
5296991940946,4.633151977,1,0.20829554443359374,1.7226280944824217,-11.231199987792968,-0.8931297709923665,0.5267175572519084,-1.3129770992366412
5296999290581,4.640501612,1,0.22744915771484372,1.7166425903320313,-11.164162341308593,-0.7709923664122137,0.5648854961832062,-1.251908396946565
5297006613706,4.647824737,1,0.23582886352539062,1.7489643127441405,-11.200075366210937,-0.732824427480916,0.5343511450381679,-1.3129770992366412
5297013940269,4.6551513,1,0.24061726684570311,1.697488977050781,-11.218031878662108,-0.7557251908396947,0.5114503816793893,-1.3435114503816794
5297021269436,4.662480467,1,0.181959326171875,1.7776947326660155,-11.197681164550781,-0.8091603053435115,0.5801526717557252,-1.3511450381679388
5297028683811,4.669894842,1,0.19991583862304688,1.707065783691406,-11.188104357910156,-0.7404580152671756,0.5419847328244275,-1.3358778625954197
5297036089175,4.677300206,1,0.22505495605468748,1.7357962036132812,-11.226411584472656,-0.8320610687022901,0.5572519083969466,-1.3129770992366412
5297043477092,4.684688123,1,0.2059013427734375,1.7621324218749999,-11.182118853759764,-0.8396946564885496,0.5877862595419847,-1.3129770992366412
5297050820738,4.692031769,1,0.19033903198242186,1.7357962036132812,-11.149797131347656,-0.7862595419847328,0.5190839694656488,-1.3587786259541985
5297058146884,4.699357915,1,0.2214636535644531,1.697488977050781,-11.155782635498046,-0.8244274809160306,0.5801526717557252,-1.3587786259541985
5297065506623,4.706717654,1,0.23104046020507812,1.7357962036132812,-11.201272467041015,-0.7480916030534351,0.5343511450381679,-1.3587786259541985
5297072889696,4.714100727,1,0.23343466186523437,1.7393875061035156,-11.208455072021483,-0.9083969465648855,0.5877862595419847,-1.3435114503816794
5297080291467,4.721502498,1,0.239420166015625,1.7561469177246092,-11.135431921386719,-0.9007633587786259,0.48854961832061067,-1.2748091603053435
5297087651050,4.728862081,1,0.2705447875976562,1.7130512878417967,-11.277886920166015,-0.8396946564885496,0.5114503816793893,-1.3282442748091603
5297095000842,4.736211873,1,0.2753331909179687,1.7453730102539062,-11.182118853759764,-0.8549618320610687,0.5267175572519084,-1.3511450381679388
5297102367352,4.743578383,1,0.24301146850585936,1.7118541870117185,-11.146205828857422,-0.7633587786259542,0.6259541984732825,-1.3206106870229009
5297109725373,4.750936404,1,0.19871873779296872,1.7465701110839842,-11.161768139648437,-0.8396946564885496,0.5267175572519084,-1.282442748091603
5297117072613,4.758283644,1,0.23223756103515625,1.7334020019531249,-11.127052215576171,-0.8854961832061069,0.5343511450381679,-1.3129770992366412
5297124467352,4.765678383,1,0.21188684692382811,1.7274164978027342,-11.200075366210937,-0.8320610687022901,0.5343511450381679,-1.2748091603053435
5297131814748,4.773025779,1,0.2262520568847656,1.7681179260253905,-11.200075366210937,-0.8549618320610687,0.5648854961832062,-1.2595419847328244
5297139219956,4.780430987,1,0.2154781494140625,1.6807295654296874,-11.131840618896483,-0.7862595419847328,0.6030534351145038,-1.3435114503816794
5297146614227,4.787825258,1,0.19991583862304688,1.7501614135742187,-11.177330450439452,-0.816793893129771,0.5343511450381679,-1.3282442748091603
5297153950373,4.795161404,1,0.25258827514648435,1.7489643127441405,-11.168950744628905,-0.7175572519083969,0.6030534351145038,-1.381679389312977
5297161264696,4.802475727,1,0.19512743530273435,1.7262193969726563,-11.190498559570312,-0.8549618320610687,0.6412213740458015,-1.3511450381679388
5297168664956,4.809875987,1,0.23343466186523437,1.7094599853515624,-11.212046374511718,-0.8549618320610687,0.45038167938931295,-1.3511450381679388
5297175987821,4.817198852,1,0.24061726684570311,1.725022296142578,-11.158176837158203,-0.8778625954198473,0.5419847328244275,-1.3282442748091603
5297183277665,4.824488696,1,0.25139117431640623,1.707065783691406,-11.17852755126953,-0.8473282442748091,0.5877862595419847,-1.282442748091603
5297190597196,4.831808227,1,0.19991583862304688,1.7238251953125,-11.246762298583985,-0.732824427480916,0.5801526717557252,-1.297709923664122
5297197914592,4.839125623,1,0.19871873779296872,1.705868682861328,-11.214440576171874,-0.7938931297709924,0.5648854961832062,-1.2366412213740459
5297205278498,4.846489529,1,0.2454056701660156,1.7501614135742187,-11.19887826538086,-0.9007633587786259,0.6259541984732825,-1.2366412213740459
5297212590946,4.853801977,1,0.26336218261718747,1.7118541870117185,-11.148600030517578,-0.8625954198473282,0.6030534351145038,-1.3893129770992367
5297219950738,4.861161769,1,0.2645592834472656,1.7310078002929687,-11.173739147949219,-0.8702290076335878,0.648854961832061,-1.3435114503816794
5297227315269,4.8685263,1,0.20949264526367187,1.7166425903320313,-11.130643518066405,-0.7862595419847328,0.5648854961832062,-1.3358778625954197
5297234707144,4.875918175,1,0.2549824768066406,1.7501614135742187,-11.214440576171874,-0.8473282442748091,0.5725190839694656,-1.3587786259541985
5297242044436,4.883255467,1,0.19512743530273435,1.7597382202148437,-11.222820281982422,-0.8473282442748091,0.5801526717557252,-1.3206106870229009
5297249452300,4.890663331,1,0.19871873779296872,1.7525556152343749,-11.176133349609374,-0.8625954198473282,0.5572519083969466,-1.282442748091603
5297256810477,4.898021508,1,0.2154781494140625,1.715445489501953,-11.071985577392578,-0.816793893129771,0.5190839694656488,-1.3129770992366412
5297264154123,4.905365154,1,0.20829554443359374,1.7513585144042967,-11.069591375732422,-0.8702290076335878,0.48854961832061067,-1.381679389312977
5297271483290,4.912694321,1,0.21428104858398436,1.7106570861816406,-11.186907257080078,-0.7862595419847328,0.549618320610687,-1.3435114503816794
5297278829748,4.920040779,1,0.21787235107421873,1.7214309936523438,-11.189301458740234,-0.8396946564885496,0.6106870229007634,-1.3587786259541985
5297286202352,4.927413383,1,0.2561795776367187,1.7489643127441405,-11.143811627197264,-0.8244274809160306,0.6183206106870229,-1.3206106870229009
5297293539592,4.934750623,1,0.20709844360351562,1.7310078002929687,-11.117475408935546,-0.7557251908396947,0.5267175572519084,-1.366412213740458
5297300913498,4.942124529,1,0.22266075439453123,1.7094599853515624,-11.137826123046874,-0.8625954198473282,0.5877862595419847,-1.3893129770992367
5297308185373,4.949396404,1,0.2166752502441406,1.7238251953125,-11.197681164550781,-0.8702290076335878,0.5954198473282443,-1.3282442748091603
5297315603758,4.956814789,1,0.21308394775390624,1.7274164978027342,-11.165359442138671,-0.816793893129771,0.45038167938931295,-1.3282442748091603
5297322994071,4.964205102,1,0.18076222534179687,1.7549498168945312,-11.231199987792968,-0.8473282442748091,0.6335877862595419,-1.3129770992366412
5297330384331,4.971595362,1,0.2059013427734375,1.7010802795410156,-11.220426080322264,-0.8244274809160306,0.5419847328244275,-1.3587786259541985
5297337822456,4.979033487,1,0.21428104858398436,1.668758557128906,-11.2240173828125,-0.8015267175572519,0.5572519083969466,-1.2748091603053435
5297345285633,4.986496664,1,0.2262520568847656,1.7705121276855467,-11.145008728027342,-0.7938931297709924,0.5801526717557252,-1.366412213740458
5297352801050,4.994012081,1,0.239420166015625,1.7130512878417967,-11.19887826538086,-0.7709923664122137,0.6412213740458015,-1.3053435114503817
5297360143394,5.001354425,1,0.26336218261718747,1.7741034301757812,-11.231199987792968,-0.7938931297709924,0.5954198473282443,-1.3129770992366412
5297367495217,5.008706248,1,0.24660277099609373,1.7226280944824217,-11.19887826538086,-0.7022900763358778,0.5114503816793893,-1.3282442748091603
5297374907456,5.016118487,1,0.19991583862304688,1.697488977050781,-11.231199987792968,-0.7862595419847328,0.4961832061068702,-1.3435114503816794
5297382311831,5.023522862,1,0.22026655273437498,1.7657237243652342,-11.194089862060546,-0.8549618320610687,0.5190839694656488,-1.3358778625954197
5297389670633,5.030881664,1,0.22266075439453123,1.7621324218749999,-11.214440576171874,-0.8015267175572519,0.5801526717557252,-1.366412213740458
5297397058238,5.038269269,1,0.19871873779296872,1.7381904052734374,-11.16057103881836,-0.8396946564885496,0.5877862595419847,-1.3053435114503817
5297404477925,5.045688956,1,0.2645592834472656,1.7226280944824217,-11.221623181152344,-0.8854961832061069,0.6259541984732825,-1.3740458015267176
5297411840842,5.053051873,1,0.19991583862304688,1.7334020019531249,-11.202469567871093,-0.816793893129771,0.5954198473282443,-1.3358778625954197
5297419235008,5.060446039,1,0.20829554443359374,1.705868682861328,-11.215637677001952,-0.8015267175572519,0.6106870229007634,-1.2900763358778626
5297426577508,5.067788539,1,0.27892449340820313,1.7214309936523438,-11.165359442138671,-0.7633587786259542,0.5419847328244275,-1.3358778625954197
5297433942144,5.075153175,1,0.2549824768066406,1.7322049011230467,-11.209652172851563,-0.7862595419847328,0.5954198473282443,-1.2900763358778626
5297441303185,5.082514216,1,0.2609679809570312,1.744175909423828,-11.25514200439453,-0.8396946564885496,0.5725190839694656,-1.2748091603053435
5297448694279,5.08990531,1,0.2059013427734375,1.7369933044433592,-11.206060870361327,-0.8854961832061069,0.6030534351145038,-1.3053435114503817
5297456097040,5.097308071,1,0.19393033447265623,1.7657237243652342,-11.179724652099608,-0.7862595419847328,0.5954198473282443,-1.3053435114503817
5297463484748,5.104695779,1,0.26336218261718747,1.7226280944824217,-11.220426080322264,-0.8396946564885496,0.549618320610687,-1.297709923664122
5297470781988,5.111993019,1,0.23343466186523437,1.715445489501953,-11.14022032470703,-0.8320610687022901,0.5801526717557252,-1.3435114503816794
5297478114540,5.119325571,1,0.18435352783203124,1.6831237670898436,-11.167753643798827,-0.7557251908396947,0.5267175572519084,-1.2748091603053435
5297485445894,5.126656925,1,0.2537853759765625,1.7465701110839842,-11.154585534667968,-0.7633587786259542,0.549618320610687,-1.3740458015267176
5297492795060,5.134006091,1,0.23702596435546874,1.7214309936523438,-11.258733306884764,-0.7099236641221374,0.5648854961832062,-1.3587786259541985
5297500120477,5.141331508,1,0.1927332336425781,1.668758557128906,-11.270704315185545,-0.8931297709923665,0.6183206106870229,-1.3129770992366412
5297507489644,5.148700675,1,0.21428104858398436,1.7525556152343749,-11.214440576171874,-0.8854961832061069,0.6412213740458015,-1.3358778625954197
5297514856779,5.15606781,1,0.23223756103515625,1.734599102783203,-11.17852755126953,-0.7786259541984732,0.5419847328244275,-1.3053435114503817
5297522221154,5.163432185,1,0.2154781494140625,1.7525556152343749,-11.173739147949219,-0.8473282442748091,0.5267175572519084,-1.3053435114503817
5297529570581,5.170781612,1,0.2442085693359375,1.7513585144042967,-11.209652172851563,-0.8396946564885496,0.5877862595419847,-1.3969465648854962
5297536949175,5.178160206,1,0.22266075439453123,1.7262193969726563,-11.231199987792968,-0.7633587786259542,0.42748091603053434,-1.2900763358778626
5297544322821,5.185533852,1,0.20231004028320312,1.6998831787109374,-11.170147845458983,-0.8625954198473282,0.5877862595419847,-1.3435114503816794
5297551691988,5.192903019,1,0.24301146850585936,1.7010802795410156,-11.206060870361327,-0.8320610687022901,0.6030534351145038,-1.3511450381679388
5297559085060,5.200296091,1,0.20350714111328125,1.7597382202148437,-11.159373937988281,-0.8091603053435115,0.5648854961832062,-1.3053435114503817
5297566447352,5.207658383,1,0.22744915771484372,1.678335363769531,-11.228805786132812,-0.8244274809160306,0.5038167938931297,-1.2671755725190839
5297573774644,5.214985675,1,0.22385785522460935,1.7597382202148437,-11.146205828857422,-0.8015267175572519,0.6030534351145038,-1.2748091603053435
5297581106987,5.222318018,1,0.23582886352539062,1.6986860778808592,-11.165359442138671,-0.7938931297709924,0.3969465648854962,-1.3587786259541985
5297588426727,5.229637758,1,0.19632453613281248,1.7741034301757812,-11.165359442138671,-0.816793893129771,0.5801526717557252,-1.3206106870229009
5297595761415,5.236972446,1,0.2346317626953125,1.7274164978027342,-11.265915911865234,-0.8244274809160306,0.5954198473282443,-1.3435114503816794
5297603126831,5.244337862,1,0.2501940734863281,1.7310078002929687,-11.182118853759764,-0.7786259541984732,0.5648854961832062,-1.3358778625954197
5297610731571,5.251942602,1,0.19991583862304688,1.725022296142578,-11.252747802734374,-0.8854961832061069,0.6259541984732825,-1.3206106870229009
5297618109904,5.259320935,1,0.24779987182617186,1.7489643127441405,-11.195286962890624,-0.7557251908396947,0.6564885496183206,-1.3282442748091603
5297625462769,5.2666738,1,0.27293898925781246,1.7585411193847655,-11.136629022216797,-0.9389312977099237,0.6564885496183206,-1.3282442748091603
5297632865946,5.274076977,1,0.23343466186523437,1.5466542724609373,-11.170147845458983,-0.7633587786259542,0.549618320610687,-1.366412213740458
5297640232404,5.281443435,1,0.2609679809570312,1.7645266235351562,-11.190498559570312,-0.8320610687022901,0.5038167938931297,-1.3511450381679388
5297647656362,5.288867393,1,0.2609679809570312,1.707065783691406,-11.183315954589844,-0.8091603053435115,0.5954198473282443,-1.3206106870229009
5297655005633,5.296216664,1,0.19991583862304688,1.6998831787109374,-11.257536206054686,-0.7786259541984732,0.6030534351145038,-1.3358778625954197
5297662888967,5.304099998,1,0.20949264526367187,1.7094599853515624,-11.170147845458983,-0.8244274809160306,0.5648854961832062,-1.3587786259541985
5297670416831,5.311627862,1,0.1975216369628906,1.7741034301757812,-11.148600030517578,-0.8549618320610687,0.5572519083969466,-1.3358778625954197
5297677730894,5.318941925,1,0.26815058593749996,1.7501614135742187,-11.17254204711914,-0.732824427480916,0.549618320610687,-1.3358778625954197
5297685088133,5.326299164,1,0.20949264526367187,1.7669208251953124,-11.170147845458983,-0.7480916030534351,0.5801526717557252,-1.2671755725190839
5297692390998,5.333602029,1,0.21428104858398436,1.7501614135742187,-11.133037719726563,-0.8244274809160306,0.6412213740458015,-1.2900763358778626
5297699747456,5.340958487,1,0.19512743530273435,1.7334020019531249,-11.159373937988281,-0.816793893129771,0.6183206106870229,-1.2900763358778626
5297707107352,5.348318383,1,0.22266075439453123,1.7609353210449217,-11.188104357910156,-0.8396946564885496,0.6030534351145038,-1.3358778625954197
5297714518185,5.355729216,1,0.25258827514648435,1.7190367919921874,-11.180921752929686,-0.8702290076335878,0.48854961832061067,-1.3511450381679388
5297721842144,5.363053175,1,0.18076222534179687,1.7357962036132812,-11.247959399414063,-0.8396946564885496,0.5114503816793893,-1.3282442748091603
5297729199175,5.370410206,1,0.2214636535644531,1.7717092285156248,-11.100715997314452,-0.8473282442748091,0.48091603053435117,-1.297709923664122
5297736606675,5.377817706,1,0.22385785522460935,1.7166425903320313,-11.149797131347656,-0.8015267175572519,0.4732824427480916,-1.3435114503816794
5297743984331,5.385195362,1,0.24181436767578124,1.7357962036132812,-11.200075366210937,-0.8320610687022901,0.5801526717557252,-1.3206106870229009
5297751383550,5.392594581,1,0.17118541870117188,1.7681179260253905,-11.219228979492186,-0.816793893129771,0.4961832061068702,-1.2900763358778626
5297758812717,5.400023748,1,0.2214636535644531,1.7501614135742187,-11.040860955810546,-0.8015267175572519,0.5343511450381679,-1.3129770992366412
5297766148342,5.407359373,1,0.239420166015625,1.7501614135742187,-11.262324609375,-0.8320610687022901,0.6106870229007634,-1.3587786259541985
5297773489852,5.414700883,1,0.18435352783203124,1.7489643127441405,-11.117475408935546,-0.7938931297709924,0.6335877862595419,-1.2748091603053435
5297780887612,5.422098643,1,0.26695348510742184,1.7118541870117185,-11.192892761230468,-0.8320610687022901,0.5419847328244275,-1.3129770992366412
5297788301467,5.429512498,1,0.20470424194335937,1.7645266235351562,-11.207257971191405,-0.8473282442748091,0.5725190839694656,-1.381679389312977
5297795682664,5.436893695,1,0.19632453613281248,1.7274164978027342,-11.130643518066405,-0.816793893129771,0.5725190839694656,-1.3511450381679388
5297803080998,5.444292029,1,0.2059013427734375,1.7202338928222656,-11.170147845458983,-0.7404580152671756,0.5114503816793893,-1.2595419847328244
5297810448081,5.451659112,1,0.20829554443359374,1.7310078002929687,-11.150994232177734,-0.7786259541984732,0.5877862595419847,-1.3053435114503817
5297817836154,5.459047185,1,0.25737667846679685,1.7705121276855467,-11.189301458740234,-0.7938931297709924,0.46564885496183206,-1.3282442748091603
5297825183446,5.466394477,1,0.20350714111328125,1.7166425903320313,-11.209652172851563,-0.8091603053435115,0.5190839694656488,-1.3053435114503817
5297832511883,5.473722914,1,0.22505495605468748,1.7334020019531249,-11.156979736328124,-0.8473282442748091,0.648854961832061,-1.2442748091603053
5297839959331,5.481170362,1,0.21308394775390624,1.7477672119140624,-11.195286962890624,-0.7862595419847328,0.5954198473282443,-1.3053435114503817
5297847370685,5.488581716,1,0.25737667846679685,1.7525556152343749,-11.213243475341796,-0.7786259541984732,0.5267175572519084,-1.3282442748091603
5297854749123,5.495960154,1,0.27293898925781246,1.7501614135742187,-11.182118853759764,-0.7938931297709924,0.5419847328244275,-1.3282442748091603
5297862122717,5.503333748,1,0.19991583862304688,1.7453730102539062,-11.166556542968749,-0.7633587786259542,0.5572519083969466,-1.2748091603053435
5297869461883,5.510672914,1,0.23223756103515625,1.7645266235351562,-11.225214483642578,-0.7175572519083969,0.5572519083969466,-1.2671755725190839
5297876883081,5.518094112,1,0.21308394775390624,1.7381904052734374,-11.180921752929686,-0.7633587786259542,0.5038167938931297,-1.3053435114503817
5297884292300,5.525503331,1,0.26815058593749996,1.7417817077636717,-11.156979736328124,-0.7709923664122137,0.6412213740458015,-1.3282442748091603
5297891660477,5.532871508,1,0.22864625854492185,1.7597382202148437,-11.208455072021483,-0.8778625954198473,0.549618320610687,-1.2213740458015268
5297899001154,5.540212185,1,0.21188684692382811,1.6819266662597656,-11.17852755126953,-0.7633587786259542,0.5114503816793893,-1.282442748091603
5297906387300,5.547598331,1,0.22744915771484372,1.7274164978027342,-11.195286962890624,-0.8320610687022901,0.5114503816793893,-1.3053435114503817
5297913766362,5.554977393,1,0.20470424194335937,1.7369933044433592,-11.194089862060546,-0.8473282442748091,0.5648854961832062,-1.3206106870229009
5297921151987,5.562363018,1,0.2597708801269531,1.7453730102539062,-11.226411584472656,-0.7862595419847328,0.46564885496183206,-1.3587786259541985
5297928419071,5.569630102,1,0.17956512451171874,1.70467158203125,-11.168950744628905,-0.8625954198473282,0.5801526717557252,-1.3587786259541985
5297935765164,5.576976195,1,0.24061726684570311,1.7621324218749999,-11.192892761230468,-0.8625954198473282,0.6259541984732825,-1.3206106870229009
5297943134383,5.584345414,1,0.21308394775390624,1.7393875061035156,-11.23000288696289,-0.7862595419847328,0.5190839694656488,-1.282442748091603
5297950524279,5.59173531,1,0.26216508178710934,1.68551796875,-11.173739147949219,-0.8015267175572519,0.5725190839694656,-1.3893129770992367
5297957848446,5.599059477,1,0.2154781494140625,1.7094599853515624,-11.235988391113281,-0.8549618320610687,0.6183206106870229,-1.3435114503816794
5297965175425,5.606386456,1,0.22744915771484372,1.7226280944824217,-11.1474029296875,-0.7480916030534351,0.5801526717557252,-1.3740458015267176
5297972517248,5.613728279,1,0.25737667846679685,1.7405846069335937,-11.195286962890624,-0.8549618320610687,0.6183206106870229,-1.3053435114503817
5297979807977,5.621019008,1,0.239420166015625,1.7669208251953124,-11.143811627197264,-0.8244274809160306,0.5038167938931297,-1.3358778625954197
5297987187664,5.628398695,1,0.24181436767578124,1.7262193969726563,-11.129446417236327,-0.816793893129771,0.5114503816793893,-1.381679389312977
5297994532664,5.635743695,1,0.2059013427734375,1.7286135986328124,-11.16057103881836,-0.8396946564885496,0.5801526717557252,-1.251908396946565
5298001908341,5.643119372,1,0.20350714111328125,1.7106570861816406,-11.161768139648437,-0.8244274809160306,0.5038167938931297,-1.4045801526717556
5298009265789,5.65047682,1,0.2561795776367187,1.7621324218749999,-11.222820281982422,-0.7633587786259542,0.5725190839694656,-1.3282442748091603
5298016574748,5.657785779,1,0.23343466186523437,1.7453730102539062,-11.177330450439452,-0.7786259541984732,0.549618320610687,-1.3053435114503817
5298023930581,5.665141612,1,0.22744915771484372,1.7238251953125,-11.197681164550781,-0.816793893129771,0.5419847328244275,-1.2748091603053435
5298031322091,5.672533122,1,0.2753331909179687,1.7334020019531249,-11.179724652099608,-0.8931297709923665,0.5419847328244275,-1.297709923664122
5298038725633,5.679936664,1,0.21787235107421873,1.6998831787109374,-11.194089862060546,-0.8091603053435115,0.5725190839694656,-1.2900763358778626
5298046090112,5.687301143,1,0.2442085693359375,1.7645266235351562,-11.195286962890624,-0.732824427480916,0.5038167938931297,-1.297709923664122
5298053468758,5.694679789,1,0.21428104858398436,1.7812860351562498,-11.155782635498046,-0.8702290076335878,0.6183206106870229,-1.251908396946565
5298060841727,5.702052758,1,0.20949264526367187,1.7717092285156248,-11.231199987792968,-0.7022900763358778,0.6030534351145038,-1.3129770992366412
5298068195737,5.709406768,1,0.22026655273437498,1.7286135986328124,-11.113884106445312,-0.8015267175572519,0.4961832061068702,-1.3358778625954197
5298075615841,5.716826872,1,0.23702596435546874,1.7226280944824217,-11.200075366210937,-0.8320610687022901,0.5877862595419847,-1.3206106870229009
5298082966883,5.724177914,1,0.2154781494140625,1.734599102783203,-11.186907257080078,-0.8091603053435115,0.5725190839694656,-1.2900763358778626
5298090354383,5.731565414,1,0.24061726684570311,1.7764976318359373,-11.152191333007812,-0.7251908396946565,0.5801526717557252,-1.3129770992366412
5298097723185,5.738934216,1,0.258573779296875,1.7513585144042967,-11.209652172851563,-0.8549618320610687,0.5877862595419847,-1.3129770992366412
5298105059696,5.746270727,1,0.24181436767578124,1.7788918334960937,-11.154585534667968,-0.8320610687022901,0.6183206106870229,-1.3435114503816794
5298112466519,5.75367755,1,0.25737667846679685,1.7226280944824217,-11.143811627197264,-0.9007633587786259,0.6030534351145038,-1.3206106870229009
5298119808550,5.761019581,1,0.2059013427734375,1.7369933044433592,-11.228805786132812,-0.9312977099236641,0.549618320610687,-1.3206106870229009
5298127191102,5.768402133,1,0.21906945190429686,1.7226280944824217,-11.179724652099608,-0.7557251908396947,0.5419847328244275,-1.3282442748091603
5298134532977,5.775744008,1,0.2561795776367187,1.7741034301757812,-11.167753643798827,-0.7862595419847328,0.5725190839694656,-1.3587786259541985
5298141900737,5.783111768,1,0.1927332336425781,1.8028338500976562,-11.121066711425781,-0.8549618320610687,0.6412213740458015,-1.3282442748091603
5298149307456,5.790518487,1,0.277727392578125,1.6807295654296874,-11.141417425537108,-0.7557251908396947,0.549618320610687,-1.3740458015267176
5298156765998,5.797977029,1,0.22864625854492185,1.7669208251953124,-11.329362255859374,-0.7862595419847328,0.6412213740458015,-1.3740458015267176
5298164309175,5.805520206,1,0.21308394775390624,1.6795324645996093,-11.143811627197264,-0.732824427480916,0.5725190839694656,-1.3129770992366412
5298171704071,5.812915102,1,0.17956512451171874,1.7238251953125,-11.204863769531249,-0.8702290076335878,0.5190839694656488,-1.381679389312977
5298179051154,5.820262185,1,0.20350714111328125,1.7429788085937499,-11.263521710205078,-0.8549618320610687,0.5343511450381679,-1.3740458015267176
5298186403706,5.827614737,1,0.22026655273437498,1.715445489501953,-11.23000288696289,-0.8244274809160306,0.5419847328244275,-1.3740458015267176
5298193750425,5.834961456,1,0.2166752502441406,1.7178396911621092,-11.202469567871093,-0.8549618320610687,0.5419847328244275,-1.2900763358778626
5298201098706,5.842309737,1,0.2442085693359375,1.7166425903320313,-11.227608685302734,-0.8015267175572519,0.6335877862595419,-1.3740458015267176
5298208471519,5.84968255,1,0.24301146850585936,1.7286135986328124,-11.196484063720703,-0.8091603053435115,0.4961832061068702,-1.3206106870229009
5298215800529,5.85701156,1,0.2059013427734375,1.744175909423828,-11.177330450439452,-0.7938931297709924,0.549618320610687,-1.2366412213740459
5298223185581,5.864396612,1,0.21308394775390624,1.7884686401367187,-11.133037719726563,-0.7480916030534351,0.6870229007633588,-1.3358778625954197
5298230548498,5.871759529,1,0.2657563842773437,1.7908628417968748,-11.113884106445312,-0.7557251908396947,0.5877862595419847,-1.297709923664122
5298237866727,5.879077758,1,0.23822306518554687,1.7417817077636717,-11.113884106445312,-0.7786259541984732,0.5801526717557252,-1.297709923664122
5298245250164,5.886461195,1,0.22385785522460935,1.7357962036132812,-11.21683477783203,-0.816793893129771,0.5877862595419847,-1.3282442748091603
5298252674435,5.893885466,1,0.19512743530273435,1.7489643127441405,-11.197681164550781,-0.7480916030534351,0.5801526717557252,-1.282442748091603
5298260077143,5.901288174,1,0.20350714111328125,1.763329522705078,-11.161768139648437,-0.8244274809160306,0.6335877862595419,-1.297709923664122
5298267425529,5.90863656,1,0.1867477294921875,1.7166425903320313,-11.192892761230468,-0.8015267175572519,0.6106870229007634,-1.3206106870229009
5298274775321,5.915986352,1,0.23343466186523437,1.7477672119140624,-11.195286962890624,-0.9007633587786259,0.5572519083969466,-1.3358778625954197
5298282124175,5.923335206,1,0.2059013427734375,1.7477672119140624,-11.204863769531249,-0.8778625954198473,0.4961832061068702,-1.3511450381679388
5298289489175,5.930700206,1,0.26216508178710934,1.7525556152343749,-11.18571015625,-0.7862595419847328,0.5572519083969466,-1.2900763358778626
5298296874748,5.938085779,1,0.23104046020507812,1.7393875061035156,-11.174936248779296,-0.916030534351145,0.5954198473282443,-1.2748091603053435
5298304288966,5.945499997,1,0.22864625854492185,1.7381904052734374,-11.200075366210937,-0.7786259541984732,0.6030534351145038,-1.2671755725190839
5298311655581,5.952866612,1,0.2154781494140625,1.7322049011230467,-11.203666668701171,-0.7938931297709924,0.5343511450381679,-1.3129770992366412
5298319002404,5.960213435,1,0.21188684692382811,1.7130512878417967,-11.194089862060546,-0.916030534351145,0.5954198473282443,-1.3053435114503817
5298326376779,5.96758781,1,0.20829554443359374,1.705868682861328,-11.154585534667968,-0.8396946564885496,0.6030534351145038,-1.282442748091603
5298333741571,5.974952602,1,0.23702596435546874,1.7322049011230467,-11.222820281982422,-0.7480916030534351,0.6335877862595419,-1.3053435114503817
5298341087300,5.982298331,1,0.22385785522460935,1.7429788085937499,-11.189301458740234,-0.8549618320610687,0.6259541984732825,-1.2671755725190839
5298348499383,5.989710414,1,0.21068974609375,1.7501614135742187,-11.168950744628905,-0.7709923664122137,0.5725190839694656,-1.3129770992366412
5298355882508,5.997093539,1,0.2537853759765625,1.7274164978027342,-11.17852755126953,-0.8549618320610687,0.5725190839694656,-1.2748091603053435
5298363284071,6.004495102,1,0.201112939453125,1.7657237243652342,-11.167753643798827,-0.7938931297709924,0.5877862595419847,-1.2366412213740459
5298370618966,6.011829997,1,0.2597708801269531,1.7094599853515624,-11.173739147949219,-0.7633587786259542,0.4732824427480916,-1.3053435114503817
