timestamp_ns,t_s,sensor_id,ax,ay,az,gx,gy,gz
5292531783552,0.172994583,2,8.139088543701172,5.719747766113281,0.7386112121582031,-1.7328244274809161,0.2366412213740458,-1.5954198473282444
5292538295635,0.179506666,2,8.130708837890625,5.795165118408203,0.7326257080078125,-1.7251908396946565,0.3282442748091603,-1.6564885496183206
5292544938083,0.186149114,2,8.085219006347655,5.749675286865234,0.6919242797851562,-1.83206106870229,0.1297709923664122,-1.5954198473282444
5292551585114,0.192796145,2,8.095992913818359,5.742492681884765,0.7110778930664062,-1.8015267175572518,0.22900763358778625,-1.5877862595419847
5292558246937,0.199457968,2,8.109161022949218,5.776011505126953,0.6452373474121094,-1.7633587786259541,0.22900763358778625,-1.5801526717557253
5292564916156,0.206127187,2,8.130708837890625,5.702988354492187,0.7266402038574218,-1.8015267175572518,0.16030534351145037,-1.5954198473282444
5292571538239,0.21274927,2,8.098387115478515,5.807136126708984,0.6883329772949218,-1.7557251908396947,0.26717557251908397,-1.6564885496183206
5292578252614,0.219463645,2,8.097190014648437,5.7077767578125,0.7158662963867187,-1.8015267175572518,0.2748091603053435,-1.6106870229007633
5292584906521,0.226117552,2,8.113949426269532,5.791573815917968,0.7254431030273437,-1.7709923664122138,0.16793893129770993,-1.6488549618320612
5292591576677,0.232787708,2,8.106766821289062,5.767631799316406,0.6739677673339843,-1.8549618320610688,0.3511450381679389,-1.6259541984732824
5292598246989,0.23945802,2,8.143876947021484,5.755660791015624,0.6955155822753906,-1.8854961832061068,0.2366412213740458,-1.6488549618320612
5292604914958,0.246125989,2,8.143876947021484,5.772420202636718,0.7015010864257812,-1.7709923664122138,0.1297709923664122,-1.5190839694656488
5292611576937,0.252787968,2,8.119934930419921,5.772420202636718,0.6907271789550781,-1.8778625954198473,0.3511450381679389,-1.6793893129770991
5292618249802,0.259460833,2,8.143876947021484,5.744886883544922,0.6907271789550781,-1.8473282442748091,0.17557251908396945,-1.5114503816793894
5292624915323,0.266126354,2,8.099584216308592,5.7508723876953125,0.679953271484375,-1.8473282442748091,0.22137404580152673,-1.6106870229007633
5292631577250,0.272788281,2,8.087613208007811,5.755660791015624,0.6847416748046875,-1.7709923664122138,0.22137404580152673,-1.6030534351145038
5292638247510,0.279458541,2,8.066065393066406,5.747281085205078,0.7709329345703124,-1.748091603053435,0.37404580152671757,-1.6030534351145038
5292644913187,0.286124218,2,8.135497241210937,5.754463690185546,0.6979097839355468,-1.7709923664122138,0.21374045801526717,-1.5267175572519085
5292651577458,0.292788489,2,8.125920434570313,5.736507177734374,0.6919242797851562,-1.8015267175572518,0.3053435114503817,-1.6106870229007633
5292658246625,0.299457656,2,8.110358123779296,5.728127471923828,0.6476315490722656,-1.748091603053435,0.3511450381679389,-1.4961832061068703
5292664911521,0.306122552,2,8.173804467773436,5.736507177734374,0.7422025146484375,-1.83206106870229,0.2366412213740458,-1.6030534351145038
5292671583448,0.312794479,2,8.079233502197265,5.729324572753906,0.7026981872558593,-1.748091603053435,0.2366412213740458,-1.5801526717557253
5292678243708,0.319454739,2,8.111555224609374,5.729324572753906,0.7577648254394531,-1.7633587786259541,0.3435114503816794,-1.6412213740458015
5292684915271,0.326126302,2,8.087613208007811,5.7137622619628905,0.729034405517578,-1.7709923664122138,0.17557251908396945,-1.618320610687023
5292691577823,0.332788854,2,8.061276989746093,5.764040496826172,0.7685387329101562,-1.717557251908397,0.22137404580152673,-1.6412213740458015
5292698246573,0.339457604,2,8.137891442871092,5.720944866943359,0.7074865905761718,-1.816793893129771,0.32061068702290074,-1.5648854961832062
5292704911000,0.346122031,2,8.111555224609374,5.764040496826172,0.7015010864257812,-1.816793893129771,0.22900763358778625,-1.6106870229007633
5292711580531,0.352791562,2,8.090007409667969,5.724536169433593,0.7996633544921875,-1.7557251908396947,0.31297709923664124,-1.633587786259542
5292718237354,0.359448385,2,8.142679846191406,5.743689782714843,0.8200140686035156,-1.6870229007633588,0.3969465648854962,-1.6030534351145038
5292724922354,0.366133385,2,8.163030560302733,5.779602807617187,0.7050923889160156,-1.7786259541984732,0.19083969465648856,-1.4885496183206106
5292731576364,0.372787395,2,8.137891442871092,5.760449194335937,0.7517793212890624,-1.7709923664122138,0.2824427480916031,-1.534351145038168
5292738242614,0.379453645,2,8.118737829589843,5.759252093505859,0.7062894897460937,-1.7251908396946565,0.2824427480916031,-1.6793893129770991
5292744913291,0.386124322,2,8.099584216308592,5.768828900146484,0.7254431030273437,-1.7938931297709924,0.21374045801526717,-1.5877862595419847
5292751581208,0.392792239,2,8.099584216308592,5.711368060302734,0.6979097839355468,-1.7633587786259541,0.37404580152671757,-1.6259541984732824
5292758245687,0.399456718,2,8.148665350341796,5.711368060302734,0.7793126403808593,-1.7099236641221374,0.22137404580152673,-1.5877862595419847
5292764914593,0.406125624,2,8.10796392211914,5.737704278564453,0.7793126403808593,-1.748091603053435,0.21374045801526717,-1.5648854961832062
5292771600114,0.412811145,2,8.11514652709961,5.741295581054687,0.7170633972167968,-1.748091603053435,0.2900763358778626,-1.5725190839694656
5292778248239,0.41945927,2,8.143876947021484,5.776011505126953,0.679953271484375,-1.7709923664122138,0.2900763358778626,-1.717557251908397
5292784909021,0.426120052,2,8.11514652709961,5.734112976074218,0.7673416320800781,-1.6717557251908397,0.25190839694656486,-1.717557251908397
5292791578812,0.432789843,2,8.118737829589843,5.720944866943359,0.7110778930664062,-1.7633587786259541,0.1984732824427481,-1.549618320610687
5292798242823,0.439453854,2,8.124723333740233,5.748478186035156,0.7912836486816406,-1.7633587786259541,0.33587786259541985,-1.5190839694656488
5292804915427,0.446126458,2,8.112752325439452,5.77122310180664,0.7565677246093749,-1.717557251908397,0.2748091603053435,-1.6717557251908397
5292811571000,0.452782031,2,8.13310303955078,5.7520694885253905,0.6787561706542968,-1.7099236641221374,0.183206106870229,-1.549618320610687
5292818244177,0.459455208,2,8.129511737060547,5.7520694885253905,0.70868369140625,-1.8015267175572518,0.35877862595419846,-1.6488549618320612
5292824912927,0.466123958,2,8.14627114868164,5.711368060302734,0.70868369140625,-1.748091603053435,0.20610687022900764,-1.5038167938931297
5292831576729,0.47278776,2,8.098387115478515,5.708973858642578,0.7206546997070312,-1.7099236641221374,0.33587786259541985,-1.6717557251908397
5292838265323,0.479476354,2,8.112752325439452,5.776011505126953,0.7026981872558593,-1.7328244274809161,0.366412213740458,-1.5648854961832062
5292844912093,0.486123124,2,8.111555224609374,5.748478186035156,0.7577648254394531,-1.7251908396946565,0.21374045801526717,-1.6564885496183206
5292851582354,0.492793385,2,8.081627703857421,5.787982513427734,0.7278373046875,-1.7709923664122138,0.1297709923664122,-1.5648854961832062
5292858211416,0.499422447,2,8.078036401367187,5.724536169433593,0.7062894897460937,-1.786259541984733,0.3511450381679389,-1.5725190839694656
5292864914281,0.506125312,2,8.11514652709961,5.735310076904296,0.7242460021972655,-1.748091603053435,0.19083969465648856,-1.6793893129770991
5292871580323,0.512791354,2,8.084021905517577,5.754463690185546,0.6751648681640625,-1.717557251908397,0.24427480916030533,-1.549618320610687
5292878245218,0.519456249,2,8.066065393066406,5.761646295166015,0.82360537109375,-1.7404580152671756,0.42748091603053434,-1.5877862595419847
5292884909229,0.52612026,2,8.078036401367187,5.747281085205078,0.7254431030273437,-1.786259541984733,0.17557251908396945,-1.6259541984732824
5292891532562,0.532743593,2,8.111555224609374,5.764040496826172,0.8020575561523438,-1.7709923664122138,0.22900763358778625,-1.6106870229007633
5292898273708,0.539484739,2,8.111555224609374,5.7520694885253905,0.6979097839355468,-1.8549618320610688,0.22900763358778625,-1.549618320610687
5292905000843,0.546211874,2,8.097190014648437,5.742492681884765,0.7170633972167968,-1.748091603053435,0.06870229007633588,-1.5877862595419847
5292911595375,0.552806406,2,8.117540728759765,5.742492681884765,0.7170633972167968,-1.8625954198473282,0.26717557251908397,-1.549618320610687
5292918262771,0.559473802,2,8.118737829589843,5.719747766113281,0.7721300354003906,-1.8625954198473282,0.31297709923664124,-1.5114503816793894
5292924913239,0.56612427,2,8.149862451171874,5.79037671508789,0.7733271362304687,-1.7557251908396947,0.31297709923664124,-1.5877862595419847
5292931575896,0.572786927,2,8.106766821289062,5.77122310180664,0.719457598876953,-1.8091603053435115,0.17557251908396945,-1.5877862595419847
5292938251937,0.579462968,2,8.08881030883789,5.79037671508789,0.7110778930664062,-1.717557251908397,0.2748091603053435,-1.6488549618320612
5292944910323,0.586121354,2,8.106766821289062,5.718550665283203,0.6751648681640625,-1.786259541984733,0.29770992366412213,-1.6488549618320612
5292951580687,0.592791718,2,8.139088543701172,5.764040496826172,0.7110778930664062,-1.7557251908396947,0.2366412213740458,-1.5572519083969465
5292958243239,0.59945427,2,8.128314636230469,5.735310076904296,0.7601590270996094,-1.786259541984733,0.19083969465648856,-1.5190839694656488
5292964896833,0.606107864,2,8.099584216308592,5.79037671508789,0.7062894897460937,-1.8015267175572518,0.24427480916030533,-1.5877862595419847
5292971585062,0.612796093,2,8.091204510498047,5.749675286865234,0.699106884765625,-1.8396946564885497,0.030534351145038167,-1.6259541984732824
5292978247198,0.619458229,2,8.098387115478515,5.768828900146484,0.7074865905761718,-1.7404580152671756,0.29770992366412213,-1.4809160305343512
5292984912770,0.626123801,2,8.125920434570313,5.801150622558594,0.7122749938964843,-1.748091603053435,0.26717557251908397,-1.5648854961832062
5292991575895,0.632786926,2,8.12113203125,5.736507177734374,0.7350199096679687,-1.7938931297709924,0.20610687022900764,-1.534351145038168
5292998240583,0.639451614,2,8.10796392211914,5.685031842041015,0.679953271484375,-1.6946564885496183,0.33587786259541985,-1.5725190839694656
5293004914177,0.646125208,2,8.148665350341796,5.710170959472656,0.7398083129882812,-1.8015267175572518,0.2900763358778626,-1.5801526717557253
5293011576729,0.65278776,2,8.07683930053711,5.719747766113281,0.7493851196289062,-1.816793893129771,0.17557251908396945,-1.5725190839694656
5293018243395,0.659454426,2,8.123526232910155,5.7317187744140625,0.74699091796875,-1.7709923664122138,0.16030534351145037,-1.6259541984732824
5293024918760,0.666129791,2,8.149862451171874,5.736507177734374,0.6739677673339843,-1.7786259541984732,0.2595419847328244,-1.633587786259542
5293031579437,0.672790468,2,8.141482745361328,5.755660791015624,0.70868369140625,-1.83206106870229,0.2366412213740458,-1.618320610687023
5293038246000,0.679457031,2,8.232462408447265,5.698199951171874,0.709880792236328,-1.8244274809160306,0.2824427480916031,-1.5038167938931297
5293044914541,0.686125572,2,8.079233502197265,5.700594152832031,0.6548141540527344,-1.7633587786259541,0.19083969465648856,-1.7251908396946565
5293051571677,0.692782708,2,8.078036401367187,5.700594152832031,0.6416460449218749,-1.7557251908396947,0.22137404580152673,-1.5648854961832062
5293058243864,0.699454895,2,8.118737829589843,5.725733270263672,0.6416460449218749,-1.7404580152671756,0.22900763358778625,-1.5572519083969465
5293064911104,0.706122135,2,8.116343627929687,5.7329158752441405,0.6703764648437499,-1.7404580152671756,0.13740458015267176,-1.4961832061068703
5293071579385,0.712790416,2,8.036137872314452,5.741295581054687,0.6955155822753906,-1.8015267175572518,0.13740458015267176,-1.6412213740458015
5293078244958,0.719455989,2,8.139088543701172,5.711368060302734,0.7577648254394531,-1.7557251908396947,0.2366412213740458,-1.6412213740458015
5293084915791,0.726126822,2,8.131905938720703,5.740098480224609,0.7529764221191406,-1.717557251908397,0.2900763358778626,-1.5877862595419847
5293091573604,0.732784635,2,8.145074047851562,5.723339068603515,0.6380547424316406,-1.748091603053435,0.25190839694656486,-1.4885496183206106
5293098249802,0.739460833,2,8.131905938720703,5.741295581054687,0.6631938598632812,-1.7557251908396947,0.25190839694656486,-1.6488549618320612
5293104912510,0.746123541,2,8.07683930053711,5.736507177734374,0.7146691955566405,-1.7938931297709924,0.33587786259541985,-1.5648854961832062
5293111576416,0.752787447,2,8.105569720458984,5.742492681884765,0.6452373474121094,-1.6870229007633588,0.2366412213740458,-1.7251908396946565
5293118248135,0.759459166,2,8.130708837890625,5.777208605957031,0.7062894897460937,-1.7404580152671756,0.24427480916030533,-1.6030534351145038
5293124916625,0.766127656,2,8.087613208007811,5.6946086486816405,0.6979097839355468,-1.7404580152671756,0.24427480916030533,-1.6412213740458015
5293131575375,0.772786406,2,8.078036401367187,5.766434698486328,0.7433996154785156,-1.8015267175572518,0.16793893129770993,-1.5877862595419847
5293138243083,0.779454114,2,8.061276989746093,5.758054992675781,0.7170633972167968,-1.7099236641221374,0.2824427480916031,-1.633587786259542
5293144909489,0.78612052,2,8.143876947021484,5.740098480224609,0.7936778503417968,-1.8091603053435115,0.2900763358778626,-1.5267175572519085
5293151574385,0.792785416,2,8.109161022949218,5.749675286865234,0.7326257080078125,-1.7709923664122138,0.17557251908396945,-1.6488549618320612
5293158246208,0.799457239,2,8.100781317138672,5.749675286865234,0.6715735656738281,-1.7709923664122138,0.2748091603053435,-1.5725190839694656
5293164912458,0.806123489,2,8.078036401367187,5.740098480224609,0.7362170104980469,-1.8015267175572518,0.22137404580152673,-1.5419847328244274
5293171581000,0.812792031,2,8.141482745361328,5.705382556152343,0.6871358764648438,-1.786259541984733,0.2900763358778626,-1.6259541984732824
5293178246677,0.819457708,2,8.130708837890625,5.741295581054687,0.6979097839355468,-1.7633587786259541,0.3053435114503817,-1.5190839694656488
5293184908552,0.826119583,2,8.130708837890625,5.741295581054687,0.7996633544921875,-1.83206106870229,0.2900763358778626,-1.5954198473282444
5293191575375,0.832786406,2,8.130708837890625,5.776011505126953,0.7062894897460937,-1.7786259541984732,0.1297709923664122,-1.534351145038168
5293198243343,0.839454374,2,8.167818963623047,5.776011505126953,0.7062894897460937,-1.7251908396946565,0.2824427480916031,-1.5190839694656488
5293204911729,0.84612276,2,8.154650854492187,5.77122310180664,0.7062894897460937,-1.7633587786259541,0.2366412213740458,-1.534351145038168
5293211581000,0.852792031,2,8.095992913818359,5.741295581054687,0.7541735229492187,-1.7633587786259541,0.25190839694656486,-1.6259541984732824
5293218249802,0.859460833,2,8.119934930419921,5.780799908447265,0.7170633972167968,-1.7328244274809161,0.25190839694656486,-1.618320610687023
5293224913864,0.866124895,2,8.058882788085937,5.773617303466796,0.6883329772949218,-1.7404580152671756,0.3053435114503817,-1.618320610687023
5293231576520,0.872787551,2,8.070853796386718,5.7843912109375,0.8032546569824218,-1.7633587786259541,0.29770992366412213,-1.6793893129770991
5293238242510,0.879453541,2,8.125920434570313,5.761646295166015,0.7074865905761718,-1.7633587786259541,0.2366412213740458,-1.6564885496183206
5293244913343,0.886124374,2,8.064868292236328,5.742492681884765,0.7134720947265625,-1.83206106870229,0.40458015267175573,-1.5572519083969465
5293251577458,0.892788489,2,8.103175518798828,5.779602807617187,0.6356605407714844,-1.6641221374045803,0.2366412213740458,-1.6793893129770991
5293258244229,0.89945526,2,8.123526232910155,5.734112976074218,0.6703764648437499,-1.7404580152671756,0.183206106870229,-1.6259541984732824
5293264912718,0.906123749,2,8.112752325439452,5.718550665283203,0.6715735656738281,-1.7938931297709924,0.33587786259541985,-1.6259541984732824
5293271608187,0.912819218,2,8.081627703857421,5.783194110107422,0.7242460021972655,-1.83206106870229,0.26717557251908397,-1.633587786259542
5293278262614,0.919473645,2,8.092401611328125,5.740098480224609,0.594959112548828,-1.786259541984733,0.16030534351145037,-1.6870229007633588
5293284933031,0.926144062,2,8.098387115478515,5.785588311767578,0.699106884765625,-1.8244274809160306,0.3282442748091603,-1.5419847328244274
5293291591364,0.932802395,2,8.155847955322265,5.813121630859374,0.7721300354003906,-1.7328244274809161,0.32061068702290074,-1.5725190839694656
5293298268239,0.93947927,2,8.109161022949218,5.773617303466796,0.7410054138183594,-1.702290076335878,0.25190839694656486,-1.6564885496183206
5293304924020,0.946135051,2,8.14028564453125,5.759252093505859,0.7457938171386719,-1.786259541984733,0.3435114503816794,-1.534351145038168
5293311580114,0.952791145,2,8.09479581298828,5.734112976074218,0.7050923889160156,-1.8396946564885497,0.3053435114503817,-1.717557251908397
5293318254489,0.95946552,2,8.087613208007811,5.754463690185546,0.7745242370605468,-1.7328244274809161,0.1984732824427481,-1.5572519083969465
5293324923031,0.966134062,2,8.118737829589843,5.768828900146484,0.699106884765625,-1.7938931297709924,0.3282442748091603,-1.6870229007633588
5293331584072,0.972795103,2,8.013392956542969,5.704185455322265,0.6619967590332031,-1.8015267175572518,0.2595419847328244,-1.5725190839694656
5293338255947,0.979466978,2,8.166621862792969,5.776011505126953,0.7457938171386719,-1.6717557251908397,0.19083969465648856,-1.6488549618320612
5293344923031,0.986134062,2,8.152256652832031,5.776011505126953,0.7206546997070312,-1.6793893129770991,0.2366412213740458,-1.5267175572519085
5293351585114,0.992796145,2,8.109161022949218,5.742492681884765,0.7206546997070312,-1.786259541984733,0.2595419847328244,-1.6412213740458015
5293358261104,0.999472135,2,8.105569720458984,5.722141967773437,0.709880792236328,-1.786259541984733,0.24427480916030533,-1.5114503816793894
5293364917718,1.006128749,2,8.117540728759765,5.717353564453124,0.7110778930664062,-1.7786259541984732,0.24427480916030533,-1.5801526717557253
5293371540375,1.012751406,2,8.130708837890625,5.767631799316406,0.7350199096679687,-1.8396946564885497,0.20610687022900764,-1.5801526717557253
5293378252822,1.019463853,2,8.084021905517577,5.7137622619628905,0.6859387756347656,-1.7938931297709924,0.25190839694656486,-1.633587786259542
5293384923083,1.026134114,2,8.135497241210937,5.7149593627929685,0.7158662963867187,-1.8091603053435115,0.1984732824427481,-1.6412213740458015
5293391579906,1.032790937,2,8.087613208007811,5.7700260009765625,0.729034405517578,-1.748091603053435,0.22137404580152673,-1.5877862595419847
5293398256208,1.039467239,2,8.079233502197265,5.725733270263672,0.7266402038574218,-1.7938931297709924,0.26717557251908397,-1.534351145038168
5293404918187,1.046129218,2,8.147468249511718,5.7508723876953125,0.7026981872558593,-1.7938931297709924,0.33587786259541985,-1.6488549618320612
5293411580791,1.052791822,2,8.106766821289062,5.706579656982422,0.7445967163085937,-1.748091603053435,0.21374045801526717,-1.5038167938931297
5293418254020,1.059465051,2,8.14028564453125,5.699397052001952,0.6883329772949218,-1.7786259541984732,0.3053435114503817,-1.633587786259542
5293424921781,1.066132812,2,8.084021905517577,5.7520694885253905,0.7338228088378905,-1.8015267175572518,0.2900763358778626,-1.6259541984732824
5293431582822,1.072793853,2,8.112752325439452,5.799953521728515,0.7398083129882812,-1.717557251908397,0.2824427480916031,-1.6793893129770991
5293438260166,1.079471197,2,8.131905938720703,5.744886883544922,0.7876923461914062,-1.8702290076335877,0.1984732824427481,-1.5267175572519085
5293444918291,1.086129322,2,8.085219006347655,5.767631799316406,0.6679822631835937,-1.816793893129771,0.31297709923664124,-1.618320610687023
5293451587874,1.092798905,2,8.124723333740233,5.710170959472656,0.7613561279296874,-1.748091603053435,0.25190839694656486,-1.618320610687023
5293458254020,1.099465051,2,8.125920434570313,5.730521673583984,0.7314286071777343,-1.748091603053435,0.2595419847328244,-1.5419847328244274
5293464922927,1.106133958,2,8.149862451171874,5.80953032836914,0.6907271789550781,-1.7709923664122138,0.25190839694656486,-1.7099236641221374
5293471588395,1.112799426,2,8.106766821289062,5.7700260009765625,0.6751648681640625,-1.8473282442748091,0.29770992366412213,-1.5419847328244274
5293478262302,1.119473333,2,8.086416107177733,5.741295581054687,0.7326257080078125,-1.7557251908396947,0.1297709923664122,-1.6564885496183206
5293484920583,1.126131614,2,8.086416107177733,5.735310076904296,0.6883329772949218,-1.717557251908397,0.2595419847328244,-1.5648854961832062
5293491583604,1.132794635,2,8.152256652832031,5.735310076904296,0.7230489013671875,-1.8091603053435115,0.3053435114503817,-1.618320610687023
5293498254489,1.13946552,2,8.157045056152343,5.759252093505859,0.7230489013671875,-1.8091603053435115,0.22137404580152673,-1.5954198473282444
5293504921572,1.146132603,2,8.095992913818359,5.734112976074218,0.6883329772949218,-1.7099236641221374,0.22137404580152673,-1.633587786259542
5293511588968,1.152799999,2,8.074445098876952,5.7329158752441405,0.6787561706542968,-1.7557251908396947,0.17557251908396945,-1.633587786259542
5293518258708,1.159469739,2,8.147468249511718,5.743689782714843,0.7230489013671875,-1.748091603053435,0.22900763358778625,-1.5877862595419847
5293524925895,1.166136926,2,8.08881030883789,5.748478186035156,0.70868369140625,-1.7099236641221374,0.22900763358778625,-1.5877862595419847
5293531586260,1.172797291,2,8.098387115478515,5.748478186035156,0.7242460021972655,-1.717557251908397,0.26717557251908397,-1.5725190839694656
5293538253499,1.17946453,2,8.110358123779296,5.747281085205078,0.6775590698242188,-1.702290076335878,0.2824427480916031,-1.5038167938931297
5293544923812,1.186134843,2,8.166621862792969,5.758054992675781,0.6943184814453125,-1.7786259541984732,0.22900763358778625,-1.6564885496183206
5293551584072,1.192795103,2,8.125920434570313,5.7520694885253905,0.7661445312499999,-1.7938931297709924,0.2748091603053435,-1.6106870229007633
5293558252145,1.199463176,2,8.087613208007811,5.761646295166015,0.6859387756347656,-1.7251908396946565,0.1297709923664122,-1.5954198473282444
5293564921572,1.206132603,2,8.10197841796875,5.755660791015624,0.7398083129882812,-1.8015267175572518,0.29770992366412213,-1.5419847328244274
5293571589177,1.212800208,2,8.139088543701172,5.737704278564453,0.6943184814453125,-1.7938931297709924,0.366412213740458,-1.6259541984732824
5293578257145,1.219468176,2,8.116343627929687,5.725733270263672,0.6847416748046875,-1.7557251908396947,0.16793893129770993,-1.6106870229007633
5293584922614,1.226133645,2,8.093598712158203,5.7329158752441405,0.7170633972167968,-1.7251908396946565,0.2595419847328244,-1.5725190839694656
5293591578916,1.232789947,2,8.109161022949218,5.735310076904296,0.7457938171386719,-1.7557251908396947,0.31297709923664124,-1.6030534351145038
5293598266156,1.239477187,2,8.060079888916015,5.776011505126953,0.7062894897460937,-1.7557251908396947,0.1984732824427481,-1.6106870229007633
5293604921416,1.246132447,2,8.119934930419921,5.744886883544922,0.7876923461914062,-1.7557251908396947,0.25190839694656486,-1.5877862595419847
5293611582874,1.252793905,2,8.112752325439452,5.740098480224609,0.7254431030273437,-1.7557251908396947,0.2366412213740458,-1.5877862595419847
5293618253656,1.259464687,2,8.095992913818359,5.761646295166015,0.7122749938964843,-1.7328244274809161,0.16030534351145037,-1.6793893129770991
5293624906937,1.266117968,2,8.095992913818359,5.749675286865234,0.679953271484375,-1.7633587786259541,0.21374045801526717,-1.549618320610687
5293631586885,1.272797916,2,8.122329132080077,5.749675286865234,0.7206546997070312,-1.748091603053435,0.29770992366412213,-1.6564885496183206
5293638295791,1.279506822,2,8.106766821289062,5.801150622558594,0.7649474304199219,-1.8015267175572518,0.19083969465648856,-1.5725190839694656
5293644929072,1.286140103,2,8.142679846191406,5.740098480224609,0.7649474304199219,-1.8015267175572518,0.29770992366412213,-1.618320610687023
5293651588499,1.29279953,2,8.16542476196289,5.7520694885253905,0.7338228088378905,-1.7709923664122138,0.33587786259541985,-1.6030534351145038
5293658266416,1.299477447,2,8.124723333740233,5.698199951171874,0.719457598876953,-1.786259541984733,0.33587786259541985,-1.6030534351145038
5293664924437,1.306135468,2,8.16542476196289,5.754463690185546,0.6584054565429687,-1.7404580152671756,0.1984732824427481,-1.6412213740458015
5293671589385,1.312800416,2,8.170213165283203,5.749675286865234,0.7577648254394531,-1.7786259541984732,0.366412213740458,-1.6106870229007633
5293678277041,1.319488072,2,8.080430603027343,5.746083984375,0.7026981872558593,-1.8396946564885497,0.1984732824427481,-1.5648854961832062
5293684923551,1.326134582,2,8.10796392211914,5.7317187744140625,0.7888894470214843,-1.7251908396946565,0.2748091603053435,-1.5954198473282444
5293691586051,1.332797082,2,8.139088543701172,5.734112976074218,0.6631938598632812,-1.7251908396946565,0.31297709923664124,-1.5801526717557253
5293698255062,1.339466093,2,8.134300140380859,5.7329158752441405,0.6847416748046875,-1.8015267175572518,0.22900763358778625,-1.534351145038168
5293704923760,1.346134791,2,8.0828248046875,5.736507177734374,0.6703764648437499,-1.7633587786259541,0.21374045801526717,-1.465648854961832
5293711589697,1.352800728,2,8.11514652709961,5.759252093505859,0.70868369140625,-1.7328244274809161,0.3282442748091603,-1.549618320610687
5293718258864,1.359469895,2,8.051700183105469,5.748478186035156,0.6751648681640625,-1.7557251908396947,0.26717557251908397,-1.5725190839694656
5293724928551,1.366139582,2,8.0828248046875,5.749675286865234,0.7338228088378905,-1.7557251908396947,0.2366412213740458,-1.5954198473282444
5293731586833,1.372797864,2,8.109161022949218,5.737704278564453,0.7218518005371093,-1.717557251908397,0.29770992366412213,-1.618320610687023
5293738260114,1.379471145,2,8.135497241210937,5.7149593627929685,0.6871358764648438,-1.7786259541984732,0.16793893129770993,-1.6412213740458015
5293744923187,1.386134218,2,8.147468249511718,5.760449194335937,0.6200982299804687,-1.7633587786259541,0.21374045801526717,-1.5572519083969465
5293751582249,1.39279328,2,8.173804467773436,5.738901379394531,0.699106884765625,-1.7328244274809161,0.3893129770992366,-1.6030534351145038
5293758255166,1.399466197,2,8.085219006347655,5.748478186035156,0.6787561706542968,-1.7557251908396947,0.22137404580152673,-1.6259541984732824
5293764920687,1.406131718,2,8.097190014648437,5.761646295166015,0.7386112121582031,-1.8473282442748091,0.0916030534351145,-1.5267175572519085
5293771590687,1.412801718,2,8.097190014648437,5.785588311767578,0.7433996154785156,-1.702290076335878,0.4122137404580153,-1.6106870229007633
5293778254281,1.419465312,2,8.160636358642577,5.785588311767578,0.6548141540527344,-1.8625954198473282,0.25190839694656486,-1.5419847328244274
5293784923604,1.426134635,2,8.085219006347655,5.7520694885253905,0.6548141540527344,-1.7786259541984732,0.2824427480916031,-1.5725190839694656
5293791584489,1.43279552,2,8.116343627929687,5.780799908447265,0.7445967163085937,-1.7786259541984732,0.2748091603053435,-1.5954198473282444
5293798255166,1.439466197,2,8.131905938720703,5.777208605957031,0.7026981872558593,-1.7099236641221374,0.2748091603053435,-1.5114503816793894
5293804924749,1.44613578,2,8.112752325439452,5.738901379394531,0.7793126403808593,-1.786259541984733,0.16030534351145037,-1.5114503816793894
5293811583135,1.452794166,2,8.18457837524414,5.719747766113281,0.6260837341308594,-1.7251908396946565,0.19083969465648856,-1.5267175572519085
5293818254854,1.459465885,2,8.14028564453125,5.783194110107422,0.7793126403808593,-1.8015267175572518,0.40458015267175573,-1.6412213740458015
5293824926208,1.466137239,2,8.106766821289062,5.785588311767578,0.6404489440917969,-1.7328244274809161,0.2366412213740458,-1.534351145038168
5293831588499,1.47279953,2,8.131905938720703,5.723339068603515,0.7254431030273437,-1.7251908396946565,0.22137404580152673,-1.6717557251908397
5293838264801,1.479475832,2,8.12113203125,5.797559320068359,0.699106884765625,-1.7404580152671756,0.366412213740458,-1.6412213740458015
5293844927666,1.486138697,2,8.093598712158203,5.723339068603515,0.6847416748046875,-1.9083969465648856,0.22137404580152673,-1.6030534351145038
5293851584437,1.492795468,2,8.143876947021484,5.740098480224609,0.7314286071777343,-1.717557251908397,0.20610687022900764,-1.7251908396946565
5293858255426,1.499466457,2,8.116343627929687,5.785588311767578,0.7769184387207031,-1.7786259541984732,0.33587786259541985,-1.534351145038168
5293864926208,1.506137239,2,8.111555224609374,5.768828900146484,0.7206546997070312,-1.717557251908397,0.2748091603053435,-1.6717557251908397
5293871581208,1.512792239,2,8.118737829589843,5.797559320068359,0.6619967590332031,-1.7404580152671756,0.2595419847328244,-1.5572519083969465
5293878257666,1.519468697,2,8.054094384765625,5.734112976074218,0.7134720947265625,-1.7099236641221374,0.2366412213740458,-1.6488549618320612
5293884905843,1.526116874,2,8.113949426269532,5.767631799316406,0.7433996154785156,-1.816793893129771,0.2748091603053435,-1.6488549618320612
5293891585426,1.532796457,2,8.093598712158203,5.742492681884765,0.7661445312499999,-1.8473282442748091,0.22900763358778625,-1.5877862595419847
5293898257249,1.53946828,2,8.05648858642578,5.743689782714843,0.7637503295898437,-1.7633587786259541,0.4122137404580153,-1.618320610687023
5293904921416,1.546132447,2,8.129511737060547,5.802347723388672,0.7206546997070312,-1.7633587786259541,0.2824427480916031,-1.549618320610687
5293911580218,1.552791249,2,8.06367119140625,5.767631799316406,0.6536170532226562,-1.7404580152671756,0.31297709923664124,-1.633587786259542
5293918257666,1.559468697,2,8.06367119140625,5.741295581054687,0.7302315063476562,-1.8015267175572518,0.2366412213740458,-1.4961832061068703
5293924924072,1.566135103,2,8.095992913818359,5.741295581054687,0.6643909606933593,-1.7633587786259541,0.10687022900763359,-1.6564885496183206
5293931581937,1.572792968,2,8.124723333740233,5.725733270263672,0.6643909606933593,-1.7709923664122138,0.3053435114503817,-1.5725190839694656
5293938254437,1.579465468,2,8.073247998046874,5.736507177734374,0.7613561279296874,-1.7709923664122138,0.2748091603053435,-1.6641221374045803
5293944920062,1.586131093,2,8.117540728759765,5.795165118408203,0.7972691528320313,-1.7938931297709924,0.2748091603053435,-1.5114503816793894
5293951584385,1.592795416,2,8.116343627929687,5.747281085205078,0.6691793640136718,-1.7557251908396947,0.0916030534351145,-1.5114503816793894
5293958223291,1.599434322,2,8.16542476196289,5.79037671508789,0.6823474731445313,-1.7786259541984732,0.22900763358778625,-1.5877862595419847
5293964927353,1.606138384,2,8.11514652709961,5.734112976074218,0.709880792236328,-1.7328244274809161,0.2595419847328244,-1.549618320610687
5293971583239,1.61279427,2,8.098387115478515,5.7125651611328125,0.7266402038574218,-1.816793893129771,0.2366412213740458,-1.6564885496183206
5293978258708,1.619469739,2,8.116343627929687,5.724536169433593,0.7254431030273437,-1.748091603053435,0.32061068702290074,-1.6030534351145038
5293984919801,1.626130832,2,8.073247998046874,5.797559320068359,0.7218518005371093,-1.748091603053435,0.22137404580152673,-1.5190839694656488
5293991590478,1.632801509,2,8.130708837890625,5.779602807617187,0.6751648681640625,-1.8244274809160306,0.20610687022900764,-1.633587786259542
5293998261260,1.639472291,2,8.145074047851562,5.728127471923828,0.7589619262695312,-1.7633587786259541,0.3053435114503817,-1.5572519083969465
5294005011624,1.646222655,2,8.12113203125,5.736507177734374,0.737414111328125,-1.7633587786259541,0.2366412213740458,-1.5877862595419847
5294011599749,1.65281078,2,8.110358123779296,5.802347723388672,0.6787561706542968,-1.8244274809160306,0.2900763358778626,-1.5419847328244274
5294018260999,1.65947203,2,8.149862451171874,5.747281085205078,0.7338228088378905,-1.717557251908397,0.2595419847328244,-1.633587786259542
5294024922041,1.666133072,2,8.084021905517577,5.787982513427734,0.729034405517578,-1.786259541984733,0.1297709923664122,-1.5572519083969465
5294031600843,1.672811874,2,8.103175518798828,5.718550665283203,0.6871358764648438,-1.7709923664122138,0.24427480916030533,-1.6030534351145038
5294038258551,1.679469582,2,8.123526232910155,5.768828900146484,0.709880792236328,-1.7938931297709924,0.3511450381679389,-1.5419847328244274
5294044946260,1.686157291,2,8.093598712158203,5.79037671508789,0.7864952453613281,-1.7404580152671756,0.2900763358778626,-1.5267175572519085
5294051585947,1.692796978,2,8.130708837890625,5.698199951171874,0.6440402465820312,-1.7404580152671756,0.2366412213740458,-1.549618320610687
5294058266468,1.699477499,2,8.243236315917969,5.787982513427734,0.7577648254394531,-1.786259541984733,0.2900763358778626,-1.6030534351145038
5294064913343,1.706124374,2,8.090007409667969,5.742492681884765,0.6512228515624999,-1.7633587786259541,0.0916030534351145,-1.6259541984732824
5294071577822,1.712788853,2,8.170213165283203,5.742492681884765,0.7481880187988281,-1.7557251908396947,0.24427480916030533,-1.534351145038168
5294078247301,1.719458332,2,8.125920434570313,5.7149593627929685,0.7481880187988281,-1.7251908396946565,0.2595419847328244,-1.6488549618320612
5294084912353,1.726123384,2,8.087613208007811,5.716156463623046,0.7697358337402344,-1.7251908396946565,0.26717557251908397,-1.549618320610687
5294091578395,1.732789426,2,8.11514652709961,5.699397052001952,0.6643909606933593,-1.7938931297709924,0.26717557251908397,-1.5954198473282444
5294098245374,1.739456405,2,8.157045056152343,5.741295581054687,0.7266402038574218,-1.8778625954198473,0.24427480916030533,-1.5954198473282444
5294104913343,1.746124374,2,8.112752325439452,5.6946086486816405,0.6440402465820312,-1.8091603053435115,0.2900763358778626,-1.6106870229007633
5294111581103,1.752792134,2,8.147468249511718,5.766434698486328,0.7589619262695312,-1.7557251908396947,0.20610687022900764,-1.6106870229007633
5294118244541,1.759455572,2,8.125920434570313,5.753266589355468,0.6691793640136718,-1.786259541984733,0.3435114503816794,-1.702290076335878
5294124915791,1.766126822,2,8.109161022949218,5.772420202636718,0.6631938598632812,-1.786259541984733,0.25190839694656486,-1.6488549618320612
5294131576989,1.77278802,2,8.113949426269532,5.718550665283203,0.7960720520019531,-1.8091603053435115,0.2900763358778626,-1.5954198473282444
5294138209645,1.779420676,2,8.122329132080077,5.787982513427734,0.7266402038574218,-1.717557251908397,0.31297709923664124,-1.5419847328244274
5294144914176,1.786125207,2,8.119934930419921,5.79037671508789,0.7266402038574218,-1.786259541984733,0.20610687022900764,-1.7099236641221374
5294151579333,1.792790364,2,8.128314636230469,5.724536169433593,0.7505822204589844,-1.717557251908397,0.25190839694656486,-1.618320610687023
5294158247301,1.799458332,2,8.141482745361328,5.736507177734374,0.6584054565429687,-1.7404580152671756,0.3282442748091603,-1.6488549618320612
5294164917301,1.806128332,2,8.078036401367187,5.799953521728515,0.7829039428710937,-1.8473282442748091,0.2595419847328244,-1.5648854961832062
5294171574124,1.812785155,2,8.09479581298828,5.76523759765625,0.729034405517578,-1.7633587786259541,0.2366412213740458,-1.5877862595419847
5294178248395,1.819459426,2,8.09479581298828,5.759252093505859,0.7326257080078125,-1.7099236641221374,0.31297709923664124,-1.5801526717557253
5294184913291,1.826124322,2,8.12113203125,5.747281085205078,0.7493851196289062,-1.7404580152671756,0.26717557251908397,-1.5725190839694656
5294191577770,1.832788801,2,8.110358123779296,5.781997009277344,0.6943184814453125,-1.7786259541984732,0.24427480916030533,-1.5725190839694656
5294198245583,1.839456614,2,8.103175518798828,5.737704278564453,0.7445967163085937,-1.786259541984733,0.35877862595419846,-1.618320610687023
5294204899593,1.846110624,2,8.067262493896484,5.728127471923828,0.6679822631835937,-1.7557251908396947,0.22137404580152673,-1.5954198473282444
5294211578447,1.852789478,2,8.067262493896484,5.7508723876953125,0.709880792236328,-1.717557251908397,0.29770992366412213,-1.5267175572519085
5294218248499,1.85945953,2,8.091204510498047,5.7508723876953125,0.719457598876953,-1.7786259541984732,0.3511450381679389,-1.633587786259542
5294224915270,1.866126301,2,8.08881030883789,5.780799908447265,0.719457598876953,-1.7709923664122138,0.16793893129770993,-1.6412213740458015
5294231580426,1.872791457,2,8.091204510498047,5.761646295166015,0.63206923828125,-1.7709923664122138,0.22137404580152673,-1.6106870229007633
5294238246624,1.879457655,2,8.07683930053711,5.7149593627929685,0.7481880187988281,-1.8015267175572518,0.22137404580152673,-1.5877862595419847
5294244911728,1.886122759,2,8.087613208007811,5.747281085205078,0.7314286071777343,-1.7709923664122138,0.33587786259541985,-1.5877862595419847
5294251577718,1.892788749,2,8.079233502197265,5.720944866943359,0.7134720947265625,-1.748091603053435,0.2366412213740458,-1.6412213740458015
5294258248395,1.899459426,2,8.167818963623047,5.716156463623046,0.699106884765625,-1.8625954198473282,0.24427480916030533,-1.6259541984732824
5294264907926,1.906118957,2,8.085219006347655,5.759252093505859,0.689530078125,-1.7328244274809161,0.2366412213740458,-1.633587786259542
5294271579853,1.912790884,2,8.177395770263672,5.7508723876953125,0.7350199096679687,-1.7251908396946565,0.16030534351145037,-1.5801526717557253
5294278255843,1.919466874,2,8.119934930419921,5.799953521728515,0.6655880615234374,-1.786259541984733,0.20610687022900764,-1.618320610687023
5294284909905,1.926120936,2,8.042123376464843,5.761646295166015,0.7110778930664062,-1.7557251908396947,0.3435114503816794,-1.6717557251908397
5294291575010,1.932786041,2,8.175001568603514,5.759252093505859,0.6823474731445313,-1.8015267175572518,0.20610687022900764,-1.633587786259542
5294298248447,1.939459478,2,8.118737829589843,5.710170959472656,0.6536170532226562,-1.7251908396946565,0.31297709923664124,-1.6564885496183206
5294304912822,1.946123853,2,8.122329132080077,5.7329158752441405,0.7314286071777343,-1.83206106870229,0.2748091603053435,-1.5648854961832062
5294311581520,1.952792551,2,8.151059552001952,5.810727429199218,0.679953271484375,-1.7786259541984732,0.17557251908396945,-1.6030534351145038
5294318243291,1.959454322,2,8.128314636230469,5.767631799316406,0.7565677246093749,-1.6870229007633588,0.2748091603053435,-1.5572519083969465
5294324919020,1.966130051,2,8.08881030883789,5.716156463623046,0.7433996154785156,-1.786259541984733,0.20610687022900764,-1.618320610687023
5294331571260,1.972782291,2,8.135497241210937,5.7149593627929685,0.7697358337402344,-1.6564885496183206,0.22900763358778625,-1.4809160305343512
5294338245635,1.979456666,2,8.110358123779296,5.718550665283203,0.6524199523925781,-1.7633587786259541,0.22900763358778625,-1.5877862595419847
5294344915114,1.986126145,2,8.06965669555664,5.781997009277344,0.7170633972167968,-1.7557251908396947,0.2900763358778626,-1.5801526717557253
5294351579593,1.992790624,2,8.093598712158203,5.780799908447265,0.6871358764648438,-1.7709923664122138,0.16030534351145037,-1.6412213740458015
5294358240426,1.999451457,2,8.093598712158203,5.716156463623046,0.8128314636230468,-1.8091603053435115,0.4122137404580153,-1.5725190839694656
5294364913655,2.006124686,2,8.084021905517577,5.716156463623046,0.8259995727539062,-1.7404580152671756,0.2824427480916031,-1.6106870229007633
5294371614593,2.012825624,2,8.142679846191406,5.762843395996094,0.6727706665039062,-1.8015267175572518,0.17557251908396945,-1.633587786259542
5294378250322,2.019461353,2,8.154650854492187,5.755660791015624,0.7565677246093749,-1.8015267175572518,0.2366412213740458,-1.5190839694656488
5294384915114,2.026126145,2,8.13310303955078,5.744886883544922,0.719457598876953,-1.7251908396946565,0.2366412213740458,-1.6259541984732824
5294391579905,2.032790936,2,8.163030560302733,5.780799908447265,0.699106884765625,-1.6717557251908397,0.366412213740458,-1.6259541984732824
5294398246155,2.039457186,2,8.105569720458984,5.797559320068359,0.7864952453613281,-1.8091603053435115,0.22900763358778625,-1.633587786259542
5294404923707,2.046134738,2,8.066065393066406,5.7520694885253905,0.7948749511718749,-1.702290076335878,0.3816793893129771,-1.5572519083969465
5294411580582,2.052791613,2,8.091204510498047,5.799953521728515,0.6751648681640625,-1.8015267175572518,0.26717557251908397,-1.6106870229007633
5294418255114,2.059466145,2,8.10197841796875,5.766434698486328,0.7685387329101562,-1.7557251908396947,0.2595419847328244,-1.618320610687023
5294424919801,2.066130832,2,8.099584216308592,5.772420202636718,0.7158662963867187,-1.7557251908396947,0.3282442748091603,-1.633587786259542
5294431579853,2.072790884,2,8.129511737060547,5.776011505126953,0.6691793640136718,-1.8396946564885497,0.22137404580152673,-1.5038167938931297
5294438270218,2.079481249,2,8.109161022949218,5.717353564453124,0.7733271362304687,-1.816793893129771,0.1984732824427481,-1.6488549618320612
5294444915635,2.086126666,2,8.117540728759765,5.711368060302734,0.6679822631835937,-1.8473282442748091,0.2366412213740458,-1.5267175572519085
5294451573082,2.092784113,2,8.11514652709961,5.76523759765625,0.7242460021972655,-1.8549618320610688,0.26717557251908397,-1.6717557251908397
5294458249332,2.099460363,2,8.103175518798828,5.740098480224609,0.7505822204589844,-1.8091603053435115,0.26717557251908397,-1.5114503816793894
5294464914645,2.106125676,2,8.116343627929687,5.728127471923828,0.6596025573730468,-1.7404580152671756,0.24427480916030533,-1.618320610687023
5294471589905,2.112800936,2,8.075642199707032,5.6958057495117185,0.7146691955566405,-1.8396946564885497,0.25190839694656486,-1.5801526717557253
5294478254905,2.119465936,2,8.113949426269532,5.766434698486328,0.7015010864257812,-1.786259541984733,0.16030534351145037,-1.5877862595419847
5294484911416,2.126122447,2,8.099584216308592,5.724536169433593,0.7398083129882812,-1.786259541984733,0.24427480916030533,-1.618320610687023
5294491573707,2.132784738,2,8.080430603027343,5.762843395996094,0.7529764221191406,-1.7404580152671756,0.183206106870229,-1.618320610687023
5294498248343,2.139459374,2,7.971494427490234,5.758054992675781,0.7757213378906249,-1.717557251908397,0.22900763358778625,-1.5572519083969465
5294504914437,2.146125468,2,8.124723333740233,5.7149593627929685,0.6943184814453125,-1.702290076335878,0.32061068702290074,-1.5267175572519085
5294511574541,2.152785572,2,8.092401611328125,5.7149593627929685,0.6943184814453125,-1.7557251908396947,0.12213740458015267,-1.633587786259542
5294518245426,2.159456457,2,8.163030560302733,5.746083984375,0.7206546997070312,-1.7557251908396947,0.22900763358778625,-1.6030534351145038
5294524946937,2.166157968,2,8.116343627929687,5.718550665283203,0.7529764221191406,-1.7328244274809161,0.3053435114503817,-1.5954198473282444
5294531577770,2.172788801,2,8.086416107177733,5.730521673583984,0.7134720947265625,-1.786259541984733,0.3053435114503817,-1.5954198473282444
5294538249332,2.179460363,2,8.154650854492187,5.746083984375,0.7314286071777343,-1.717557251908397,0.20610687022900764,-1.4732824427480915
5294544911259,2.18612229,2,8.117540728759765,5.730521673583984,0.74699091796875,-1.7709923664122138,0.2366412213740458,-1.5954198473282444
5294551577093,2.192788124,2,8.104372619628906,5.76523759765625,0.7661445312499999,-1.7328244274809161,0.25190839694656486,-1.6106870229007633
5294558246520,2.199457551,2,8.109161022949218,5.7137622619628905,0.7158662963867187,-1.83206106870229,0.2366412213740458,-1.6870229007633588
5294564912718,2.206123749,2,8.113949426269532,5.799953521728515,0.6943184814453125,-1.7557251908396947,0.2366412213740458,-1.5954198473282444
5294571580947,2.212791978,2,8.092401611328125,5.755660791015624,0.7206546997070312,-1.8015267175572518,0.25190839694656486,-1.5725190839694656
5294578250634,2.219461665,2,8.142679846191406,5.776011505126953,0.7362170104980469,-1.786259541984733,0.2900763358778626,-1.618320610687023
5294584963968,2.226174999,2,8.090007409667969,5.780799908447265,0.7326257080078125,-1.7404580152671756,0.32061068702290074,-1.6412213740458015
5294592097405,2.233308436,2,8.116343627929687,5.749675286865234,0.6823474731445313,-1.8625954198473282,0.2900763358778626,-1.6870229007633588
5294598328187,2.239539218,2,8.155847955322265,5.7508723876953125,0.7302315063476562,-1.7557251908396947,0.183206106870229,-1.5801526717557253
5294604918082,2.246129113,2,8.119934930419921,5.79037671508789,0.7302315063476562,-1.748091603053435,0.2748091603053435,-1.6564885496183206
5294611586103,2.252797134,2,8.10197841796875,5.7329158752441405,0.7302315063476562,-1.7786259541984732,0.20610687022900764,-1.6106870229007633
5294618213030,2.259424061,2,8.14028564453125,5.7520694885253905,0.7026981872558593,-1.83206106870229,0.2595419847328244,-1.5572519083969465
5294624938759,2.26614979,2,8.113949426269532,5.756857891845703,0.6955155822753906,-1.816793893129771,0.31297709923664124,-1.6259541984732824
5294631587874,2.272798905,2,8.145074047851562,5.758054992675781,0.679953271484375,-1.8625954198473282,0.26717557251908397,-1.6106870229007633
5294638255374,2.279466405,2,8.111555224609374,5.740098480224609,0.7422025146484375,-1.702290076335878,0.25190839694656486,-1.6564885496183206
5294644918499,2.28612953,2,8.111555224609374,5.768828900146484,0.7062894897460937,-1.7938931297709924,0.31297709923664124,-1.5877862595419847
5294651595530,2.292806561,2,8.095992913818359,5.761646295166015,0.6859387756347656,-1.7404580152671756,0.3053435114503817,-1.6564885496183206
5294658260791,2.299471822,2,8.131905938720703,5.761646295166015,0.6859387756347656,-1.83206106870229,0.15267175572519084,-1.5877862595419847
5294664928082,2.306139113,2,8.177395770263672,5.723339068603515,0.7350199096679687,-1.83206106870229,0.29770992366412213,-1.6488549618320612
5294671586468,2.312797499,2,8.117540728759765,5.76523759765625,0.729034405517578,-1.6641221374045803,0.29770992366412213,-1.5801526717557253
5294678257874,2.319468905,2,8.086416107177733,5.7329158752441405,0.7900865478515624,-1.8015267175572518,0.2366412213740458,-1.5801526717557253
5294684924749,2.32613578,2,8.122329132080077,5.764040496826172,0.6955155822753906,-1.702290076335878,0.1297709923664122,-1.6030534351145038
5294691583447,2.332794478,2,8.124723333740233,5.825092639160156,0.7613561279296874,-1.7633587786259541,0.2595419847328244,-1.5725190839694656
5294698257301,2.339468332,2,8.113949426269532,5.783194110107422,0.6572083557128906,-1.748091603053435,0.2595419847328244,-1.5801526717557253
5294704928082,2.346139113,2,8.106766821289062,5.7520694885253905,0.7254431030273437,-1.786259541984733,0.25190839694656486,-1.549618320610687
5294711583239,2.35279427,2,8.097190014648437,5.743689782714843,0.7948749511718749,-1.7709923664122138,0.24427480916030533,-1.618320610687023
5294718257978,2.359469009,2,8.087613208007811,5.719747766113281,0.6823474731445313,-1.8244274809160306,0.25190839694656486,-1.6030534351145038
5294724923291,2.366134322,2,8.104372619628906,5.734112976074218,0.7015010864257812,-1.8549618320610688,0.25190839694656486,-1.5801526717557253
5294731590322,2.372801353,2,8.10197841796875,5.705382556152343,0.7362170104980469,-1.7786259541984732,0.35877862595419846,-1.5954198473282444
5294738255634,2.379466665,2,8.136694342041014,5.700594152832031,0.719457598876953,-1.7938931297709924,0.21374045801526717,-1.5877862595419847
5294744922978,2.386134009,2,8.109161022949218,5.724536169433593,0.7302315063476562,-1.8091603053435115,0.22900763358778625,-1.6412213740458015
5294751583707,2.392794738,2,8.122329132080077,5.748478186035156,0.7577648254394531,-1.7557251908396947,0.3816793893129771,-1.5725190839694656
5294758257926,2.399468957,2,8.12113203125,5.7077767578125,0.718260498046875,-1.748091603053435,0.1984732824427481,-1.5038167938931297
5294764921624,2.406132655,2,8.100781317138672,5.777208605957031,0.7206546997070312,-1.717557251908397,0.26717557251908397,-1.5954198473282444
5294771587874,2.412798905,2,8.143876947021484,5.736507177734374,0.7230489013671875,-1.7709923664122138,0.3282442748091603,-1.6030534351145038
5294778260739,2.41947177,2,8.12711753540039,5.749675286865234,0.7697358337402344,-1.816793893129771,0.2900763358778626,-1.5954198473282444
5294784919697,2.426130728,2,8.10197841796875,5.734112976074218,0.7170633972167968,-1.7786259541984732,0.2748091603053435,-1.633587786259542
5294791586832,2.432797863,2,8.10197841796875,5.746083984375,0.7230489013671875,-1.7557251908396947,0.3511450381679389,-1.6106870229007633
5294798269541,2.439480572,2,8.097190014648437,5.746083984375,0.622492431640625,-1.7328244274809161,0.24427480916030533,-1.4885496183206106
5294804924697,2.446135728,2,8.13310303955078,5.758054992675781,0.622492431640625,-1.7404580152671756,0.2824427480916031,-1.6259541984732824
5294811592457,2.452803488,2,8.117540728759765,5.785588311767578,0.7206546997070312,-1.7404580152671756,0.26717557251908397,-1.5801526717557253
5294818252145,2.459463176,2,8.106766821289062,5.749675286865234,0.7386112121582031,-1.7404580152671756,0.26717557251908397,-1.6717557251908397
5294824927926,2.466138957,2,8.084021905517577,5.746083984375,0.7050923889160156,-1.7099236641221374,0.1450381679389313,-1.6717557251908397
5294831583239,2.47279427,2,8.092401611328125,5.737704278564453,0.7038952880859375,-1.7709923664122138,0.2595419847328244,-1.6106870229007633
5294838257145,2.479468176,2,8.151059552001952,5.779602807617187,0.74699091796875,-1.83206106870229,0.32061068702290074,-1.6259541984732824
5294844920947,2.486131978,2,8.07683930053711,5.704185455322265,0.6847416748046875,-1.7786259541984732,0.19083969465648856,-1.4885496183206106
5294851588499,2.49279953,2,8.157045056152343,5.754463690185546,0.7074865905761718,-1.7633587786259541,0.29770992366412213,-1.702290076335878
5294858278030,2.499489061,2,8.128314636230469,5.748478186035156,0.7338228088378905,-1.7557251908396947,0.2900763358778626,-1.6106870229007633
5294864927718,2.506138749,2,8.112752325439452,5.76523759765625,0.7350199096679687,-1.7709923664122138,0.183206106870229,-1.5725190839694656
5294871585114,2.512796145,2,8.116343627929687,5.697002850341796,0.7050923889160156,-1.8396946564885497,0.2824427480916031,-1.618320610687023
5294878257822,2.519468853,2,8.118737829589843,5.7317187744140625,0.7769184387207031,-1.7938931297709924,0.2824427480916031,-1.6030534351145038
5294884919020,2.526130051,2,8.125920434570313,5.758054992675781,0.7218518005371093,-1.8473282442748091,0.21374045801526717,-1.5801526717557253
5294891585322,2.532796353,2,8.136694342041014,5.813121630859374,0.7314286071777343,-1.816793893129771,0.26717557251908397,-1.534351145038168
5294898299645,2.539510676,2,8.125920434570313,5.764040496826172,0.6979097839355468,-1.7786259541984732,0.2748091603053435,-1.6106870229007633
5294904915634,2.546126665,2,8.098387115478515,5.80354482421875,0.8475473876953125,-1.748091603053435,0.20610687022900764,-1.5419847328244274
5294911588551,2.552799582,2,8.084021905517577,5.736507177734374,0.7302315063476562,-1.748091603053435,0.29770992366412213,-1.633587786259542
5294918250947,2.559461978,2,8.154650854492187,5.761646295166015,0.6823474731445313,-1.7557251908396947,0.1984732824427481,-1.5190839694656488
5294924927822,2.566138853,2,8.110358123779296,5.758054992675781,0.6655880615234374,-1.7709923664122138,0.1450381679389313,-1.6030534351145038
5294931582301,2.572793332,2,8.13310303955078,5.761646295166015,0.7565677246093749,-1.8244274809160306,0.32061068702290074,-1.6106870229007633
5294938217353,2.579428384,2,8.13310303955078,5.7891796142578125,0.7074865905761718,-1.8702290076335877,0.25190839694656486,-1.5954198473282444
5294944925895,2.586136926,2,8.104372619628906,5.7891796142578125,0.6955155822753906,-1.8244274809160306,0.17557251908396945,-1.5877862595419847
5294951590270,2.592801301,2,8.149862451171874,5.764040496826172,0.6955155822753906,-1.717557251908397,0.35877862595419846,-1.5954198473282444
5294958258811,2.599469842,2,8.129511737060547,5.7137622619628905,0.7278373046875,-1.717557251908397,0.1984732824427481,-1.6412213740458015
5294964919853,2.606130884,2,8.123526232910155,5.785588311767578,0.7050923889160156,-1.7404580152671756,0.1984732824427481,-1.5572519083969465
5294971583238,2.612794269,2,8.111555224609374,5.787982513427734,0.7074865905761718,-1.7251908396946565,0.2366412213740458,-1.5572519083969465
5294978261572,2.619472603,2,8.163030560302733,5.753266589355468,0.7493851196289062,-1.6870229007633588,0.4198473282442748,-1.6030534351145038
5294984928916,2.626139947,2,8.085219006347655,5.7317187744140625,0.70868369140625,-1.83206106870229,0.183206106870229,-1.5267175572519085
5294991581468,2.632792499,2,8.119934930419921,5.7149593627929685,0.7410054138183594,-1.7557251908396947,0.24427480916030533,-1.6564885496183206
5294998256624,2.639467655,2,8.117540728759765,5.691017346191406,0.7170633972167968,-1.7099236641221374,0.32061068702290074,-1.5801526717557253
5295004919801,2.646130832,2,8.090007409667969,5.728127471923828,0.7350199096679687,-1.748091603053435,0.2366412213740458,-1.6259541984732824
5295011585478,2.652796509,2,8.129511737060547,5.7520694885253905,0.7457938171386719,-1.702290076335878,0.2748091603053435,-1.549618320610687
5295018259436,2.659470467,2,8.09479581298828,5.741295581054687,0.7326257080078125,-1.7251908396946565,0.29770992366412213,-1.5725190839694656
5295024925843,2.666136874,2,8.092401611328125,5.743689782714843,0.7757213378906249,-1.7709923664122138,0.22137404580152673,-1.618320610687023
5295031586884,2.672797915,2,8.119934930419921,5.723339068603515,0.7721300354003906,-1.7557251908396947,0.3435114503816794,-1.6488549618320612
5295038776416,2.679987447,2,8.130708837890625,5.762843395996094,0.6883329772949218,-1.702290076335878,0.21374045801526717,-1.6259541984732824
5295046186728,2.687397759,2,8.112752325439452,5.729324572753906,0.7146691955566405,-1.717557251908397,0.19083969465648856,-1.5648854961832062
5295053607666,2.694818697,2,8.123526232910155,5.706579656982422,0.7577648254394531,-1.7404580152671756,0.31297709923664124,-1.6030534351145038
5295061021103,2.702232134,2,8.095992913818359,5.762843395996094,0.7936778503417968,-1.7786259541984732,0.2824427480916031,-1.5267175572519085
5295068378343,2.709589374,2,8.098387115478515,5.761646295166015,0.74699091796875,-1.8091603053435115,0.2366412213740458,-1.5877862595419847
5295075718916,2.716929947,2,8.106766821289062,5.7508723876953125,0.7038952880859375,-1.717557251908397,0.2595419847328244,-1.618320610687023
5295083150166,2.724361197,2,8.123526232910155,5.787982513427734,0.7278373046875,-1.6870229007633588,0.25190839694656486,-1.5725190839694656
5295090588343,2.731799374,2,8.119934930419921,5.730521673583984,0.7649474304199219,-1.8244274809160306,0.29770992366412213,-1.6412213740458015
5295097974072,2.739185103,2,8.086416107177733,5.724536169433593,0.7350199096679687,-1.7099236641221374,0.2748091603053435,-1.6564885496183206
5295105359853,2.746570884,2,8.111555224609374,5.787982513427734,0.6272808349609375,-1.786259541984733,0.183206106870229,-1.6030534351145038
5295112737353,2.753948384,2,8.14028564453125,5.717353564453124,0.7721300354003906,-1.7557251908396947,0.3053435114503817,-1.6412213740458015
5295120127874,2.761338905,2,8.084021905517577,5.748478186035156,0.6835445739746093,-1.8091603053435115,0.3053435114503817,-1.549618320610687
5295127512457,2.768723488,2,8.13310303955078,5.756857891845703,0.7110778930664062,-1.7938931297709924,0.22900763358778625,-1.6793893129770991
5295134938343,2.776149374,2,8.147468249511718,5.754463690185546,0.74699091796875,-1.702290076335878,0.33587786259541985,-1.618320610687023
5295142333291,2.783544322,2,8.145074047851562,5.748478186035156,0.6715735656738281,-1.7099236641221374,0.2748091603053435,-1.5419847328244274
5295149705426,2.790916457,2,8.13310303955078,5.767631799316406,0.7146691955566405,-1.83206106870229,0.1297709923664122,-1.5954198473282444
5295157051311,2.798262342,2,8.131905938720703,5.759252093505859,0.7398083129882812,-1.7633587786259541,0.33587786259541985,-1.5572519083969465
5295164311207,2.805522238,2,8.0828248046875,5.718550665283203,0.7062894897460937,-1.748091603053435,0.21374045801526717,-1.5725190839694656
5295171702301,2.812913332,2,8.158242156982421,5.746083984375,0.6368576416015624,-1.8015267175572518,0.22900763358778625,-1.633587786259542
5295179117718,2.820328749,2,8.111555224609374,5.742492681884765,0.6847416748046875,-1.8244274809160306,0.37404580152671757,-1.6259541984732824
5295186582040,2.827793071,2,8.137891442871092,5.737704278564453,0.7398083129882812,-1.7557251908396947,0.1984732824427481,-1.5725190839694656
5295194005738,2.835216769,2,8.078036401367187,5.704185455322265,0.7529764221191406,-1.786259541984733,0.32061068702290074,-1.6488549618320612
5295201311572,2.842522603,2,8.14028564453125,5.77122310180664,0.7888894470214843,-1.7328244274809161,0.16793893129770993,-1.5877862595419847
5295208706259,2.84991729,2,8.122329132080077,5.722141967773437,0.729034405517578,-1.7328244274809161,0.24427480916030533,-1.6488549618320612
5295216126155,2.857337186,2,8.169016064453125,5.711368060302734,0.7876923461914062,-1.7938931297709924,0.3435114503816794,-1.5648854961832062
5295223508238,2.864719269,2,8.074445098876952,5.748478186035156,0.6739677673339843,-1.748091603053435,0.16793893129770993,-1.5801526717557253
5295230929801,2.872140832,2,8.175001568603514,5.705382556152343,0.709880792236328,-1.8244274809160306,0.2748091603053435,-1.6106870229007633
5295238364905,2.879575936,2,8.14627114868164,5.773617303466796,0.7625532287597656,-1.83206106870229,0.31297709923664124,-1.6030534351145038
5295245784332,2.886995363,2,8.265981231689453,5.778405706787109,0.7541735229492187,-1.816793893129771,0.2366412213740458,-1.5267175572519085
5295253165790,2.894376821,2,8.09479581298828,5.7329158752441405,0.7015010864257812,-1.7938931297709924,0.26717557251908397,-1.6641221374045803
5295260597353,2.901808384,2,8.087613208007811,5.665878228759765,0.7134720947265625,-1.7633587786259541,0.31297709923664124,-1.549618320610687
5295267956988,2.909168019,2,8.106766821289062,5.76523759765625,0.7110778930664062,-1.7557251908396947,0.16793893129770993,-1.6259541984732824
5295275356051,2.916567082,2,8.13310303955078,5.764040496826172,0.6847416748046875,-1.7099236641221374,0.24427480916030533,-1.5648854961832062
5295282744332,2.923955363,2,8.020575561523437,5.768828900146484,0.7218518005371093,-1.6870229007633588,0.2900763358778626,-1.633587786259542
5295290217978,2.931429009,2,8.098387115478515,5.7843912109375,0.74699091796875,-1.786259541984733,0.15267175572519084,-1.5725190839694656
5295297607197,2.938818228,2,8.104372619628906,5.7317187744140625,0.6440402465820312,-1.7251908396946565,0.37404580152671757,-1.6030534351145038
5295304964280,2.946175311,2,8.128314636230469,5.7508723876953125,0.6452373474121094,-1.7251908396946565,0.183206106870229,-1.6412213740458015
5295312284332,2.953495363,2,8.116343627929687,5.729324572753906,0.7074865905761718,-1.702290076335878,0.1984732824427481,-1.5648854961832062
5295319603863,2.960814894,2,8.09479581298828,5.7520694885253905,0.6524199523925781,-1.7328244274809161,0.3511450381679389,-1.6870229007633588
5295326943811,2.968154842,2,8.113949426269532,5.799953521728515,0.7254431030273437,-1.6564885496183206,0.2595419847328244,-1.549618320610687
5295334376155,2.975587186,2,8.119934930419921,5.741295581054687,0.7074865905761718,-1.7404580152671756,0.19083969465648856,-1.6793893129770991
5295341776832,2.982987863,2,8.090007409667969,5.7329158752441405,0.7015010864257812,-1.7786259541984732,0.366412213740458,-1.6641221374045803
5295349107718,2.990318749,2,8.104372619628906,5.735310076904296,0.7110778930664062,-1.748091603053435,0.21374045801526717,-1.4351145038167938
5295356470218,2.997681249,2,8.123526232910155,5.82868394165039,0.6715735656738281,-1.8244274809160306,0.3969465648854962,-1.5801526717557253
5295363780061,3.004991092,2,8.12113203125,5.778405706787109,0.6919242797851562,-1.816793893129771,0.21374045801526717,-1.6030534351145038
5295371137665,3.012348696,2,8.130708837890625,5.748478186035156,0.7900865478515624,-1.7786259541984732,0.183206106870229,-1.5954198473282444
5295378523238,3.019734269,2,8.259995727539062,5.722141967773437,0.6452373474121094,-1.702290076335878,0.26717557251908397,-1.6793893129770991
5295385838759,3.02704979,2,8.100781317138672,5.767631799316406,0.7565677246093749,-1.786259541984733,0.20610687022900764,-1.5877862595419847
5295393152040,3.034363071,2,8.122329132080077,5.753266589355468,0.6835445739746093,-1.7251908396946565,0.19083969465648856,-1.618320610687023
5295400472092,3.041683123,2,8.143876947021484,5.76523759765625,0.7972691528320313,-1.7633587786259541,0.24427480916030533,-1.5877862595419847
5295407768759,3.04897979,2,8.125920434570313,5.799953521728515,0.7206546997070312,-1.748091603053435,0.13740458015267176,-1.549618320610687
5295415115478,3.056326509,2,8.10796392211914,5.747281085205078,0.7613561279296874,-1.8244274809160306,0.25190839694656486,-1.6030534351145038
5295422430061,3.063641092,2,8.157045056152343,5.755660791015624,0.6847416748046875,-1.7404580152671756,0.2366412213740458,-1.6946564885496183
5295429775113,3.070986144,2,8.106766821289062,5.717353564453124,0.6751648681640625,-1.7709923664122138,0.16793893129770993,-1.5801526717557253
5295437160478,3.078371509,2,8.105569720458984,5.737704278564453,0.6871358764648438,-1.7404580152671756,0.3053435114503817,-1.6641221374045803
5295444463967,3.085674998,2,8.10796392211914,5.7843912109375,0.7709329345703124,-1.7251908396946565,0.3053435114503817,-1.6259541984732824
5295451730165,3.092941196,2,8.093598712158203,5.7508723876953125,0.7529764221191406,-1.7633587786259541,0.17557251908396945,-1.6564885496183206
5295459105217,3.100316248,2,8.097190014648437,5.747281085205078,0.7278373046875,-1.6106870229007633,0.29770992366412213,-1.6259541984732824
5295466478915,3.107689946,2,8.12113203125,5.730521673583984,0.7146691955566405,-1.6870229007633588,0.35877862595419846,-1.5267175572519085
5295473794020,3.115005051,2,8.106766821289062,5.716156463623046,0.6667851623535156,-1.7557251908396947,0.2595419847328244,-1.5648854961832062
5295481145217,3.122356248,2,8.095992913818359,5.753266589355468,0.7362170104980469,-1.7633587786259541,0.21374045801526717,-1.6106870229007633
5295488488186,3.129699217,2,8.118737829589843,5.779602807617187,0.7146691955566405,-1.7709923664122138,0.31297709923664124,-1.618320610687023
5295495799957,3.137010988,2,8.093598712158203,5.748478186035156,0.7637503295898437,-1.7709923664122138,0.21374045801526717,-1.6412213740458015
5295503154020,3.144365051,2,8.11514652709961,5.7125651611328125,0.7505822204589844,-1.6641221374045803,0.1984732824427481,-1.6717557251908397
5295510528238,3.151739269,2,8.139088543701172,5.778405706787109,0.6775590698242188,-1.7633587786259541,0.1984732824427481,-1.7251908396946565
5295517840634,3.159051665,2,8.188169677734374,5.747281085205078,0.6667851623535156,-1.7786259541984732,0.2595419847328244,-1.5572519083969465
5295525161780,3.166372811,2,8.123526232910155,5.756857891845703,0.7218518005371093,-1.8396946564885497,0.24427480916030533,-1.5648854961832062
5295532479124,3.173690155,2,8.100781317138672,5.787982513427734,0.6859387756347656,-1.7633587786259541,0.2824427480916031,-1.5877862595419847
5295539784436,3.180995467,2,8.061276989746093,5.767631799316406,0.7685387329101562,-1.7709923664122138,0.1984732824427481,-1.6106870229007633
5295547125686,3.188336717,2,8.12113203125,5.723339068603515,0.7505822204589844,-1.7099236641221374,0.2900763358778626,-1.5648854961832062
5295554517822,3.195728853,2,8.105569720458984,5.744886883544922,0.7398083129882812,-1.7786259541984732,0.1984732824427481,-1.5419847328244274
5295561836103,3.203047134,2,8.1594392578125,5.761646295166015,0.7230489013671875,-1.7404580152671756,0.29770992366412213,-1.6259541984732824
5295569152092,3.210363123,2,8.10796392211914,5.717353564453124,0.6871358764648438,-1.8015267175572518,0.183206106870229,-1.549618320610687
5295576474957,3.217685988,2,8.098387115478515,5.743689782714843,0.6715735656738281,-1.786259541984733,0.2595419847328244,-1.6412213740458015
5295583789697,3.225000728,2,8.081627703857421,5.724536169433593,0.7050923889160156,-1.7786259541984732,0.2366412213740458,-1.6030534351145038
5295591135999,3.23234703,2,8.147468249511718,5.736507177734374,0.718260498046875,-1.7709923664122138,0.29770992366412213,-1.6259541984732824
5295598590061,3.239801092,2,8.110358123779296,5.786785412597656,0.7338228088378905,-1.8244274809160306,0.21374045801526717,-1.5419847328244274
5295605912509,3.24712354,2,8.130708837890625,5.758054992675781,0.709880792236328,-1.6717557251908397,0.3435114503816794,-1.5267175572519085
5295613253082,3.254464113,2,8.123526232910155,5.718550665283203,0.7266402038574218,-1.7557251908396947,0.2900763358778626,-1.6030534351145038
5295620529905,3.261740936,2,8.147468249511718,5.787982513427734,0.7230489013671875,-1.717557251908397,0.11450381679389313,-1.5572519083969465
5295627887249,3.26909828,2,8.149862451171874,5.7125651611328125,0.8068459594726562,-1.7938931297709924,0.33587786259541985,-1.5877862595419847
5295635224801,3.276435832,2,8.079233502197265,5.691017346191406,0.7422025146484375,-1.633587786259542,0.29770992366412213,-1.633587786259542
5295642510217,3.283721248,2,8.111555224609374,5.755660791015624,0.7230489013671875,-1.7251908396946565,0.3282442748091603,-1.5877862595419847
5295649848915,3.291059946,2,8.12711753540039,5.753266589355468,0.719457598876953,-1.7786259541984732,0.2366412213740458,-1.618320610687023
5295657204905,3.298415936,2,8.104372619628906,5.774814404296874,0.7122749938964843,-1.748091603053435,0.22137404580152673,-1.5419847328244274
5295664504905,3.305715936,2,8.116343627929687,5.7329158752441405,0.7218518005371093,-1.748091603053435,0.3053435114503817,-1.5954198473282444
5295671806415,3.313017446,2,8.125920434570313,5.760449194335937,0.6715735656738281,-1.786259541984733,0.2366412213740458,-1.5877862595419847
5295679199384,3.320410415,2,8.08881030883789,5.7125651611328125,0.7026981872558593,-1.7633587786259541,0.21374045801526717,-1.6412213740458015
5295686567561,3.327778592,2,8.161833459472655,5.737704278564453,0.7517793212890624,-1.8091603053435115,0.33587786259541985,-1.702290076335878
5295693974436,3.335185467,2,8.117540728759765,5.7125651611328125,0.7565677246093749,-1.7786259541984732,0.15267175572519084,-1.6412213740458015
5295701300738,3.342511769,2,8.086416107177733,5.705382556152343,0.6835445739746093,-1.7709923664122138,0.3511450381679389,-1.6641221374045803
5295708650686,3.349861717,2,8.109161022949218,5.746083984375,0.6931213806152343,-1.8091603053435115,0.3053435114503817,-1.5954198473282444
5295715971051,3.357182082,2,8.090007409667969,5.716156463623046,0.6631938598632812,-1.7404580152671756,0.20610687022900764,-1.633587786259542
5295723341051,3.364552082,2,8.084021905517577,5.736507177734374,0.7673416320800781,-1.7404580152671756,0.22900763358778625,-1.5648854961832062
5295730714019,3.37192505,2,8.064868292236328,5.781997009277344,0.7625532287597656,-1.702290076335878,0.31297709923664124,-1.6412213740458015
5295738085686,3.379296717,2,8.142679846191406,5.781997009277344,0.7613561279296874,-1.786259541984733,0.16793893129770993,-1.534351145038168
5295745422197,3.386633228,2,8.139088543701172,5.6958057495117185,0.7158662963867187,-1.7633587786259541,0.25190839694656486,-1.633587786259542
5295752773655,3.393984686,2,8.17141026611328,5.772420202636718,0.6955155822753906,-1.8091603053435115,0.2748091603053435,-1.633587786259542
5295760107092,3.401318123,2,8.104372619628906,5.7317187744140625,0.6967126831054687,-1.8015267175572518,0.22900763358778625,-1.5648854961832062
5295767416832,3.408627863,2,8.130708837890625,5.755660791015624,0.6655880615234374,-1.6870229007633588,0.19083969465648856,-1.5725190839694656
5295774737822,3.415948853,2,8.099584216308592,5.756857891845703,0.7326257080078125,-1.8473282442748091,0.25190839694656486,-1.6259541984732824
5295782106415,3.423317446,2,8.106766821289062,5.781997009277344,0.7074865905761718,-1.8473282442748091,0.19083969465648856,-1.6030534351145038
5295789432717,3.430643748,2,8.09479581298828,5.744886883544922,0.6859387756347656,-1.7557251908396947,0.2900763358778626,-1.5954198473282444
5295796784853,3.437995884,2,8.122329132080077,5.722141967773437,0.7410054138183594,-1.7404580152671756,0.183206106870229,-1.5190839694656488
5295804082457,3.445293488,2,8.129511737060547,5.761646295166015,0.737414111328125,-1.7557251908396947,0.3053435114503817,-1.6412213740458015
5295811387717,3.452598748,2,8.134300140380859,5.700594152832031,0.7003039855957031,-1.7938931297709924,0.2900763358778626,-1.618320610687023
5295818739644,3.459950675,2,8.11514652709961,5.734112976074218,0.7601590270996094,-1.8015267175572518,0.29770992366412213,-1.6106870229007633
5295826090530,3.467301561,2,8.100781317138672,5.7520694885253905,0.7673416320800781,-1.702290076335878,0.32061068702290074,-1.6412213740458015
5295833431936,3.474642967,2,8.095992913818359,5.764040496826172,0.7457938171386719,-1.6946564885496183,0.21374045801526717,-1.549618320610687
5295840884488,3.482095519,2,8.081627703857421,5.762843395996094,0.7350199096679687,-1.7557251908396947,0.21374045801526717,-1.6488549618320612
5295848279801,3.489490832,2,8.109161022949218,5.766434698486328,0.7026981872558593,-1.7404580152671756,0.3816793893129771,-1.5572519083969465
5295855598603,3.496809634,2,8.104372619628906,5.68862314453125,0.7158662963867187,-1.8015267175572518,0.19083969465648856,-1.6259541984732824
5295862969071,3.504180102,2,8.118737829589843,5.7149593627929685,0.7110778930664062,-1.786259541984733,0.20610687022900764,-1.5267175572519085
5295870337457,3.511548488,2,8.117540728759765,5.753266589355468,0.718260498046875,-1.7099236641221374,0.31297709923664124,-1.6946564885496183
5295877650113,3.518861144,2,8.045714678955077,5.760449194335937,0.7924807495117187,-1.7328244274809161,0.24427480916030533,-1.549618320610687
5295884962509,3.52617354,2,8.097190014648437,5.787982513427734,0.7338228088378905,-1.8015267175572518,0.183206106870229,-1.6564885496183206
5295892272978,3.533484009,2,8.087613208007811,5.779602807617187,0.7517793212890624,-1.748091603053435,0.31297709923664124,-1.6259541984732824
5295899575738,3.540786769,2,8.113949426269532,5.702988354492187,0.7541735229492187,-1.7938931297709924,0.16793893129770993,-1.633587786259542
5295906917613,3.548128644,2,8.092401611328125,5.776011505126953,0.7637503295898437,-1.7557251908396947,0.2900763358778626,-1.6259541984732824
5295914272561,3.555483592,2,8.137891442871092,5.747281085205078,0.7362170104980469,-1.748091603053435,0.31297709923664124,-1.6641221374045803
5295921616207,3.562827238,2,8.116343627929687,5.7317187744140625,0.7410054138183594,-1.8244274809160306,0.22900763358778625,-1.549618320610687
5295928954332,3.570165363,2,8.118737829589843,5.748478186035156,0.7529764221191406,-1.7404580152671756,0.26717557251908397,-1.6259541984732824
5295936210478,3.577421509,2,8.095992913818359,5.741295581054687,0.7433996154785156,-1.748091603053435,0.183206106870229,-1.5190839694656488
5295943487301,3.584698332,2,8.155847955322265,5.772420202636718,0.7302315063476562,-1.748091603053435,0.20610687022900764,-1.633587786259542
5295950792196,3.592003227,2,8.129511737060547,5.716156463623046,0.70868369140625,-1.7328244274809161,0.2595419847328244,-1.633587786259542
5295958109488,3.599320519,2,8.185775476074218,5.725733270263672,0.7302315063476562,-1.7709923664122138,0.2595419847328244,-1.6106870229007633
5295965348186,3.606559217,2,8.263587030029296,5.735310076904296,0.7410054138183594,-1.7251908396946565,0.32061068702290074,-1.549618320610687
5295972729749,3.61394078,2,8.143876947021484,5.747281085205078,0.7230489013671875,-1.7786259541984732,0.29770992366412213,-1.5801526717557253
5295980101103,3.621312134,2,8.17859287109375,5.740098480224609,0.6715735656738281,-1.7938931297709924,0.21374045801526717,-1.5801526717557253
5295987406207,3.628617238,2,8.130708837890625,5.748478186035156,0.7146691955566405,-1.7404580152671756,0.32061068702290074,-1.633587786259542
5295994755269,3.6359663,2,8.137891442871092,5.792770916748046,0.7625532287597656,-1.748091603053435,0.31297709923664124,-1.5801526717557253
5296002096207,3.643307238,2,8.15345375366211,5.776011505126953,0.7050923889160156,-1.7938931297709924,0.16030534351145037,-1.633587786259542
5296010161415,3.651372446,2,8.13310303955078,5.799953521728515,0.7003039855957031,-1.786259541984733,0.2595419847328244,-1.5954198473282444
5296017911832,3.659122863,2,8.1594392578125,5.736507177734374,0.7422025146484375,-1.7633587786259541,0.22137404580152673,-1.6106870229007633
5296025327144,3.666538175,2,8.099584216308592,5.711368060302734,0.7314286071777343,-1.748091603053435,0.0916030534351145,-1.6030534351145038
5296032836467,3.674047498,2,8.103175518798828,5.735310076904296,0.7745242370605468,-1.7557251908396947,0.3816793893129771,-1.6488549618320612
5296040179123,3.681390154,2,8.105569720458984,5.755660791015624,0.6847416748046875,-1.7786259541984732,0.16030534351145037,-1.6564885496183206
5296047735478,3.688946509,2,8.103175518798828,5.748478186035156,0.7781155395507812,-1.7328244274809161,0.3893129770992366,-1.618320610687023
5296055191884,3.696402915,2,8.131905938720703,5.768828900146484,0.7781155395507812,-1.7404580152671756,0.1984732824427481,-1.618320610687023
5296062729696,3.703940727,2,8.14028564453125,5.758054992675781,0.689530078125,-1.8091603053435115,0.16793893129770993,-1.5725190839694656
5296070202561,3.711413592,2,8.095992913818359,5.738901379394531,0.8008604553222656,-1.6793893129770991,0.3282442748091603,-1.5725190839694656
5296077736363,3.718947394,2,8.08881030883789,5.785588311767578,0.6763619689941406,-1.786259541984733,0.16793893129770993,-1.549618320610687
5296085151103,3.726362134,2,8.13310303955078,5.764040496826172,0.7649474304199219,-1.7709923664122138,0.26717557251908397,-1.6030534351145038
5296092620530,3.733831561,2,8.113949426269532,5.692214447021484,0.7505822204589844,-1.6946564885496183,0.32061068702290074,-1.5267175572519085
5296100784748,3.741995779,2,8.118737829589843,5.7329158752441405,0.7529764221191406,-1.7633587786259541,0.2366412213740458,-1.633587786259542
5296108502821,3.749713852,2,8.124723333740233,5.734112976074218,0.7505822204589844,-1.816793893129771,0.16030534351145037,-1.5801526717557253
5296116097821,3.757308852,2,8.147468249511718,5.76523759765625,0.7302315063476562,-1.7786259541984732,0.2595419847328244,-1.6412213740458015
5296123611155,3.764822186,2,8.113949426269532,5.754463690185546,0.6763619689941406,-1.7786259541984732,0.22900763358778625,-1.5954198473282444
5296131014592,3.772225623,2,8.122329132080077,5.764040496826172,0.737414111328125,-1.6946564885496183,0.1450381679389313,-1.6259541984732824
5296138551676,3.779762707,2,8.104372619628906,5.738901379394531,0.7206546997070312,-1.7251908396946565,0.21374045801526717,-1.534351145038168
5296145929176,3.787140207,2,8.10197841796875,5.740098480224609,0.7541735229492187,-1.7786259541984732,0.21374045801526717,-1.6564885496183206
5296153371051,3.794582082,2,8.152256652832031,5.7843912109375,0.7493851196289062,-1.7938931297709924,0.32061068702290074,-1.5801526717557253
5296160908603,3.802119634,2,8.104372619628906,5.766434698486328,0.6308721374511719,-1.8015267175572518,0.2595419847328244,-1.6946564885496183
5296168310269,3.8095213,2,8.112752325439452,5.759252093505859,0.737414111328125,-1.7709923664122138,0.25190839694656486,-1.4427480916030535
5296175758655,3.816969686,2,8.116343627929687,5.734112976074218,0.6835445739746093,-1.7557251908396947,0.33587786259541985,-1.6412213740458015
5296183332092,3.824543123,2,8.13310303955078,5.7508723876953125,0.6296750366210937,-1.7328244274809161,0.22137404580152673,-1.5267175572519085
5296190692509,3.83190354,2,8.116343627929687,5.758054992675781,0.7230489013671875,-1.748091603053435,0.2824427480916031,-1.5877862595419847
5296198185530,3.839396561,2,8.100781317138672,5.783194110107422,0.699106884765625,-1.748091603053435,0.2900763358778626,-1.5725190839694656
5296205627717,3.846838748,2,8.119934930419921,5.748478186035156,0.7888894470214843,-1.7938931297709924,0.19083969465648856,-1.549618320610687
5296213169384,3.854380415,2,8.098387115478515,5.728127471923828,0.7206546997070312,-1.7633587786259541,0.3053435114503817,-1.5877862595419847
5296220584071,3.861795102,2,8.085219006347655,5.748478186035156,0.6907271789550781,-1.8015267175572518,0.22137404580152673,-1.5648854961832062
5296227986415,3.869197446,2,8.116343627929687,5.738901379394531,0.6979097839355468,-1.717557251908397,0.20610687022900764,-1.6259541984732824
5296235522821,3.876733852,2,8.109161022949218,5.760449194335937,0.7565677246093749,-1.7709923664122138,0.29770992366412213,-1.5419847328244274
5296242991676,3.884202707,2,8.109161022949218,5.744886883544922,0.7338228088378905,-1.7251908396946565,0.22900763358778625,-1.5954198473282444
5296250540582,3.891751613,2,8.17859287109375,5.758054992675781,0.7266402038574218,-1.7328244274809161,0.17557251908396945,-1.6259541984732824
5296258012925,3.899223956,2,8.080430603027343,5.747281085205078,0.6727706665039062,-1.6488549618320612,0.21374045801526717,-1.5725190839694656
5296265549696,3.906760727,2,8.142679846191406,5.736507177734374,0.70868369140625,-1.786259541984733,0.22900763358778625,-1.6641221374045803
5296272964748,3.914175779,2,8.104372619628906,5.7317187744140625,0.7637503295898437,-1.7709923664122138,0.3053435114503817,-1.5419847328244274
5296280380425,3.921591456,2,8.091204510498047,5.7317187744140625,0.7146691955566405,-1.7633587786259541,0.2748091603053435,-1.5648854961832062
5296287915998,3.929127029,2,8.117540728759765,5.76523759765625,0.7350199096679687,-1.786259541984733,0.25190839694656486,-1.6412213740458015
5296295294592,3.936505623,2,8.103175518798828,5.774814404296874,0.7410054138183594,-1.6946564885496183,0.3816793893129771,-1.618320610687023
5296302738915,3.943949946,2,8.155847955322265,5.748478186035156,0.6332663391113281,-1.7938931297709924,0.183206106870229,-1.6030534351145038
5296310109280,3.951320311,2,8.12113203125,5.79037671508789,0.8092401611328125,-1.7557251908396947,0.22137404580152673,-1.5190839694656488
5296317500634,3.958711665,2,8.119934930419921,5.7520694885253905,0.7338228088378905,-1.748091603053435,0.22137404580152673,-1.5725190839694656
5296324905686,3.966116717,2,8.124723333740233,5.777208605957031,0.7074865905761718,-1.7557251908396947,0.15267175572519084,-1.5954198473282444
5296332414228,3.973625259,2,8.08881030883789,5.746083984375,0.7398083129882812,-1.8244274809160306,0.26717557251908397,-1.6259541984732824
5296339989332,3.981200363,2,8.066065393066406,5.717353564453124,0.7134720947265625,-1.7938931297709924,0.2595419847328244,-1.6488549618320612
5296347369123,3.988580154,2,8.111555224609374,5.7508723876953125,0.8128314636230468,-1.748091603053435,0.16793893129770993,-1.6793893129770991
5296354721936,3.995932967,2,8.113949426269532,5.740098480224609,0.6835445739746093,-1.7633587786259541,0.31297709923664124,-1.6106870229007633
5296362046988,4.003258019,2,8.078036401367187,5.791573815917968,0.6488286499023437,-1.717557251908397,0.17557251908396945,-1.5648854961832062
5296369357196,4.010568227,2,8.13310303955078,5.795165118408203,0.719457598876953,-1.7786259541984732,0.22137404580152673,-1.5801526717557253
5296376708134,4.017919165,2,8.100781317138672,5.719747766113281,0.7433996154785156,-1.7557251908396947,0.3435114503816794,-1.5954198473282444
5296384095061,4.025306092,2,8.147468249511718,5.749675286865234,0.6643909606933593,-1.748091603053435,0.17557251908396945,-1.4732824427480915
5296391414228,4.032625259,2,8.109161022949218,5.783194110107422,0.7805097412109374,-1.7557251908396947,0.33587786259541985,-1.6488549618320612
5296398739592,4.039950623,2,8.08881030883789,5.780799908447265,0.7410054138183594,-1.7633587786259541,0.31297709923664124,-1.5877862595419847
5296406096207,4.047307238,2,8.128314636230469,5.728127471923828,0.699106884765625,-1.8091603053435115,0.183206106870229,-1.702290076335878
5296413426780,4.054637811,2,8.10796392211914,5.772420202636718,0.6727706665039062,-1.7709923664122138,0.2900763358778626,-1.5648854961832062
5296420874123,4.062085154,2,8.131905938720703,5.756857891845703,0.6584054565429687,-1.8015267175572518,0.3282442748091603,-1.5572519083969465
5296428185790,4.069396821,2,8.131905938720703,5.7329158752441405,0.7134720947265625,-1.8549618320610688,0.22900763358778625,-1.5877862595419847
5296435503238,4.076714269,2,8.105569720458984,5.748478186035156,0.6619967590332031,-1.816793893129771,0.33587786259541985,-1.5725190839694656
5296442791884,4.084002915,2,8.092401611328125,5.743689782714843,0.6715735656738281,-1.7786259541984732,0.1984732824427481,-1.6641221374045803
5296450152769,4.0913638,2,8.125920434570313,5.753266589355468,0.7805097412109374,-1.7251908396946565,0.26717557251908397,-1.5801526717557253
5296457462769,4.0986738,2,8.064868292236328,5.72693037109375,0.7410054138183594,-1.748091603053435,0.2824427480916031,-1.6946564885496183
5296464835946,4.106046977,2,8.112752325439452,5.787982513427734,0.7493851196289062,-1.7709923664122138,0.26717557251908397,-1.5954198473282444
5296472287925,4.113498956,2,8.117540728759765,5.749675286865234,0.7038952880859375,-1.702290076335878,0.19083969465648856,-1.6564885496183206
5296479631311,4.120842342,2,8.137891442871092,5.772420202636718,0.8056488586425781,-1.7633587786259541,0.32061068702290074,-1.5801526717557253
5296486946050,4.128157081,2,8.103175518798828,5.748478186035156,0.7050923889160156,-1.7938931297709924,0.183206106870229,-1.5190839694656488
5296494344071,4.135555102,2,8.12113203125,5.7700260009765625,0.6931213806152343,-1.7557251908396947,0.16030534351145037,-1.633587786259542
5296501639644,4.142850675,2,8.10796392211914,5.724536169433593,0.7457938171386719,-1.7404580152671756,0.35877862595419846,-1.5954198473282444
5296509071155,4.150282186,2,8.130708837890625,5.760449194335937,0.7410054138183594,-1.7328244274809161,0.16030534351145037,-1.5801526717557253
5296516470790,4.157681821,2,8.11514652709961,5.761646295166015,0.7038952880859375,-1.7404580152671756,0.2824427480916031,-1.5877862595419847
5296523771155,4.164982186,2,8.091204510498047,5.7520694885253905,0.7613561279296874,-1.7557251908396947,0.17557251908396945,-1.5877862595419847
5296531148446,4.172359477,2,8.105569720458984,5.724536169433593,0.7613561279296874,-1.8091603053435115,0.20610687022900764,-1.6412213740458015
5296538606102,4.179817133,2,8.164227661132813,5.766434698486328,0.7278373046875,-1.8091603053435115,0.3053435114503817,-1.5801526717557253
5296545983082,4.187194113,2,8.064868292236328,5.7843912109375,0.7386112121582031,-1.786259541984733,0.1984732824427481,-1.633587786259542
5296553330634,4.194541665,2,8.055291485595703,5.76523759765625,0.7445967163085937,-1.786259541984733,0.16793893129770993,-1.5801526717557253
5296560671102,4.201882133,2,8.116343627929687,5.742492681884765,0.6524199523925781,-1.7404580152671756,0.26717557251908397,-1.618320610687023
5296567986519,4.20919755,2,8.11514652709961,5.718550665283203,0.7410054138183594,-1.8091603053435115,0.2595419847328244,-1.5725190839694656
5296575325477,4.216536508,2,8.122329132080077,5.754463690185546,0.7134720947265625,-1.7557251908396947,0.1984732824427481,-1.5419847328244274
5296582676311,4.223887342,2,8.148665350341796,5.768828900146484,0.6919242797851562,-1.7099236641221374,0.31297709923664124,-1.6030534351145038
5296590000061,4.231211092,2,8.125920434570313,5.787982513427734,0.7074865905761718,-1.7786259541984732,0.2824427480916031,-1.618320610687023
5296597403030,4.238614061,2,8.128314636230469,5.742492681884765,0.6643909606933593,-1.8091603053435115,0.21374045801526717,-1.633587786259542
5296604757144,4.245968175,2,8.100781317138672,5.7125651611328125,0.7673416320800781,-1.786259541984733,0.29770992366412213,-1.6106870229007633
5296612119019,4.25333005,2,8.103175518798828,5.758054992675781,0.6679822631835937,-1.7404580152671756,0.22900763358778625,-1.6106870229007633
5296619433030,4.260644061,2,8.12113203125,5.779602807617187,0.6871358764648438,-1.748091603053435,0.20610687022900764,-1.5114503816793894
5296626742665,4.267953696,2,8.087613208007811,5.753266589355468,0.7266402038574218,-1.6564885496183206,0.29770992366412213,-1.5801526717557253
5296634100998,4.275312029,2,8.11514652709961,5.796362219238281,0.7984662536621093,-1.6641221374045803,0.21374045801526717,-1.5572519083969465
5296641534696,4.282745727,2,8.149862451171874,5.816712933349609,0.7122749938964843,-1.7633587786259541,0.25190839694656486,-1.6412213740458015
5296648905113,4.290116144,2,8.135497241210937,5.716156463623046,0.7015010864257812,-1.7786259541984732,0.183206106870229,-1.5648854961832062
5296656282925,4.297493956,2,8.105569720458984,5.791573815917968,0.689530078125,-1.786259541984733,0.22137404580152673,-1.702290076335878
5296663593082,4.304804113,2,8.135497241210937,5.77122310180664,0.7050923889160156,-1.786259541984733,0.2824427480916031,-1.5877862595419847
5296670854540,4.312065571,2,8.112752325439452,5.7329158752441405,0.7038952880859375,-1.7709923664122138,0.25190839694656486,-1.5572519083969465
5296678206363,4.319417394,2,8.14028564453125,5.786785412597656,0.7422025146484375,-1.7709923664122138,0.26717557251908397,-1.5038167938931297
5296685507613,4.326718644,2,8.154650854492187,5.76523759765625,0.7338228088378905,-1.83206106870229,0.31297709923664124,-1.6641221374045803
5296692856311,4.334067342,2,8.164227661132813,5.779602807617187,0.7565677246093749,-1.8244274809160306,0.16030534351145037,-1.5801526717557253
5296700124644,4.341335675,2,8.141482745361328,5.746083984375,0.6667851623535156,-1.7251908396946565,0.31297709923664124,-1.7251908396946565
5296707501154,4.348712185,2,8.090007409667969,5.718550665283203,0.7003039855957031,-1.748091603053435,0.25190839694656486,-1.5190839694656488
5296714883498,4.356094529,2,8.106766821289062,5.753266589355468,0.622492431640625,-1.786259541984733,0.15267175572519084,-1.5267175572519085
5296722261154,4.363472185,2,8.075642199707032,5.77122310180664,0.679953271484375,-1.8015267175572518,0.32061068702290074,-1.6030534351145038
5296729629488,4.370840519,2,8.111555224609374,5.76523759765625,0.7852981445312499,-1.7786259541984732,0.1984732824427481,-1.6717557251908397
5296736978759,4.37818979,2,8.130708837890625,5.72693037109375,0.6763619689941406,-1.7099236641221374,0.15267175572519084,-1.6030534351145038
5296744310998,4.385522029,2,8.112752325439452,5.697002850341796,0.7230489013671875,-1.786259541984733,0.3511450381679389,-1.4885496183206106
5296751635738,4.392846769,2,8.125920434570313,5.755660791015624,0.6536170532226562,-1.7709923664122138,0.2824427480916031,-1.5725190839694656
5296758942925,4.400153956,2,8.10796392211914,5.7149593627929685,0.6907271789550781,-1.8091603053435115,0.26717557251908397,-1.6259541984732824
5296766338134,4.407549165,2,8.143876947021484,5.767631799316406,0.7433996154785156,-1.7633587786259541,0.29770992366412213,-1.6946564885496183
5296773672613,4.414883644,2,8.111555224609374,5.724536169433593,0.7613561279296874,-1.8473282442748091,0.22137404580152673,-1.549618320610687
5296781042404,4.422253435,2,8.147468249511718,5.746083984375,0.7984662536621093,-1.7633587786259541,0.1984732824427481,-1.6106870229007633
5296788340842,4.429551873,2,8.081627703857421,5.7329158752441405,0.7062894897460937,-1.7709923664122138,0.183206106870229,-1.5954198473282444
5296795697248,4.436908279,2,8.112752325439452,5.766434698486328,0.6727706665039062,-1.7099236641221374,0.183206106870229,-1.6564885496183206
5296803032248,4.444243279,2,8.086416107177733,5.756857891845703,0.6811503723144531,-1.83206106870229,0.2900763358778626,-1.5267175572519085
5296810398186,4.451609217,2,8.100781317138672,5.786785412597656,0.7003039855957031,-1.816793893129771,0.20610687022900764,-1.5954198473282444
5296817788394,4.458999425,2,8.244433416748047,5.753266589355468,0.7314286071777343,-1.717557251908397,0.20610687022900764,-1.5419847328244274
5296825154332,4.466365363,2,8.079233502197265,5.743689782714843,0.6679822631835937,-1.7633587786259541,0.3511450381679389,-1.6641221374045803
5296832480009,4.47369104,2,8.134300140380859,5.735310076904296,0.7038952880859375,-1.786259541984733,0.16030534351145037,-1.549618320610687
5296840074748,4.481285779,2,8.149862451171874,5.7843912109375,0.7158662963867187,-1.816793893129771,0.3053435114503817,-1.6030534351145038
5296847419071,4.488630102,2,8.11514652709961,5.796362219238281,0.729034405517578,-1.7709923664122138,0.29770992366412213,-1.5877862595419847
5296854725113,4.495936144,2,8.116343627929687,5.768828900146484,0.8367734802246093,-1.748091603053435,0.20610687022900764,-1.5572519083969465
5296862011779,4.50322281,2,8.100781317138672,5.773617303466796,0.70868369140625,-1.7099236641221374,0.22900763358778625,-1.6641221374045803
5296869358759,4.51056979,2,8.113949426269532,5.711368060302734,0.7003039855957031,-1.7328244274809161,0.25190839694656486,-1.702290076335878
5296876722925,4.517933956,2,8.075642199707032,5.720944866943359,0.7613561279296874,-1.8244274809160306,0.2366412213740458,-1.5954198473282444
5296884038654,4.525249685,2,8.10197841796875,5.7149593627929685,0.7230489013671875,-1.7938931297709924,0.31297709923664124,-1.5877862595419847
5296891374279,4.53258531,2,8.08881030883789,5.753266589355468,0.7050923889160156,-1.7709923664122138,0.24427480916030533,-1.5877862595419847
5296898769227,4.539980258,2,8.084021905517577,5.759252093505859,0.7481880187988281,-1.7938931297709924,0.22900763358778625,-1.5648854961832062
5296906190529,4.54740156,2,8.092401611328125,5.781997009277344,0.6500257507324219,-1.7786259541984732,0.2748091603053435,-1.618320610687023
5296913584071,4.554795102,2,8.093598712158203,5.736507177734374,0.6883329772949218,-1.7633587786259541,0.2595419847328244,-1.6488549618320612
5296920951779,4.56216281,2,8.103175518798828,5.735310076904296,0.7589619262695312,-1.7328244274809161,0.24427480916030533,-1.5877862595419847
5296928282144,4.569493175,2,8.155847955322265,5.746083984375,0.6787561706542968,-1.786259541984733,0.2366412213740458,-1.6259541984732824
5296935549800,4.576760831,2,8.15345375366211,5.699397052001952,0.7314286071777343,-1.748091603053435,0.19083969465648856,-1.5954198473282444
5296943005686,4.584216717,2,8.10197841796875,5.72693037109375,0.63206923828125,-1.7099236641221374,0.2748091603053435,-1.6717557251908397
5296950424904,4.591635935,2,8.098387115478515,5.702988354492187,0.7314286071777343,-1.8473282442748091,0.2824427480916031,-1.5801526717557253
5296957680686,4.598891717,2,8.097190014648437,5.742492681884765,0.7900865478515624,-1.7786259541984732,0.2366412213740458,-1.5419847328244274
5296965044123,4.606255154,2,8.10796392211914,5.7520694885253905,0.7852981445312499,-1.8091603053435115,0.3053435114503817,-1.633587786259542
5296972373029,4.61358406,2,8.084021905517577,5.760449194335937,0.7110778930664062,-1.7557251908396947,0.26717557251908397,-1.4885496183206106
5296979717196,4.620928227,2,8.139088543701172,5.718550665283203,0.7015010864257812,-1.7557251908396947,0.35877862595419846,-1.6259541984732824
5296987035738,4.628246769,2,8.12711753540039,5.759252093505859,0.7457938171386719,-1.8244274809160306,0.2748091603053435,-1.6488549618320612
5296994413186,4.635624217,2,8.135497241210937,5.723339068603515,0.7649474304199219,-1.7938931297709924,0.183206106870229,-1.6412213740458015
5297001733394,4.642944425,2,8.105569720458984,5.717353564453124,0.6392518432617187,-1.816793893129771,0.1450381679389313,-1.5877862595419847
5297009061884,4.650272915,2,8.087613208007811,5.741295581054687,0.7398083129882812,-1.748091603053435,0.2595419847328244,-1.5648854961832062
5297016381884,4.657592915,2,8.122329132080077,5.718550665283203,0.7242460021972655,-1.7328244274809161,0.21374045801526717,-1.6641221374045803
5297023717561,4.664928592,2,8.111555224609374,5.77122310180664,0.7038952880859375,-1.7557251908396947,0.2366412213740458,-1.6641221374045803
5297031137404,4.672348435,2,8.078036401367187,5.728127471923828,0.6835445739746093,-1.717557251908397,0.2748091603053435,-1.549618320610687
5297038540217,4.679751248,2,8.099584216308592,5.748478186035156,0.6619967590332031,-1.7633587786259541,0.2366412213740458,-1.5267175572519085
5297045924436,4.687135467,2,8.092401611328125,5.6958057495117185,0.7864952453613281,-1.786259541984733,0.21374045801526717,-1.5725190839694656
5297053259904,4.694470935,2,8.111555224609374,5.741295581054687,0.7003039855957031,-1.8396946564885497,0.32061068702290074,-1.6259541984732824
5297060621675,4.701832706,2,8.14627114868164,5.76523759765625,0.6775590698242188,-1.7938931297709924,0.17557251908396945,-1.6488549618320612
5297067948602,4.709159633,2,8.084021905517577,5.725733270263672,0.6919242797851562,-1.6870229007633588,0.3282442748091603,-1.6030534351145038
5297075339019,4.71655005,2,8.141482745361328,5.76523759765625,0.6919242797851562,-1.7251908396946565,0.3053435114503817,-1.534351145038168
5297082733602,4.723944633,2,8.109161022949218,5.756857891845703,0.6679822631835937,-1.8702290076335877,0.26717557251908397,-1.6106870229007633
5297090109331,4.731320362,2,8.092401611328125,5.729324572753906,0.6979097839355468,-1.717557251908397,0.33587786259541985,-1.618320610687023
5297097446102,4.738657133,2,8.099584216308592,5.754463690185546,0.7386112121582031,-1.7709923664122138,0.22137404580152673,-1.5954198473282444
5297104846623,4.746057654,2,8.12711753540039,5.768828900146484,0.7242460021972655,-1.717557251908397,0.2824427480916031,-1.6717557251908397
5297112168134,4.753379165,2,8.12113203125,5.723339068603515,0.7314286071777343,-1.7557251908396947,0.3053435114503817,-1.5877862595419847
5297119516467,4.760727498,2,8.152256652832031,5.7520694885253905,0.6967126831054687,-1.7404580152671756,0.183206106870229,-1.5648854961832062
5297126919123,4.768130154,2,8.090007409667969,5.744886883544922,0.7601590270996094,-1.7404580152671756,0.32061068702290074,-1.5572519083969465
5297134329592,4.775540623,2,8.136694342041014,5.7317187744140625,0.6667851623535156,-1.8473282442748091,0.1984732824427481,-1.6030534351145038
5297141716050,4.782927081,2,8.086416107177733,5.730521673583984,0.6907271789550781,-1.717557251908397,0.183206106870229,-1.5648854961832062
5297149059800,4.790270831,2,8.122329132080077,5.738901379394531,0.7254431030273437,-1.7633587786259541,0.21374045801526717,-1.5801526717557253
5297156385633,4.797596664,2,8.12711753540039,5.753266589355468,0.7457938171386719,-1.7633587786259541,0.2595419847328244,-1.5190839694656488
5297163707665,4.804918696,2,8.100781317138672,5.725733270263672,0.6189011291503906,-1.717557251908397,0.1984732824427481,-1.618320610687023
5297171108394,4.812319425,2,8.103175518798828,5.729324572753906,0.7936778503417968,-1.7099236641221374,0.22137404580152673,-1.5725190839694656
5297178460894,4.819671925,2,8.111555224609374,5.772420202636718,0.8152256652832031,-1.8702290076335877,0.2366412213740458,-1.5725190839694656
5297185710790,4.826921821,2,8.125920434570313,5.7700260009765625,0.7517793212890624,-1.6488549618320612,0.183206106870229,-1.6259541984732824
5297193030165,4.834241196,2,8.157045056152343,5.743689782714843,0.6332663391113281,-1.702290076335878,0.32061068702290074,-1.6564885496183206
5297200359644,4.841570675,2,8.07683930053711,5.767631799316406,0.719457598876953,-1.717557251908397,0.15267175572519084,-1.5572519083969465
5297207719956,4.848930987,2,8.112752325439452,5.744886883544922,0.7338228088378905,-1.7099236641221374,0.2900763358778626,-1.6488549618320612
5297215047352,4.856258383,2,8.081627703857421,5.756857891845703,0.8164227661132812,-1.7251908396946565,0.17557251908396945,-1.618320610687023
5297222428654,4.863639685,2,8.166621862792969,5.792770916748046,0.6931213806152343,-1.786259541984733,0.2366412213740458,-1.6412213740458015
5297229795061,4.871006092,2,8.092401611328125,5.8083332275390624,0.6907271789550781,-1.717557251908397,0.3435114503816794,-1.6412213740458015
5297237156050,4.878367081,2,8.099584216308592,5.736507177734374,0.7350199096679687,-1.8244274809160306,0.21374045801526717,-1.5648854961832062
5297244486415,4.885697446,2,8.091204510498047,5.711368060302734,0.737414111328125,-1.8091603053435115,0.21374045801526717,-1.5877862595419847
5297251908863,4.893119894,2,8.124723333740233,5.799953521728515,0.7314286071777343,-1.816793893129771,0.26717557251908397,-1.618320610687023
5297259258290,4.900469321,2,8.12113203125,5.747281085205078,0.7398083129882812,-1.7633587786259541,0.2366412213740458,-1.633587786259542
5297266600842,4.907811873,2,8.139088543701172,5.708973858642578,0.7445967163085937,-1.702290076335878,0.2595419847328244,-1.6106870229007633
5297273930790,4.915141821,2,8.078036401367187,5.746083984375,0.6727706665039062,-1.816793893129771,0.3893129770992366,-1.6030534351145038
5297281277977,4.922489008,2,8.145074047851562,5.785588311767578,0.7661445312499999,-1.8244274809160306,0.2595419847328244,-1.5725190839694656
5297288653290,4.929864321,2,8.119934930419921,5.741295581054687,0.6871358764648438,-1.748091603053435,0.22900763358778625,-1.633587786259542
5297295985113,4.937196144,2,8.090007409667969,5.744886883544922,0.6284779357910156,-1.7633587786259541,0.24427480916030533,-1.4580152671755726
5297303364696,4.944575727,2,8.0828248046875,5.760449194335937,0.689530078125,-1.8244274809160306,0.26717557251908397,-1.4885496183206106
5297310650373,4.951861404,2,8.155847955322265,5.760449194335937,0.6596025573730468,-1.7633587786259541,0.32061068702290074,-1.6793893129770991
5297318079644,4.959290675,2,8.116343627929687,5.780799908447265,0.6572083557128906,-1.7328244274809161,0.3282442748091603,-1.6946564885496183
5297325451988,4.966663019,2,8.098387115478515,5.797559320068359,0.7003039855957031,-1.8091603053435115,0.17557251908396945,-1.6488549618320612
5297332871206,4.974082237,2,8.129511737060547,5.741295581054687,0.709880792236328,-1.7404580152671756,0.2900763358778626,-1.618320610687023
5297340287144,4.981498175,2,8.125920434570313,5.756857891845703,0.7326257080078125,-1.7328244274809161,0.2748091603053435,-1.5419847328244274
5297347809644,4.989020675,2,8.08881030883789,5.72693037109375,0.70868369140625,-1.7251908396946565,0.29770992366412213,-1.633587786259542
5297355248863,4.996459894,2,8.131905938720703,5.778405706787109,0.6811503723144531,-1.8091603053435115,0.19083969465648856,-1.5572519083969465
5297362594071,5.003805102,2,8.091204510498047,5.754463690185546,0.7481880187988281,-1.816793893129771,0.1450381679389313,-1.6717557251908397
5297369987821,5.011198852,2,8.068459594726562,5.7329158752441405,0.737414111328125,-1.7633587786259541,0.25190839694656486,-1.5419847328244274
5297377367144,5.018578175,2,8.090007409667969,5.756857891845703,0.7481880187988281,-1.8015267175572518,0.35877862595419846,-1.6030534351145038
5297384773185,5.025984216,2,8.103175518798828,5.799953521728515,0.7122749938964843,-1.8473282442748091,0.21374045801526717,-1.5877862595419847
5297392127873,5.033338904,2,8.12113203125,5.7329158752441405,0.7146691955566405,-1.6870229007633588,0.2824427480916031,-1.549618320610687
5297399519696,5.040730727,2,8.141482745361328,5.719747766113281,0.6679822631835937,-1.7633587786259541,0.29770992366412213,-1.633587786259542
5297406928446,5.048139477,2,8.124723333740233,5.773617303466796,0.6847416748046875,-1.8396946564885497,0.26717557251908397,-1.618320610687023
5297414331571,5.055542602,2,8.095992913818359,5.734112976074218,0.718260498046875,-1.8015267175572518,0.2824427480916031,-1.6717557251908397
5297421689488,5.062900519,2,8.06367119140625,5.758054992675781,0.70868369140625,-1.702290076335878,0.32061068702290074,-1.5801526717557253
5297429044227,5.070255258,2,8.130708837890625,5.764040496826172,0.7661445312499999,-1.8549618320610688,0.17557251908396945,-1.4885496183206106
5297436404488,5.077615519,2,8.145074047851562,5.710170959472656,0.7984662536621093,-1.8091603053435115,0.35877862595419846,-1.5572519083969465
5297443756258,5.084967289,2,8.072050897216796,5.740098480224609,0.7721300354003906,-1.7786259541984732,0.22900763358778625,-1.6106870229007633
5297451146050,5.092357081,2,8.141482745361328,5.7891796142578125,0.6739677673339843,-1.7786259541984732,0.21374045801526717,-1.5877862595419847
5297458550425,5.099761456,2,8.092401611328125,5.754463690185546,0.7254431030273437,-1.7404580152671756,0.25190839694656486,-1.5801526717557253
5297465933394,5.107144425,2,8.093598712158203,5.734112976074218,0.7888894470214843,-1.786259541984733,0.1297709923664122,-1.5572519083969465
5297473238706,5.114449737,2,8.177395770263672,5.667075329589843,0.7948749511718749,-1.7786259541984732,0.2748091603053435,-1.6412213740458015
5297480563706,5.121774737,2,8.14627114868164,5.778405706787109,0.709880792236328,-1.717557251908397,0.25190839694656486,-1.5190839694656488
5297487880060,5.129091091,2,8.0828248046875,5.747281085205078,0.6979097839355468,-1.7938931297709924,0.20610687022900764,-1.6946564885496183
5297495239175,5.136450206,2,8.13310303955078,5.734112976074218,0.7050923889160156,-1.6946564885496183,0.29770992366412213,-1.5877862595419847
5297502567560,5.143778591,2,8.050503082275391,5.728127471923828,0.7852981445312499,-1.7938931297709924,0.2595419847328244,-1.7099236641221374
5297509964123,5.151175154,2,8.098387115478515,5.762843395996094,0.7302315063476562,-1.7633587786259541,0.2900763358778626,-1.4885496183206106
5297517303602,5.158514633,2,8.117540728759765,5.737704278564453,0.718260498046875,-1.7328244274809161,0.32061068702290074,-1.6106870229007633
5297524673290,5.165884321,2,8.117540728759765,5.776011505126953,0.7314286071777343,-1.9312977099236641,0.10687022900763359,-1.5725190839694656
5297532056415,5.173267446,2,8.123526232910155,5.774814404296874,0.6811503723144531,-1.7938931297709924,0.25190839694656486,-1.5725190839694656
5297539395477,5.180606508,2,8.10796392211914,5.720944866943359,0.7218518005371093,-1.7709923664122138,0.366412213740458,-1.5419847328244274
5297546774383,5.187985414,2,8.117540728759765,5.766434698486328,0.6404489440917969,-1.8549618320610688,0.16793893129770993,-1.5267175572519085
5297554170113,5.195381144,2,8.118737829589843,5.728127471923828,0.7326257080078125,-1.7328244274809161,0.26717557251908397,-1.633587786259542
5297561531727,5.202742758,2,8.169016064453125,5.7125651611328125,0.7350199096679687,-1.8244274809160306,0.3282442748091603,-1.5648854961832062
5297568895269,5.2101063,2,8.166621862792969,5.72693037109375,0.7577648254394531,-1.7099236641221374,0.20610687022900764,-1.618320610687023
5297576218342,5.217429373,2,8.103175518798828,5.754463690185546,0.7338228088378905,-1.7099236641221374,0.33587786259541985,-1.618320610687023
5297583551154,5.224762185,2,8.086416107177733,5.779602807617187,0.6931213806152343,-1.7251908396946565,0.26717557251908397,-1.6259541984732824
5297590877508,5.232088539,2,8.158242156982421,5.717353564453124,0.7170633972167968,-1.7251908396946565,0.1450381679389313,-1.5419847328244274
5297598238394,5.239449425,2,8.141482745361328,5.810727429199218,0.7769184387207031,-1.7328244274809161,0.22900763358778625,-1.5954198473282444
5297605773081,5.246984112,2,8.106766821289062,5.730521673583984,0.7661445312499999,-1.7938931297709924,0.16030534351145037,-1.5190839694656488
5297613215060,5.254426091,2,8.092401611328125,5.7700260009765625,0.7074865905761718,-1.702290076335878,0.3282442748091603,-1.6412213740458015
5297620561675,5.261772706,2,8.142679846191406,5.738901379394531,0.7697358337402344,-1.7786259541984732,0.1984732824427481,-1.5419847328244274
5297627909644,5.269120675,2,8.097190014648437,5.748478186035156,0.7673416320800781,-1.7404580152671756,0.15267175572519084,-1.5801526717557253
5297635315633,5.276526664,2,8.125920434570313,5.797559320068359,0.7326257080078125,-1.7251908396946565,0.2748091603053435,-1.6106870229007633
5297642686415,5.283897446,2,8.134300140380859,5.768828900146484,0.6775590698242188,-1.8244274809160306,0.31297709923664124,-1.6106870229007633
5297650108133,5.291319164,2,8.175001568603514,5.761646295166015,0.6979097839355468,-1.7557251908396947,0.19083969465648856,-1.5954198473282444
5297657459175,5.298670206,2,8.093598712158203,5.756857891845703,0.7673416320800781,-1.7404580152671756,0.2748091603053435,-1.6106870229007633
5297665431623,5.306642654,2,8.027758166503906,5.725733270263672,0.7326257080078125,-1.8778625954198473,0.35877862595419846,-1.5877862595419847
5297672866883,5.314077914,2,8.084021905517577,5.740098480224609,0.8056488586425781,-1.8091603053435115,0.2366412213740458,-1.5114503816793894
5297680189331,5.321400362,2,8.092401611328125,5.706579656982422,0.7206546997070312,-1.748091603053435,0.26717557251908397,-1.618320610687023
5297687540477,5.328751508,2,8.091204510498047,5.764040496826172,0.6919242797851562,-1.748091603053435,0.2824427480916031,-1.5190839694656488
5297694850060,5.336061091,2,8.172607366943359,5.7329158752441405,0.7003039855957031,-1.8091603053435115,0.21374045801526717,-1.6412213740458015
5297702222040,5.343433071,2,8.075642199707032,5.767631799316406,0.7134720947265625,-1.786259541984733,0.3511450381679389,-1.5267175572519085
5297709590790,5.350801821,2,8.12711753540039,5.736507177734374,0.6979097839355468,-1.7328244274809161,0.20610687022900764,-1.6259541984732824
5297716971519,5.35818255,2,8.092401611328125,5.722141967773437,0.7266402038574218,-1.7557251908396947,0.16030534351145037,-1.6259541984732824
5297724293185,5.365504216,2,8.07683930053711,5.802347723388672,0.7362170104980469,-1.748091603053435,0.32061068702290074,-1.4732824427480915
5297731654956,5.372865987,2,8.08881030883789,5.774814404296874,0.6907271789550781,-1.8015267175572518,0.31297709923664124,-1.6488549618320612
5297739080217,5.380291248,2,8.095992913818359,5.768828900146484,0.7541735229492187,-1.8931297709923665,0.32061068702290074,-1.5954198473282444
5297746494800,5.387705831,2,8.151059552001952,5.777208605957031,0.7625532287597656,-1.8015267175572518,0.1984732824427481,-1.6030534351145038
5297753895321,5.395106352,2,7.997830645751953,5.764040496826172,0.7038952880859375,-1.786259541984733,0.26717557251908397,-1.5725190839694656
5297761264019,5.40247505,2,8.111555224609374,5.76523759765625,0.6835445739746093,-1.717557251908397,0.2366412213740458,-1.6106870229007633
5297768600946,5.409811977,2,8.072050897216796,5.7137622619628905,0.70868369140625,-1.6870229007633588,0.20610687022900764,-1.6030534351145038
5297775937717,5.417148748,2,8.099584216308592,5.777208605957031,0.6763619689941406,-1.702290076335878,0.31297709923664124,-1.5648854961832062
5297783344435,5.424555466,2,8.145074047851562,5.743689782714843,0.8008604553222656,-1.8244274809160306,0.29770992366412213,-1.6488549618320612
5297790751883,5.431962914,2,8.113949426269532,5.740098480224609,0.7050923889160156,-1.7709923664122138,0.2748091603053435,-1.549618320610687
5297798164175,5.439375206,2,8.128314636230469,5.744886883544922,0.7601590270996094,-1.6793893129770991,0.24427480916030533,-1.6564885496183206
5297805532352,5.446743383,2,8.060079888916015,5.723339068603515,0.718260498046875,-1.7709923664122138,0.2824427480916031,-1.6030534351145038
5297812898602,5.454109633,2,8.167818963623047,5.755660791015624,0.7457938171386719,-1.7709923664122138,0.1984732824427481,-1.618320610687023
5297820289696,5.461500727,2,8.123526232910155,5.767631799316406,0.70868369140625,-1.7633587786259541,0.2824427480916031,-1.6488549618320612
5297827628914,5.468839945,2,8.117540728759765,5.724536169433593,0.7697358337402344,-1.748091603053435,0.3282442748091603,-1.549618320610687
5297834958967,5.476169998,2,8.080430603027343,5.7843912109375,0.7230489013671875,-1.7328244274809161,0.2595419847328244,-1.633587786259542
5297842459383,5.483670414,2,8.137891442871092,5.7508723876953125,0.7038952880859375,-1.6793893129770991,0.32061068702290074,-1.5419847328244274
5297849823862,5.491034893,2,8.125920434570313,5.749675286865234,0.7613561279296874,-1.717557251908397,0.2748091603053435,-1.6106870229007633
5297857228706,5.498439737,2,8.105569720458984,5.746083984375,0.6344634399414062,-1.748091603053435,0.366412213740458,-1.6259541984732824
5297864572664,5.505783695,2,8.124723333740233,5.804741925048828,0.7218518005371093,-1.7938931297709924,0.2900763358778626,-1.5725190839694656
5297871898237,5.513109268,2,8.12113203125,5.716156463623046,0.7242460021972655,-1.6946564885496183,0.25190839694656486,-1.6717557251908397
5297879336102,5.520547133,2,8.106766821289062,5.766434698486328,0.6775590698242188,-1.900763358778626,0.22900763358778625,-1.5725190839694656
5297886734019,5.52794505,2,8.226476904296874,5.746083984375,0.6177040283203125,-1.748091603053435,0.2366412213740458,-1.5419847328244274
5297894113914,5.535324945,2,8.10796392211914,5.741295581054687,0.7338228088378905,-1.7328244274809161,0.20610687022900764,-1.5801526717557253
5297901451571,5.542662602,2,8.05648858642578,5.728127471923828,0.7613561279296874,-1.7404580152671756,0.3053435114503817,-1.6259541984732824
5297908866935,5.550077966,2,8.157045056152343,5.7520694885253905,0.729034405517578,-1.7251908396946565,0.16030534351145037,-1.5190839694656488
5297916250581,5.557461612,2,8.145074047851562,5.7843912109375,0.8032546569824218,-1.786259541984733,0.2595419847328244,-1.5801526717557253
5297923598394,5.564809425,2,8.09479581298828,5.728127471923828,0.7721300354003906,-1.8091603053435115,0.2900763358778626,-1.5725190839694656
5297930870060,5.572081091,2,8.124723333740233,5.746083984375,0.6667851623535156,-1.702290076335878,0.11450381679389313,-1.5954198473282444
5297938247456,5.579458487,2,8.147468249511718,5.737704278564453,0.7433996154785156,-1.7099236641221374,0.17557251908396945,-1.6717557251908397
5297945613498,5.586824529,2,8.054094384765625,5.787982513427734,0.7745242370605468,-1.7557251908396947,0.3511450381679389,-1.5038167938931297
5297952962404,5.594173435,2,8.122329132080077,5.730521673583984,0.737414111328125,-1.7328244274809161,0.19083969465648856,-1.618320610687023
5297960292612,5.601503643,2,8.128314636230469,5.7520694885253905,0.70868369140625,-1.7709923664122138,0.22137404580152673,-1.6030534351145038
5297967621935,5.608832966,2,8.105569720458984,5.77122310180664,0.7757213378906249,-1.7786259541984732,0.3435114503816794,-1.6106870229007633
5297974962039,5.61617307,2,8.125920434570313,5.762843395996094,0.8044517578125,-1.6946564885496183,0.22137404580152673,-1.633587786259542
5297982291414,5.623502445,2,8.08881030883789,5.737704278564453,0.7457938171386719,-1.8015267175572518,0.25190839694656486,-1.5572519083969465
5297989636675,5.630847706,2,8.123526232910155,5.729324572753906,0.8152256652832031,-1.7633587786259541,0.29770992366412213,-1.5877862595419847
5297997014800,5.638225831,2,8.117540728759765,5.728127471923828,0.6607996582031249,-1.7709923664122138,0.24427480916030533,-1.633587786259542
5298004361883,5.645572914,2,8.116343627929687,5.7125651611328125,0.7314286071777343,-1.7404580152671756,0.33587786259541985,-1.5419847328244274
5298011671727,5.652882758,2,8.068459594726562,5.7317187744140625,0.7481880187988281,-1.7709923664122138,0.20610687022900764,-1.5648854961832062
5298019039852,5.660250883,2,8.099584216308592,5.720944866943359,0.7493851196289062,-1.7786259541984732,0.2900763358778626,-1.534351145038168
5298026417039,5.66762807,2,8.105569720458984,5.7317187744140625,0.7146691955566405,-1.717557251908397,0.29770992366412213,-1.5801526717557253
5298033807300,5.675018331,2,8.105569720458984,5.804741925048828,0.718260498046875,-1.8015267175572518,0.20610687022900764,-1.5954198473282444
5298041205112,5.682416143,2,8.119934930419921,5.755660791015624,0.6308721374511719,-1.7099236641221374,0.19083969465648856,-1.5572519083969465
5298048544019,5.68975505,2,8.097190014648437,5.729324572753906,0.7541735229492187,-1.7099236641221374,0.2748091603053435,-1.5801526717557253
5298055918289,5.69712932,2,8.14627114868164,5.729324572753906,0.6715735656738281,-1.702290076335878,0.183206106870229,-1.618320610687023
5298063291519,5.70450255,2,8.081627703857421,5.741295581054687,0.7110778930664062,-1.7251908396946565,0.2366412213740458,-1.618320610687023
5298070645685,5.711856716,2,8.087613208007811,5.668272430419922,0.7015010864257812,-1.702290076335878,0.2824427480916031,-1.4045801526717556
5298078080998,5.719292029,2,8.085219006347655,5.755660791015624,0.7410054138183594,-1.816793893129771,0.17557251908396945,-1.6564885496183206
5298085417716,5.726628747,2,8.073247998046874,5.718550665283203,0.7242460021972655,-1.7099236641221374,0.25190839694656486,-1.618320610687023
5298092834591,5.734045622,2,8.100781317138672,5.793968017578124,0.7553706237792969,-1.7328244274809161,0.21374045801526717,-1.6106870229007633
5298100172925,5.741383956,2,8.131905938720703,5.704185455322265,0.7697358337402344,-1.8091603053435115,0.2824427480916031,-1.5877862595419847
5298107504852,5.748715883,2,8.066065393066406,5.758054992675781,0.7625532287597656,-1.7786259541984732,0.25190839694656486,-1.6412213740458015
5298114914123,5.756125154,2,8.111555224609374,5.737704278564453,0.7637503295898437,-1.748091603053435,0.25190839694656486,-1.5725190839694656
5298122291154,5.763502185,2,8.124723333740233,5.758054992675781,0.6548141540527344,-1.8015267175572518,0.2366412213740458,-1.6030534351145038
5298129642091,5.770853122,2,8.098387115478515,5.813121630859374,0.7338228088378905,-1.7557251908396947,0.22900763358778625,-1.633587786259542
5298137021571,5.778232602,2,8.087613208007811,5.744886883544922,0.7302315063476562,-1.8396946564885497,0.1984732824427481,-1.6564885496183206
5298144361154,5.785572185,2,8.097190014648437,5.737704278564453,0.6260837341308594,-1.8015267175572518,0.33587786259541985,-1.5267175572519085
5298151755946,5.792966977,2,8.12113203125,5.743689782714843,0.7493851196289062,-1.7404580152671756,0.2595419847328244,-1.6717557251908397
5298159294852,5.800505883,2,8.105569720458984,5.753266589355468,0.7410054138183594,-1.7557251908396947,0.15267175572519084,-1.5572519083969465
5298166770269,5.8079813,2,8.128314636230469,5.723339068603515,0.7601590270996094,-1.7557251908396947,0.35877862595419846,-1.5954198473282444
5298174140841,5.815351872,2,8.141482745361328,5.744886883544922,0.7697358337402344,-1.7633587786259541,0.16030534351145037,-1.549618320610687
5298181505685,5.822716716,2,8.050503082275391,5.746083984375,0.737414111328125,-1.7099236641221374,0.21374045801526717,-1.6564885496183206
5298188854748,5.830065779,2,8.14028564453125,5.743689782714843,0.6332663391113281,-1.7557251908396947,0.3969465648854962,-1.534351145038168
5298196204591,5.837415622,2,8.167818963623047,5.760449194335937,0.7158662963867187,-1.786259541984733,0.2824427480916031,-1.5725190839694656
5298203542977,5.844754008,2,8.117540728759765,5.7520694885253905,0.6584054565429687,-1.7251908396946565,0.2900763358778626,-1.6717557251908397
5298210918498,5.852129529,2,8.09479581298828,5.720944866943359,0.6931213806152343,-1.8015267175572518,0.32061068702290074,-1.549618320610687
5298218290685,5.859501716,2,8.113949426269532,5.741295581054687,0.7278373046875,-1.7786259541984732,0.22900763358778625,-1.6106870229007633
5298225636414,5.866847445,2,8.139088543701172,5.736507177734374,0.7242460021972655,-1.748091603053435,0.31297709923664124,-1.534351145038168
5298233010112,5.874221143,2,8.087613208007811,5.720944866943359,0.7841010437011718,-1.7709923664122138,0.29770992366412213,-1.6564885496183206
5298240321831,5.881532862,2,8.081627703857421,5.737704278564453,0.719457598876953,-1.816793893129771,0.26717557251908397,-1.549618320610687
5298247746310,5.888957341,2,8.119934930419921,5.740098480224609,0.6524199523925781,-1.7557251908396947,0.2366412213740458,-1.5572519083969465
5298255122560,5.896333591,2,8.084021905517577,5.758054992675781,0.6524199523925781,-1.7557251908396947,0.24427480916030533,-1.6259541984732824
5298262529279,5.90374031,2,8.085219006347655,5.743689782714843,0.7146691955566405,-1.6641221374045803,0.2900763358778626,-1.5114503816793894
5298269880789,5.91109182,2,8.128314636230469,5.768828900146484,0.7433996154785156,-1.8625954198473282,0.26717557251908397,-1.5648854961832062
5298277226154,5.918437185,2,8.110358123779296,5.729324572753906,0.6308721374511719,-1.7709923664122138,0.17557251908396945,-1.6564885496183206
5298284584643,5.925795674,2,8.141482745361328,5.746083984375,0.7924807495117187,-1.633587786259542,0.21374045801526717,-1.5648854961832062
5298291938446,5.933149477,2,7.972691528320312,5.762843395996094,0.8487444885253905,-1.7938931297709924,0.2824427480916031,-1.6106870229007633
5298299325529,5.94053656,2,8.09479581298828,5.76523759765625,0.689530078125,-1.7404580152671756,0.1984732824427481,-1.5877862595419847
5298306739123,5.947950154,2,8.100781317138672,5.7520694885253905,0.7218518005371093,-1.7099236641221374,0.32061068702290074,-1.618320610687023
5298314105216,5.955316247,2,8.113949426269532,5.735310076904296,0.6093243225097655,-1.7786259541984732,0.2366412213740458,-1.5419847328244274
5298321454591,5.962665622,2,8.160636358642577,5.772420202636718,0.7134720947265625,-1.748091603053435,0.24427480916030533,-1.6641221374045803
5298328855685,5.970066716,2,8.085219006347655,5.735310076904296,0.6775590698242188,-1.702290076335878,0.32061068702290074,-1.6641221374045803
5298336196154,5.977407185,2,8.09479581298828,5.738901379394531,0.7038952880859375,-1.7328244274809161,0.3053435114503817,-1.633587786259542
5298343543706,5.984754737,2,8.118737829589843,5.805939025878906,0.7146691955566405,-1.8015267175572518,0.26717557251908397,-1.534351145038168
5298350949331,5.992160362,2,8.124723333740233,5.761646295166015,0.7110778930664062,-1.786259541984733,0.29770992366412213,-1.5267175572519085
5298358372039,5.99958307,2,8.14028564453125,5.719747766113281,0.7422025146484375,-1.8091603053435115,0.17557251908396945,-1.5572519083969465
5298365721675,6.006932706,2,8.128314636230469,5.7149593627929685,0.6979097839355468,-1.8091603053435115,0.20610687022900764,-1.5725190839694656
5298373056987,6.014268018,2,8.119934930419921,5.737704278564453,0.7266402038574218,-1.717557251908397,0.3053435114503817,-1.7099236641221374
5298380404852,6.021615883,2,8.118737829589843,5.780799908447265,0.7326257080078125,-1.8625954198473282,0.25190839694656486,-1.5648854961832062
5298387757143,6.028968174,2,8.12113203125,5.735310076904296,0.7445967163085937,-1.7633587786259541,0.19083969465648856,-1.549618320610687
5298395148081,6.036359112,2,8.10197841796875,5.735310076904296,0.7541735229492187,-1.717557251908397,0.19083969465648856,-1.5648854961832062
5298402544071,6.043755102,2,8.157045056152343,5.7520694885253905,0.6643909606933593,-1.8015267175572518,0.3053435114503817,-1.534351145038168
5298409913810,6.051124841,2,8.131905938720703,5.798756420898437,0.6607996582031249,-1.7404580152671756,0.26717557251908397,-1.5954198473282444
5298417252560,6.058463591,2,8.087613208007811,5.72693037109375,0.7589619262695312,-1.7404580152671756,0.2748091603053435,-1.5877862595419847
5298424677821,6.065888852,2,8.103175518798828,5.79037671508789,0.8307879760742187,-1.7404580152671756,0.2748091603053435,-1.5648854961832062
5298432052300,6.073263331,2,8.152256652832031,5.777208605957031,0.7398083129882812,-1.8244274809160306,0.29770992366412213,-1.6030534351145038
5298439398445,6.080609476,2,8.130708837890625,5.7520694885253905,0.7589619262695312,-1.7938931297709924,0.22137404580152673,-1.4961832061068703
5298446723602,6.087934633,2,8.125920434570313,5.719747766113281,0.6787561706542968,-1.7786259541984732,0.29770992366412213,-1.6106870229007633
5298454047039,6.09525807,2,8.105569720458984,5.737704278564453,0.7386112121582031,-1.6946564885496183,0.22137404580152673,-1.5419847328244274
5298461416258,6.102627289,2,8.142679846191406,5.748478186035156,0.6871358764648438,-1.7557251908396947,0.21374045801526717,-1.6870229007633588
5298468840373,6.110051404,2,8.13310303955078,5.736507177734374,0.7242460021972655,-1.7557251908396947,0.29770992366412213,-1.5267175572519085
5298476293237,6.117504268,2,8.122329132080077,5.729324572753906,0.7888894470214843,-1.7633587786259541,0.2900763358778626,-1.5648854961832062
5298483646362,6.124857393,2,8.117540728759765,5.734112976074218,0.7481880187988281,-1.8396946564885497,0.2824427480916031,-1.6412213740458015
5298490921570,6.132132601,2,8.134300140380859,5.701791253662109,0.6967126831054687,-1.7099236641221374,0.25190839694656486,-1.5954198473282444
5298498271727,6.139482758,2,8.087613208007811,5.766434698486328,0.6236895324707031,-1.6946564885496183,0.29770992366412213,-1.5419847328244274
5298505619227,6.146830258,2,8.14627114868164,5.741295581054687,0.7433996154785156,-1.7709923664122138,0.17557251908396945,-1.702290076335878
