timestamp_ns,t_s,sensor_id,ax,ay,az,gx,gy,gz
5292533855531,0.175066562,3,-0.15322890625,-0.5817910034179687,-8.945934503173827,-4.442748091603053,-0.32061068702290074,-3.145038167938931
5292540279489,0.18149052,3,-0.06464344482421874,-0.49679684448242184,-8.920795385742187,-4.450381679389313,-0.19083969465648856,-3.114503816793893
5292546927198,0.188138229,3,-0.21787235107421873,-0.49679684448242184,-9.003395343017578,-4.404580152671755,-0.3435114503816794,-3.1526717557251906
5292553557406,0.194768437,3,-0.1771709228515625,-0.5003881469726562,-9.003395343017578,-4.427480916030534,-0.33587786259541985,-3.1297709923664123
5292560240323,0.201451354,3,-0.19991583862304688,-0.49679684448242184,-9.039308367919922,-4.427480916030534,-0.2900763358778626,-3.1908396946564888
5292566877041,0.208088072,3,-0.16998831787109375,-0.5315127685546874,-8.954314208984375,-4.465648854961832,-0.2900763358778626,-3.1526717557251906
5292573533552,0.214744583,3,-0.2166752502441406,-0.5410895751953124,-8.947131604003905,-4.480916030534351,-0.31297709923664124,-3.1526717557251906
5292580216364,0.221427395,3,-0.17477672119140625,-0.5183446594238281,-8.947131604003905,-4.366412213740458,-0.40458015267175573,-3.099236641221374
5292586865948,0.228076979,3,-0.181959326171875,-0.5279214660644531,-8.919598284912109,-4.358778625954199,-0.20610687022900764,-3.099236641221374
5292593563916,0.234774947,3,-0.21068974609375,-0.5590460876464843,-8.905233074951171,-4.435114503816794,-0.26717557251908397,-3.1526717557251906
5292600236364,0.241447395,3,-0.22864625854492185,-0.5255272644042969,-8.959102612304687,-4.404580152671755,-0.3053435114503817,-3.099236641221374
5292606875166,0.248086197,3,-0.18435352783203124,-0.5518634826660156,-8.972270721435546,-4.366412213740458,-0.29770992366412213,-3.236641221374046
5292613539854,0.254750885,3,-0.19991583862304688,-0.5710170959472656,-8.933963494873046,-4.473282442748092,-0.24427480916030533,-3.1526717557251906
5292620218708,0.261429739,3,-0.20470424194335937,-0.5207388610839844,-8.979453326416015,-4.465648854961832,-0.4122137404580153,-3.1297709923664123
5292626878500,0.268089531,3,-0.22744915771484372,-0.5494692810058593,-9.0021982421875,-4.442748091603053,-0.19083969465648856,-3.145038167938931
5292633543864,0.274754895,3,-0.17836802368164062,-0.5267243652343749,-8.974664923095702,-4.450381679389313,-0.3282442748091603,-3.2290076335877864
5292640233552,0.281444583,3,-0.18914193115234373,-0.5422866760253906,-8.910021478271483,-4.427480916030534,-0.2595419847328244,-3.1526717557251906
5292646905583,0.288116614,3,-0.20470424194335937,-0.5602431884765625,-8.971073620605468,-4.450381679389313,-0.25190839694656486,-3.0916030534351147
5292653539854,0.294750885,3,-0.16879121704101563,-0.5901707092285156,-8.920795385742187,-4.374045801526718,-0.2900763358778626,-3.122137404580153
5292660240062,0.301451093,3,-0.1771709228515625,-0.5159504577636719,-8.93156929321289,-4.458015267175573,-0.2824427480916031,-3.122137404580153
5292666874385,0.308085416,3,-0.20829554443359374,-0.5542576843261718,-8.911218579101561,-4.396946564885496,-0.20610687022900764,-3.114503816793893
5292673553187,0.314764218,3,-0.1927332336425781,-0.5219359619140624,-8.957905511474609,-4.435114503816794,-0.40458015267175573,-3.145038167938931
5292680233187,0.321444218,3,-0.1927332336425781,-0.5829881042480468,-8.902838873291016,-4.404580152671755,-0.366412213740458,-3.0763358778625953
5292686878031,0.328089062,3,-0.29448680419921874,-0.5829881042480468,-8.898050469970702,-4.404580152671755,-0.3053435114503817,-3.16793893129771
5292693541104,0.334752135,3,-0.13766659545898435,-0.5135562561035156,-8.898050469970702,-4.32824427480916,-0.2824427480916031,-3.1603053435114505
5292700238448,0.341449479,3,-0.19033903198242186,-0.5099649536132812,-8.980650427246093,-4.32824427480916,-0.24427480916030533,-3.145038167938931
5292706871416,0.348082447,3,-0.24301146850585936,-0.5482721801757812,-9.020154754638671,-4.4961832061068705,-0.24427480916030533,-3.1374045801526718
5292713549437,0.354760468,3,-0.15442600708007811,-0.5003881469726562,-8.980650427246093,-4.442748091603053,-0.3282442748091603,-3.1374045801526718
5292720173031,0.361384062,3,-0.23223756103515625,-0.603338818359375,-8.980650427246093,-4.320610687022901,-0.366412213740458,-3.145038167938931
5292726893135,0.368104166,3,-0.20709844360351562,-0.5374982727050781,-8.957905511474609,-4.358778625954199,-0.37404580152671757,-3.2213740458015265
5292733542354,0.374753385,3,-0.2166752502441406,-0.5865794067382812,-8.865728747558594,-4.366412213740458,-0.26717557251908397,-3.1068702290076335
5292740239594,0.381450625,3,-0.17477672119140625,-0.5805939025878906,-8.955511309814453,-4.3893129770992365,-0.3053435114503817,-3.16793893129771
5292746871625,0.388082656,3,-0.25139117431640623,-0.5542576843261718,-8.972270721435546,-4.450381679389313,-0.31297709923664124,-3.1526717557251906
5292753550010,0.394761041,3,-0.18555062866210936,-0.507570751953125,-8.853757739257812,-4.450381679389313,-0.3282442748091603,-3.114503816793893
5292760204437,0.401415468,3,-0.21787235107421873,-0.5506663818359374,-8.972270721435546,-4.450381679389313,-0.2595419847328244,-3.1374045801526718
5292766877041,0.408088072,3,-0.18914193115234373,-0.5351040710449219,-8.979453326416015,-4.465648854961832,-0.2595419847328244,-3.198473282442748
5292773601208,0.414812239,3,-0.20949264526367187,-0.5422866760253906,-8.907627276611327,-4.435114503816794,-0.33587786259541985,-3.16793893129771
5292780235062,0.421446093,3,-0.1975216369628906,-0.5351040710449219,-8.94473740234375,-4.450381679389313,-0.37404580152671757,-3.1297709923664123
5292786868135,0.428079166,3,-0.22385785522460935,-0.5339069702148437,-8.967482318115234,-4.450381679389313,-0.29770992366412213,-3.122137404580153
5292793542198,0.434753229,3,-0.18315642700195311,-0.5746083984375,-8.960299713134765,-4.4961832061068705,-0.40458015267175573,-3.213740458015267
5292800233239,0.44144427,3,-0.16639701538085935,-0.5614402893066406,-8.990227233886719,-4.396946564885496,-0.29770992366412213,-3.1603053435114505
5292806884073,0.448095104,3,-0.19393033447265623,-0.5470750793457031,-8.916006982421875,-4.404580152671755,-0.2366412213740458,-3.1755725190839694
5292813530375,0.454741406,3,-0.21308394775390624,-0.5530605834960938,-8.939948999023438,-4.351145038167939,-0.3893129770992366,-3.1755725190839694
5292820237041,0.461448072,3,-0.21308394775390624,-0.5662286926269531,-8.923189587402343,-4.404580152671755,-0.24427480916030533,-3.145038167938931
5292826876885,0.468087916,3,-0.20949264526367187,-0.5662286926269531,-8.993818536376953,-4.419847328244275,-0.3893129770992366,-3.2061068702290076
5292833542562,0.474753593,3,-0.19033903198242186,-0.5734112976074218,-8.993818536376953,-4.419847328244275,-0.3435114503816794,-3.145038167938931
5292840232093,0.481443124,3,-0.15442600708007811,-0.5662286926269531,-8.979453326416015,-4.419847328244275,-0.2595419847328244,-3.1068702290076335
5292846873396,0.488084427,3,-0.18914193115234373,-0.5590460876464843,-8.896853369140624,-4.396946564885496,-0.2595419847328244,-3.16793893129771
5292853549854,0.494760885,3,-0.1879448303222656,-0.5865794067382812,-8.948328704833983,-4.419847328244275,-0.31297709923664124,-3.16793893129771
5292860138187,0.501349218,3,-0.15682020874023436,-0.5518634826660156,-8.93875189819336,-4.465648854961832,-0.3435114503816794,-3.0763358778625953
5292866875375,0.508086406,3,-0.16639701538085935,-0.5518634826660156,-8.999804040527343,-4.450381679389313,-0.2366412213740458,-3.1526717557251906
5292873547093,0.514758124,3,-0.20829554443359374,-0.5159504577636719,-9.006986645507812,-4.5038167938931295,-0.3053435114503817,-3.1603053435114505
5292880234489,0.52144552,3,-0.19871873779296872,-0.5243301635742187,-8.98304462890625,-4.358778625954199,-0.37404580152671757,-3.114503816793893
5292886872093,0.528083124,3,-0.16879121704101563,-0.5291185668945312,-8.942343200683593,-4.305343511450381,-0.33587786259541985,-3.183206106870229
5292893512250,0.534723281,3,-0.21428104858398436,-0.5494692810058593,-8.985438830566405,-4.419847328244275,-0.4351145038167939,-3.2519083969465647
5292900237354,0.541448385,3,-0.16998831787109375,-0.5195417602539062,-8.89326206665039,-4.412213740458015,-0.32061068702290074,-3.1297709923664123
5292907044958,0.548255989,3,-0.22744915771484372,-0.5147533569335937,-8.943540301513671,-4.396946564885496,-0.2595419847328244,-3.1755725190839694
5292913592875,0.554803906,3,-0.1879448303222656,-0.5817910034179687,-8.960299713134765,-4.412213740458015,-0.33587786259541985,-3.114503816793893
5292920231573,0.561442604,3,-0.201112939453125,-0.5434837768554687,-8.947131604003905,-4.4961832061068705,-0.29770992366412213,-3.1374045801526718
5292926878135,0.568089166,3,-0.2346317626953125,-0.5422866760253906,-8.959102612304687,-4.4961832061068705,-0.26717557251908397,-3.16793893129771
5292933539541,0.574750572,3,-0.17597382202148437,-0.5135562561035156,-8.968679418945312,-4.450381679389313,-0.33587786259541985,-3.198473282442748
5292940220218,0.581431249,3,-0.16998831787109375,-0.5734112976074218,-8.93755479736328,-4.404580152671755,-0.2748091603053435,-3.198473282442748
5292946844229,0.58805526,3,-0.20829554443359374,-0.5003881469726562,-8.992621435546875,-4.4961832061068705,-0.33587786259541985,-3.1297709923664123
5292953549854,0.594760885,3,-0.20231004028320312,-0.5374982727050781,-8.913612780761719,-4.366412213740458,-0.45038167938931295,-3.0916030534351147
5292960234385,0.601445416,3,-0.20231004028320312,-0.5530605834960938,-8.94473740234375,-4.412213740458015,-0.29770992366412213,-3.1908396946564888
5292966833552,0.608044583,3,-0.2154781494140625,-0.5530605834960938,-8.972270721435546,-4.366412213740458,-0.20610687022900764,-3.1755725190839694
5292973556989,0.61476802,3,-0.19991583862304688,-0.5315127685546874,-8.972270721435546,-4.511450381679389,-0.40458015267175573,-3.1297709923664123
5292980235166,0.621446197,3,-0.22744915771484372,-0.5590460876464843,-8.935160595703124,-4.511450381679389,-0.22137404580152673,-3.1526717557251906
5292986875739,0.62808677,3,-0.21428104858398436,-0.5351040710449219,-8.941146099853515,-4.458015267175573,-0.22137404580152673,-3.099236641221374
5292993544177,0.634755208,3,-0.24301146850585936,-0.5865794067382812,-8.923189587402343,-4.3893129770992365,-0.24427480916030533,-3.099236641221374
5293000229020,0.641440051,3,-0.20231004028320312,-0.5985504150390625,-8.892064965820312,-4.412213740458015,-0.3282442748091603,-3.015267175572519
5293006881260,0.648092291,3,-0.1975216369628906,-0.5267243652343749,-8.923189587402343,-4.435114503816794,-0.2900763358778626,-3.053435114503817
5293013545948,0.654756979,3,-0.19393033447265623,-0.507570751953125,-8.90643017578125,-4.366412213740458,-0.33587786259541985,-3.099236641221374
5293020178135,0.661389166,3,-0.20231004028320312,-0.5614402893066406,-8.992621435546875,-4.404580152671755,-0.45038167938931295,-3.0763358778625953
5293026883135,0.668094166,3,-0.2154781494140625,-0.5195417602539062,-8.92438668823242,-4.488549618320611,-0.183206106870229,-3.183206106870229
5293033549333,0.674760364,3,-0.20231004028320312,-0.5865794067382812,-8.890867864990234,-4.343511450381679,-0.366412213740458,-3.1755725190839694
5293040235948,0.681446979,3,-0.23223756103515625,-0.584185205078125,-8.954314208984375,-4.3816793893129775,-0.3511450381679389,-3.1068702290076335
5293046876729,0.68808776,3,-0.18076222534179687,-0.5506663818359374,-8.971073620605468,-4.465648854961832,-0.2900763358778626,-3.1755725190839694
5293053505218,0.694716249,3,-0.20350714111328125,-0.5578489868164063,-8.935160595703124,-4.404580152671755,-0.2900763358778626,-3.1297709923664123
5293060239229,0.70145026,3,-0.16879121704101563,-0.5722141967773438,-8.884882360839843,-4.33587786259542,-0.2824427480916031,-3.145038167938931
5293066873552,0.708084583,3,-0.15203180541992187,-0.5482721801757812,-8.901641772460938,-4.450381679389313,-0.19083969465648856,-3.1755725190839694
5293073546677,0.714757708,3,-0.20829554443359374,-0.47884033203125,-8.947131604003905,-4.465648854961832,-0.33587786259541985,-3.198473282442748
5293080236052,0.721447083,3,-0.20709844360351562,-0.5662286926269531,-8.910021478271483,-4.358778625954199,-0.35877862595419846,-3.1297709923664123
5293086878395,0.728089426,3,-0.20231004028320312,-0.5434837768554687,-8.916006982421875,-4.396946564885496,-0.22137404580152673,-3.1374045801526718
5293093540114,0.734751145,3,-0.1927332336425781,-0.5590460876464843,-8.93156929321289,-4.473282442748092,-0.4732824427480916,-3.1297709923664123
5293100239489,0.74145052,3,-0.1927332336425781,-0.5518634826660156,-8.895656268310546,-4.488549618320611,-0.25190839694656486,-3.0839694656488548
5293106879698,0.748090729,3,-0.201112939453125,-0.5518634826660156,-9.01536635131836,-4.473282442748092,-0.31297709923664124,-3.114503816793893
5293113515218,0.754726249,3,-0.16639701538085935,-0.5339069702148437,-8.86213744506836,-4.442748091603053,-0.3511450381679389,-3.1526717557251906
5293120218343,0.761429374,3,-0.2059013427734375,-0.5303156677246094,-8.959102612304687,-4.442748091603053,-0.2366412213740458,-3.114503816793893
5293126882614,0.768093645,3,-0.23822306518554687,-0.5722141967773438,-8.959102612304687,-4.450381679389313,-0.2366412213740458,-3.0916030534351147
5293133541885,0.774752916,3,-0.20470424194335937,-0.5039794494628906,-8.960299713134765,-4.412213740458015,-0.366412213740458,-3.0916030534351147
5293140240270,0.781451301,3,-0.2346317626953125,-0.4944026428222656,-8.920795385742187,-4.435114503816794,-0.48854961832061067,-3.1755725190839694
5293146874593,0.788085624,3,-0.21428104858398436,-0.5829881042480468,-8.999804040527343,-4.419847328244275,-0.3816793893129771,-3.0916030534351147
5293153542510,0.794753541,3,-0.20949264526367187,-0.5015852478027344,-9.00100114135742,-4.480916030534351,-0.3435114503816794,-3.1755725190839694
5293160245583,0.801456614,3,-0.2442085693359375,-0.55545478515625,-8.963891015625,-4.427480916030534,-0.33587786259541985,-3.145038167938931
5293166874854,0.808085885,3,-0.23582886352539062,-0.5291185668945312,-9.0021982421875,-4.412213740458015,-0.19083969465648856,-3.1603053435114505
5293173556416,0.814767447,3,-0.22385785522460935,-0.5111620544433594,-8.94473740234375,-4.3816793893129775,-0.40458015267175573,-3.122137404580153
5293180236208,0.821447239,3,-0.15203180541992187,-0.5674257934570313,-8.889670764160156,-4.465648854961832,-0.32061068702290074,-3.1068702290076335
5293186875427,0.828086458,3,-0.2214636535644531,-0.5363011718749999,-8.920795385742187,-4.458015267175573,-0.24427480916030533,-3.183206106870229
5293193540322,0.834751353,3,-0.21308394775390624,-0.5614402893066406,-8.981847528076171,-4.412213740458015,-0.32061068702290074,-3.114503816793893
5293200234697,0.841445728,3,-0.19871873779296872,-0.5123591552734374,-8.920795385742187,-4.3893129770992365,-0.33587786259541985,-3.1068702290076335
5293206846364,0.848057395,3,-0.258573779296875,-0.5159504577636719,-8.950722906494141,-4.3893129770992365,-0.25190839694656486,-3.114503816793893
5293213520166,0.854731197,3,-0.17477672119140625,-0.5997475158691405,-8.936357696533202,-4.450381679389313,-0.35877862595419846,-3.16793893129771
5293220217875,0.861428906,3,-0.19632453613281248,-0.5758054992675781,-8.933963494873046,-4.3893129770992365,-0.3282442748091603,-3.1755725190839694
5293226876000,0.868087031,3,-0.16160861206054686,-0.5291185668945312,-8.95670841064453,-4.488549618320611,-0.33587786259541985,-3.2061068702290076
5293233541520,0.874752551,3,-0.2501940734863281,-0.5530605834960938,-8.971073620605468,-4.458015267175573,-0.37404580152671757,-3.16793893129771
5293240237093,0.881448124,3,-0.2501940734863281,-0.5135562561035156,-8.984241729736327,-4.465648854961832,-0.3282442748091603,-3.2213740458015265
5293246875166,0.888086197,3,-0.20350714111328125,-0.5135562561035156,-8.996212738037109,-4.480916030534351,-0.2748091603053435,-3.2290076335877864
5293253545270,0.894756301,3,-0.16639701538085935,-0.5422866760253906,-8.996212738037109,-4.3893129770992365,-0.42748091603053434,-3.0916030534351147
5293260238083,0.901449114,3,-0.20350714111328125,-0.5267243652343749,-9.005789544677734,-4.3893129770992365,-0.4122137404580153,-3.068702290076336
5293266875010,0.908086041,3,-0.24061726684570311,-0.5458779785156249,-8.978256225585938,-4.435114503816794,-0.4122137404580153,-3.068702290076336
5293273582354,0.914793385,3,-0.2154781494140625,-0.5386953735351562,-8.93755479736328,-4.458015267175573,-0.2595419847328244,-3.1068702290076335
5293280281833,0.921492864,3,-0.21787235107421873,-0.55545478515625,-8.929175091552734,-4.442748091603053,-0.44274809160305345,-3.0839694656488548
5293286907614,0.928118645,3,-0.19393033447265623,-0.5590460876464843,-8.980650427246093,-4.427480916030534,-0.3053435114503817,-3.0763358778625953
5293293564229,0.93477526,3,-0.229843359375,-0.5351040710449219,-8.90044467163086,-4.351145038167939,-0.2748091603053435,-3.114503816793893
5293300242718,0.941453749,3,-0.20709844360351562,-0.5793968017578125,-8.905233074951171,-4.442748091603053,-0.4351145038167939,-3.122137404580153
5293306892093,0.948103124,3,-0.201112939453125,-0.5363011718749999,-9.020154754638671,-4.480916030534351,-0.26717557251908397,-3.145038167938931
5293313552041,0.954763072,3,-0.21308394775390624,-0.5506663818359374,-8.95670841064453,-4.419847328244275,-0.31297709923664124,-3.183206106870229
5293320226520,0.961437551,3,-0.2166752502441406,-0.5530605834960938,-8.978256225585938,-4.549618320610687,-0.3969465648854962,-3.1526717557251906
5293326888031,0.968099062,3,-0.2059013427734375,-0.5674257934570313,-8.98304462890625,-4.458015267175573,-0.20610687022900764,-3.1297709923664123
5293333553968,0.974764999,3,-0.17597382202148437,-0.5566518859863281,-9.00818374633789,-4.3893129770992365,-0.3511450381679389,-3.1908396946564888
5293340223135,0.981434166,3,-0.20350714111328125,-0.5159504577636719,-8.913612780761719,-4.488549618320611,-0.366412213740458,-3.114503816793893
5293346890427,0.988101458,3,-0.17477672119140625,-0.5207388610839844,-8.93875189819336,-4.427480916030534,-0.22137404580152673,-3.1374045801526718
5293353556260,0.994767291,3,-0.19393033447265623,-0.5351040710449219,-8.957905511474609,-4.519083969465649,-0.26717557251908397,-3.068702290076336
5293360225895,1.001436926,3,-0.19033903198242186,-0.49799394531249996,-8.913612780761719,-4.458015267175573,-0.366412213740458,-3.267175572519084
5293366883031,1.008094062,3,-0.19033903198242186,-0.5590460876464843,-8.996212738037109,-4.427480916030534,-0.15267175572519084,-3.1297709923664123
5293373501572,1.014712603,3,-0.19033903198242186,-0.5303156677246094,-9.014169250488282,-4.435114503816794,-0.33587786259541985,-3.1755725190839694
5293380225322,1.021436353,3,-0.22385785522460935,-0.5099649536132812,-9.022548956298827,-4.442748091603053,-0.32061068702290074,-3.2061068702290076
5293386897302,1.028108333,3,-0.2154781494140625,-0.5099649536132812,-8.894459167480468,-4.473282442748092,-0.3435114503816794,-3.114503816793893
5293393550010,1.034761041,3,-0.20829554443359374,-0.5542576843261718,-8.894459167480468,-4.473282442748092,-0.3893129770992366,-3.2061068702290076
5293400225947,1.041436978,3,-0.1879448303222656,-0.5518634826660156,-8.963891015625,-4.435114503816794,-0.3893129770992366,-3.0916030534351147
5293406885583,1.048096614,3,-0.229843359375,-0.5602431884765625,-9.036914166259765,-4.419847328244275,-0.2824427480916031,-3.0916030534351147
5293413555062,1.054766093,3,-0.17357962036132812,-0.5722141967773438,-8.959102612304687,-4.374045801526718,-0.22900763358778625,-3.2061068702290076
5293420225010,1.061436041,3,-0.2262520568847656,-0.5434837768554687,-9.028534460449219,-4.3893129770992365,-0.3511450381679389,-3.114503816793893
5293426891833,1.068102864,3,-0.13407529296874998,-0.5746083984375,-8.919598284912109,-4.419847328244275,-0.25190839694656486,-3.1603053435114505
5293433553499,1.07476453,3,-0.21428104858398436,-0.5614402893066406,-8.961496813964843,-4.343511450381679,-0.33587786259541985,-3.0839694656488548
5293440238447,1.081449478,3,-0.20470424194335937,-0.5243301635742187,-8.869320050048827,-4.3816793893129775,-0.35877862595419846,-3.16793893129771
5293446892197,1.088103228,3,-0.22744915771484372,-0.5542576843261718,-8.921992486572265,-4.419847328244275,-0.35877862595419846,-3.0381679389312977
5293453598656,1.094809687,3,-0.17956512451171874,-0.5398924743652344,-8.907627276611327,-4.3893129770992365,-0.26717557251908397,-3.1374045801526718
5293460219489,1.10143052,3,-0.2166752502441406,-0.5315127685546874,-8.974664923095702,-4.419847328244275,-0.3435114503816794,-3.1603053435114505
5293466893447,1.108104478,3,-0.20709844360351562,-0.5770026000976562,-9.024943157958983,-4.358778625954199,-0.25190839694656486,-3.1297709923664123
5293473566677,1.114777708,3,-0.2059013427734375,-0.5279214660644531,-8.981847528076171,-4.458015267175573,-0.26717557251908397,-3.1755725190839694
5293480240374,1.121451405,3,-0.1879448303222656,-0.5351040710449219,-9.009380847167968,-4.458015267175573,-0.3053435114503817,-3.1068702290076335
5293486890479,1.12810151,3,-0.19871873779296872,-0.5267243652343749,-8.863334545898438,-4.450381679389313,-0.2366412213740458,-3.145038167938931
5293493561364,1.134772395,3,-0.1975216369628906,-0.5339069702148437,-8.999804040527343,-4.458015267175573,-0.3282442748091603,-3.236641221374046
5293500225739,1.14143677,3,-0.2346317626953125,-0.5626373901367188,-8.876502655029297,-4.442748091603053,-0.366412213740458,-3.2213740458015265
5293506891937,1.148102968,3,-0.16041151123046873,-0.5758054992675781,-8.987833032226561,-4.450381679389313,-0.33587786259541985,-3.183206106870229
5293513559749,1.15477078,3,-0.21428104858398436,-0.49320554199218747,-8.978256225585938,-4.435114503816794,-0.3435114503816794,-3.1374045801526718
5293520227406,1.161438437,3,-0.21428104858398436,-0.5494692810058593,-8.957905511474609,-4.3816793893129775,-0.33587786259541985,-3.1908396946564888
5293526893447,1.168104478,3,-0.21428104858398436,-0.5494692810058593,-8.957905511474609,-4.32824427480916,-0.22137404580152673,-3.2213740458015265
5293533558604,1.174769635,3,-0.20231004028320312,-0.5267243652343749,-8.978256225585938,-4.32824427480916,-0.4198473282442748,-3.1374045801526718
5293540222197,1.181433228,3,-0.17357962036132812,-0.5542576843261718,-8.993818536376953,-4.3816793893129775,-0.4198473282442748,-3.198473282442748
5293546852406,1.188063437,3,-0.21428104858398436,-0.5183446594238281,-8.908824377441405,-4.3893129770992365,-0.366412213740458,-3.198473282442748
5293553556677,1.194767708,3,-0.19991583862304688,-0.5422866760253906,-8.951920007324219,-4.435114503816794,-0.3435114503816794,-3.198473282442748
5293560225218,1.201436249,3,-0.24181436767578124,-0.5494692810058593,-9.039308367919922,-4.442748091603053,-0.3053435114503817,-3.145038167938931
5293566891156,1.208102187,3,-0.19632453613281248,-0.5494692810058593,-9.016563452148437,-4.427480916030534,-0.3511450381679389,-3.213740458015267
5293573562197,1.214773228,3,-0.2166752502441406,-0.5722141967773438,-8.92438668823242,-4.435114503816794,-0.2366412213740458,-3.198473282442748
5293580229072,1.221440103,3,-0.22026655273437498,-0.5003881469726562,-8.942343200683593,-4.526717557251908,-0.3282442748091603,-3.2061068702290076
5293586893083,1.228104114,3,-0.18076222534179687,-0.5434837768554687,-8.96987651977539,-4.396946564885496,-0.2900763358778626,-3.2061068702290076
5293593521208,1.234732239,3,-0.20709844360351562,-0.5255272644042969,-8.936357696533202,-4.412213740458015,-0.25190839694656486,-3.1603053435114505
5293600242093,1.241453124,3,-0.19991583862304688,-0.48243163452148435,-8.949525805664061,-4.465648854961832,-0.2748091603053435,-3.1908396946564888
5293606890270,1.248101301,3,-0.20231004028320312,-0.4836287353515625,-8.902838873291016,-4.3893129770992365,-0.29770992366412213,-3.1908396946564888
5293613551572,1.254762603,3,-0.1927332336425781,-0.5494692810058593,-8.948328704833983,-4.473282442748092,-0.22137404580152673,-3.0763358778625953
5293620220114,1.261431145,3,-0.17597382202148437,-0.5267243652343749,-8.888473663330078,-4.419847328244275,-0.37404580152671757,-3.1908396946564888
5293626844958,1.268055989,3,-0.17836802368164062,-0.5722141967773438,-9.028534460449219,-4.465648854961832,-0.2748091603053435,-3.1297709923664123
5293633558916,1.274769947,3,-0.21308394775390624,-0.5626373901367188,-8.93156929321289,-4.374045801526718,-0.31297709923664124,-3.0839694656488548
5293640289176,1.281500207,3,-0.22505495605468748,-0.5518634826660156,-8.96269391479492,-4.480916030534351,-0.31297709923664124,-3.1908396946564888
5293646896885,1.288107916,3,-0.19991583862304688,-0.5422866760253906,-8.89326206665039,-4.458015267175573,-0.20610687022900764,-3.122137404580153
5293653641260,1.294852291,3,-0.3016694091796875,-0.55545478515625,-8.86213744506836,-4.435114503816794,-0.32061068702290074,-3.145038167938931
5293660242822,1.301453853,3,-0.1484405029296875,-0.55545478515625,-8.963891015625,-4.435114503816794,-0.4198473282442748,-3.2061068702290076
5293666892301,1.308103332,3,-0.1867477294921875,-0.5781997009277343,-8.963891015625,-4.412213740458015,-0.26717557251908397,-3.145038167938931
5293673588499,1.31479953,3,-0.2059013427734375,-0.5578489868164063,-8.991424334716797,-4.412213740458015,-0.366412213740458,-3.1908396946564888
5293680247822,1.321458853,3,-0.19393033447265623,-0.5255272644042969,-8.985438830566405,-4.366412213740458,-0.366412213740458,-3.2061068702290076
5293686891989,1.32810302,3,-0.23702596435546874,-0.5638344909667968,-8.967482318115234,-4.473282442748092,-0.2900763358778626,-3.2061068702290076
5293693558343,1.334769374,3,-0.21787235107421873,-0.5746083984375,-8.942343200683593,-4.427480916030534,-0.32061068702290074,-3.2290076335877864
5293700227822,1.341438853,3,-0.19033903198242186,-0.5243301635742187,-8.932766394042968,-4.480916030534351,-0.2595419847328244,-3.114503816793893
5293706901208,1.348112239,3,-0.19632453613281248,-0.5434837768554687,-8.953117108154297,-4.480916030534351,-0.4122137404580153,-3.1374045801526718
5293713569437,1.354780468,3,-0.21787235107421873,-0.5530605834960938,-8.888473663330078,-4.3893129770992365,-0.29770992366412213,-3.2061068702290076
5293720231885,1.361442916,3,-0.19393033447265623,-0.5566518859863281,-8.954314208984375,-4.427480916030534,-0.33587786259541985,-3.1755725190839694
5293726900791,1.368111822,3,-0.18076222534179687,-0.5063736511230469,-8.966285217285156,-4.297709923664122,-0.26717557251908397,-3.1755725190839694
5293733561156,1.374772187,3,-0.21188684692382811,-0.5267243652343749,-8.936357696533202,-4.435114503816794,-0.25190839694656486,-3.0763358778625953
5293740236051,1.381447082,3,-0.18315642700195311,-0.5482721801757812,-8.8872765625,-4.3893129770992365,-0.3893129770992366,-3.068702290076336
5293746890895,1.388101926,3,-0.22266075439453123,-0.5626373901367188,-8.948328704833983,-4.465648854961832,-0.24427480916030533,-3.183206106870229
5293753554489,1.39476552,3,-0.19393033447265623,-0.5279214660644531,-8.950722906494141,-4.427480916030534,-0.3282442748091603,-3.16793893129771
5293760232614,1.401443645,3,-0.19871873779296872,-0.5015852478027344,-8.959102612304687,-4.419847328244275,-0.3053435114503817,-3.267175572519084
5293766894281,1.408105312,3,-0.20231004028320312,-0.5015852478027344,-8.864531646728516,-4.465648854961832,-0.22900763358778625,-3.099236641221374
5293773567249,1.41477828,3,-0.2262520568847656,-0.5973533142089843,-8.967482318115234,-4.404580152671755,-0.35877862595419846,-3.198473282442748
5293780223864,1.421434895,3,-0.20350714111328125,-0.5351040710449219,-8.943540301513671,-4.480916030534351,-0.29770992366412213,-3.2290076335877864
5293786889385,1.428100416,3,-0.22864625854492185,-0.5434837768554687,-8.961496813964843,-4.396946564885496,-0.25190839694656486,-3.1603053435114505
5293793558812,1.434769843,3,-0.22864625854492185,-0.5698199951171875,-8.920795385742187,-4.458015267175573,-0.2824427480916031,-3.1755725190839694
5293800231624,1.441442655,3,-0.1867477294921875,-0.5698199951171875,-8.972270721435546,-4.435114503816794,-0.3893129770992366,-3.145038167938931
5293806894176,1.448105207,3,-0.2454056701660156,-0.5422866760253906,-8.972270721435546,-4.458015267175573,-0.2748091603053435,-3.1755725190839694
5293813557666,1.454768697,3,-0.1867477294921875,-0.5219359619140624,-8.920795385742187,-4.458015267175573,-0.37404580152671757,-3.114503816793893
5293820227666,1.461438697,3,-0.15203180541992187,-0.55545478515625,-8.8872765625,-4.5038167938931295,-0.37404580152671757,-3.16793893129771
5293826891156,1.468102187,3,-0.201112939453125,-0.5267243652343749,-8.929175091552734,-4.396946564885496,-0.3053435114503817,-3.16793893129771
5293833567458,1.474778489,3,-0.19991583862304688,-0.5518634826660156,-8.95670841064453,-4.511450381679389,-0.2748091603053435,-3.1603053435114505
5293840241208,1.481452239,3,-0.18914193115234373,-0.46686932373046874,-8.927977990722656,-4.465648854961832,-0.32061068702290074,-3.183206106870229
5293846896260,1.488107291,3,-0.17836802368164062,-0.5530605834960938,-8.992621435546875,-4.374045801526718,-0.22900763358778625,-3.099236641221374
5293853526885,1.494737916,3,-0.21428104858398436,-0.5087678527832031,-8.933963494873046,-4.427480916030534,-0.2824427480916031,-3.1603053435114505
5293860228551,1.501439582,3,-0.2753331909179687,-0.5770026000976562,-8.93755479736328,-4.412213740458015,-0.35877862595419846,-3.1526717557251906
5293866898968,1.508109999,3,-0.22026655273437498,-0.55545478515625,-8.998606939697265,-4.419847328244275,-0.3053435114503817,-3.1755725190839694
5293873556520,1.514767551,3,-0.19393033447265623,-0.5566518859863281,-8.926780889892578,-4.374045801526718,-0.31297709923664124,-3.1297709923664123
5293880226260,1.521437291,3,-0.19632453613281248,-0.5363011718749999,-8.974664923095702,-4.374045801526718,-0.3282442748091603,-3.122137404580153
5293886877093,1.528088124,3,-0.21428104858398436,-0.4991910461425781,-8.941146099853515,-4.3893129770992365,-0.24427480916030533,-3.16793893129771
5293893554906,1.534765937,3,-0.21068974609375,-0.5590460876464843,-8.95670841064453,-4.458015267175573,-0.26717557251908397,-3.0763358778625953
5293900228916,1.541439947,3,-0.1388636962890625,-0.5530605834960938,-8.908824377441405,-4.412213740458015,-0.2366412213740458,-3.0839694656488548
5293906889541,1.548100572,3,-0.16041151123046873,-0.5901707092285156,-8.936357696533202,-4.450381679389313,-0.3053435114503817,-3.1755725190839694
5293913520322,1.554731353,3,-0.21428104858398436,-0.5758054992675781,-8.911218579101561,-4.419847328244275,-0.3053435114503817,-3.1908396946564888
5293920226468,1.561437499,3,-0.17357962036132812,-0.49320554199218747,-8.966285217285156,-4.473282442748092,-0.3282442748091603,-3.145038167938931
5293926901260,1.568112291,3,-0.22744915771484372,-0.5410895751953124,-8.968679418945312,-4.450381679389313,-0.2595419847328244,-3.213740458015267
5293933523968,1.574734999,3,-0.22744915771484372,-0.5374982727050781,-9.005789544677734,-4.488549618320611,-0.3282442748091603,-3.1297709923664123
5293940224697,1.581435728,3,-0.239420166015625,-0.5374982727050781,-8.953117108154297,-4.366412213740458,-0.3435114503816794,-3.145038167938931
5293946886676,1.588097707,3,-0.20829554443359374,-0.5434837768554687,-8.953117108154297,-4.3893129770992365,-0.3053435114503817,-3.1297709923664123
5293953555739,1.59476677,3,-0.20231004028320312,-0.5027823486328125,-9.005789544677734,-4.3893129770992365,-0.3511450381679389,-3.1526717557251906
5293960166676,1.601377707,3,-0.19393033447265623,-0.5339069702148437,-8.853757739257812,-4.465648854961832,-0.3511450381679389,-3.1374045801526718
5293966901312,1.608112343,3,-0.19153613281249998,-0.5063736511230469,-8.93156929321289,-4.404580152671755,-0.31297709923664124,-3.1374045801526718
5293973563343,1.614774374,3,-0.19393033447265623,-0.5458779785156249,-8.881291058349609,-4.435114503816794,-0.31297709923664124,-3.099236641221374
5293980234228,1.621445259,3,-0.19153613281249998,-0.5626373901367188,-8.907627276611327,-4.3893129770992365,-0.366412213740458,-3.1374045801526718
5293986888760,1.628099791,3,-0.17836802368164062,-0.5662286926269531,-8.989030133056641,-4.3816793893129775,-0.3282442748091603,-3.1526717557251906
5293993597145,1.634808176,3,-0.18555062866210936,-0.5710170959472656,-8.917204083251953,-4.458015267175573,-0.31297709923664124,-3.1755725190839694
5294000233551,1.641444582,3,-0.27174188842773433,-0.5195417602539062,-8.954314208984375,-4.351145038167939,-0.2824427480916031,-3.1297709923664123
5294007014853,1.648225884,3,-0.17238251953125,-0.5351040710449219,-8.987833032226561,-4.473282442748092,-0.26717557251908397,-3.183206106870229
5294013600583,1.654811614,3,-0.23582886352539062,-0.5195417602539062,-8.947131604003905,-4.465648854961832,-0.3969465648854962,-3.145038167938931
5294020229072,1.661440103,3,-0.1975216369628906,-0.4860229370117187,-8.991424334716797,-4.404580152671755,-0.32061068702290074,-3.1603053435114505
5294026943656,1.668154687,3,-0.19033903198242186,-0.5051765502929687,-8.930372192382812,-4.465648854961832,-0.2824427480916031,-3.1526717557251906
5294033603187,1.674814218,3,-0.181959326171875,-0.5231330627441406,-9.004592443847656,-4.435114503816794,-0.3816793893129771,-3.16793893129771
5294040224489,1.68143552,3,-0.18435352783203124,-0.5003881469726562,-8.963891015625,-4.450381679389313,-0.33587786259541985,-3.114503816793893
5294046962458,1.688173489,3,-0.1771709228515625,-0.5386953735351562,-8.932766394042968,-4.465648854961832,-0.2824427480916031,-3.198473282442748
5294053550114,1.694761145,3,-0.21188684692382811,-0.5422866760253906,-8.917204083251953,-4.427480916030534,-0.3816793893129771,-3.1908396946564888
5294060235739,1.70144677,3,-0.21308394775390624,-0.5410895751953124,-8.95670841064453,-4.404580152671755,-0.33587786259541985,-3.068702290076336
5294066877093,1.708088124,3,-0.19393033447265623,-0.5123591552734374,-8.935160595703124,-4.3816793893129775,-0.2900763358778626,-3.213740458015267
5294073548812,1.714759843,3,-0.19393033447265623,-0.5374982727050781,-8.957905511474609,-4.404580152671755,-0.3816793893129771,-3.2061068702290076
5294080241676,1.721452707,3,-0.2059013427734375,-0.5374982727050781,-8.97705912475586,-4.412213740458015,-0.3282442748091603,-3.16793893129771
5294086884072,1.728095103,3,-0.22385785522460935,-0.5327098693847656,-8.97705912475586,-4.480916030534351,-0.37404580152671757,-3.1526717557251906
5294093543395,1.734754426,3,-0.17118541870117188,-0.5351040710449219,-8.951920007324219,-4.480916030534351,-0.3511450381679389,-3.16793893129771
5294100216103,1.741427134,3,-0.20470424194335937,-0.4991910461425781,-8.935160595703124,-4.442748091603053,-0.3511450381679389,-3.099236641221374
5294106872510,1.748083541,3,-0.17836802368164062,-0.5422866760253906,-8.981847528076171,-4.396946564885496,-0.2900763358778626,-3.099236641221374
5294113547822,1.754758853,3,-0.20231004028320312,-0.51714755859375,-8.898050469970702,-4.351145038167939,-0.3282442748091603,-3.1603053435114505
5294120219958,1.761430989,3,-0.19632453613281248,-0.5913678100585937,-8.89326206665039,-4.442748091603053,-0.3435114503816794,-3.183206106870229
5294126879749,1.76809078,3,-0.20350714111328125,-0.5051765502929687,-8.963891015625,-4.358778625954199,-0.2900763358778626,-3.0610687022900764
5294133545687,1.774756718,3,-0.22864625854492185,-0.5662286926269531,-8.939948999023438,-4.488549618320611,-0.33587786259541985,-3.183206106870229
5294140145739,1.78135677,3,-0.20350714111328125,-0.5351040710449219,-8.932766394042968,-4.435114503816794,-0.35877862595419846,-3.122137404580153
5294146877666,1.788088697,3,-0.19153613281249998,-0.5470750793457031,-8.920795385742187,-4.419847328244275,-0.1297709923664122,-3.114503816793893
5294153546520,1.794757551,3,-0.23223756103515625,-0.5099649536132812,-8.996212738037109,-4.458015267175573,-0.3053435114503817,-3.183206106870229
5294160232718,1.801443749,3,-0.20829554443359374,-0.5363011718749999,-8.921992486572265,-4.3893129770992365,-0.35877862595419846,-3.1755725190839694
5294166882978,1.808094009,3,-0.16759411621093748,-0.4955997436523437,-8.963891015625,-4.427480916030534,-0.22137404580152673,-3.0610687022900764
5294173543343,1.814754374,3,-0.16639701538085935,-0.5686228942871093,-8.93875189819336,-4.5038167938931295,-0.32061068702290074,-3.1374045801526718
5294180236364,1.821447395,3,-0.16639701538085935,-0.5231330627441406,-8.921992486572265,-4.450381679389313,-0.22900763358778625,-3.0610687022900764
5294186876572,1.828087603,3,-0.22026655273437498,-0.5590460876464843,-8.872911352539061,-4.3893129770992365,-0.2748091603053435,-3.1374045801526718
5294193545843,1.834756874,3,-0.21906945190429686,-0.5470750793457031,-8.926780889892578,-4.4961832061068705,-0.3969465648854962,-3.1297709923664123
5294200208083,1.841419114,3,-0.17238251953125,-0.5770026000976562,-8.974664923095702,-4.450381679389313,-0.24427480916030533,-3.1526717557251906
5294206828551,1.848039582,3,-0.19871873779296872,-0.5578489868164063,-8.984241729736327,-4.404580152671755,-0.26717557251908397,-3.1068702290076335
5294213546051,1.854757082,3,-0.19871873779296872,-0.5111620544433594,-8.98304462890625,-4.541984732824427,-0.31297709923664124,-3.1603053435114505
5294220240374,1.861451405,3,-0.2154781494140625,-0.5111620544433594,-8.99501563720703,-4.458015267175573,-0.24427480916030533,-3.1755725190839694
5294226883343,1.868094374,3,-0.22864625854492185,-0.5099649536132812,-8.99501563720703,-4.419847328244275,-0.2900763358778626,-3.099236641221374
5294233544801,1.874755832,3,-0.25258827514648435,-0.5530605834960938,-8.99501563720703,-4.419847328244275,-0.3893129770992366,-3.1603053435114505
5294240217718,1.881428749,3,-0.21068974609375,-0.5805939025878906,-8.93156929321289,-4.396946564885496,-0.3893129770992366,-3.099236641221374
5294246883343,1.888094374,3,-0.17238251953125,-0.5351040710449219,-8.892064965820312,-4.404580152671755,-0.2366412213740458,-3.099236641221374
5294253541624,1.894752655,3,-0.22864625854492185,-0.5315127685546874,-8.90044467163086,-4.442748091603053,-0.366412213740458,-3.0839694656488548
5294260218655,1.901429686,3,-0.23582886352539062,-0.5267243652343749,-8.978256225585938,-4.419847328244275,-0.33587786259541985,-3.16793893129771
5294266866676,1.908077707,3,-0.22385785522460935,-0.5398924743652344,-8.95670841064453,-4.358778625954199,-0.183206106870229,-3.122137404580153
5294273551260,1.914762291,3,-0.229843359375,-0.47644613037109373,-8.986635931396483,-4.427480916030534,-0.37404580152671757,-3.068702290076336
5294280225739,1.92143677,3,-0.2059013427734375,-0.5291185668945312,-9.04649097290039,-4.2748091603053435,-0.32061068702290074,-3.1297709923664123
5294286876832,1.928087863,3,-0.23343466186523437,-0.5614402893066406,-8.936357696533202,-4.3816793893129775,-0.17557251908396945,-3.213740458015267
5294293546885,1.934757916,3,-0.20709844360351562,-0.5374982727050781,-8.919598284912109,-4.4961832061068705,-0.33587786259541985,-3.1526717557251906
5294300241260,1.941452291,3,-0.19153613281249998,-0.5470750793457031,-8.888473663330078,-4.3816793893129775,-0.3435114503816794,-3.1526717557251906
5294306875843,1.948086874,3,-0.13168109130859373,-0.5542576843261718,-8.947131604003905,-4.427480916030534,-0.29770992366412213,-3.2290076335877864
5294313548447,1.954759478,3,-0.23582886352539062,-0.565031591796875,-8.920795385742187,-4.412213740458015,-0.4122137404580153,-3.16793893129771
5294320233864,1.961444895,3,-0.1927332336425781,-0.5446808776855468,-8.989030133056641,-4.442748091603053,-0.22137404580152673,-3.16793893129771
5294326880322,1.968091353,3,-0.16160861206054686,-0.5829881042480468,-9.003395343017578,-4.351145038167939,-0.16793893129770993,-3.2213740458015265
5294333535687,1.974746718,3,-0.19512743530273435,-0.5279214660644531,-8.933963494873046,-4.419847328244275,-0.366412213740458,-3.198473282442748
5294340236937,1.981447968,3,-0.22026655273437498,-0.5279214660644531,-8.972270721435546,-4.473282442748092,-0.3282442748091603,-3.1908396946564888
5294346880166,1.988091197,3,-0.20470424194335937,-0.5470750793457031,-8.984241729736327,-4.473282442748092,-0.3053435114503817,-3.145038167938931
5294353548395,1.994759426,3,-0.20470424194335937,-0.5339069702148437,-8.960299713134765,-4.488549618320611,-0.44274809160305345,-3.183206106870229
5294360233707,2.001444738,3,-0.22266075439453123,-0.5339069702148437,-8.935160595703124,-4.3893129770992365,-0.37404580152671757,-3.2290076335877864
5294366876676,2.008087707,3,-0.18076222534179687,-0.5781997009277343,-8.935160595703124,-4.320610687022901,-0.25190839694656486,-3.183206106870229
5294373628030,2.014839061,3,-0.19393033447265623,-0.5662286926269531,-8.972270721435546,-4.320610687022901,-0.3969465648854962,-3.145038167938931
5294380220114,2.021431145,3,-0.21428104858398436,-0.5446808776855468,-8.97705912475586,-4.419847328244275,-0.3969465648854962,-3.236641221374046
5294386881103,2.028092134,3,-0.21787235107421873,-0.5542576843261718,-8.98304462890625,-4.427480916030534,-0.19083969465648856,-3.236641221374046
5294393518760,2.034729791,3,-0.18315642700195311,-0.5303156677246094,-8.930372192382812,-4.396946564885496,-0.29770992366412213,-3.2290076335877864
5294400272093,2.041483124,3,-0.20829554443359374,-0.5315127685546874,-8.95670841064453,-4.435114503816794,-0.3435114503816794,-3.183206106870229
5294406897197,2.048108228,3,-0.1592144104003906,-0.49679684448242184,-8.966285217285156,-4.351145038167939,-0.33587786259541985,-3.1297709923664123
5294413600582,2.054811613,3,-0.2262520568847656,-0.5147533569335937,-8.912415679931641,-4.351145038167939,-0.3282442748091603,-3.198473282442748
5294420241676,2.061452707,3,-0.21308394775390624,-0.584185205078125,-8.876502655029297,-4.435114503816794,-0.366412213740458,-3.16793893129771
5294426886937,2.068097968,3,-0.20709844360351562,-0.5327098693847656,-8.933963494873046,-4.435114503816794,-0.21374045801526717,-3.1297709923664123
5294433549280,2.074760311,3,-0.20350714111328125,-0.5303156677246094,-8.921992486572265,-4.458015267175573,-0.32061068702290074,-3.16793893129771
5294440238082,2.081449113,3,-0.19512743530273435,-0.5315127685546874,-8.883685260009765,-4.480916030534351,-0.35877862595419846,-3.1297709923664123
5294446878030,2.088089061,3,-0.19153613281249998,-0.5243301635742187,-8.987833032226561,-4.419847328244275,-0.16030534351145037,-3.1297709923664123
5294453517093,2.094728124,3,-0.18435352783203124,-0.594959112548828,-8.998606939697265,-4.4961832061068705,-0.40458015267175573,-3.1297709923664123
5294460241207,2.101452238,3,-0.20709844360351562,-0.4908113403320312,-8.89924757080078,-4.480916030534351,-0.3435114503816794,-3.2290076335877864
5294466876885,2.108087916,3,-0.20231004028320312,-0.5255272644042969,-8.953117108154297,-4.465648854961832,-0.2595419847328244,-3.1374045801526718
5294473551207,2.114762238,3,-0.21787235107421873,-0.5398924743652344,-8.883685260009765,-4.465648854961832,-0.42748091603053434,-3.145038167938931
5294480222510,2.121433541,3,-0.18555062866210936,-0.5363011718749999,-8.965088116455078,-4.480916030534351,-0.29770992366412213,-3.2213740458015265
5294486874645,2.128085676,3,-0.20949264526367187,-0.5518634826660156,-8.845378033447265,-4.3816793893129775,-0.24427480916030533,-3.1068702290076335
5294493532926,2.134743957,3,-0.20949264526367187,-0.48722003784179685,-8.97705912475586,-4.450381679389313,-0.35877862595419846,-3.1297709923664123
5294500242145,2.141453176,3,-0.20949264526367187,-0.48722003784179685,-8.972270721435546,-4.404580152671755,-0.31297709923664124,-3.1297709923664123
5294506881937,2.148092968,3,-0.21188684692382811,-0.5003881469726562,-8.972270721435546,-4.396946564885496,-0.2595419847328244,-3.1297709923664123
5294513538655,2.154749686,3,-0.201112939453125,-0.5446808776855468,-8.910021478271483,-4.396946564885496,-0.2595419847328244,-3.1526717557251906
5294520218291,2.161429322,3,-0.23822306518554687,-0.5363011718749999,-8.960299713134765,-4.374045801526718,-0.42748091603053434,-3.1526717557251906
5294526936155,2.168147186,3,-0.17956512451171874,-0.5758054992675781,-8.932766394042968,-4.404580152671755,-0.31297709923664124,-3.068702290076336
5294533508239,2.17471927,3,-0.20470424194335937,-0.5686228942871093,-8.90643017578125,-4.442748091603053,-0.31297709923664124,-3.1068702290076335
5294540238134,2.181449165,3,-0.17836802368164062,-0.5494692810058593,-8.96269391479492,-4.526717557251908,-0.4351145038167939,-3.122137404580153
5294546876155,2.188087186,3,-0.15083470458984374,-0.5458779785156249,-8.966285217285156,-4.3893129770992365,-0.22137404580152673,-3.114503816793893
5294553544072,2.194755103,3,-0.20470424194335937,-0.5542576843261718,-8.871714251708983,-4.419847328244275,-0.20610687022900764,-3.099236641221374
5294560220166,2.201431197,3,-0.22266075439453123,-0.5805939025878906,-8.920795385742187,-4.473282442748092,-0.3435114503816794,-3.1374045801526718
5294566878812,2.208089843,3,-0.1879448303222656,-0.5674257934570313,-8.905233074951171,-4.312977099236641,-0.25190839694656486,-3.183206106870229
5294573551989,2.21476302,3,-0.16639701538085935,-0.5434837768554687,-8.89326206665039,-4.366412213740458,-0.3435114503816794,-3.0916030534351147
5294580218812,2.221429843,3,-0.19871873779296872,-0.5351040710449219,-8.979453326416015,-4.427480916030534,-0.3893129770992366,-3.213740458015267
5294587192041,2.228403072,3,-0.10893617553710937,-0.5602431884765625,-8.93875189819336,-4.3893129770992365,-0.31297709923664124,-3.114503816793893
5294594164801,2.235375832,3,-0.18435352783203124,-0.4908113403320312,-8.999804040527343,-4.557251908396947,-0.31297709923664124,-3.16793893129771
5294600296937,2.241507968,3,-0.2442085693359375,-0.5482721801757812,-9.026140258789061,-4.458015267175573,-0.3053435114503817,-3.1297709923664123
5294606887353,2.248098384,3,-0.2154781494140625,-0.5662286926269531,-8.972270721435546,-4.351145038167939,-0.1984732824427481,-3.145038167938931
5294613589853,2.254800884,3,-0.2442085693359375,-0.5638344909667968,-8.913612780761719,-4.419847328244275,-0.366412213740458,-3.1374045801526718
5294620148082,2.261359113,3,-0.17118541870117188,-0.507570751953125,-8.926780889892578,-4.442748091603053,-0.3969465648854962,-3.145038167938931
5294626911364,2.268122395,3,-0.16160861206054686,-0.5099649536132812,-8.972270721435546,-4.404580152671755,-0.19083969465648856,-3.16793893129771
5294633551624,2.274762655,3,-0.16160861206054686,-0.5219359619140624,-8.993818536376953,-4.442748091603053,-0.3282442748091603,-3.1526717557251906
5294640227822,2.281438853,3,-0.20350714111328125,-0.5219359619140624,-8.985438830566405,-4.412213740458015,-0.24427480916030533,-3.0916030534351147
5294646853759,2.28806479,3,-0.19393033447265623,-0.5674257934570313,-8.985438830566405,-4.412213740458015,-0.33587786259541985,-3.1297709923664123
5294653596989,2.29480802,3,-0.19393033447265623,-0.5303156677246094,-8.963891015625,-4.412213740458015,-0.32061068702290074,-3.1374045801526718
5294660231728,2.301442759,3,-0.18555062866210936,-0.5482721801757812,-8.912415679931641,-4.312977099236641,-0.32061068702290074,-3.1374045801526718
5294666904280,2.308115311,3,-0.20470424194335937,-0.5087678527832031,-8.971073620605468,-4.412213740458015,-0.2366412213740458,-3.1526717557251906
5294673547249,2.31475828,3,-0.24899697265624998,-0.5398924743652344,-8.913612780761719,-4.465648854961832,-0.2900763358778626,-3.1908396946564888
5294680232353,2.321443384,3,-0.20709844360351562,-0.5482721801757812,-8.935160595703124,-4.4961832061068705,-0.3282442748091603,-3.2061068702290076
5294686891364,2.328102395,3,-0.20231004028320312,-0.5662286926269531,-8.9255837890625,-4.343511450381679,-0.2900763358778626,-3.183206106870229
5294693555062,2.334766093,3,-0.16759411621093748,-0.5746083984375,-8.92438668823242,-4.442748091603053,-0.25190839694656486,-3.099236641221374
5294700224437,2.341435468,3,-0.17956512451171874,-0.5231330627441406,-8.889670764160156,-4.33587786259542,-0.35877862595419846,-3.2061068702290076
5294706899905,2.348110936,3,-0.17238251953125,-0.5434837768554687,-8.892064965820312,-4.412213740458015,-0.2900763358778626,-3.2061068702290076
5294713552093,2.354763124,3,-0.17238251953125,-0.5578489868164063,-8.941146099853515,-4.465648854961832,-0.3435114503816794,-3.0839694656488548
5294720236989,2.36144802,3,-0.18076222534179687,-0.5015852478027344,-8.916006982421875,-4.435114503816794,-0.3511450381679389,-3.145038167938931
5294726906103,2.368117134,3,-0.19033903198242186,-0.5518634826660156,-8.997409838867187,-4.442748091603053,-0.25190839694656486,-3.1603053435114505
5294733533707,2.374744738,3,-0.16998831787109375,-0.5279214660644531,-8.923189587402343,-4.480916030534351,-0.1984732824427481,-3.236641221374046
5294740227457,2.381438488,3,-0.19393033447265623,-0.5674257934570313,-8.93755479736328,-4.458015267175573,-0.3053435114503817,-3.1908396946564888
5294746892874,2.388103905,3,-0.16998831787109375,-0.5722141967773438,-8.914809881591797,-4.480916030534351,-0.2366412213740458,-3.114503816793893
5294753524436,2.394735467,3,-0.181959326171875,-0.5183446594238281,-9.035717065429687,-4.396946564885496,-0.3435114503816794,-3.1526717557251906
5294760235582,2.401446613,3,-0.22266075439453123,-0.5590460876464843,-8.93156929321289,-4.4961832061068705,-0.31297709923664124,-3.1374045801526718
5294766890582,2.408101613,3,-0.19393033447265623,-0.5363011718749999,-9.00818374633789,-4.404580152671755,-0.2900763358778626,-3.114503816793893
5294773560322,2.414771353,3,-0.19393033447265623,-0.5111620544433594,-8.905233074951171,-4.488549618320611,-0.2824427480916031,-3.183206106870229
5294780236311,2.421447342,3,-0.19393033447265623,-0.5111620544433594,-8.973467822265624,-4.435114503816794,-0.2900763358778626,-3.122137404580153
5294786892405,2.428103436,3,-0.17477672119140625,-0.5530605834960938,-8.973467822265624,-4.435114503816794,-0.29770992366412213,-3.183206106870229
5294793636572,2.434847603,3,-0.1867477294921875,-0.5267243652343749,-8.90643017578125,-4.374045801526718,-0.37404580152671757,-3.1297709923664123
5294800235739,2.44144677,3,-0.1867477294921875,-0.5374982727050781,-8.968679418945312,-4.412213740458015,-0.37404580152671757,-3.1297709923664123
5294806898759,2.44810979,3,-0.20470424194335937,-0.5410895751953124,-8.973467822265624,-4.572519083969466,-0.2900763358778626,-3.183206106870229
5294813593030,2.454804061,3,-0.18914193115234373,-0.5458779785156249,-8.948328704833983,-4.473282442748092,-0.2748091603053435,-3.1908396946564888
5294820224749,2.46143578,3,-0.1975216369628906,-0.5686228942871093,-8.94473740234375,-4.465648854961832,-0.37404580152671757,-3.2213740458015265
5294826904332,2.468115363,3,-0.20709844360351562,-0.5446808776855468,-8.98304462890625,-4.480916030534351,-0.26717557251908397,-3.2519083969465647
5294833554853,2.474765884,3,-0.20949264526367187,-0.5566518859863281,-8.888473663330078,-4.442748091603053,-0.2595419847328244,-3.114503816793893
5294840229905,2.481440936,3,-0.201112939453125,-0.5506663818359374,-8.894459167480468,-4.412213740458015,-0.44274809160305345,-3.1374045801526718
5294846889176,2.488100207,3,-0.20470424194335937,-0.5530605834960938,-8.954314208984375,-4.419847328244275,-0.29770992366412213,-3.114503816793893
5294853569436,2.494780467,3,-0.16519991455078123,-0.55545478515625,-8.932766394042968,-4.33587786259542,-0.37404580152671757,-3.1603053435114505
5294860252249,2.50146328,3,-0.1975216369628906,-0.5003881469726562,-8.930372192382812,-4.3893129770992365,-0.20610687022900764,-3.16793893129771
5294866895791,2.508106822,3,-0.20231004028320312,-0.5985504150390625,-8.973467822265624,-4.419847328244275,-0.25190839694656486,-3.1526717557251906
5294873555999,2.51476703,3,-0.20470424194335937,-0.5602431884765625,-8.8872765625,-4.419847328244275,-0.29770992366412213,-3.1603053435114505
5294880232614,2.521443645,3,-0.2442085693359375,-0.5111620544433594,-8.978256225585938,-4.320610687022901,-0.2595419847328244,-3.1526717557251906
5294886888655,2.528099686,3,-0.229843359375,-0.4955997436523437,-8.882488159179687,-4.3816793893129775,-0.24427480916030533,-3.16793893129771
5294893560947,2.534771978,3,-0.181959326171875,-0.565031591796875,-8.939948999023438,-4.358778625954199,-0.32061068702290074,-3.2061068702290076
5294900289280,2.541500311,3,-0.1879448303222656,-0.5099649536132812,-8.943540301513671,-4.442748091603053,-0.32061068702290074,-3.213740458015267
5294906847561,2.548058592,3,-0.1879448303222656,-0.5614402893066406,-9.00818374633789,-4.458015267175573,-0.24427480916030533,-3.198473282442748
5294913559749,2.55477078,3,-0.20470424194335937,-0.5614402893066406,-9.005789544677734,-4.412213740458015,-0.31297709923664124,-3.099236641221374
5294920225270,2.561436301,3,-0.21428104858398436,-0.5231330627441406,-9.005789544677734,-4.480916030534351,-0.37404580152671757,-3.0839694656488548
5294926896520,2.568107551,3,-0.2549824768066406,-0.5734112976074218,-8.992621435546875,-4.480916030534351,-0.2824427480916031,-3.1068702290076335
5294933557093,2.574768124,3,-0.20350714111328125,-0.5458779785156249,-8.929175091552734,-4.427480916030534,-0.2824427480916031,-3.099236641221374
5294940149593,2.581360624,3,-0.20350714111328125,-0.5686228942871093,-8.910021478271483,-4.358778625954199,-0.3511450381679389,-3.099236641221374
5294946894593,2.588105624,3,-0.1879448303222656,-0.5482721801757812,-8.98304462890625,-4.412213740458015,-0.2366412213740458,-3.1297709923664123
5294953564697,2.594775728,3,-0.16759411621093748,-0.5542576843261718,-8.94473740234375,-4.435114503816794,-0.25190839694656486,-3.1755725190839694
5294960226572,2.601437603,3,-0.1640028137207031,-0.5518634826660156,-8.8872765625,-4.3893129770992365,-0.35877862595419846,-3.1526717557251906
5294966885634,2.608096665,3,-0.18555062866210936,-0.5386953735351562,-8.927977990722656,-4.458015267175573,-0.2900763358778626,-3.1374045801526718
5294973555218,2.614766249,3,-0.19991583862304688,-0.51714755859375,-8.933963494873046,-4.473282442748092,-0.33587786259541985,-3.1068702290076335
5294980241155,2.621452186,3,-0.2154781494140625,-0.5542576843261718,-8.936357696533202,-4.480916030534351,-0.3816793893129771,-3.1297709923664123
5294986903916,2.628114947,3,-0.18555062866210936,-0.5183446594238281,-8.930372192382812,-4.435114503816794,-0.25190839694656486,-3.1374045801526718
5294993549957,2.634760988,3,-0.2597708801269531,-0.5255272644042969,-8.960299713134765,-4.465648854961832,-0.29770992366412213,-3.122137404580153
5295000225791,2.641436822,3,-0.20350714111328125,-0.5710170959472656,-8.933963494873046,-4.396946564885496,-0.2748091603053435,-3.1908396946564888
5295006889488,2.648100519,3,-0.13646949462890623,-0.5351040710449219,-8.980650427246093,-4.480916030534351,-0.29770992366412213,-3.1297709923664123
5295013558343,2.654769374,3,-0.17477672119140625,-0.5327098693847656,-8.950722906494141,-4.3893129770992365,-0.366412213740458,-3.1374045801526718
5295020235895,2.661446926,3,-0.19153613281249998,-0.5267243652343749,-8.930372192382812,-4.396946564885496,-0.2900763358778626,-3.1526717557251906
5295026904384,2.668115415,3,-0.17956512451171874,-0.5315127685546874,-8.94473740234375,-4.412213740458015,-0.2900763358778626,-3.267175572519084
5295033667822,2.674878853,3,-0.24181436767578124,-0.5710170959472656,-9.02135185546875,-4.358778625954199,-0.29770992366412213,-3.1603053435114505
5295041229332,2.682440363,3,-0.18435352783203124,-0.5614402893066406,-8.945934503173827,-4.412213740458015,-0.31297709923664124,-3.1374045801526718
5295048660999,2.68987203,3,-0.1867477294921875,-0.5578489868164063,-8.895656268310546,-4.358778625954199,-0.2900763358778626,-3.145038167938931
5295056078082,2.697289113,3,-0.1927332336425781,-0.5267243652343749,-8.985438830566405,-4.3816793893129775,-0.31297709923664124,-3.099236641221374
5295063460218,2.704671249,3,-0.18315642700195311,-0.5135562561035156,-8.884882360839843,-4.404580152671755,-0.2748091603053435,-3.1603053435114505
5295070808082,2.712019113,3,-0.2059013427734375,-0.5746083984375,-8.93755479736328,-4.366412213740458,-0.3435114503816794,-3.1603053435114505
5295078199332,2.719410363,3,-0.2454056701660156,-0.4908113403320312,-8.92438668823242,-4.442748091603053,-0.3969465648854962,-3.1068702290076335
5295085631884,2.726842915,3,-0.20949264526367187,-0.5255272644042969,-8.919598284912109,-4.442748091603053,-0.2366412213740458,-3.1755725190839694
5295093036468,2.734247499,3,-0.20231004028320312,-0.49799394531249996,-8.895656268310546,-4.3893129770992365,-0.2366412213740458,-3.145038167938931
5295100447874,2.741658905,3,-0.17836802368164062,-0.5518634826660156,-8.979453326416015,-4.412213740458015,-0.2595419847328244,-3.1526717557251906
5295107795426,2.749006457,3,-0.18076222534179687,-0.5363011718749999,-8.916006982421875,-4.419847328244275,-0.1984732824427481,-3.2061068702290076
5295115175738,2.756386769,3,-0.20350714111328125,-0.5327098693847656,-8.902838873291016,-4.404580152671755,-0.31297709923664124,-3.1603053435114505
5295122567041,2.763778072,3,-0.2214636535644531,-0.5207388610839844,-8.896853369140624,-4.5038167938931295,-0.3282442748091603,-3.1374045801526718
5295129984384,2.771195415,3,-0.2059013427734375,-0.584185205078125,-8.950722906494141,-4.465648854961832,-0.33587786259541985,-3.145038167938931
5295137415478,2.778626509,3,-0.1771709228515625,-0.5602431884765625,-8.916006982421875,-4.427480916030534,-0.3282442748091603,-3.1603053435114505
5295144783186,2.785994217,3,-0.18555062866210936,-0.5781997009277343,-8.878896856689453,-4.419847328244275,-0.29770992366412213,-3.1908396946564888
5295152144436,2.793355467,3,-0.20350714111328125,-0.5015852478027344,-8.941146099853515,-4.419847328244275,-0.32061068702290074,-3.1755725190839694
5295159496363,2.800707394,3,-0.2154781494140625,-0.5183446594238281,-8.984241729736327,-4.442748091603053,-0.1984732824427481,-3.114503816793893
5295166756728,2.807967759,3,-0.23223756103515625,-0.5590460876464843,-8.957905511474609,-4.435114503816794,-0.31297709923664124,-3.122137404580153
5295174179384,2.815390415,3,-0.24899697265624998,-0.5997475158691405,-8.875305554199219,-4.412213740458015,-0.45038167938931295,-3.099236641221374
5295181618447,2.822829478,3,-0.16280571289062498,-0.5111620544433594,-8.968679418945312,-4.458015267175573,-0.366412213740458,-3.1908396946564888
5295189059905,2.830270936,3,-0.19393033447265623,-0.5482721801757812,-8.932766394042968,-4.404580152671755,-0.32061068702290074,-3.114503816793893
5295196458655,2.837669686,3,-0.21906945190429686,-0.5219359619140624,-8.883685260009765,-4.427480916030534,-0.37404580152671757,-3.198473282442748
5295203758915,2.844969946,3,-0.19871873779296872,-0.5255272644042969,-8.99501563720703,-4.412213740458015,-0.33587786259541985,-3.2061068702290076
5295211157718,2.852368749,3,-0.16639701538085935,-0.5398924743652344,-9.005789544677734,-4.435114503816794,-0.29770992366412213,-3.1908396946564888
5295218569593,2.859780624,3,-0.2154781494140625,-0.5518634826660156,-9.016563452148437,-4.358778625954199,-0.31297709923664124,-3.198473282442748
5295225981780,2.867192811,3,-0.18555062866210936,-0.5255272644042969,-8.945934503173827,-4.435114503816794,-0.33587786259541985,-3.2442748091603053
5295233405738,2.874616769,3,-0.21906945190429686,-0.5686228942871093,-8.917204083251953,-4.450381679389313,-0.3511450381679389,-3.1297709923664123
5295240847874,2.882058905,3,-0.18435352783203124,-0.5207388610839844,-9.012972149658202,-4.473282442748092,-0.35877862595419846,-3.1374045801526718
5295248259697,2.889470728,3,-0.2442085693359375,-0.5518634826660156,-8.959102612304687,-4.473282442748092,-0.24427480916030533,-3.0916030534351147
5295255606884,2.896817915,3,-0.2154781494140625,-0.5339069702148437,-9.024943157958983,-4.3816793893129775,-0.37404580152671757,-3.0916030534351147
5295263047926,2.904258957,3,-0.22505495605468748,-0.5339069702148437,-8.936357696533202,-4.343511450381679,-0.21374045801526717,-3.16793893129771
5295270434020,2.911645051,3,-0.21787235107421873,-0.565031591796875,-8.998606939697265,-4.366412213740458,-0.3893129770992366,-3.1526717557251906
5295277797353,2.919008384,3,-0.17118541870117188,-0.5470750793457031,-8.999804040527343,-4.412213740458015,-0.3893129770992366,-3.1755725190839694
5295285216415,2.926427446,3,-0.18914193115234373,-0.5386953735351562,-8.8872765625,-4.396946564885496,-0.26717557251908397,-3.1374045801526718
5295292699228,2.933910259,3,-0.19153613281249998,-0.5530605834960938,-9.0021982421875,-4.374045801526718,-0.40458015267175573,-3.122137404580153
5295300069905,2.941280936,3,-0.2214636535644531,-0.565031591796875,-8.947131604003905,-4.450381679389313,-0.25190839694656486,-3.1603053435114505
5295307404436,2.948615467,3,-0.18076222534179687,-0.5614402893066406,-8.93875189819336,-4.404580152671755,-0.2595419847328244,-3.1755725190839694
5295314715478,2.955926509,3,-0.2154781494140625,-0.469263525390625,-8.967482318115234,-4.442748091603053,-0.3435114503816794,-3.122137404580153
5295322041311,2.963252342,3,-0.20470424194335937,-0.5686228942871093,-8.975862023925782,-4.435114503816794,-0.32061068702290074,-3.145038167938931
5295329405374,2.970616405,3,-0.21787235107421873,-0.5386953735351562,-8.9255837890625,-4.427480916030534,-0.183206106870229,-3.0610687022900764
5295336847145,2.978058176,3,-0.2262520568847656,-0.5123591552734374,-8.943540301513671,-4.351145038167939,-0.4198473282442748,-3.16793893129771
5295344212093,2.985423124,3,-0.20709844360351562,-0.5363011718749999,-8.892064965820312,-4.450381679389313,-0.21374045801526717,-3.1374045801526718
5295351536415,2.992747446,3,-0.20949264526367187,-0.5817910034179687,-8.89924757080078,-4.358778625954199,-0.3053435114503817,-3.1526717557251906
5295358901103,3.000112134,3,-0.2154781494140625,-0.5638344909667968,-8.933963494873046,-4.458015267175573,-0.3435114503816794,-3.0916030534351147
5295366252822,3.007463853,3,-0.181959326171875,-0.51714755859375,-8.955511309814453,-4.3816793893129775,-0.22900763358778625,-3.1755725190839694
5295373609124,3.014820155,3,-0.2154781494140625,-0.5051765502929687,-8.90643017578125,-4.3893129770992365,-0.35877862595419846,-3.1603053435114505
5295380961676,3.022172707,3,-0.23104046020507812,-0.5793968017578125,-8.948328704833983,-4.450381679389313,-0.31297709923664124,-3.0763358778625953
5295388273707,3.029484738,3,-0.16280571289062498,-0.5458779785156249,-8.921992486572265,-4.427480916030534,-0.16030534351145037,-3.068702290076336
5295395582040,3.036793071,3,-0.19153613281249998,-0.5363011718749999,-8.990227233886719,-4.473282442748092,-0.3816793893129771,-3.122137404580153
5295402901415,3.044112446,3,-0.22266075439453123,-0.5829881042480468,-8.96269391479492,-4.5038167938931295,-0.2900763358778626,-3.114503816793893
5295410231624,3.051442655,3,-0.17118541870117188,-0.5458779785156249,-8.943540301513671,-4.427480916030534,-0.3282442748091603,-3.1374045801526718
5295417554436,3.058765467,3,-0.17357962036132812,-0.4955997436523437,-8.975862023925782,-4.465648854961832,-0.26717557251908397,-3.114503816793893
5295424866363,3.066077394,3,-0.16160861206054686,-0.5339069702148437,-8.959102612304687,-4.4961832061068705,-0.22900763358778625,-3.145038167938931
5295432212665,3.073423696,3,-0.19991583862304688,-0.5865794067382812,-8.933963494873046,-4.3893129770992365,-0.31297709923664124,-3.198473282442748
5295439587926,3.080798957,3,-0.239420166015625,-0.507570751953125,-8.913612780761719,-4.488549618320611,-0.29770992366412213,-3.114503816793893
5295446851936,3.088062967,3,-0.181959326171875,-0.5147533569335937,-8.960299713134765,-4.358778625954199,-0.21374045801526717,-3.1603053435114505
5295454196884,3.095407915,3,-0.17118541870117188,-0.5722141967773438,-9.004592443847656,-4.412213740458015,-0.37404580152671757,-3.16793893129771
5295461540634,3.102751665,3,-0.2597708801269531,-0.594959112548828,-8.992621435546875,-4.427480916030534,-0.24427480916030533,-3.1374045801526718
5295468923603,3.110134634,3,-0.1927332336425781,-0.565031591796875,-8.93755479736328,-4.412213740458015,-0.22900763358778625,-3.114503816793893
5295476256728,3.117467759,3,-0.19632453613281248,-0.5291185668945312,-8.998606939697265,-4.32824427480916,-0.37404580152671757,-3.145038167938931
5295483577145,3.124788176,3,-0.23582886352539062,-0.5147533569335937,-8.941146099853515,-4.473282442748092,-0.2900763358778626,-3.1374045801526718
5295490919176,3.132130207,3,-0.1975216369628906,-0.5614402893066406,-8.902838873291016,-4.435114503816794,-0.2595419847328244,-3.1526717557251906
5295498273134,3.139484165,3,-0.22505495605468748,-0.5542576843261718,-8.999804040527343,-4.511450381679389,-0.3893129770992366,-3.1526717557251906
5295505620895,3.146831926,3,-0.16519991455078123,-0.5195417602539062,-8.961496813964843,-4.450381679389313,-0.29770992366412213,-3.198473282442748
5295512962717,3.154173748,3,-0.1484405029296875,-0.5662286926269531,-8.979453326416015,-4.366412213740458,-0.366412213740458,-3.2061068702290076
5295520274332,3.161485363,3,-0.19512743530273435,-0.5925649108886718,-9.016563452148437,-4.465648854961832,-0.31297709923664124,-3.213740458015267
5295527591832,3.168802863,3,-0.17956512451171874,-0.5638344909667968,-8.914809881591797,-4.450381679389313,-0.20610687022900764,-3.1603053435114505
5295534906051,3.176117082,3,-0.19033903198242186,-0.4800374328613281,-8.930372192382812,-4.374045801526718,-0.31297709923664124,-3.1908396946564888
5295542244384,3.183455415,3,-0.20829554443359374,-0.4896142395019531,-8.955511309814453,-4.404580152671755,-0.3053435114503817,-3.2519083969465647
5295549595530,3.190806561,3,-0.19512743530273435,-0.5614402893066406,-8.93875189819336,-4.374045801526718,-0.2900763358778626,-3.1755725190839694
5295556949853,3.198160884,3,-0.19632453613281248,-0.5434837768554687,-8.888473663330078,-4.473282442748092,-0.3282442748091603,-3.0610687022900764
5295564268551,3.205479582,3,-0.19512743530273435,-0.5398924743652344,-8.993818536376953,-4.351145038167939,-0.24427480916030533,-3.1755725190839694
5295571583863,3.212794894,3,-0.21787235107421873,-0.5446808776855468,-8.979453326416015,-4.312977099236641,-0.4122137404580153,-3.1603053435114505
5295578906311,3.220117342,3,-0.17477672119140625,-0.5183446594238281,-8.947131604003905,-4.312977099236641,-0.35877862595419846,-3.2900763358778624
5295586250009,3.22746104,3,-0.2346317626953125,-0.5590460876464843,-9.009380847167968,-4.465648854961832,-0.3282442748091603,-3.1603053435114505
5295593630842,3.234841873,3,-0.22864625854492185,-0.5398924743652344,-8.96987651977539,-4.396946564885496,-0.3511450381679389,-3.1068702290076335
5295601032301,3.242243332,3,-0.16280571289062498,-0.49799394531249996,-8.921992486572265,-4.427480916030534,-0.22900763358778625,-3.1908396946564888
5295608344124,3.249555155,3,-0.22026655273437498,-0.5446808776855468,-8.974664923095702,-4.412213740458015,-0.1984732824427481,-3.1068702290076335
5295615682822,3.256893853,3,-0.21308394775390624,-0.4908113403320312,-8.978256225585938,-4.312977099236641,-0.26717557251908397,-3.2061068702290076
5295622976572,3.264187603,3,-0.19632453613281248,-0.5698199951171875,-8.932766394042968,-4.396946564885496,-0.29770992366412213,-3.2290076335877864
5295630344072,3.271555103,3,-0.201112939453125,-0.5327098693847656,-8.975862023925782,-4.412213740458015,-0.31297709923664124,-3.114503816793893
5295637652040,3.278863071,3,-0.19512743530273435,-0.55545478515625,-9.058461981201171,-4.450381679389313,-0.3969465648854962,-3.1755725190839694
5295644944540,3.286155571,3,-0.17118541870117188,-0.5207388610839844,-8.888473663330078,-4.419847328244275,-0.33587786259541985,-3.1374045801526718
5295652282144,3.293493175,3,-0.16998831787109375,-0.5015852478027344,-8.975862023925782,-4.5038167938931295,-0.3969465648854962,-3.122137404580153
5295659632457,3.300843488,3,-0.2765302917480469,-0.5590460876464843,-9.010577947998046,-4.427480916030534,-0.35877862595419846,-3.1755725190839694
5295666929905,3.308140936,3,-0.17597382202148437,-0.5722141967773438,-8.935160595703124,-4.419847328244275,-0.22900763358778625,-3.1374045801526718
5295674237301,3.315448332,3,-0.1867477294921875,-0.5267243652343749,-8.917204083251953,-4.3816793893129775,-0.40458015267175573,-3.1297709923664123
5295681640530,3.322851561,3,-0.2166752502441406,-0.5506663818359374,-8.96987651977539,-4.526717557251908,-0.2900763358778626,-3.145038167938931
5295689035842,3.330246873,3,-0.16639701538085935,-0.5470750793457031,-9.035717065429687,-4.412213740458015,-0.22900763358778625,-3.198473282442748
5295696398603,3.337609634,3,-0.19033903198242186,-0.5734112976074218,-8.89924757080078,-4.419847328244275,-0.31297709923664124,-3.236641221374046
5295703734749,3.34494578,3,-0.1879448303222656,-0.5267243652343749,-8.97705912475586,-4.366412213740458,-0.2748091603053435,-3.1755725190839694
5295711082092,3.352293123,3,-0.17238251953125,-0.5183446594238281,-8.971073620605468,-4.404580152671755,-0.4351145038167939,-3.0839694656488548
5295718446467,3.359657498,3,-0.14724340209960937,-0.5770026000976562,-9.006986645507812,-4.442748091603053,-0.3435114503816794,-3.1908396946564888
5295725804436,3.367015467,3,-0.18076222534179687,-0.5662286926269531,-8.926780889892578,-4.427480916030534,-0.24427480916030533,-3.114503816793893
5295733147978,3.374359009,3,-0.20709844360351562,-0.5279214660644531,-8.960299713134765,-4.312977099236641,-0.3053435114503817,-3.183206106870229
5295740519749,3.38173078,3,-0.18555062866210936,-0.5470750793457031,-8.984241729736327,-4.412213740458015,-0.2595419847328244,-3.0839694656488548
5295747854905,3.389065936,3,-0.22385785522460935,-0.5135562561035156,-8.945934503173827,-4.442748091603053,-0.22137404580152673,-3.122137404580153
5295755202197,3.396413228,3,-0.2154781494140625,-0.5662286926269531,-8.935160595703124,-4.366412213740458,-0.31297709923664124,-3.1755725190839694
5295762537717,3.403748748,3,-0.22385785522460935,-0.5255272644042969,-8.911218579101561,-4.3816793893129775,-0.2748091603053435,-3.099236641221374
5295769853759,3.41106479,3,-0.18435352783203124,-0.5781997009277343,-8.91840118408203,-4.3893129770992365,-0.2595419847328244,-3.1068702290076335
5295777207457,3.418418488,3,-0.23702596435546874,-0.5602431884765625,-8.966285217285156,-4.3816793893129775,-0.35877862595419846,-3.1603053435114505
5295784547717,3.425758748,3,-0.19033903198242186,-0.5231330627441406,-8.948328704833983,-4.396946564885496,-0.2595419847328244,-3.1908396946564888
5295791864905,3.433075936,3,-0.181959326171875,-0.5734112976074218,-8.96269391479492,-4.465648854961832,-0.2595419847328244,-3.122137404580153
5295799205009,3.44041604,3,-0.23582886352539062,-0.5518634826660156,-8.950722906494141,-4.442748091603053,-0.3893129770992366,-3.099236641221374
5295806514124,3.447725155,3,-0.2059013427734375,-0.507570751953125,-8.932766394042968,-4.442748091603053,-0.3435114503816794,-3.122137404580153
5295813817874,3.455028905,3,-0.21188684692382811,-0.5434837768554687,-8.917204083251953,-4.458015267175573,-0.2366412213740458,-3.1526717557251906
5295821198603,3.462409634,3,-0.20470424194335937,-0.5231330627441406,-8.949525805664061,-4.473282442748092,-0.3969465648854962,-3.1297709923664123
5295828525009,3.46973604,3,-0.23582886352539062,-0.5434837768554687,-8.960299713134765,-4.458015267175573,-0.1984732824427481,-3.198473282442748
5295835867457,3.477078488,3,-0.19033903198242186,-0.5147533569335937,-8.898050469970702,-4.511450381679389,-0.24427480916030533,-3.0839694656488548
5295843333290,3.484544321,3,-0.17597382202148437,-0.5566518859863281,-8.95670841064453,-4.465648854961832,-0.3969465648854962,-3.2061068702290076
5295850715165,3.491926196,3,-0.16998831787109375,-0.5410895751953124,-8.917204083251953,-4.374045801526718,-0.4122137404580153,-3.1908396946564888
5295858032874,3.499243905,3,-0.1879448303222656,-0.5542576843261718,-8.901641772460938,-4.3893129770992365,-0.3969465648854962,-3.1068702290076335
5295865413655,3.506624686,3,-0.2059013427734375,-0.5434837768554687,-9.028534460449219,-4.442748091603053,-0.24427480916030533,-3.0763358778625953
5295872768811,3.513979842,3,-0.16160861206054686,-0.5398924743652344,-8.96987651977539,-4.351145038167939,-0.37404580152671757,-3.1526717557251906
5295880083759,3.52129479,3,-0.16639701538085935,-0.507570751953125,-8.999804040527343,-4.450381679389313,-0.2900763358778626,-3.1526717557251906
5295887393603,3.528604634,3,-0.17956512451171874,-0.5003881469726562,-8.932766394042968,-4.404580152671755,-0.33587786259541985,-3.213740458015267
5295894692769,3.5359038,3,-0.16879121704101563,-0.5698199951171875,-8.945934503173827,-4.404580152671755,-0.48854961832061067,-3.0763358778625953
5295902008915,3.543219946,3,-0.19991583862304688,-0.5590460876464843,-8.890867864990234,-4.343511450381679,-0.33587786259541985,-3.1068702290076335
5295909349124,3.550560155,3,-0.25737667846679685,-0.5566518859863281,-8.979453326416015,-4.419847328244275,-0.25190839694656486,-3.1526717557251906
5295916707092,3.557918123,3,-0.2454056701660156,-0.565031591796875,-8.978256225585938,-4.3816793893129775,-0.37404580152671757,-3.1755725190839694
5295924079488,3.565290519,3,-0.18435352783203124,-0.5482721801757812,-8.974664923095702,-4.3893129770992365,-0.32061068702290074,-3.198473282442748
5295931339801,3.572550832,3,-0.21787235107421873,-0.5147533569335937,-8.9255837890625,-4.297709923664122,-0.2900763358778626,-3.0839694656488548
5295938643082,3.579854113,3,-0.2059013427734375,-0.5662286926269531,-9.014169250488282,-4.427480916030534,-0.32061068702290074,-3.183206106870229
5295945921051,3.587132082,3,-0.17956512451171874,-0.5410895751953124,-8.913612780761719,-4.404580152671755,-0.25190839694656486,-3.1374045801526718
5295953221832,3.594432863,3,-0.18076222534179687,-0.5374982727050781,-8.948328704833983,-4.458015267175573,-0.25190839694656486,-3.0839694656488548
5295960526571,3.601737602,3,-0.1879448303222656,-0.5123591552734374,-8.953117108154297,-4.435114503816794,-0.33587786259541985,-3.068702290076336
5295967787249,3.60899828,3,-0.22266075439453123,-0.5458779785156249,-8.929175091552734,-4.427480916030534,-0.22900763358778625,-3.183206106870229
5295975151884,3.616362915,3,-0.1927332336425781,-0.5662286926269531,-8.951920007324219,-4.366412213740458,-0.2900763358778626,-3.114503816793893
5295982523082,3.623734113,3,-0.21906945190429686,-0.5781997009277343,-8.94473740234375,-4.442748091603053,-0.37404580152671757,-3.122137404580153
5295989839488,3.631050519,3,-0.2214636535644531,-0.5722141967773438,-8.978256225585938,-4.3893129770992365,-0.2900763358778626,-3.114503816793893
5295997216832,3.638427863,3,-0.2059013427734375,-0.5853823059082031,-8.896853369140624,-4.374045801526718,-0.3435114503816794,-3.2061068702290076
5296004589124,3.645800155,3,-0.1879448303222656,-0.6057330200195312,-8.948328704833983,-4.3893129770992365,-0.25190839694656486,-3.1297709923664123
5296012904696,3.654115727,3,-0.17238251953125,-0.5590460876464843,-8.912415679931641,-4.427480916030534,-0.33587786259541985,-3.16793893129771
5296020443707,3.661654738,3,-0.1927332336425781,-0.5183446594238281,-8.932766394042968,-4.511450381679389,-0.3435114503816794,-3.1374045801526718
5296027840009,3.66905104,3,-0.24181436767578124,-0.5291185668945312,-9.018957653808593,-4.5038167938931295,-0.2900763358778626,-3.2442748091603053
5296035282040,3.676493071,3,-0.2549824768066406,-0.5363011718749999,-8.828618621826172,-4.374045801526718,-0.2900763358778626,-3.2213740458015265
5296042792717,3.684003748,3,-0.20709844360351562,-0.5602431884765625,-8.987833032226561,-4.374045801526718,-0.2824427480916031,-3.068702290076336
5296050258394,3.691469425,3,-0.1975216369628906,-0.5279214660644531,-8.872911352539061,-4.396946564885496,-0.2595419847328244,-3.2290076335877864
5296057796676,3.699007707,3,-0.20470424194335937,-0.5494692810058593,-8.955511309814453,-4.488549618320611,-0.2595419847328244,-3.1374045801526718
5296065243707,3.706454738,3,-0.21787235107421873,-0.5351040710449219,-8.920795385742187,-4.450381679389313,-0.183206106870229,-3.1526717557251906
5296072840790,3.714051821,3,-0.2154781494140625,-0.5339069702148437,-8.883685260009765,-4.427480916030534,-0.3511450381679389,-3.145038167938931
5296080252873,3.721463904,3,-0.17956512451171874,-0.5506663818359374,-8.979453326416015,-4.442748091603053,-0.2748091603053435,-3.145038167938931
5296087637873,3.728848904,3,-0.21068974609375,-0.5494692810058593,-8.935160595703124,-4.473282442748092,-0.22137404580152673,-3.16793893129771
5296095402457,3.736613488,3,-0.12808978881835936,-0.5781997009277343,-8.945934503173827,-4.427480916030534,-0.25190839694656486,-3.1297709923664123
5296103375790,3.744586821,3,-0.1879448303222656,-0.507570751953125,-9.04050546875,-4.343511450381679,-0.24427480916030533,-3.1908396946564888
5296111063811,3.752274842,3,-0.17597382202148437,-0.5195417602539062,-8.953117108154297,-4.450381679389313,-0.3282442748091603,-3.0839694656488548
5296118703342,3.759914373,3,-0.14125789794921875,-0.5626373901367188,-8.913612780761719,-4.427480916030534,-0.2748091603053435,-3.1297709923664123
5296126095217,3.767306248,3,-0.19393033447265623,-0.5351040710449219,-9.0021982421875,-4.465648854961832,-0.24427480916030533,-3.1755725190839694
5296133616832,3.774827863,3,-0.2059013427734375,-0.5051765502929687,-8.871714251708983,-4.442748091603053,-0.21374045801526717,-3.145038167938931
5296141049696,3.782260727,3,-0.2262520568847656,-0.5817910034179687,-8.963891015625,-4.3893129770992365,-0.35877862595419846,-3.213740458015267
5296148439176,3.789650207,3,-0.21787235107421873,-0.5877765075683593,-8.933963494873046,-4.488549618320611,-0.2900763358778626,-3.1526717557251906
5296155972561,3.797183592,3,-0.2262520568847656,-0.5662286926269531,-8.930372192382812,-4.5038167938931295,-0.2366412213740458,-3.183206106870229
5296163400634,3.804611665,3,-0.22266075439453123,-0.4991910461425781,-8.989030133056641,-4.419847328244275,-0.2595419847328244,-3.1297709923664123
5296170796155,3.812007186,3,-0.18914193115234373,-0.5542576843261718,-8.898050469970702,-4.427480916030534,-0.3282442748091603,-3.1603053435114505
5296178393030,3.819604061,3,-0.2693476867675781,-0.5434837768554687,-8.959102612304687,-4.435114503816794,-0.3053435114503817,-3.1068702290076335
5296185784123,3.826995154,3,-0.22385785522460935,-0.5351040710449219,-8.908824377441405,-4.366412213740458,-0.3053435114503817,-3.0763358778625953
5296193287978,3.834499009,3,-0.18914193115234373,-0.5434837768554687,-8.927977990722656,-4.396946564885496,-0.3435114503816794,-3.16793893129771
5296200670634,3.841881665,3,-0.24061726684570311,-0.5339069702148437,-8.949525805664061,-4.458015267175573,-0.2900763358778626,-3.0839694656488548
5296208264019,3.84947505,3,-0.20470424194335937,-0.5374982727050781,-8.917204083251953,-4.549618320610687,-0.3893129770992366,-3.1526717557251906
5296215670738,3.856881769,3,-0.18914193115234373,-0.4991910461425781,-8.953117108154297,-4.412213740458015,-0.35877862595419846,-3.1603053435114505
5296223065530,3.864276561,3,-0.23822306518554687,-0.5255272644042969,-9.003395343017578,-4.366412213740458,-0.16793893129770993,-3.145038167938931
5296230621676,3.871832707,3,-0.20350714111328125,-0.49200844116210934,-9.052476477050782,-4.465648854961832,-0.26717557251908397,-3.16793893129771
5296238058967,3.879269998,3,-0.18315642700195311,-0.5374982727050781,-8.955511309814453,-4.3893129770992365,-0.2748091603053435,-3.1068702290076335
5296245601363,3.886812394,3,-0.18076222534179687,-0.5315127685546874,-8.991424334716797,-4.3893129770992365,-0.26717557251908397,-3.1526717557251906
5296253058811,3.894269842,3,-0.20709844360351562,-0.5123591552734374,-8.949525805664061,-4.480916030534351,-0.3969465648854962,-3.1526717557251906
5296260647248,3.901858279,3,-0.17597382202148437,-0.5506663818359374,-8.92438668823242,-4.488549618320611,-0.2824427480916031,-3.1068702290076335
5296268067717,3.909278748,3,-0.2154781494140625,-0.5770026000976562,-8.910021478271483,-4.427480916030534,-0.2824427480916031,-3.2213740458015265
5296275452665,3.916663696,3,-0.1580173095703125,-0.5590460876464843,-8.926780889892578,-4.480916030534351,-0.3053435114503817,-3.0839694656488548
5296282975842,3.924186873,3,-0.18555062866210936,-0.5446808776855468,-8.980650427246093,-4.3816793893129775,-0.19083969465648856,-3.114503816793893
5296290451050,3.931662081,3,-0.20231004028320312,-0.5793968017578125,-8.959102612304687,-4.419847328244275,-0.20610687022900764,-3.114503816793893
5296297807717,3.939018748,3,-0.2214636535644531,-0.55545478515625,-8.93755479736328,-4.465648854961832,-0.3435114503816794,-3.1603053435114505
5296305232769,3.9464438,3,-0.14963760375976562,-0.5590460876464843,-8.949525805664061,-4.412213740458015,-0.2595419847328244,-3.2061068702290076
5296312619853,3.953830884,3,-0.181959326171875,-0.5626373901367188,-8.999804040527343,-4.3816793893129775,-0.1984732824427481,-3.198473282442748
5296319976780,3.961187811,3,-0.20231004028320312,-0.59376201171875,-8.972270721435546,-4.442748091603053,-0.16793893129770993,-3.1374045801526718
5296327379123,3.968590154,3,-0.21188684692382811,-0.5746083984375,-8.908824377441405,-4.419847328244275,-0.2595419847328244,-3.2519083969465647
5296335029436,3.976240467,3,-0.16280571289062498,-0.5111620544433594,-9.01536635131836,-4.480916030534351,-0.2748091603053435,-3.0610687022900764
5296342479696,3.983690727,3,-0.22385785522460935,-0.5051765502929687,-9.018957653808593,-4.412213740458015,-0.19083969465648856,-3.122137404580153
5296349803759,3.99101479,3,-0.201112939453125,-0.5386953735351562,-8.94473740234375,-4.396946564885496,-0.2900763358778626,-3.0916030534351147
5296357162353,3.998373384,3,-0.2166752502441406,-0.5207388610839844,-8.945934503173827,-4.465648854961832,-0.2595419847328244,-3.1908396946564888
5296364471936,4.005682967,3,-0.1879448303222656,-0.5458779785156249,-8.908824377441405,-4.320610687022901,-0.22900763358778625,-3.16793893129771
5296371787092,4.012998123,3,-0.1867477294921875,-0.5734112976074218,-8.959102612304687,-4.519083969465649,-0.3969465648854962,-3.1603053435114505
5296379138186,4.020349217,3,-0.22864625854492185,-0.5470750793457031,-8.912415679931641,-4.450381679389313,-0.3282442748091603,-3.16793893129771
5296386531936,4.027742967,3,-0.17357962036132812,-0.5710170959472656,-8.904035974121093,-4.396946564885496,-0.22900763358778625,-3.1068702290076335
5296393849332,4.035060363,3,-0.22744915771484372,-0.5458779785156249,-8.95670841064453,-4.442748091603053,-0.35877862595419846,-3.068702290076336
5296401214592,4.042425623,3,-0.22864625854492185,-0.5470750793457031,-8.951920007324219,-4.427480916030534,-0.22900763358778625,-3.1374045801526718
5296408544540,4.049755571,3,-0.2262520568847656,-0.5781997009277343,-8.930372192382812,-4.419847328244275,-0.2900763358778626,-3.1603053435114505
5296415909019,4.05712005,3,-0.18914193115234373,-0.5339069702148437,-9.02135185546875,-4.435114503816794,-0.37404580152671757,-3.1603053435114505
5296423295946,4.064506977,3,-0.22385785522460935,-0.5626373901367188,-8.936357696533202,-4.465648854961832,-0.2748091603053435,-3.1908396946564888
5296430613967,4.071824998,3,-0.1640028137207031,-0.5422866760253906,-8.966285217285156,-4.3893129770992365,-0.24427480916030533,-3.16793893129771
5296437968967,4.079179998,3,-0.18435352783203124,-0.4800374328613281,-8.989030133056641,-4.351145038167939,-0.37404580152671757,-3.198473282442748
5296445233446,4.086444477,3,-0.22864625854492185,-0.5578489868164063,-8.959102612304687,-4.396946564885496,-0.19083969465648856,-3.0839694656488548
5296452577300,4.093788331,3,-0.20709844360351562,-0.5506663818359374,-8.895656268310546,-4.396946564885496,-0.2366412213740458,-3.1603053435114505
5296459863186,4.101074217,3,-0.17836802368164062,-0.5853823059082031,-8.923189587402343,-4.3816793893129775,-0.19083969465648856,-3.1374045801526718
5296467278915,4.108489946,3,-0.23822306518554687,-0.5722141967773438,-8.951920007324219,-4.458015267175573,-0.35877862595419846,-3.1603053435114505
5296474732405,4.115943436,3,-0.19991583862304688,-0.5566518859863281,-8.947131604003905,-4.396946564885496,-0.3282442748091603,-3.213740458015267
5296482065269,4.1232763,3,-0.17118541870117188,-0.5470750793457031,-8.948328704833983,-4.412213740458015,-0.22900763358778625,-3.1908396946564888
5296489418863,4.130629894,3,-0.18914193115234373,-0.5410895751953124,-8.960299713134765,-4.442748091603053,-0.3435114503816794,-3.183206106870229
5296496765842,4.137976873,3,-0.19871873779296872,-0.5506663818359374,-8.864531646728516,-4.465648854961832,-0.3053435114503817,-3.1755725190839694
5296504091259,4.14530229,3,-0.17238251953125,-0.5458779785156249,-8.890867864990234,-4.435114503816794,-0.19083969465648856,-3.213740458015267
5296511528498,4.152739529,3,-0.17477672119140625,-0.5351040710449219,-8.978256225585938,-4.442748091603053,-0.3053435114503817,-3.053435114503817
5296518897613,4.160108644,3,-0.23343466186523437,-0.5207388610839844,-8.990227233886719,-4.435114503816794,-0.3053435114503817,-3.1603053435114505
5296526225061,4.167436092,3,-0.16879121704101563,-0.5279214660644531,-8.92438668823242,-4.404580152671755,-0.26717557251908397,-3.213740458015267
5296533632405,4.174843436,3,-0.21428104858398436,-0.5147533569335937,-8.950722906494141,-4.435114503816794,-0.35877862595419846,-3.183206106870229
5296541054384,4.182265415,3,-0.20350714111328125,-0.5542576843261718,-8.960299713134765,-4.404580152671755,-0.25190839694656486,-3.1908396946564888
5296548444436,4.189655467,3,-0.21787235107421873,-0.5243301635742187,-8.926780889892578,-4.435114503816794,-0.29770992366412213,-3.1908396946564888
5296555757196,4.196968227,3,-0.201112939453125,-0.51714755859375,-8.979453326416015,-4.427480916030534,-0.3435114503816794,-3.236641221374046
5296563100790,4.204311821,3,-0.21068974609375,-0.6009446166992187,-8.933963494873046,-4.3816793893129775,-0.2748091603053435,-3.1526717557251906
5296570449540,4.211660571,3,-0.18555062866210936,-0.5267243652343749,-8.941146099853515,-4.374045801526718,-0.29770992366412213,-3.2061068702290076
5296577789019,4.21900005,3,-0.22026655273437498,-0.5434837768554687,-8.984241729736327,-4.419847328244275,-0.4198473282442748,-3.198473282442748
5296585107300,4.226318331,3,-0.20709844360351562,-0.5207388610839844,-8.961496813964843,-4.488549618320611,-0.2595419847328244,-3.145038167938931
5296592480217,4.233691248,3,-0.19033903198242186,-0.5219359619140624,-8.953117108154297,-4.458015267175573,-0.2900763358778626,-3.0916030534351147
5296599848759,4.24105979,3,-0.2166752502441406,-0.49799394531249996,-8.901641772460938,-4.435114503816794,-0.26717557251908397,-3.1297709923664123
5296607185634,4.248396665,3,-0.22026655273437498,-0.5159504577636719,-8.953117108154297,-4.404580152671755,-0.2595419847328244,-3.1374045801526718
5296614548498,4.255759529,3,-0.1975216369628906,-0.5398924743652344,-8.831012823486327,-4.473282442748092,-0.3435114503816794,-3.145038167938931
5296621868342,4.263079373,3,-0.2059013427734375,-0.5339069702148437,-8.926780889892578,-4.404580152671755,-0.21374045801526717,-3.114503816793893
5296629214227,4.270425258,3,-0.22266075439453123,-0.5626373901367188,-8.914809881591797,-4.442748091603053,-0.3816793893129771,-3.1297709923664123
5296636519644,4.277730675,3,-0.17238251953125,-0.5410895751953124,-8.914809881591797,-4.419847328244275,-0.33587786259541985,-3.1068702290076335
5296643977613,4.285188644,3,-0.22505495605468748,-0.5195417602539062,-8.89326206665039,-4.450381679389313,-0.33587786259541985,-3.2061068702290076
5296651330634,4.292541665,3,-0.18914193115234373,-0.5255272644042969,-8.9255837890625,-4.396946564885496,-0.37404580152671757,-3.183206106870229
5296658718915,4.299929946,3,-0.19871873779296872,-0.5386953735351562,-8.98304462890625,-4.427480916030534,-0.3816793893129771,-3.1374045801526718
5296665983967,4.307194998,3,-0.19871873779296872,-0.5003881469726562,-8.959102612304687,-4.465648854961832,-0.2748091603053435,-3.1908396946564888
5296673285165,4.314496196,3,-0.19153613281249998,-0.5327098693847656,-9.012972149658202,-4.3893129770992365,-0.3282442748091603,-3.114503816793893
5296680652405,4.321863436,3,-0.1592144104003906,-0.5386953735351562,-8.91840118408203,-4.419847328244275,-0.33587786259541985,-3.122137404580153
5296687937561,4.329148592,3,-0.17118541870117188,-0.5877765075683593,-9.004592443847656,-4.442748091603053,-0.25190839694656486,-3.183206106870229
5296695295477,4.336506508,3,-0.2166752502441406,-0.5374982727050781,-8.932766394042968,-4.3816793893129775,-0.4122137404580153,-3.1603053435114505
5296702570998,4.343782029,3,-0.21188684692382811,-0.5386953735351562,-8.912415679931641,-4.412213740458015,-0.29770992366412213,-3.1297709923664123
5296709971363,4.351182394,3,-0.17597382202148437,-0.5087678527832031,-8.941146099853515,-4.450381679389313,-0.2748091603053435,-3.1755725190839694
5296717331102,4.358542133,3,-0.1927332336425781,-0.5147533569335937,-9.02733735961914,-4.412213740458015,-0.37404580152671757,-3.099236641221374
5296724695790,4.365906821,3,-0.1879448303222656,-0.5458779785156249,-8.996212738037109,-4.358778625954199,-0.19083969465648856,-3.1755725190839694
5296732088863,4.373299894,3,-0.2346317626953125,-0.5542576843261718,-8.99501563720703,-4.442748091603053,-0.1984732824427481,-3.0839694656488548
5296739411832,4.380622863,3,-0.20470424194335937,-0.5602431884765625,-8.935160595703124,-4.366412213740458,-0.3893129770992366,-3.099236641221374
5296746742144,4.387953175,3,-0.2214636535644531,-0.49200844116210934,-8.9255837890625,-4.396946564885496,-0.2595419847328244,-3.2061068702290076
5296754055113,4.395266144,3,-0.2154781494140625,-0.5590460876464843,-8.96269391479492,-4.320610687022901,-0.40458015267175573,-3.0610687022900764
5296761416102,4.402627133,3,-0.21308394775390624,-0.5470750793457031,-8.963891015625,-4.404580152671755,-0.21374045801526717,-3.0763358778625953
5296768775946,4.409986977,3,-0.201112939453125,-0.5327098693847656,-8.986635931396483,-4.458015267175573,-0.366412213740458,-3.1908396946564888
5296776114592,4.417325623,3,-0.2442085693359375,-0.5123591552734374,-8.929175091552734,-4.435114503816794,-0.4122137404580153,-3.1603053435114505
5296783462509,4.42467354,3,-0.18315642700195311,-0.5207388610839844,-8.914809881591797,-4.4961832061068705,-0.20610687022900764,-3.099236641221374
5296790769957,4.431980988,3,-0.19632453613281248,-0.5494692810058593,-8.981847528076171,-4.465648854961832,-0.26717557251908397,-3.099236641221374
5296798148759,4.43935979,3,-0.20949264526367187,-0.55545478515625,-8.93875189819336,-4.526717557251908,-0.35877862595419846,-3.1526717557251906
5296805467821,4.446678852,3,-0.22864625854492185,-0.5243301635742187,-8.933963494873046,-4.427480916030534,-0.3282442748091603,-3.1526717557251906
5296812861675,4.454072706,3,-0.181959326171875,-0.5817910034179687,-8.992621435546875,-4.450381679389313,-0.37404580152671757,-3.1908396946564888
5296820254957,4.461465988,3,-0.18555062866210936,-0.5063736511230469,-8.93755479736328,-4.358778625954199,-0.2824427480916031,-3.099236641221374
5296827591415,4.468802446,3,-0.16639701538085935,-0.5267243652343749,-8.933963494873046,-4.374045801526718,-0.25190839694656486,-3.122137404580153
5296834964800,4.476175831,3,-0.22266075439453123,-0.5482721801757812,-8.96269391479492,-4.3816793893129775,-0.3969465648854962,-3.1755725190839694
5296842523707,4.483734738,3,-0.23223756103515625,-0.5327098693847656,-9.016563452148437,-4.442748091603053,-0.33587786259541985,-3.2290076335877864
5296849850061,4.491061092,3,-0.19991583862304688,-0.5386953735351562,-8.984241729736327,-4.3893129770992365,-0.2595419847328244,-3.1297709923664123
5296857138290,4.498349321,3,-0.21068974609375,-0.5027823486328125,-8.96987651977539,-4.404580152671755,-0.3282442748091603,-3.1526717557251906
5296864462821,4.505673852,3,-0.1484405029296875,-0.5746083984375,-8.935160595703124,-4.3893129770992365,-0.24427480916030533,-3.0839694656488548
5296871794175,4.513005206,3,-0.23223756103515625,-0.5458779785156249,-8.963891015625,-4.343511450381679,-0.29770992366412213,-3.198473282442748
5296879138290,4.520349321,3,-0.2693476867675781,-0.5339069702148437,-8.998606939697265,-4.450381679389313,-0.3282442748091603,-3.114503816793893
5296886480894,4.527691925,3,-0.19512743530273435,-0.5506663818359374,-8.972270721435546,-4.465648854961832,-0.2366412213740458,-3.1068702290076335
5296893809071,4.535020102,3,-0.19033903198242186,-0.5458779785156249,-8.968679418945312,-4.412213740458015,-0.3969465648854962,-3.145038167938931
5296901255061,4.542466092,3,-0.23822306518554687,-0.5542576843261718,-9.00100114135742,-4.450381679389313,-0.25190839694656486,-3.1755725190839694
5296908663394,4.549874425,3,-0.201112939453125,-0.5303156677246094,-8.890867864990234,-4.412213740458015,-0.3053435114503817,-3.1374045801526718
5296916050998,4.557262029,3,-0.22266075439453123,-0.5805939025878906,-8.966285217285156,-4.435114503816794,-0.3969465648854962,-3.1603053435114505
5296923389071,4.564600102,3,-0.21188684692382811,-0.5374982727050781,-8.979453326416015,-4.427480916030534,-0.29770992366412213,-3.183206106870229
5296930702873,4.571913904,3,-0.24061726684570311,-0.5410895751953124,-8.999804040527343,-4.396946564885496,-0.3435114503816794,-3.2061068702290076
5296938002404,4.579213435,3,-0.19393033447265623,-0.5135562561035156,-8.953117108154297,-4.404580152671755,-0.366412213740458,-3.1908396946564888
5296945482092,4.586693123,3,-0.20470424194335937,-0.5159504577636719,-8.973467822265624,-4.442748091603053,-0.2824427480916031,-3.2213740458015265
5296952856675,4.594067706,3,-0.19033903198242186,-0.5614402893066406,-8.98304462890625,-4.4961832061068705,-0.3053435114503817,-3.122137404580153
5296960123290,4.601334321,3,-0.2059013427734375,-0.5363011718749999,-9.02135185546875,-4.427480916030534,-0.29770992366412213,-3.198473282442748
5296967478446,4.608689477,3,-0.18555062866210936,-0.5303156677246094,-8.949525805664061,-4.419847328244275,-0.2748091603053435,-3.1908396946564888
5296974793863,4.616004894,3,-0.20709844360351562,-0.5494692810058593,-8.96269391479492,-4.450381679389313,-0.3969465648854962,-3.183206106870229
5296982172977,4.623384008,3,-0.2214636535644531,-0.5267243652343749,-9.009380847167968,-4.450381679389313,-0.3511450381679389,-3.183206106870229
5296989494227,4.630705258,3,-0.16998831787109375,-0.5470750793457031,-8.914809881591797,-4.442748091603053,-0.2824427480916031,-3.1068702290076335
5296996848290,4.638059321,3,-0.181959326171875,-0.5374982727050781,-8.932766394042968,-4.465648854961832,-0.3893129770992366,-3.236641221374046
5297004167092,4.645378123,3,-0.22385785522460935,-0.5470750793457031,-8.941146099853515,-4.3893129770992365,-0.24427480916030533,-3.1068702290076335
5297011497509,4.65270854,3,-0.2346317626953125,-0.5434837768554687,-8.908824377441405,-4.3893129770992365,-0.26717557251908397,-3.1755725190839694
5297018821206,4.660032237,3,-0.20231004028320312,-0.5363011718749999,-8.999804040527343,-4.351145038167939,-0.3282442748091603,-3.1297709923664123
5297026199488,4.667410519,3,-0.24061726684570311,-0.5913678100585937,-8.954314208984375,-4.450381679389313,-0.22137404580152673,-3.1374045801526718
5297033609956,4.674820987,3,-0.18914193115234373,-0.5386953735351562,-8.93875189819336,-4.358778625954199,-0.2824427480916031,-3.183206106870229
5297041029592,4.682240623,3,-0.21906945190429686,-0.5303156677246094,-8.947131604003905,-4.419847328244275,-0.24427480916030533,-3.145038167938931
5297048377092,4.689588123,3,-0.2154781494140625,-0.5386953735351562,-8.90643017578125,-4.435114503816794,-0.2824427480916031,-3.122137404580153
5297055696519,4.69690755,3,-0.2154781494140625,-0.5578489868164063,-8.939948999023438,-4.480916030534351,-0.32061068702290074,-3.16793893129771
5297063059019,4.70427005,3,-0.24779987182617186,-0.5446808776855468,-8.942343200683593,-4.458015267175573,-0.2824427480916031,-3.183206106870229
5297070433863,4.711644894,3,-0.19512743530273435,-0.5530605834960938,-8.957905511474609,-4.427480916030534,-0.33587786259541985,-3.183206106870229
5297077806988,4.719018019,3,-0.25258827514648435,-0.488417138671875,-8.894459167480468,-4.358778625954199,-0.3053435114503817,-3.1603053435114505
5297085201467,4.726412498,3,-0.2154781494140625,-0.4740519287109375,-8.947131604003905,-4.419847328244275,-0.2824427480916031,-3.1603053435114505
5297092548863,4.733759894,3,-0.17836802368164062,-0.5770026000976562,-8.968679418945312,-4.435114503816794,-0.3053435114503817,-3.145038167938931
5297099880165,4.741091196,3,-0.22744915771484372,-0.5099649536132812,-8.930372192382812,-4.358778625954199,-0.366412213740458,-3.1526717557251906
5297107278498,4.748489529,3,-0.16639701538085935,-0.5770026000976562,-8.966285217285156,-4.396946564885496,-0.25190839694656486,-3.1908396946564888
5297114603811,4.755814842,3,-0.23223756103515625,-0.5398924743652344,-8.96987651977539,-4.412213740458015,-0.2595419847328244,-3.2290076335877864
5297121984592,4.763195623,3,-0.20350714111328125,-0.5710170959472656,-8.916006982421875,-4.366412213740458,-0.16793893129770993,-3.16793893129771
5297129362248,4.770573279,3,-0.2166752502441406,-0.4991910461425781,-8.921992486572265,-4.404580152671755,-0.31297709923664124,-3.1603053435114505
5297136772821,4.777983852,3,-0.20949264526367187,-0.5710170959472656,-8.871714251708983,-4.458015267175573,-0.31297709923664124,-3.122137404580153
5297144168029,4.78537906,3,-0.20231004028320312,-0.5422866760253906,-8.93156929321289,-4.358778625954199,-0.3282442748091603,-3.114503816793893
5297151499175,4.792710206,3,-0.2454056701660156,-0.55545478515625,-8.892064965820312,-4.442748091603053,-0.3435114503816794,-3.1374045801526718
5297158814592,4.800025623,3,-0.20231004028320312,-0.5410895751953124,-8.914809881591797,-4.427480916030534,-0.33587786259541985,-3.0916030534351147
5297166195217,4.807406248,3,-0.23582886352539062,-0.5207388610839844,-9.045293872070312,-4.374045801526718,-0.2900763358778626,-3.2061068702290076
5297173542248,4.814753279,3,-0.19871873779296872,-0.5686228942871093,-8.974664923095702,-4.366412213740458,-0.2748091603053435,-3.122137404580153
5297180880373,4.822091404,3,-0.1640028137207031,-0.5422866760253906,-8.871714251708983,-4.511450381679389,-0.2595419847328244,-3.068702290076336
5297188148446,4.829359477,3,-0.239420166015625,-0.5327098693847656,-8.97705912475586,-4.396946564885496,-0.29770992366412213,-3.145038167938931
5297195464956,4.836675987,3,-0.17956512451171874,-0.5207388610839844,-8.96987651977539,-4.488549618320611,-0.22900763358778625,-3.0229007633587788
5297202797977,4.844009008,3,-0.23822306518554687,-0.5363011718749999,-8.975862023925782,-4.458015267175573,-0.3053435114503817,-3.1755725190839694
5297210144488,4.851355519,3,-0.21787235107421873,-0.5638344909667968,-8.913612780761719,-4.366412213740458,-0.35877862595419846,-3.099236641221374
5297217496415,4.858707446,3,-0.23702596435546874,-0.5351040710449219,-8.91840118408203,-4.412213740458015,-0.29770992366412213,-3.1526717557251906
5297224866831,4.866077862,3,-0.18555062866210936,-0.5410895751953124,-8.98304462890625,-4.488549618320611,-0.22900763358778625,-3.099236641221374
5297232258863,4.873469894,3,-0.1867477294921875,-0.5542576843261718,-8.898050469970702,-4.3893129770992365,-0.2900763358778626,-3.16793893129771
5297239590842,4.880801873,3,-0.24181436767578124,-0.5303156677246094,-8.933963494873046,-4.374045801526718,-0.2900763358778626,-3.1755725190839694
5297246976154,4.888187185,3,-0.201112939453125,-0.5279214660644531,-8.957905511474609,-4.3816793893129775,-0.2900763358778626,-3.145038167938931
5297254358915,4.895569946,3,-0.181959326171875,-0.5195417602539062,-8.957905511474609,-4.396946564885496,-0.3282442748091603,-3.1603053435114505
5297261700633,4.902911664,3,-0.2346317626953125,-0.5422866760253906,-8.939948999023438,-4.3816793893129775,-0.40458015267175573,-3.122137404580153
5297269030061,4.910241092,3,-0.20949264526367187,-0.5267243652343749,-8.98304462890625,-4.351145038167939,-0.2748091603053435,-3.122137404580153
5297276372873,4.917583904,3,-0.17477672119140625,-0.5746083984375,-8.99501563720703,-4.351145038167939,-0.42748091603053434,-3.2061068702290076
5297283716258,4.924927289,3,-0.15442600708007811,-0.5303156677246094,-8.990227233886719,-4.419847328244275,-0.2900763358778626,-3.1526717557251906
5297291088238,4.932299269,3,-0.201112939453125,-0.5327098693847656,-8.96987651977539,-4.473282442748092,-0.366412213740458,-3.183206106870229
5297298456154,4.939667185,3,-0.18555062866210936,-0.5363011718749999,-8.935160595703124,-4.473282442748092,-0.32061068702290074,-3.1526717557251906
5297305773238,4.946984269,3,-0.21188684692382811,-0.55545478515625,-8.973467822265624,-4.473282442748092,-0.29770992366412213,-3.236641221374046
5297313101779,4.95431281,3,-0.24061726684570311,-0.5542576843261718,-8.984241729736327,-4.458015267175573,-0.2824427480916031,-3.1374045801526718
5297320537508,4.961748539,3,-0.2166752502441406,-0.5530605834960938,-8.890867864990234,-4.358778625954199,-0.29770992366412213,-3.1526717557251906
5297327881779,4.96909281,3,-0.22744915771484372,-0.5410895751953124,-8.929175091552734,-4.419847328244275,-0.2748091603053435,-3.114503816793893
5297335324748,4.976535779,3,-0.2214636535644531,-0.5123591552734374,-8.961496813964843,-4.458015267175573,-0.3893129770992366,-3.1908396946564888
5297342786988,4.983998019,3,-0.24061726684570311,-0.55545478515625,-9.018957653808593,-4.3893129770992365,-0.33587786259541985,-3.183206106870229
5297350331727,4.991542758,3,-0.21787235107421873,-0.49799394531249996,-8.959102612304687,-4.450381679389313,-0.32061068702290074,-3.16793893129771
5297357700425,4.998911456,3,-0.21068974609375,-0.51714755859375,-8.942343200683593,-4.412213740458015,-0.3816793893129771,-3.145038167938931
5297365040373,5.006251404,3,-0.16998831787109375,-0.5351040710449219,-8.920795385742187,-4.5038167938931295,-0.2900763358778626,-3.099236641221374
5297372453290,5.013664321,3,-0.21308394775390624,-0.5183446594238281,-8.935160595703124,-4.435114503816794,-0.4122137404580153,-3.1374045801526718
5297379815946,5.021026977,3,-0.16041151123046873,-0.5027823486328125,-8.965088116455078,-4.404580152671755,-0.3435114503816794,-3.2213740458015265
5297387215581,5.028426612,3,-0.17477672119140625,-0.5530605834960938,-8.998606939697265,-4.450381679389313,-0.37404580152671757,-3.1603053435114505
5297394569696,5.035780727,3,-0.20829554443359374,-0.5339069702148437,-8.911218579101561,-4.465648854961832,-0.4122137404580153,-3.1908396946564888
5297401998863,5.043209894,3,-0.20350714111328125,-0.5434837768554687,-8.926780889892578,-4.412213740458015,-0.3053435114503817,-3.1297709923664123
5297409402404,5.050613435,3,-0.23343466186523437,-0.5183446594238281,-9.003395343017578,-4.412213740458015,-0.2595419847328244,-3.122137404580153
5297416785008,5.057996039,3,-0.24899697265624998,-0.5315127685546874,-8.936357696533202,-4.351145038167939,-0.3969465648854962,-3.267175572519084
5297424126415,5.065337446,3,-0.14963760375976562,-0.6069301208496093,-8.93755479736328,-4.3816793893129775,-0.31297709923664124,-3.1755725190839694
5297431482821,5.072693852,3,-0.25258827514648435,-0.55545478515625,-8.985438830566405,-4.412213740458015,-0.4351145038167939,-3.213740458015267
5297438855842,5.080066873,3,-0.181959326171875,-0.5027823486328125,-8.955511309814453,-4.442748091603053,-0.3053435114503817,-3.1374045801526718
5297446243498,5.087454529,3,-0.19153613281249998,-0.5183446594238281,-8.965088116455078,-4.450381679389313,-0.25190839694656486,-3.099236641221374
5297453623081,5.094834112,3,-0.17118541870117188,-0.5195417602539062,-8.960299713134765,-4.450381679389313,-0.366412213740458,-3.2061068702290076
5297461028602,5.102239633,3,-0.23104046020507812,-0.5207388610839844,-8.86213744506836,-4.358778625954199,-0.24427480916030533,-3.2061068702290076
5297468334800,5.109545831,3,-0.2442085693359375,-0.5195417602539062,-8.963891015625,-4.5038167938931295,-0.2900763358778626,-3.183206106870229
5297475673342,5.116884373,3,-0.18555062866210936,-0.5638344909667968,-9.018957653808593,-4.473282442748092,-0.37404580152671757,-3.1755725190839694
5297483000165,5.124211196,3,-0.23822306518554687,-0.5183446594238281,-8.993818536376953,-4.488549618320611,-0.2595419847328244,-3.2213740458015265
5297490344592,5.131555623,3,-0.2059013427734375,-0.5303156677246094,-8.943540301513671,-4.351145038167939,-0.2748091603053435,-3.1374045801526718
5297497681519,5.13889255,3,-0.22026655273437498,-0.5183446594238281,-8.960299713134765,-4.32824427480916,-0.22900763358778625,-3.183206106870229
5297505038863,5.146249894,3,-0.1771709228515625,-0.5027823486328125,-8.929175091552734,-4.427480916030534,-0.1984732824427481,-3.145038167938931
5297512405738,5.153616769,3,-0.23822306518554687,-0.5135562561035156,-8.951920007324219,-4.511450381679389,-0.3816793893129771,-3.1526717557251906
5297519740425,5.160951456,3,-0.21308394775390624,-0.5494692810058593,-8.90044467163086,-4.557251908396947,-0.3282442748091603,-3.16793893129771
5297527113446,5.168324477,3,-0.2166752502441406,-0.5542576843261718,-8.912415679931641,-4.374045801526718,-0.2824427480916031,-3.1526717557251906
5297534500529,5.17571156,3,-0.21188684692382811,-0.5530605834960938,-8.82263311767578,-4.427480916030534,-0.3893129770992366,-3.1297709923664123
5297541826675,5.183037706,3,-0.1879448303222656,-0.5638344909667968,-8.947131604003905,-4.412213740458015,-0.20610687022900764,-3.183206106870229
5297549249383,5.190460414,3,-0.1879448303222656,-0.565031591796875,-8.908824377441405,-4.435114503816794,-0.24427480916030533,-3.16793893129771
5297556635737,5.197846768,3,-0.201112939453125,-0.5602431884765625,-8.95670841064453,-4.3893129770992365,-0.33587786259541985,-3.1603053435114505
5297563969487,5.205180518,3,-0.24061726684570311,-0.5494692810058593,-9.011775048828124,-4.427480916030534,-0.20610687022900764,-3.099236641221374
5297571335373,5.212546404,3,-0.239420166015625,-0.5267243652343749,-8.93875189819336,-4.519083969465649,-0.33587786259541985,-3.2061068702290076
5297578658342,5.219869373,3,-0.17956512451171874,-0.5231330627441406,-8.911218579101561,-4.419847328244275,-0.3435114503816794,-3.2061068702290076
5297585990217,5.227201248,3,-0.17357962036132812,-0.5231330627441406,-8.955511309814453,-4.427480916030534,-0.22900763358778625,-3.1374045801526718
5297593316050,5.234527081,3,-0.24899697265624998,-0.5626373901367188,-8.921992486572265,-4.435114503816794,-0.3435114503816794,-3.1068702290076335
5297600681362,5.241892393,3,-0.21188684692382811,-0.5123591552734374,-8.941146099853515,-4.396946564885496,-0.2900763358778626,-3.1603053435114505
5297608272040,5.249483071,3,-0.21188684692382811,-0.5147533569335937,-8.85495484008789,-4.3816793893129775,-0.37404580152671757,-3.1374045801526718
5297615657977,5.256869008,3,-0.21068974609375,-0.5997475158691405,-8.86812294921875,-4.519083969465649,-0.3816793893129771,-3.1755725190839694
5297623005946,5.264216977,3,-0.19632453613281248,-0.5315127685546874,-8.953117108154297,-4.358778625954199,-0.20610687022900764,-3.122137404580153
5297630378654,5.271589685,3,-0.2214636535644531,-0.5901707092285156,-8.913612780761719,-4.351145038167939,-0.3053435114503817,-3.1526717557251906
5297637788029,5.27899906,3,-0.21428104858398436,-0.5674257934570313,-8.972270721435546,-4.396946564885496,-0.26717557251908397,-3.1526717557251906
5297645201571,5.286412602,3,-0.1879448303222656,-0.5374982727050781,-8.904035974121093,-4.32824427480916,-0.20610687022900764,-3.16793893129771
5297652551727,5.293762758,3,-0.20829554443359374,-0.5781997009277343,-8.979453326416015,-4.358778625954199,-0.3282442748091603,-3.122137404580153
5297660247821,5.301458852,3,-0.18914193115234373,-0.5494692810058593,-8.901641772460938,-4.396946564885496,-0.2748091603053435,-3.1297709923664123
5297667898081,5.309109112,3,-0.1975216369628906,-0.5327098693847656,-8.951920007324219,-4.366412213740458,-0.3282442748091603,-3.2061068702290076
5297675309904,5.316520935,3,-0.2645592834472656,-0.5422866760253906,-8.941146099853515,-4.412213740458015,-0.3816793893129771,-3.068702290076336
5297682630373,5.323841404,3,-0.20709844360351562,-0.5386953735351562,-8.898050469970702,-4.412213740458015,-0.29770992366412213,-3.16793893129771
5297689978654,5.331189685,3,-0.229843359375,-0.5698199951171875,-8.93156929321289,-4.442748091603053,-0.32061068702290074,-3.2290076335877864
5297697295790,5.338506821,3,-0.22385785522460935,-0.5542576843261718,-8.91840118408203,-4.3893129770992365,-0.3969465648854962,-3.1297709923664123
5297704669175,5.345880206,3,-0.24061726684570311,-0.49679684448242184,-8.985438830566405,-4.442748091603053,-0.24427480916030533,-3.145038167938931
5297712062352,5.353273383,3,-0.239420166015625,-0.5123591552734374,-8.960299713134765,-4.435114503816794,-0.366412213740458,-3.1908396946564888
5297719431467,5.360642498,3,-0.20949264526367187,-0.5422866760253906,-8.93156929321289,-4.412213740458015,-0.2748091603053435,-3.145038167938931
5297726734956,5.367945987,3,-0.20949264526367187,-0.5363011718749999,-8.913612780761719,-4.374045801526718,-0.25190839694656486,-3.236641221374046
5297734101362,5.375312393,3,-0.12090718383789062,-0.5303156677246094,-8.968679418945312,-4.427480916030534,-0.29770992366412213,-3.1297709923664123
5297741528967,5.382739998,3,-0.15682020874023436,-0.5686228942871093,-8.929175091552734,-4.366412213740458,-0.16793893129770993,-3.1297709923664123
5297748932144,5.390143175,3,-0.18555062866210936,-0.5039794494628906,-8.981847528076171,-4.419847328244275,-0.20610687022900764,-3.1603053435114505
5297756368654,5.397579685,3,-0.20350714111328125,-0.5243301635742187,-8.971073620605468,-4.419847328244275,-0.31297709923664124,-3.213740458015267
5297763703602,5.404914633,3,-0.1975216369628906,-0.5614402893066406,-8.929175091552734,-4.412213740458015,-0.2748091603053435,-3.1374045801526718
5297771043810,5.412254841,3,-0.181959326171875,-0.5351040710449219,-8.973467822265624,-4.412213740458015,-0.45038167938931295,-3.1526717557251906
5297778431467,5.419642498,3,-0.2166752502441406,-0.5829881042480468,-8.870517150878905,-4.312977099236641,-0.2748091603053435,-3.2061068702290076
5297785829748,5.427040779,3,-0.21428104858398436,-0.5374982727050781,-8.948328704833983,-4.427480916030534,-0.26717557251908397,-3.1603053435114505
5297793228289,5.43443932,3,-0.18914193115234373,-0.5183446594238281,-8.898050469970702,-4.526717557251908,-0.366412213740458,-3.1297709923664123
5297800635269,5.4418463,3,-0.17357962036132812,-0.4955997436523437,-8.97705912475586,-4.435114503816794,-0.3053435114503817,-3.1908396946564888
5297807969071,5.449180102,3,-0.19871873779296872,-0.5434837768554687,-8.951920007324219,-4.419847328244275,-0.21374045801526717,-3.122137404580153
5297815343237,5.456554268,3,-0.20350714111328125,-0.4860229370117187,-8.99501563720703,-4.32824427480916,-0.42748091603053434,-3.1374045801526718
5297822731102,5.463942133,3,-0.24301146850585936,-0.51714755859375,-8.898050469970702,-4.419847328244275,-0.21374045801526717,-3.0916030534351147
5297830071883,5.471282914,3,-0.18914193115234373,-0.55545478515625,-8.907627276611327,-4.473282442748092,-0.19083969465648856,-3.1908396946564888
5297837503081,5.478714112,3,-0.2442085693359375,-0.5363011718749999,-8.978256225585938,-4.435114503816794,-0.3893129770992366,-3.1068702290076335
5297844915373,5.486126404,3,-0.201112939453125,-0.5315127685546874,-8.966285217285156,-4.374045801526718,-0.2366412213740458,-3.16793893129771
5297852300842,5.493511873,3,-0.201112939453125,-0.4896142395019531,-8.929175091552734,-4.427480916030534,-0.3435114503816794,-3.1908396946564888
5297859669748,5.500880779,3,-0.20470424194335937,-0.5434837768554687,-8.965088116455078,-4.519083969465649,-0.37404580152671757,-3.068702290076336
5297867010581,5.508221612,3,-0.19033903198242186,-0.5363011718749999,-8.926780889892578,-4.351145038167939,-0.37404580152671757,-3.114503816793893
5297874385112,5.515596143,3,-0.2154781494140625,-0.59376201171875,-9.020154754638671,-4.396946564885496,-0.37404580152671757,-3.1526717557251906
5297881808758,5.523019789,3,-0.23104046020507812,-0.5530605834960938,-8.895656268310546,-4.419847328244275,-0.15267175572519084,-3.145038167938931
5297889208810,5.530419841,3,-0.18555062866210936,-0.5566518859863281,-8.89924757080078,-4.366412213740458,-0.32061068702290074,-3.145038167938931
5297896558498,5.537769529,3,-0.17357962036132812,-0.5602431884765625,-8.993818536376953,-4.419847328244275,-0.366412213740458,-3.122137404580153
5297903903498,5.545114529,3,-0.18555062866210936,-0.5434837768554687,-8.947131604003905,-4.473282442748092,-0.19083969465648856,-3.045801526717557
5297911311206,5.552522237,3,-0.20350714111328125,-0.5363011718749999,-8.965088116455078,-4.450381679389313,-0.3435114503816794,-3.1908396946564888
5297918694539,5.55990557,3,-0.1879448303222656,-0.5662286926269531,-9.044096771240234,-4.396946564885496,-0.2748091603053435,-3.145038167938931
5297926002300,5.567213331,3,-0.201112939453125,-0.5662286926269531,-8.939948999023438,-4.419847328244275,-0.12213740458015267,-3.16793893129771
5297933318446,5.574529477,3,-0.239420166015625,-0.5135562561035156,-8.954314208984375,-4.404580152671755,-0.3282442748091603,-3.1603053435114505
5297940684748,5.581895779,3,-0.21787235107421873,-0.5746083984375,-8.943540301513671,-4.374045801526718,-0.32061068702290074,-3.1526717557251906
5297948077612,5.589288643,3,-0.1580173095703125,-0.5135562561035156,-8.979453326416015,-4.412213740458015,-0.1984732824427481,-3.198473282442748
5297955394123,5.596605154,3,-0.17956512451171874,-0.4848258361816406,-8.96269391479492,-4.465648854961832,-0.35877862595419846,-3.1526717557251906
5297962731831,5.603942862,3,-0.18315642700195311,-0.5015852478027344,-8.960299713134765,-4.32824427480916,-0.2748091603053435,-3.1755725190839694
5297970067664,5.611278695,3,-0.16759411621093748,-0.5339069702148437,-8.989030133056641,-4.351145038167939,-0.20610687022900764,-3.1755725190839694
5297977412092,5.618623123,3,-0.201112939453125,-0.5805939025878906,-8.882488159179687,-4.366412213740458,-0.40458015267175573,-3.1374045801526718
5297984738446,5.625949477,3,-0.16639701538085935,-0.55545478515625,-8.95670841064453,-4.442748091603053,-0.2824427480916031,-3.1374045801526718
5297992083029,5.63329406,3,-0.18914193115234373,-0.5374982727050781,-8.961496813964843,-4.404580152671755,-0.32061068702290074,-3.1374045801526718
5297999455477,5.640666508,3,-0.2214636535644531,-0.51714755859375,-8.973467822265624,-4.412213740458015,-0.29770992366412213,-3.122137404580153
5298006824175,5.648035206,3,-0.19033903198242186,-0.5793968017578125,-8.926780889892578,-4.435114503816794,-0.16793893129770993,-3.145038167938931
5298014115477,5.655326508,3,-0.19512743530273435,-0.5865794067382812,-8.949525805664061,-4.320610687022901,-0.26717557251908397,-3.198473282442748
5298021479956,5.662690987,3,-0.2059013427734375,-0.5662286926269531,-9.009380847167968,-4.412213740458015,-0.2748091603053435,-3.1526717557251906
5298028864123,5.670075154,3,-0.20949264526367187,-0.507570751953125,-8.920795385742187,-4.4961832061068705,-0.32061068702290074,-3.1068702290076335
5298036281779,5.67749281,3,-0.21787235107421873,-0.5734112976074218,-8.935160595703124,-4.442748091603053,-0.366412213740458,-3.114503816793893
5298043646102,5.684857133,3,-0.21906945190429686,-0.5422866760253906,-8.951920007324219,-4.396946564885496,-0.26717557251908397,-3.2748091603053435
5298050981779,5.69219281,3,-0.20231004028320312,-0.5458779785156249,-8.968679418945312,-4.450381679389313,-0.3435114503816794,-3.198473282442748
5298058364435,5.699575466,3,-0.21428104858398436,-0.5614402893066406,-8.877699755859375,-4.427480916030534,-0.3969465648854962,-3.114503816793893
5298065734748,5.706945779,3,-0.20709844360351562,-0.5434837768554687,-8.91840118408203,-4.458015267175573,-0.31297709923664124,-3.236641221374046
5298073148237,5.714359268,3,-0.21906945190429686,-0.5386953735351562,-8.96987651977539,-4.450381679389313,-0.45038167938931295,-3.122137404580153
5298080513862,5.721724893,3,-0.20949264526367187,-0.5386953735351562,-8.91840118408203,-4.458015267175573,-0.4122137404580153,-3.1526717557251906
5298087859644,5.729070675,3,-0.2262520568847656,-0.5374982727050781,-9.006986645507812,-4.427480916030534,-0.22900763358778625,-3.1908396946564888
5298095281831,5.736492862,3,-0.19632453613281248,-0.5267243652343749,-8.910021478271483,-4.3893129770992365,-0.366412213740458,-3.2519083969465647
5298102606727,5.743817758,3,-0.1867477294921875,-0.5698199951171875,-8.971073620605468,-4.351145038167939,-0.2595419847328244,-3.1526717557251906
5298109985321,5.751196352,3,-0.1867477294921875,-0.5446808776855468,-8.933963494873046,-4.351145038167939,-0.20610687022900764,-3.1603053435114505
5298117358341,5.758569372,3,-0.2166752502441406,-0.5063736511230469,-8.96987651977539,-4.358778625954199,-0.33587786259541985,-3.1526717557251906
5298124733966,5.765944997,3,-0.16759411621093748,-0.5853823059082031,-8.953117108154297,-4.3816793893129775,-0.3053435114503817,-3.198473282442748
5298132090060,5.773301091,3,-0.20350714111328125,-0.5470750793457031,-8.93875189819336,-4.3893129770992365,-0.2900763358778626,-3.099236641221374
5298139453810,5.780664841,3,-0.22266075439453123,-0.5566518859863281,-8.929175091552734,-4.473282442748092,-0.2824427480916031,-3.1603053435114505
5298146848081,5.788059112,3,-0.23822306518554687,-0.5746083984375,-8.94473740234375,-4.435114503816794,-0.15267175572519084,-3.1755725190839694
5298154255373,5.795466404,3,-0.201112939453125,-0.5219359619140624,-8.88009395751953,-4.435114503816794,-0.3511450381679389,-3.1526717557251906
5298161815216,5.803026247,3,-0.23822306518554687,-0.5518634826660156,-8.981847528076171,-4.351145038167939,-0.24427480916030533,-3.1297709923664123
5298169247091,5.810458122,3,-0.22744915771484372,-0.5590460876464843,-8.972270721435546,-4.358778625954199,-0.33587786259541985,-3.16793893129771
5298176597612,5.817808643,3,-0.21068974609375,-0.5506663818359374,-8.960299713134765,-4.450381679389313,-0.25190839694656486,-3.16793893129771
5298183946779,5.82515781,3,-0.19512743530273435,-0.5662286926269531,-8.907627276611327,-4.404580152671755,-0.29770992366412213,-3.1603053435114505
5298191299956,5.832510987,3,-0.1879448303222656,-0.5398924743652344,-8.902838873291016,-4.435114503816794,-0.2748091603053435,-3.1526717557251906
5298198649175,5.839860206,3,-0.19512743530273435,-0.5111620544433594,-8.9255837890625,-4.541984732824427,-0.2366412213740458,-3.1068702290076335
5298205989904,5.847200935,3,-0.19153613281249998,-0.5099649536132812,-8.91840118408203,-4.450381679389313,-0.25190839694656486,-3.16793893129771
5298213362300,5.854573331,3,-0.19512743530273435,-0.5111620544433594,-9.029731561279297,-4.465648854961832,-0.2900763358778626,-3.2061068702290076
5298220733914,5.861944945,3,-0.19512743530273435,-0.5482721801757812,-9.009380847167968,-4.473282442748092,-0.2748091603053435,-3.145038167938931
5298228095737,5.869306768,3,-0.17477672119140625,-0.5470750793457031,-8.959102612304687,-4.488549618320611,-0.2824427480916031,-3.1526717557251906
5298235407300,5.876618331,3,-0.25737667846679685,-0.5686228942871093,-8.947131604003905,-4.427480916030534,-0.37404580152671757,-3.1755725190839694
5298242764331,5.883975362,3,-0.19393033447265623,-0.55545478515625,-8.999804040527343,-4.366412213740458,-0.2824427480916031,-3.1755725190839694
5298250194071,5.891405102,3,-0.24779987182617186,-0.5279214660644531,-8.930372192382812,-4.473282442748092,-0.3282442748091603,-3.16793893129771
5298257597248,5.898808279,3,-0.21308394775390624,-0.5195417602539062,-8.991424334716797,-4.442748091603053,-0.3893129770992366,-3.1603053435114505
5298264971571,5.906182602,3,-0.201112939453125,-0.5315127685546874,-8.960299713134765,-4.465648854961832,-0.3282442748091603,-3.1755725190839694
5298272327664,5.913538695,3,-0.16519991455078123,-0.5781997009277343,-8.985438830566405,-4.3893129770992365,-0.2824427480916031,-3.16793893129771
5298279674279,5.92088531,3,-0.18555062866210936,-0.5674257934570313,-8.96269391479492,-4.419847328244275,-0.3816793893129771,-3.1603053435114505
5298287033654,5.928244685,3,-0.23582886352539062,-0.5542576843261718,-8.93875189819336,-4.511450381679389,-0.31297709923664124,-3.1755725190839694
5298294413237,5.935624268,3,-0.18435352783203124,-0.5853823059082031,-8.990227233886719,-4.3893129770992365,-0.3282442748091603,-3.1755725190839694
5298301801466,5.943012497,3,-0.18076222534179687,-0.5207388610839844,-8.895656268310546,-4.458015267175573,-0.29770992366412213,-3.183206106870229
5298309211466,5.950422497,3,-0.22744915771484372,-0.5015852478027344,-8.949525805664061,-4.541984732824427,-0.24427480916030533,-3.0763358778625953
