timestamp_ns,t_s,sensor_id,ax,ay,az
5974182775323,0.057320989,1,-0.5686228942871093,7.398083129882812,8.78432589111328
5974185233552,0.059779218,1,-0.5015852478027344,7.426813549804687,9.498995086669922
5974187730063,0.062275729,1,-0.2454056701660156,7.532158422851562,9.855731134033203
5974190233396,0.064779062,1,-0.22505495605468748,7.626729388427734,10.315417852783202
5974192731261,0.067276927,1,-0.39983167724609375,7.697358337402343,10.599130749511717
5974195229334,0.069775,1,-0.37828386230468747,7.756016278076172,11.004947930908202
5974197728656,0.072274322,1,-0.6859387756347656,7.5525091369628905,11.085153686523437
5974200231938,0.074777604,1,-0.8667010009765624,7.349001995849609,11.106701501464842
5974202728813,0.077274479,1,-0.8918401184082031,7.128735443115234,10.985794317626953
5974205231261,0.079776927,1,-0.9313444458007812,6.894103680419922,10.850521923828124
5974207727615,0.082273281,1,-0.8702923034667969,6.302735870361328,10.557232220458983
5974210228969,0.084774635,1,-0.7362170104980469,6.062118603515625,10.364498986816406
5974212730115,0.087275781,1,-0.6955155822753906,5.84185205078125,10.127473022460936
5974215227771,0.089773437,1,-0.5710170959472656,5.8083332275390624,9.300276348876952
5974217728761,0.092274427,1,-0.430956298828125,5.5820811706542965,8.901641772460938
5974220230167,0.094775833,1,-0.45489831542968745,5.352237811279297,8.54849702758789
5974222728917,0.097274583,1,-0.40462008056640625,5.224148022460938,8.273163836669921
5974225228761,0.099774427,1,-0.40940848388671874,5.073313317871094,7.475894683837891
5974227728031,0.102273697,1,-0.5087678527832031,5.0577510070800775,7.170633972167968
5974230227823,0.104773489,1,-0.5482721801757812,5.029020587158203,6.831854437255859
5974232729334,0.107275,1,-0.5985504150390625,4.944026428222656,6.542156036376952
5974235227667,0.109773333,1,-0.7553706237792969,4.994304663085937,6.111199737548827
5974237727719,0.112273385,1,-0.7685387329101562,5.058948107910156,6.010643267822266
5974240230896,0.114776562,1,-0.8164227661132812,5.143942266845703,5.888538983154296
5974242728709,0.117274375,1,-0.8044517578125,5.333084197998047,5.746083984375
5974245230479,0.119776145,1,-0.8164227661132812,5.5078609191894525,5.820304235839844
5974247727719,0.122273385,1,-0.7852981445312499,5.820304235839844,5.729324572753906
5974250227979,0.124773645,1,-0.719457598876953,6.002263562011718,5.798756420898437
5974252730115,0.127275781,1,-0.6416460449218749,6.196193896484375,5.84185205078125
5974255228448,0.129774114,1,-0.5482721801757812,6.306327172851562,6.048950494384766
5974257727875,0.132273541,1,-0.6189011291503906,6.5780690612792965,6.132747552490234
5974260230584,0.13477625,1,-0.5758054992675781,6.716932757568359,6.327874987792969
5974262727667,0.137273333,1,-0.5925649108886718,6.770802294921874,6.363788012695312
5974265229802,0.139775468,1,-0.5494692810058593,6.834248638916015,6.5026517089843745
5974267727511,0.142273177,1,-0.5901707092285156,6.736086370849609,6.561309649658202
5974270228188,0.144773854,1,-0.5674257934570313,6.676231329345702,6.621164691162109
5974272730115,0.147275781,1,-0.5458779785156249,6.691793640136718,6.659471917724609
5974275228761,0.149774427,1,-0.46208092041015625,6.573280657958984,6.658274816894531
5974277729021,0.152274687,1,-0.39145197143554683,6.3709706176757805,6.6714429260253905
5974280230531,0.154776197,1,-0.2346317626953125,6.266822845458984,6.754042883300781
5974282727615,0.157273281,1,-0.36631285400390623,6.114791040039062,6.8210805297851556
5974285230740,0.159776406,1,-0.5255272644042969,6.121973645019531,6.676231329345702
5974287727771,0.162273437,1,-0.4740519287109375,5.698199951171874,6.641515405273437
5974290227302,0.164772968,1,-0.43933600463867184,5.4899044067382805,6.610390783691406
5974292729594,0.16727526,1,-0.63206923828125,5.348646508789062,6.528987927246093
5974295228084,0.16977375,1,-0.7852981445312499,5.194220501708984,6.4739212890625
5974297727927,0.172273593,1,-0.8307879760742187,4.990713360595703,6.306327172851562
5974300230427,0.174776093,1,-0.8032546569824218,5.10084663696289,6.0908490234374995
5974302727719,0.177273385,1,-0.7625532287597656,5.108029241943359,5.893327386474609
5974305230063,0.179775729,1,-0.8918401184082031,5.1894320983886715,5.6766521362304685
5974307727615,0.182273281,1,-1.0678139404296874,5.05655390625,5.542576843261719
5974310227927,0.184773593,1,-1.064222637939453,5.145139367675781,5.380968231201171
5974312729959,0.187275625,1,-1.301248602294922,5.279214660644531,5.154716174316406
5974315227875,0.189773541,1,-1.3563152404785155,5.341463903808593,5.070919116210937
5974317727979,0.192273645,1,-1.5885528015136718,5.275623358154297,4.993107562255859
5974320230531,0.194776197,1,-1.7573440185546874,5.4707507934570305,4.856638067626953
5974322727250,0.197272916,1,-1.6938976745605467,5.705382556152343,4.722562774658203
5974325230427,0.199776093,1,-1.695094775390625,5.932831713867187,4.668693237304687
5974327727823,0.202273489,1,-1.7022773803710936,6.1626750732421876,4.6267947082519525
5974330226052,0.204771718,1,-1.707065783691406,6.3147068786621094,4.6627077331542965
5974332726573,0.207272239,1,-1.715445489501953,6.414066247558593,4.6651019348144525
5974335227875,0.209773541,1,-1.7549498168945312,6.685808135986328,4.75009609375
5974337728656,0.212274322,1,-1.6328455322265625,6.845022546386718,4.752490295410156
5974340230427,0.214776093,1,-1.6472107421875,6.928819604492187,4.687846850585937
5974342727667,0.217273333,1,-1.5179238525390624,6.985083343505859,4.827907647705078
5974345230011,0.219775677,1,-1.5825672973632812,7.023390570068359,4.7931917236328125
5974347727771,0.222273437,1,-1.5454571716308594,6.967126831054687,4.797980126953124
5974350227511,0.224773177,1,-1.5358803649902344,6.962338427734375,4.784812017822265
5974352729386,0.227275052,1,-1.5035586425781249,6.925228302001953,4.786009118652344
5974355228031,0.229773697,1,-1.4520833068847656,6.6510922119140625,4.630386010742187
5974357727406,0.232273072,1,-1.4796166259765624,6.574477758789062,4.632780212402343
5974360230531,0.234776197,1,-1.4532804077148436,6.424840155029297,4.584896179199219
5974362727406,0.237273072,1,-1.4425065002441406,6.331466290283203,4.527435339355469
5974365228656,0.239774322,1,-1.4820108276367188,6.113593939208984,4.471171600341797
5974367728083,0.242273749,1,-1.455674609375,6.040570788574218,4.487931011962891
5974370228396,0.244774062,1,-1.4437036010742186,5.874173773193359,4.428075970458984
5974372730636,0.247276302,1,-1.4975731384277342,5.759252093505859,4.453215087890625
5974375227302,0.249772968,1,-1.5107412475585937,5.595249279785156,4.446032482910156
5974377728240,0.252273906,1,-1.5825672973632812,5.506663818359375,4.3813890380859375
5974380230688,0.254776354,1,-1.6136919189453125,5.421669659423828,4.3442789123535155
5974382728083,0.257273749,1,-1.5801730957031248,5.414487054443359,4.311957189941406
5974385230271,0.259775937,1,-1.6424223388671875,5.383362432861328,4.273649963378906
5974387727198,0.262272864,1,-1.638831036376953,5.400121844482421,4.2497079467773435
5974390227563,0.264773229,1,-1.6831237670898436,5.410895751953125,4.220977526855468
5974392730115,0.267275781,1,-1.6651672546386718,5.436034869384765,4.145560174560547
5974395227979,0.269773645,1,-1.7130512878417967,5.471947894287109,4.220977526855468
5974397727719,0.272273385,1,-1.6077064147949218,5.457582684326171,4.163516687011718
5974400231313,0.274776979,1,-1.5418658691406248,5.538985540771484,4.224568829345703
5974402728031,0.277273697,1,-1.5550339782714844,5.615599993896484,4.205415216064453
5974405229854,0.27977552,1,-1.608903515625,5.729324572753906,4.3430818115234375
5974407726886,0.282272552,1,-1.678335363769531,5.863399865722656,4.422090466308593
5974410228188,0.284773854,1,-1.8148048583984373,6.0142345703124995,4.417302062988281
5974412729594,0.28727526,1,-1.811213555908203,6.057330200195312,4.3825861389160155
5974415227094,0.28977276,1,-1.85790048828125,6.106411334228516,4.541800549316406
5974417728240,0.292273906,1,-1.7764976318359373,6.065709906005859,4.50109912109375
5974420229698,0.294775364,1,-1.734599102783203,6.066907006835937,4.515464331054687
5974422727250,0.297272916,1,-1.70467158203125,6.118382342529297,4.39216294555664
5974425232458,0.299778124,1,-1.7764976318359373,6.198588098144531,4.423287567138671
5974427729594,0.30227526,1,-1.7788918334960937,6.2021794006347655,4.376600634765625
5974430227511,0.304773177,1,-1.8136077575683593,6.1459156616210935,4.352658618164062
5974432730271,0.307275937,1,-1.8555062866210936,6.117185241699218,4.374206433105469
5974435227875,0.309773541,1,-1.944091748046875,6.064512805175781,4.3071687866210935
5974437728396,0.312274062,1,-1.9752163696289062,6.068104107666016,4.404133953857421
5974440229906,0.314775572,1,-1.8854338073730468,6.03937368774414,4.425681768798828
5974442727979,0.317273645,1,-1.8650830932617186,6.026205578613281,4.317942694091797
5974445230583,0.319776249,1,-1.9189526306152342,6.048950494384766,4.563348364257812
5974447727354,0.32227302,1,-1.7932570434570312,6.0884548217773435,4.627991809082031
5974450227823,0.324773489,1,-1.638831036376953,6.105214233398437,4.675875842285156
5974452730531,0.327276197,1,-1.656787548828125,6.036979486083984,4.759672900390624
5974455227146,0.329772812,1,-1.6136919189453125,6.0537388977050774,4.994304663085937
5974457727719,0.332273385,1,-1.1336544860839843,5.84783755493164,5.175066888427734
5974460229698,0.334775364,1,-1.2773065856933592,5.875370874023437,5.384559533691406
5974462726677,0.337272343,1,-0.968454571533203,5.974730242919922,5.363011718749999
5974465231156,0.339776822,1,-0.7781155395507812,5.973533142089844,5.767631799316406
5974467728708,0.342274374,1,-0.6835445739746093,5.8083332275390624,6.045359191894531
5974470228083,0.344773749,1,-0.604535919189453,5.756857891845703,6.320692382812499
5974472728448,0.347274114,1,-0.565031591796875,5.767631799316406,6.551732843017578
5974475228240,0.349773906,1,-0.5434837768554687,5.833472344970703,6.785167504882812
5974477727875,0.352273541,1,-0.6236895324707031,5.813121630859374,6.949170318603516
5974480230375,0.354776041,1,-0.6907271789550781,5.796362219238281,7.113173132324218
5974482727979,0.357273645,1,-0.6260837341308594,5.7700260009765625,7.205349896240234
5974485230115,0.359775781,1,-0.6967126831054687,5.741295581054687,7.574056951904296
5974487727667,0.362273333,1,-0.6464344482421874,5.7700260009765625,7.732074261474609
5974490227875,0.364773541,1,-0.6512228515624999,5.72693037109375,7.862558251953125
5974492730688,0.367276354,1,-0.7134720947265625,5.754463690185546,7.970297326660156
5974495227042,0.369772708,1,-0.7457938171386719,5.945999822998046,8.005013250732421
5974497727615,0.372273281,1,-0.7553706237792969,5.9950809570312495,8.055291485595703
5974500229802,0.374775468,1,-0.7912836486816406,6.044162091064453,8.044517578125
5974502727511,0.377273177,1,-0.9241618408203125,6.1088055358886715,8.03134946899414
5974505230219,0.379775885,1,-1.0462661254882812,6.282385156249999,8.02416686401367
5974507727719,0.382273385,1,-1.1324573852539062,6.324283685302734,7.979874133300781
5974510227458,0.384773124,1,-1.1815385192871093,6.399701037597656,8.00022484741211
5974512730011,0.387275677,1,-1.0941501586914062,6.479906793212891,7.856572747802734
5974515227146,0.389772812,1,-1.0857704528808594,6.628347296142578,7.8362220336914055
5974517727406,0.392273072,1,-1.0510545288085937,6.740874774169922,7.764395983886718
5974520229854,0.39477552,1,-0.9995791931152344,6.891709478759765,7.712920648193359
5974522727667,0.397273333,1,-1.0402806213378906,6.983886242675781,7.7596075805664055
5974525230323,0.399775989,1,-0.9660603698730468,7.1395093505859375,7.687781530761718
5974527726261,0.402271927,1,-0.978031378173828,7.098807922363281,7.668627917480468
5974530227979,0.404773645,1,-0.7721300354003906,6.83783994140625,7.702146740722656
5974532730427,0.407276093,1,-1.0953472595214844,6.987477545166016,7.522581616210937
5974535227406,0.409773072,1,-0.6679822631835937,7.161057165527343,7.568071447753906
5974537727927,0.412273593,1,-0.6021417175292968,7.079654309082031,7.491456994628906
5974540230167,0.414775833,1,-0.55545478515625,7.052120989990234,7.6231380859375
5974542727354,0.41727302,1,-0.5351040710449219,6.999448553466796,7.691372833251953
5974545230115,0.419775781,1,-0.507570751953125,6.879738470458984,7.74404526977539
5974547727510,0.422273176,1,-0.28371289672851563,6.9156514953613275,7.732074261474609
5974550228240,0.424773906,1,-0.28012159423828126,6.845022546386718,7.819462622070312
5974552730010,0.427275676,1,-0.15083470458984374,6.757634185791015,7.940369805908203
5974555227927,0.429773593,1,-0.2885013000488281,6.642712506103515,8.02536396484375
5974557728969,0.432274635,1,-0.06823474731445311,6.572083557128906,8.161833459472655
5974560230063,0.434775729,1,0.044292730712890624,6.5014546081542965,8.300697155761718
5974562727406,0.437273072,1,0.09576806640624999,6.487089398193359,8.677783917236328
5974565230323,0.439775989,1,0.19991583862304688,6.412869146728515,8.864531646728516
5974567727510,0.442273176,1,0.03232172241210937,6.460753179931641,9.050082275390624
5974570226938,0.444772604,1,-0.025139117431640625,6.411672045898437,9.194931475830078
5974572729802,0.447275468,1,0.058657940673828124,6.169857678222656,9.39843861694336
5974575227510,0.449773176,1,-0.1352723937988281,5.907692596435546,9.449913952636718
5974577728344,0.45227401,1,-0.03591302490234375,5.9017070922851556,9.31464155883789
5974580229802,0.454775468,1,0.09816226806640624,5.84185205078125,9.17458076171875
5974582727719,0.457273385,1,0.19632453613281248,5.681440539550781,9.172186560058593
5974585230323,0.459775989,1,-0.06344634399414062,5.233724829101562,9.21887349243164
5974587724490,0.462270156,1,-0.1005564697265625,5.190629199218749,9.127893829345702
5974590228500,0.464774166,1,-0.12330138549804687,5.201403106689453,8.941146099853515
5974592730427,0.467276093,1,-0.16639701538085935,5.284003063964843,8.63827958984375
5974595227094,0.46977276,1,-0.28012159423828126,5.390545037841797,8.463502868652343
5974597727927,0.472273593,1,-0.22505495605468748,5.400121844482421,8.239645013427733
5974600230531,0.474776197,1,-0.26815058593749996,5.480327600097656,8.090007409667969
5974602727354,0.47727302,1,-0.31483751831054685,5.577292767333984,7.4962453979492185
5974605229802,0.479775468,1,-0.3435679382324219,5.772420202636718,7.273584643554687
5974607727042,0.482272708,1,-0.7266402038574218,5.929240411376953,7.105990527343749
5974610227146,0.484772812,1,-0.8571241943359375,5.973533142089844,6.894103680419922
5974612729490,0.487275156,1,-0.9720458740234375,6.084863519287109,6.549338641357421
5974615226938,0.489772604,1,-1.1528080993652343,6.291961962890625,6.451176373291015
5974617727563,0.492273229,1,-1.3910311645507811,6.379350323486328,6.404489440917969
5974620230010,0.494775676,1,-1.3958195678710936,6.507440112304687,6.301538769531249
5974622726781,0.497272447,1,-1.4065934753417968,6.704961749267578,6.0716954101562495
5974625229646,0.499775312,1,-1.2904746948242187,7.018602166748046,6.072892510986327
5974627727563,0.502273229,1,-1.2593500732421874,7.127538342285156,6.072892510986327
5974630227771,0.504773437,1,-1.1444283935546875,7.250839727783203,5.9962780578613275
5974632730219,0.507275885,1,-1.035492218017578,7.338228088378906,6.021417175292968
5974635227615,0.509773281,1,-1.0319009155273438,7.37414111328125,6.028599780273437
5974637727667,0.512273333,1,-0.7709329345703124,7.359775903320312,6.03937368774414
5974640229698,0.514775364,1,-0.7254431030273437,7.225700610351562,6.133944653320312
5974642727667,0.517273333,1,-0.7110778930664062,7.176619476318359,6.278793853759765
5974645230010,0.519775676,1,-0.6368576416015624,7.01620796508789,6.361393811035156
5974647727302,0.522272968,1,-0.5255272644042969,6.8402341430664055,6.497863305664062
5974650228188,0.524773854,1,-0.4908113403320312,6.777984899902344,6.448782171630859
5974652730479,0.527276145,1,-0.33039982910156246,6.56968935546875,6.477512591552734
5974655227198,0.529772864,1,-0.1352723937988281,6.363788012695312,6.4475850708007805
5974657727667,0.532273333,1,-0.3890577697753906,6.205770703124999,6.482300994873047
5974660230115,0.534775781,1,-0.32561142578124996,6.0321910827636716,6.471527087402343
5974662727979,0.537273645,1,-0.3806780639648437,5.875370874023437,6.411672045898437
5974665237094,0.53978276,1,-0.6117185241699218,5.623979699707031,6.369773516845703
5974667729333,0.542274999,1,-0.5315127685546874,5.389347937011719,6.248866333007812
5974670227667,0.544773333,1,-0.5781997009277343,5.334281298828125,6.210559106445312
5974672729854,0.54727552,1,-0.55545478515625,5.291185668945312,6.106411334228516
5974675227458,0.549773124,1,-0.5853823059082031,5.299565374755859,6.044162091064453
5974677727875,0.552273541,1,-0.5315127685546874,5.216965417480468,5.948394024658203
5974680228813,0.554774479,1,-0.603338818359375,5.199008905029297,5.8226984375
5974682728083,0.557273749,1,-0.7422025146484375,5.209782812499999,5.4899044067382805
5974685229385,0.559775051,1,-0.9373299499511718,5.324704492187499,5.289988568115234
5974687727563,0.562273229,1,-0.9373299499511718,5.365405920410156,5.252878442382812
5974690227823,0.564773489,1,-1.3108254089355469,5.413289953613281,5.1343654602050774
5974692729854,0.56727552,1,-1.4544775085449217,5.604826086425781,4.878185882568359
5974695227406,0.569773072,1,-1.5634136840820312,5.711368060302734,4.843469958496094
5974697728083,0.572273749,1,-1.5059528442382812,5.759252093505859,4.637568615722656
5974700230479,0.574776145,1,-1.5370774658203123,5.877765075683594,4.4196962646484375
5974702727823,0.577273489,1,-1.523909356689453,5.932831713867187,4.229357232666016
5974705229958,0.579775624,1,-1.5693991882324219,6.1818286865234375,4.025850091552734
5974707727719,0.582273385,1,-1.5921441040039062,6.305130072021484,3.9935283691406247
5974710227719,0.584773385,1,-1.6771382629394531,6.375759020996093,3.831919757080078
5974712729385,0.587275051,1,-1.7010802795410156,6.418854650878906,3.5972879943847653
5974715228292,0.589773958,1,-1.811213555908203,6.4463879699707025,3.469198205566406
5974717728448,0.592274114,1,-1.7286135986328124,6.421248852539062,3.373430139160156
5974720228448,0.594774114,1,-1.7357962036132812,6.34583150024414,3.229778039550781
5974722728292,0.597273958,1,-1.8028338500976562,6.3973068359375,3.077746234130859
5974725229542,0.599775208,1,-1.8028338500976562,6.1818286865234375,3.1028853515624997
5974727727250,0.602272916,1,-1.8746598999023436,6.203376501464843,3.019088293457031
5974730227406,0.604773072,1,-1.908178723144531,6.151901165771484,2.932897033691406
5974732729750,0.607275416,1,-1.954865655517578,6.106411334228516,2.920926025390625
5974735226990,0.609772656,1,-1.9764134704589842,6.017825872802734,2.931699932861328
5974737726729,0.612272395,1,-2.005143890380859,5.904101293945312,2.901772412109375
5974740229542,0.614775208,1,-1.9716250671386717,5.865794067382812,3.017891192626953
5974742727354,0.61727302,1,-2.0302830078125,5.805939025878906,3.019088293457031
5974745230375,0.619776041,1,-2.0757728393554684,5.653907220458984,3.0885201416015624
5974747728031,0.622273697,1,-2.0638018310546875,5.613205792236328,3.1747114013671873
5974750227927,0.624773593,1,-2.076969940185547,5.6024318847656245,3.1567548889160153
5974752729594,0.62727526,1,-2.1511901916503904,5.5270145324707025,3.246537451171875
5974755228240,0.629773906,1,-2.146401788330078,5.5653217590332025,3.289633081054687
5974757728344,0.63227401,1,-2.072181536865234,5.556942053222656,3.479972113037109
5974760230115,0.634775781,1,-2.081758343505859,5.644330413818359,3.584119885253906
5974762727406,0.637273072,1,-2.020706201171875,5.680243438720702,3.6451720275878903
5974765229958,0.639775624,1,-1.8507178833007811,5.925649108886718,3.8103719421386715
5974767727719,0.642273385,1,-1.9129671264648436,5.870582470703124,3.9659950500488277
5974770227406,0.644773072,1,-1.915361328125,5.983109948730468,3.9659950500488277
5974772729385,0.647275051,1,-1.926135235595703,6.118382342529297,3.9707834533691404
5974775227823,0.649773489,1,-2.070984436035156,6.1842228881835934,3.9552211425781247
5974777728083,0.652273749,1,-2.203862628173828,6.171054779052734,3.9887399658203124
5974780230167,0.654775833,1,-2.2206220397949217,6.259640240478515,3.939658831787109
5974782727458,0.657273124,1,-2.123656872558594,6.324283685302734,4.025850091552734
5974785230531,0.659776197,1,-2.0745757385253905,6.354211206054687,3.9899370666503904
5974787727146,0.662272812,1,-2.019509100341797,6.406883642578125,4.060566015625
5974790227042,0.664772708,1,-1.9632453613281249,6.412869146728515,4.076128326416016
5974792728969,0.667274635,1,-1.8854338073730468,6.470329986572265,4.150348577880859
5974795227771,0.669773437,1,-1.7705121276855467,6.487089398193359,4.235342736816406
5974797727771,0.672273437,1,-1.7980454467773437,6.519411120605469,4.29639487915039
5974800229333,0.674774999,1,-1.7525556152343749,6.5026517089843745,4.349067315673828
5974802727146,0.677272812,1,-1.801636749267578,6.532579229736328,4.477157104492187
5974805230115,0.679775781,1,-1.5310919616699217,6.430825659179687,4.674678741455078
5974807727354,0.68227302,1,-1.5263035583496092,6.42244595336914,4.802768530273437
5974810227771,0.684773437,1,-1.3623007446289062,6.420051751708984,4.857835168457031
5974812730844,0.68727651,1,-1.0953472595214844,6.386532928466797,5.191826300048827
5974815227719,0.689773385,1,-0.8068459594726562,6.324283685302734,5.327098693847656
5974817727146,0.692272812,1,-0.8188169677734375,6.343437298583984,5.493495709228515
5974820229854,0.69477552,1,-0.181959326171875,6.150704064941406,5.687426043701172
5974822726990,0.697272656,1,-0.584185205078125,5.993883856201172,6.2213330139160155
5974825230375,0.699776041,1,-0.1879448303222656,6.136338854980468,6.3901242309570305
5974827727250,0.702272916,1,0.029927520751953124,6.217741711425781,6.515819818115234
5974830227458,0.704773124,1,0.06105214233398437,6.1459156616210935,6.798335614013672
5974832729490,0.707275156,1,0.011971008300781249,5.862202764892578,7.483077288818359
5974835227458,0.709773124,1,-0.008379705810546874,5.798756420898437,7.687781530761718
5974837727979,0.712273645,1,0.017956512451171875,5.728127471923828,7.807491613769531
5974840230427,0.714776093,1,0.033518823242187495,5.764040496826172,8.013392956542969
5974842724125,0.717269791,1,0.025139117431640625,5.664681127929687,8.445546356201172
5974845229333,0.719774999,1,-0.26695348510742184,5.718550665283203,8.621520178222656
5974847729177,0.722274843,1,-0.22026655273437498,5.718550665283203,8.70771143798828
5974850227458,0.724773124,1,-0.19153613281249998,5.857414361572265,8.583212951660157
5974852729854,0.72727552,1,-0.16041151123046873,5.868188269042968,8.86213744506836
5974855227562,0.729773228,1,-0.4848258361816406,5.934028814697265,8.90643017578125
5974857727302,0.732272968,1,-0.46806642456054687,6.021417175292968,8.898050469970702
5974860230062,0.734775728,1,-0.5291185668945312,6.151901165771484,8.943540301513671
5974862726990,0.737272656,1,-0.6356605407714844,6.284779357910156,8.716091143798828
5974865230010,0.739775676,1,-0.7745242370605468,6.320692382812499,8.55448253173828
5974867726885,0.742272551,1,-0.8008604553222656,6.458358978271484,8.432378247070313
5974870227406,0.744773072,1,-0.842758984375,6.5589154479980465,8.425195642089843
5974872729646,0.747275312,1,-0.8379705810546875,6.865373260498046,8.028955267333984
5974875224333,0.749769999,1,-0.9612719665527343,6.931213806152344,7.809885815429687
5974877729594,0.75227526,1,-0.9301473449707031,7.0461354858398435,7.682993127441406
5974880229958,0.754775624,1,-1.0139444030761717,7.183802081298828,7.586027960205078
5974882727615,0.757273281,1,-0.9983820922851562,7.36097300415039,7.293935357666015
5974885229385,0.759775051,1,-0.93852705078125,7.349001995849609,7.277175946044921
5974887726781,0.762272447,1,-0.8631096984863281,7.428010650634765,7.38012661743164
5974890226781,0.764772447,1,-0.8104372619628906,7.5345526245117185,7.235277416992187
5974892729177,0.767274843,1,-0.7038952880859375,7.541735229492187,7.438784558105469
5974895227042,0.769772708,1,-0.47285482788085936,7.520187414550781,7.507019305419921
5974897726990,0.772272656,1,-0.35673604736328124,7.518990313720702,7.606378674316406
5974900229385,0.774775051,1,-0.21308394775390624,7.451952667236328,7.7033438415527336
5974902726365,0.777272031,1,-0.05746083984375,7.256825231933593,8.163030560302733
5974905236469,0.779782135,1,0.1879448303222656,7.157465863037109,8.343792785644531
5974907729854,0.78227552,1,0.20231004028320312,7.006631158447266,8.613140472412109
5974910228552,0.784774218,1,0.19512743530273435,6.845022546386718,8.75320126953125
5974912731000,0.787276666,1,0.07062894897460938,6.7085530517578125,9.114725720214842
5974915227562,0.789773228,1,-0.06584054565429687,6.58884296875,9.162609753417968
5974917728865,0.792274531,1,-0.16160861206054686,6.429628558349609,9.216479290771483
5974920229906,0.794775572,1,-0.277727392578125,6.241683728027343,9.230844500732422
5974922727250,0.797272916,1,-0.1149216796875,5.837063647460937,8.936357696533202
5974925229385,0.799775051,1,-0.05626373901367187,5.590460876464843,9.011775048828124
5974927728292,0.802273958,1,-0.31483751831054685,5.378574029541015,9.016563452148437
5974930227354,0.80477302,1,-0.3064578125,5.359420416259765,8.901641772460938
5974932729594,0.80727526,1,-0.32082302246093747,5.373785626220703,8.796296899414061
5974935227510,0.809773176,1,-0.2813186950683594,5.365405920410156,8.680178118896483
5974937726833,0.812272499,1,-0.277727392578125,5.334281298828125,8.725667950439453
5974940229021,0.814774687,1,-0.3268085266113281,5.400121844482421,8.668207110595702
5974942727823,0.817273489,1,-0.044292730712890624,5.555744952392578,8.407239129638672
5974945230062,0.819775728,1,-0.2813186950683594,5.65031591796875,8.231265307617187
5974947728031,0.822273697,1,-0.41539398803710936,5.740098480224609,8.100781317138672
5974950227510,0.824773176,1,-0.5470750793457031,5.831078143310546,7.819462622070312
5974952729490,0.827275156,1,-0.833182177734375,5.923254907226562,7.721300354003906
5974955227406,0.829773072,1,-1.1276689819335937,6.054935998535156,7.650671405029296
5974957728187,0.832273853,1,-1.2437877624511717,6.148309863281249,7.407659936523437
5974960229646,0.834775312,1,-1.3096283081054687,6.260837341308593,7.455543969726562
5974962727250,0.837272916,1,-1.5035586425781249,6.5768719604492185,7.132326745605468
5974965230010,0.839775676,1,-1.3934253662109375,6.664260321044922,7.11197603149414
5974967727198,0.842272864,1,-1.3551181396484375,6.846219647216796,6.944381915283203
5974970227979,0.844773645,1,-1.2569558715820313,6.9539587219238275,6.776787799072265
5974972730271,0.847275937,1,-1.1516109985351561,7.127538342285156,6.53138212890625
5974975227927,0.849773593,1,-0.9696516723632812,7.204152795410156,6.433219860839843
5974977728031,0.852273697,1,-1.0498574279785156,7.295132458496093,6.305130072021484
5974980229958,0.854775624,1,-0.9050082275390624,7.202955694580078,5.969941839599609
5974982727771,0.857273437,1,-0.9552864624023437,7.001842755126953,5.912480999755859
5974985230114,0.85977578,1,-1.0558429321289062,6.947973217773437,5.701791253662109
5974987728396,0.862274062,1,-0.9923965881347656,6.873752966308594,5.716156463623046
5974990227667,0.864773333,1,-0.8942343200683593,6.812700823974609,5.354632012939453
5974992730010,0.867275676,1,-0.7829039428710937,6.683413934326172,5.322310290527343
5974995228187,0.869773853,1,-0.7146691955566405,6.580463262939452,5.194220501708984
5974997727979,0.872273645,1,-0.604535919189453,6.453570574951171,5.116408947753906
5975000230323,0.874775989,1,-0.4848258361816406,6.297947467041015,5.124788653564453
5975002727406,0.877273072,1,-0.36152445068359373,6.132747552490234,5.12000025024414
5975005229125,0.879774791,1,-0.7386112121582031,6.119579443359375,5.1894320983886715
5975007728187,0.882273853,1,-0.5985504150390625,5.9771244445800775,5.129577056884766
5975010225635,0.884771301,1,-0.6835445739746093,5.779602807617187,5.1343654602050774
5975012727823,0.887273489,1,-0.7481880187988281,5.6311623046875,5.269637854003906
5975015227719,0.889773385,1,-0.7302315063476562,5.674257934570313,5.353434912109375
5975017727719,0.892273385,1,-0.7900865478515624,5.6383449096679685,5.297171173095703
5975020229958,0.894775624,1,-0.7697358337402344,5.530605834960937,5.465962390136719
5975022728135,0.897273801,1,-0.8188169677734375,5.448005877685547,5.513846423339843
5975025230219,0.899775885,1,-0.8283937744140625,5.4515971801757805,5.469553692626953
5975027727927,0.902273593,1,-1.024718310546875,5.430049365234375,5.511452221679687
5975030228239,0.904773905,1,-1.0223241088867188,5.427655163574219,5.452794281005859
5975032729489,0.907275155,1,-1.0965443603515623,5.499481213378906,5.419275457763671
5975035227406,0.909773072,1,-1.3000515014648437,5.492298608398437,5.3761798278808595
5975037727927,0.912273593,1,-1.301248602294922,5.541379742431641,5.29238276977539
5975040230375,0.914776041,1,-1.5167267517089842,5.6311623046875,5.048174200439453
5975042728500,0.917274166,1,-1.484405029296875,5.65031591796875,4.936843823242187
5975045230583,0.919776249,1,-1.4712369201660156,5.670666632080078,4.735730883789063
5975047727354,0.92227302,1,-1.6232687255859375,5.744886883544922,4.707000463867187
5975050228031,0.924773697,1,-1.5801730957031248,5.741295581054687,4.327519500732421
5975052729385,0.927275051,1,-1.6364368347167968,5.863399865722656,4.122815258789062
5975055227719,0.929773385,1,-1.656787548828125,5.8262897399902345,3.9731776550292968
5975057727979,0.932273645,1,-1.6639701538085936,5.90529839477539,3.864241479492187
5975060231052,0.934776718,1,-1.6747440612792968,5.953182427978516,3.6284126159667967
5975062727719,0.937273385,1,-1.7741034301757812,5.968744738769531,3.5386300537109374
5975065230531,0.939776197,1,-1.820790362548828,5.984307049560546,3.353079425048828
5975067727354,0.94227302,1,-1.8423381774902343,6.023811376953125,3.306392492675781
5975070227094,0.94477276,1,-1.8626888916015625,6.010643267822266,3.1352070739746094
5975072730219,0.947275885,1,-1.8818425048828125,5.859808563232422,3.094505645751953
5975075227927,0.949773593,1,-1.9536685546875,5.874173773193359,3.058592620849609
5975077727614,0.95227328,1,-1.9285294372558592,5.878962176513672,2.980781066894531
5975080229854,0.95477552,1,-1.927332336425781,5.868188269042968,2.81558115234375
5975082727667,0.957273333,1,-1.8231845642089843,5.846640454101562,2.829946362304687
5975085229594,0.95977526,1,-1.7657237243652342,5.869385369873046,2.8024130432128906
5975087727406,0.962273072,1,-1.7214309936523438,5.8226984375,2.935291235351562
5975090227250,0.964772916,1,-1.6843208679199217,5.825092639160156,3.2249896362304686
5975092729646,0.967275312,1,-1.926135235595703,5.904101293945312,3.287238879394531
5975095227979,0.969773645,1,-1.8183961608886718,5.947196923828125,3.362656231689453
5975097724489,0.972270155,1,-1.7310078002929687,5.912480999755859,3.3638533325195312
5975100226260,0.974771926,1,-1.7190367919921874,5.90529839477539,3.603273498535156
5975102728031,0.977273697,1,-1.7836802368164062,5.971138940429687,3.7612908081054686
5975105230583,0.979776249,1,-1.7489643127441405,6.030993981933594,3.7792473205566406
5975107728448,0.982274114,1,-1.7010802795410156,6.030993981933594,3.763685009765625
5975110227667,0.984773333,1,-1.7836802368164062,5.9950809570312495,3.902548706054687
5975112729646,0.987275312,1,-1.9141642272949217,5.9591679321289055,3.968389251708984
5975115227927,0.989773593,1,-1.9596540588378906,5.917269403076172,3.968389251708984
5975117727146,0.992272812,1,-1.9895815795898437,5.898115789794922,4.035426898193359
5975120230375,0.994776041,1,-1.9764134704589842,5.878962176513672,4.309562988281249
5975122727406,0.997273072,1,-1.9692308654785156,5.926846209716796,4.310760089111328
5975125230167,0.999775833,1,-1.9716250671386717,6.086060620117187,4.405331054687499
5975127727302,1.002272968,1,-1.8997990173339843,6.094440325927734,4.453215087890625
5975130227250,1.004772916,1,-1.8662801940917968,6.205770703124999,4.624400506591797
5975132729594,1.00727526,1,-1.763329522705078,6.331466290283203,4.637568615722656
5975135227406,1.009773072,1,-1.7405846069335937,6.381744525146484,4.687846850585937
5975137728135,1.012273801,1,-1.7094599853515624,6.439205364990234,4.799177227783203
5975140231156,1.014776822,1,-1.7609353210449217,6.440402465820312,4.955997436523437
5975142727562,1.017273228,1,-1.4903905334472656,6.556521246337891,5.048174200439453
5975145237250,1.019782916,1,-1.0678139404296874,6.289567761230469,5.1894320983886715
5975147729802,1.022275468,1,-1.5083470458984374,6.329072088623047,5.456385583496093
5975150227667,1.024773333,1,-1.0043675964355467,6.477512591552734,5.400121844482421
5975152729958,1.027275624,1,-0.8032546569824218,6.704961749267578,5.585672473144531
5975155227354,1.02977302,1,-0.7577648254394531,6.593631372070312,5.686228942871093
5975157728239,1.032273905,1,-0.7350199096679687,6.512228515625,5.932831713867187
5975160230531,1.034776197,1,-0.6715735656738281,6.505045910644531,6.245275030517578
5975162727302,1.037272968,1,-0.3950432739257812,6.471527087402343,6.495469104003906
5975165229750,1.039775416,1,-0.3016694091796875,6.415263348388671,6.794744311523437
5975167727667,1.042273333,1,-0.05746083984375,6.259640240478515,7.164648468017577
5975170228448,1.044774114,1,0.08978256225585937,6.136338854980468,7.830236529541015
5975172730219,1.047275885,1,0.3136404174804687,6.100425830078125,8.061276989746093
5975175227458,1.049773124,1,0.4225765930175781,6.112396838378906,8.313865264892577
5975177727562,1.052273228,1,0.4477157104492187,6.105214233398437,8.58680425415039
5975180229750,1.054775416,1,0.5183446594238281,6.11598814086914,9.087192401123046
5975182727510,1.057273176,1,0.31962592163085934,5.843049151611328,9.249998114013671
5975185229125,1.059774791,1,0.2346317626953125,5.747281085205078,9.44871685180664
5975187726937,1.062272603,1,0.19991583862304688,5.729324572753906,9.592368951416015
5975190228448,1.064774114,1,0.10654197387695312,5.603628985595702,9.655815295410155
5975192729906,1.067275572,1,0.005985504150390624,5.6012347839355465,9.65940659790039
5975195227771,1.069773437,1,-0.06464344482421874,5.5449710449218745,9.660603698730467
5975197726989,1.072272655,1,-0.16759411621093748,5.585672473144531,9.434351641845703
5975200229541,1.074775207,1,-0.26815058593749996,5.597643481445312,9.285911138916015
5975202728969,1.077274635,1,-0.27174188842773433,5.704185455322265,9.039308367919922
5975205230062,1.079775728,1,-0.40222587890625,5.778405706787109,8.86094034423828
5975207727354,1.08227302,1,-0.7003039855957031,5.941211419677734,8.63827958984375
5975210227719,1.084773385,1,-0.36152445068359373,5.722141967773437,8.348581188964843
5975212729281,1.087274947,1,-0.4070142822265625,6.174646081542968,7.903259680175781
5975215227302,1.089772968,1,-0.5973533142089843,6.4080807434082026,7.654262707519531
5975217728291,1.092273957,1,-0.7242460021972655,6.519411120605469,7.426813549804687
5975220228969,1.094774635,1,-0.8271966735839843,6.4655415832519525,7.161057165527343
5975222727823,1.097273489,1,-1.0821791503906248,6.791153009033203,7.041347082519531
5975225231781,1.099777447,1,-1.1109095703125,6.961141326904296,7.043741284179687
5975227727406,1.102273072,1,-1.2246341491699217,7.249642626953125,6.979097839355468
5975230227562,1.104773228,1,-1.1109095703125,7.411251239013671,7.061697796630859
5975232729854,1.10727552,1,-0.8391676818847655,7.7608046813964835,7.3094976684570305
5975235227875,1.109773541,1,-0.6428431457519531,7.921216192626953,7.493851196289062
5975237728604,1.11227427,1,-0.507570751953125,7.9667060241699215,7.71890615234375
5975240230114,1.11477578,1,-0.5327098693847656,8.233659509277343,8.218097198486328
5975242727562,1.117273228,1,-0.604535919189453,8.298302954101562,8.35696089477539
5975245230531,1.119776197,1,-0.48123453369140623,8.23006820678711,8.576030346679687
5975247726625,1.122272291,1,-0.36631285400390623,7.951143713378905,8.775946185302734
5975250227250,1.124772916,1,-0.43933600463867184,7.430404852294921,8.945934503173827
5975252729541,1.127275207,1,-0.25258827514648435,7.3274541809082026,8.926780889892578
5975255227771,1.129773437,1,-0.040701428222656245,7.100005023193359,8.89326206665039
5975257727562,1.132273228,1,-0.017956512451171875,6.789955908203124,8.954314208984375
5975260230219,1.134775885,1,0.04668693237304687,6.191405493164062,9.175777862548827
5975262727041,1.137272707,1,0.24301146850585936,5.950788226318359,9.178172064208983
5975265229854,1.13977552,1,0.3363853332519531,5.764040496826172,9.095572106933593
5975267728187,1.142273853,1,0.3962403747558593,5.5820811706542965,9.205705383300781
5975270227302,1.144772968,1,0.4908113403320312,5.289988568115234,9.166201055908203
5975272729594,1.14727526,1,0.6619967590332031,5.194220501708984,9.143456140136719
5975275227250,1.149772916,1,0.6308721374511719,5.086481427001953,9.083601098632812
5975277727927,1.152273593,1,0.47285482788085936,4.976348150634766,9.047688073730468
5975280229958,1.154775624,1,0.3687070556640625,4.847061260986328,8.833407025146483
5975282726521,1.157272187,1,-0.03950432739257812,4.827907647705078,8.793902697753905
5975285230479,1.159776145,1,-0.21428104858398436,4.837484454345703,8.635885388183594
5975287727875,1.162273541,1,-0.39145197143554683,4.880580084228515,8.671798413085938
5975290228083,1.164773749,1,-0.5255272644042969,5.0948611328124995,8.35696089477539
5975292729594,1.16727526,1,-0.6572083557128906,5.285200164794921,8.250418920898436
5975295227771,1.169773437,1,-0.729034405517578,5.462371087646484,8.137891442871092
5975297729021,1.172274687,1,-0.7493851196289062,5.645527514648437,8.016984259033203
5975300230791,1.174776457,1,-0.8403647827148437,6.139930157470703,7.729680059814453
5975302727666,1.177273332,1,-0.9074024291992187,6.392518432617187,7.483077288818359
5975305230375,1.179776041,1,-0.9612719665527343,6.586448767089843,7.304709265136719
5975307727771,1.182273437,1,-1.0187328063964842,6.762422589111328,7.101202124023437
5975310227250,1.184772916,1,-1.1647791076660157,7.07366880493164,6.79953271484375
5975312730323,1.187275989,1,-1.1348515869140625,7.1215528381347655,6.544550238037109
5975315227146,1.189772812,1,-1.0678139404296874,7.297526660156249,6.348225701904297
5975317727614,1.19227328,1,-1.073799444580078,7.359775903320312,6.065709906005859
5975320230687,1.194776353,1,-1.1097124694824219,7.4208280456542965,5.722141967773437
5975322726885,1.197272551,1,-1.061828436279297,7.437587457275391,5.560533355712891
5975325230010,1.199775676,1,-0.70868369140625,7.357381701660156,5.2265422241210935
5975327727614,1.20227328,1,-0.7410054138183594,7.358578802490234,4.996698864746094
5975330228187,1.204773853,1,-0.6739677673339843,7.224503509521484,4.622006304931641
5975332728135,1.207273801,1,-0.6212953308105469,7.113173132324218,4.459200592041015
5975335226989,1.209772655,1,-0.6392518432617187,6.963535528564453,4.284423870849609
5975337727510,1.212273176,1,-0.6955155822753906,6.867767462158203,4.155136981201172
5975340229698,1.214775364,1,-0.6691793640136718,6.573280657958984,3.968389251708984
5975342727354,1.21727302,1,-0.7589619262695312,6.463147381591797,3.84987626953125
5975345230114,1.21977578,1,-0.7074865905761718,6.309918475341797,3.8175545471191406
5975347726885,1.222272551,1,-0.7517793212890624,6.177040283203125,3.7385458923339843
5975350227250,1.224772916,1,-1.0390835205078124,5.954379528808594,3.8893805969238278
5975352730635,1.227276301,1,-1.0295067138671874,5.7520694885253905,3.934870428466797
5975355225271,1.229770937,1,-1.3168109130859373,5.6203883972167965,4.12401235961914
5975357727302,1.232272968,1,-1.1659762084960936,5.549759448242187,4.210203619384766
5975360230687,1.234776353,1,-1.0953472595214844,5.523423229980469,4.068945721435546
5975362727146,1.237272812,1,-0.9109937316894531,5.512649322509765,4.092887738037109
5975365230010,1.239775676,1,-1.0271125122070313,5.493495709228515,4.165910888671875
5975367727198,1.242272864,1,-1.0498574279785156,5.45877978515625,4.350264416503906
5975370228083,1.244773749,1,-1.3084312072753905,5.3199160888671875,4.587290380859375
5975372729489,1.247275155,1,-1.5191209533691405,5.373785626220703,4.709394665527343
5975375228031,1.249773697,1,-1.3455413330078123,5.2624552490234375,4.8494554626464845
5975377727979,1.252273645,1,-1.4867992309570313,5.249287139892578,4.92247861328125
5975380230010,1.254775676,1,-1.5275006591796874,5.323507391357421,5.118803149414062
5975382726364,1.25727203,1,-1.6747440612792968,5.444414575195312,5.216965417480468
5975385237458,1.259783124,1,-1.7118541870117185,5.521029028320312,5.255272644042968
5975387728760,1.262274426,1,-1.7597382202148437,5.617994195556641,5.201403106689453
5975390227823,1.264773489,1,-1.8555062866210936,5.702988354492187,5.102043737792968
5975392730427,1.267276093,1,-1.9129671264648436,5.764040496826172,5.090072729492187
5975395228083,1.269773749,1,-1.8938135131835936,5.760449194335937,4.923675714111328
5975397727927,1.272273593,1,-1.8914193115234375,5.816712933349609,4.802768530273437
5975400230739,1.274776405,1,-1.8758570007324218,5.820304235839844,4.602852691650391
5975402727094,1.27727276,1,-2.2290017456054687,5.802347723388672,4.460397692871093
5975405230531,1.279776197,1,-2.1128829650878904,5.838260748291015,4.23893403930664
5975407727719,1.282273385,1,-2.203862628173828,5.868188269042968,4.259284753417968
5975410227719,1.284773385,1,-2.2457611572265623,5.896918688964844,3.841496563720703
5975412729437,1.287275103,1,-2.2541408630371094,5.870582470703124,3.7193922790527343
5975415227666,1.289773332,1,-2.2170307373046874,5.9208607055664055,3.5601778686523438
5975417728500,1.292274166,1,-2.099714855957031,5.9974751586914055,3.337517114257812
5975420230166,1.294775832,1,-2.1691467041015624,5.955576629638672,3.2417490478515623
5975422726937,1.297272603,1,-2.009932293701172,5.98191284790039,3.209427325439453
5975425230062,1.299775728,1,-1.9225439331054686,5.961562133789062,3.0741549316406247
5975427727093,1.302272759,1,-2.0087351928710935,5.980715747070312,3.0609868225097654
5975430227614,1.30477328,1,-1.9943699829101562,6.035782385253906,2.967612957763672
5975432730166,1.307275832,1,-2.041056915283203,5.983109948730468,2.9975404785156248
5975435227823,1.309773489,1,-1.9333178405761717,6.027402679443359,2.863465185546875
5975437728083,1.312273749,1,-1.9093758239746093,5.990292553710937,2.8526912780761715
5975440229489,1.314775155,1,-1.7298106994628906,6.021417175292968,2.9185318237304685
5975442726989,1.317272655,1,-1.830367169189453,6.104017132568359,2.8095956481933593
5975445230427,1.319776093,1,-1.734599102783203,6.132747552490234,2.8287492614746093
5975447727718,1.322273384,1,-1.753752716064453,6.123170745849609,2.924517327880859
5975450227979,1.324773645,1,-1.85790048828125,6.157886669921875,3.034650604248047
5975452729958,1.327275624,1,-1.7310078002929687,6.056133099365234,3.095702746582031
5975455227198,1.329772864,1,-1.8255787658691405,5.989095452880859,3.2118215270996093
5975457728239,1.332273905,1,-1.7932570434570312,6.0345852844238275,3.4919431213378904
5975460229854,1.33477552,1,-1.7561469177246092,6.016628771972656,3.6451720275878903
5975462726625,1.337272291,1,-1.6938976745605467,6.038176586914062,3.8271313537597655
5975465227458,1.339773124,1,-1.697488977050781,6.104017132568359,4.00909067993164
5975467727718,1.342273384,1,-1.5765817932128905,6.063315704345703,4.406528155517578
5975470227666,1.344773332,1,-1.5670049865722655,6.216544610595703,4.612429498291015
5975472730010,1.347275676,1,-1.5574281799316405,6.23090982055664,4.826710546875
5975475227093,1.349772759,1,-1.562216583251953,6.281188055419921,5.032611889648437
5975477727041,1.352272707,1,-1.6124948181152343,6.312312677001953,5.345055206298828
5975480229541,1.354775207,1,-1.47482822265625,6.299144567871093,5.4707507934570305
5975482727718,1.357273384,1,-1.7741034301757812,6.363788012695312,5.596446380615234
5975485230531,1.359776197,1,-1.687912170410156,6.368576416015625,5.57370146484375
5975487727406,1.362273072,1,-1.7681179260253905,6.393715533447265,5.797559320068359
5975490227927,1.364773593,1,-1.5861585998535155,6.319495281982421,5.779602807617187
5975492730896,1.367276562,1,-1.5251064575195312,6.393715533447265,5.6563014221191406
5975495227093,1.369772759,1,-1.5131354492187499,6.533776330566406,5.667075329589843
5975497727771,1.372273437,1,-1.4161702819824218,6.6702458251953125,5.560533355712891
5975500230114,1.37477578,1,-1.3539210388183593,6.567295153808593,5.617994195556641
5975502727771,1.377273437,1,-1.0330980163574217,6.548141540527343,5.659892724609374
5975505230896,1.379776562,1,-0.9301473449707031,6.549338641357421,5.6407391113281244
5975507727041,1.382272707,1,-0.7685387329101562,6.579266162109374,5.829881042480468
5975510227250,1.384772916,1,-0.6236895324707031,6.562506750488281,5.9771244445800775
5975512729385,1.387275051,1,-0.239420166015625,6.5505357421875,6.106411334228516
5975515227823,1.389773489,1,-0.04668693237304687,6.459556079101562,6.287173559570312
5975517728135,1.392273801,1,0.16160861206054686,6.449979272460937,6.817489227294922
5975520230739,1.394776405,1,0.6548141540527344,6.232106921386718,7.218518005371093
5975522726833,1.397272499,1,0.8020575561523438,6.080075115966797,7.545326531982422
5975525229281,1.399774947,1,0.9253589416503906,5.9974751586914055,8.003816149902343
5975527726937,1.402272603,1,1.1180921752929687,5.877765075683594,8.765172277832031
5975530228031,1.404773697,1,1.149216796875,5.704185455322265,9.150638745117186
5975532729646,1.407275312,1,1.150413897705078,5.61200869140625,9.443928448486327
5975535227771,1.409773437,1,1.0666168395996094,5.528211633300781,9.82460651245117
5975537727718,1.412273384,1,0.9708487731933593,5.428852264404297,10.309432348632813
5975540229333,1.414774999,1,1.3958195678710936,5.270834954833984,10.520122094726561
5975542726729,1.417272395,1,1.3275848205566405,4.708197564697265,11.039663854980468
5975545230271,1.419775937,1,0.7721300354003906,4.716577270507813,11.271901416015623
5975547727510,1.422273176,1,1.6029180114746093,4.948814831542968,10.461464154052734
5975550227666,1.424773332,1,1.3060370056152344,5.193023400878906,10.27232222290039
5975552728812,1.427274478,1,0.9708487731933593,4.930858319091796,10.097545501708984
5975555227406,1.429773072,1,0.47165772705078124,4.691438153076172,9.827000714111328
5975557727406,1.432273072,1,-0.1352723937988281,4.623203405761719,9.22485899658203
5975560229593,1.434775259,1,-1.0845733520507812,5.003881469726562,9.00100114135742
5975562727354,1.43727302,1,-1.4006079711914061,5.346252307128906,8.750807067871094
5975565230166,1.439775832,1,-1.4520833068847656,5.647921716308593,8.578424548339843
5975567727875,1.442273541,1,-1.3335703247070312,5.895721588134765,8.544905725097657
5975570227041,1.444772707,1,-0.8499415893554687,6.5409589355468745,8.519766607666016
5975572729698,1.447275364,1,-0.5829881042480468,6.860584857177734,8.416815936279296
5975575228291,1.449773957,1,-0.4417302062988281,7.243657122802734,8.373720306396484
5975577728396,1.452274062,1,-0.31004911499023435,7.551312036132812,8.254010223388672
5975580229385,1.454775051,1,-0.4010287780761719,8.019378460693359,8.182184173583984
5975582728239,1.457273905,1,-0.45489831542968745,8.204929089355469,8.183381274414062
5975585229698,1.459775364,1,-0.6464344482421874,8.45991156616211,8.058882788085937
5975587727406,1.462273072,1,-0.8032546569824218,8.549694128417968,7.997830645751953
5975590226625,1.464772291,1,-0.7685387329101562,8.756792572021483,7.920019091796875
5975592729593,1.467275259,1,-0.7122749938964843,8.726865051269531,7.995436444091796
5975595227458,1.469773124,1,-0.6177040283203125,8.591592657470702,8.0828248046875
5975597726885,1.472272551,1,-0.40940848388671874,8.449137658691406,8.037334973144532
5975600230062,1.474775728,1,0.15083470458984374,8.0062103515625,8.030152368164062
5975602727093,1.477272759,1,0.3603273498535156,7.569268548583984,8.058882788085937
5975605230062,1.479775728,1,0.6763619689941406,6.943184814453125,7.951143713378905
5975607727041,1.482272707,1,0.8798691101074219,6.449979272460937,7.879317663574218
5975610224229,1.484769895,1,0.8810662109374999,6.002263562011718,7.837419134521484
5975612725427,1.487271093,1,0.8667010009765624,5.8083332275390624,7.846995941162109
5975615227354,1.48977302,1,0.9564835632324218,5.521029028320312,7.941566906738281
5975617727979,1.492273645,1,1.0702081420898437,5.212177014160156,8.238447912597655
5975620230427,1.494776093,1,1.1480196960449218,4.791994622802734,8.413224633789062
5975622727406,1.497273072,1,1.1192892761230469,4.605246893310547,8.556876733398436
5975625234906,1.499780572,1,1.1085153686523437,4.422090466308593,8.655039001464843
5975627729593,1.502275259,1,0.9900023864746094,4.3825861389160155,8.844180932617187
5975630228187,1.504773853,1,0.6105214233398437,4.2317514343261715,9.023746057128905
5975632730218,1.507275884,1,0.3447650390625,4.220977526855468,8.892064965820312
5975635227927,1.509773593,1,0.18914193115234373,4.299986181640625,8.908824377441405
5975637727510,1.512273176,1,-0.029927520751953124,4.43047017211914,8.779537487792968
5975640229750,1.514775416,1,-0.36391865234375,4.703409161376952,8.680178118896483
5975642727145,1.517272811,1,-0.4417302062988281,4.929661218261718,8.508992700195313
5975645230218,1.519775884,1,-0.5973533142089843,5.140350964355468,8.403647827148436
5975647727145,1.522272811,1,-0.7278373046875,5.475539196777343,7.908048083496094
5975650227979,1.524773645,1,-0.9983820922851562,5.896918688964844,7.663839514160156
5975652730270,1.527275936,1,-1.2114660400390624,6.133944653320312,7.437587457275391
5975655227041,1.529772707,1,-1.3048399047851562,6.264428643798828,7.13112964477539
5975657728656,1.532274322,1,-1.5071499450683592,6.5756748596191406,6.5756748596191406
5975660230166,1.534775832,1,-1.7908628417968748,6.918045697021484,6.363788012695312
5975662726833,1.537272499,1,-1.7513585144042967,7.050923889160156,6.095637426757812
5975665230739,1.539776405,1,-1.898601916503906,7.1586629638671875,5.878962176513672
5975667728083,1.542273749,1,-1.7968483459472655,7.351396197509765,5.519831927490234
5975670227250,1.544772916,1,-1.6938976745605467,7.5153990112304685,5.220556719970703
5975672730062,1.547275728,1,-1.629254229736328,7.690175732421874,5.046977099609375
5975675227614,1.54977328,1,-1.552639776611328,7.64229169921875,4.894945294189453
5975677728239,1.552273905,1,-1.4449007019042968,7.6087728759765625,4.674678741455078
5975680230062,1.554775728,1,-1.4137760803222656,7.630320690917968,4.50109912109375
5975682727823,1.557273489,1,-1.0785878479003905,7.5165961120605465,4.313154290771484
5975685229906,1.559775572,1,-1.3180080139160155,7.406462835693359,4.198232611083984
5975687727718,1.562273384,1,-1.2737152832031249,7.319074475097656,4.068945721435546
5975690227145,1.564772811,1,-1.3299790222167969,6.988674645996094,3.968389251708984
5975692729802,1.567275468,1,-1.4616601135253906,6.846219647216796,4.015076184082031
5975695227562,1.569773228,1,-1.4053963745117186,6.603208178710937,3.986345764160156
5975697727927,1.572273593,1,-1.419761584472656,6.299144567871093,4.078522528076172
5975700230218,1.574775884,1,-1.1420341918945311,6.167463476562499,4.090493536376953
5975702727979,1.577273645,1,-1.1540052001953125,6.045359191894531,4.234145635986328
5975705229541,1.579775207,1,-1.1360486877441405,5.96275923461914,4.337096307373047
5975707727041,1.582272707,1,-0.9947907897949219,5.7125651611328125,4.46279189453125
5975710227302,1.584772968,1,-1.1276689819335937,5.6024318847656245,4.65432802734375
5975712728760,1.587274426,1,-1.1145008728027344,5.506663818359375,4.722562774658203
5975715228708,1.589774374,1,-1.1695675109863282,5.392939239501953,4.8314989501953125
5975717727302,1.592272968,1,-1.1528080993652343,5.176263989257812,5.1152118469238275
5975720229177,1.594774843,1,-1.2473790649414063,5.093664031982422,5.068524914550781
5975722727250,1.597272916,1,-1.2785036865234374,5.06253941040039,5.082890124511718
5975725230531,1.599776197,1,-1.3311761230468748,5.085284326171875,5.072116217041016
5975727727041,1.602272707,1,-1.3347674255371094,5.011064074707031,5.013458276367187
5975730228031,1.604773697,1,-1.43652099609375,5.05655390625,4.918887310791015
5975732730114,1.60727578,1,-1.3970166687011718,5.021837982177734,4.875791680908203
5975735227041,1.609772707,1,-1.495178936767578,5.054159704589844,4.833893151855468
5975737727979,1.612273645,1,-1.5478513732910155,5.187037896728516,4.469974499511719
5975740230010,1.614775676,1,-1.6986860778808592,5.209782812499999,4.383783239746093
5975742728291,1.617273957,1,-1.8004396484374998,5.200206005859375,4.271255761718749
5975745230270,1.619775936,1,-1.8435352783203125,5.2456958374023435,4.140771771240234
5975747727302,1.622272968,1,-1.7082628845214842,5.361814617919921,3.7768531188964842
5975750227614,1.62477328,1,-1.6771382629394531,5.448005877685547,3.5589807678222654
5975752729489,1.627275155,1,-1.6795324645996093,5.536591339111328,3.414131567382812
5975755227614,1.62977328,1,-1.7106570861816406,5.623979699707031,3.324349005126953
5975757727510,1.632273176,1,-1.7214309936523438,5.781997009277344,3.034650604248047
5975760229645,1.634775311,1,-1.6256629272460936,5.816712933349609,2.986766571044922
5975762727562,1.637273228,1,-1.696291876220703,5.852625958251953,3.0262708984374997
5975765230843,1.639776509,1,-1.8698714965820311,5.883750579833984,3.1112650573730467
5975767727666,1.642273332,1,-1.848323681640625,6.0525417968749995,2.9077579162597655
5975770227614,1.64477328,1,-1.7549498168945312,6.15429536743164,2.868253588867187
5975772729698,1.647275364,1,-1.763329522705078,6.1818286865234375,2.826355059814453
5975775227562,1.649773228,1,-1.8219874633789062,6.157886669921875,3.0633810241699218
5975777727927,1.652273593,1,-1.763329522705078,6.313509777832031,3.0729578308105467
5975780229645,1.654775311,1,-1.6735469604492186,6.4080807434082026,3.0119056884765625
5975782727041,1.657272707,1,-1.7417817077636717,6.421248852539062,3.038241906738281
5975785229906,1.659775572,1,-1.6508020446777343,6.379350323486328,3.125630267333984
5975787727406,1.662273072,1,-1.7190367919921874,6.247669232177734,3.3686417358398435
5975790227354,1.66477302,1,-1.7609353210449217,6.297947467041015,3.408146063232422
5975792729802,1.667275468,1,-1.6891092712402342,6.23090982055664,3.545812658691406
5975795227875,1.669773541,1,-1.6891092712402342,6.1447185607910155,3.708618371582031
5975797727770,1.672273436,1,-1.6675614562988281,6.216544610595703,3.9707834533691404
5975800230062,1.674775728,1,-1.4185644836425781,6.217741711425781,4.082113830566406
5975802727093,1.677272759,1,-1.291671795654297,6.190208392333984,4.248510845947266
5975805230166,1.679775832,1,-1.1276689819335937,6.205770703124999,4.589684582519531
5975807726937,1.682272603,1,-1.0690110412597655,6.233304022216797,4.818330841064453
5975810227458,1.684773124,1,-0.7637503295898437,6.196193896484375,5.049371301269531
5975812729385,1.687275051,1,-0.824802471923828,6.131550451660156,5.372588525390625
5975815227979,1.689773645,1,-0.5722141967773438,6.080075115966797,5.493495709228515
5975817727458,1.692273124,1,-0.4656722229003906,5.718550665283203,6.09683452758789
5975820229958,1.694775624,1,-0.5853823059082031,5.759252093505859,6.3901242309570305
5975822727198,1.697272864,1,-0.17238251953125,5.899312890625,6.420051751708984
5975825229698,1.699775364,1,-0.08978256225585937,6.038176586914062,6.579266162109374
5975827727770,1.702273436,1,-0.18076222534179687,5.876567974853515,7.076063006591797
5975830227406,1.704773072,1,-0.1879448303222656,5.792770916748046,7.222109307861328
5975832729437,1.707275103,1,-0.19512743530273435,5.693411547851563,7.431601953125
5975835227406,1.709773072,1,-0.19632453613281248,5.779602807617187,7.615955480957031
5975837728395,1.712274061,1,-0.12330138549804687,5.86699116821289,7.8350249328613275
5975840230166,1.714775832,1,-0.13287819213867186,5.839457849121094,7.937975604248046
5975842727770,1.717273436,1,-0.18315642700195311,5.839457849121094,8.005013250732421
5975845230375,1.719776041,1,0.062249243164062495,5.834669445800781,8.043320477294921
5975847727458,1.722273124,1,0.11611878051757812,5.869385369873046,8.07683930053711
5975850226833,1.724772499,1,0.11611878051757812,5.865794067382812,8.044517578125
5975852729906,1.727275572,1,0.20829554443359374,5.917269403076172,7.999027746582031
5975855227250,1.729772916,1,0.17836802368164062,5.944802722167968,7.866149554443359
5975857727302,1.732272968,1,0.2693476867675781,6.013037469482422,7.8709379577636716
5975860230583,1.734776249,1,0.17597382202148437,6.0908490234374995,7.769184387207031
5975862727979,1.737273645,1,0.1927332336425781,6.081272216796875,7.677007623291015
5975865235895,1.739781561,1,0.051475335693359374,6.111199737548827,7.545326531982422
5975867726312,1.742271978,1,0.4465186096191406,6.159083770751953,7.491456994628906
5975870227822,1.744773488,1,-0.3315969299316406,6.500257507324219,7.685387329101562
5975872729906,1.747275572,1,0.4225765930175781,6.505045910644531,7.4782888854980465
5975875227666,1.749773332,1,0.32561142578124996,6.697779144287109,7.520187414550781
5975877727406,1.752273072,1,0.3938461730957031,6.0884548217773435,7.6614453125
5975880230375,1.754776041,1,-0.1580173095703125,6.28837066040039,7.748833673095703
5975882727614,1.75727328,1,0.16519991455078123,6.546944439697265,7.492654095458984
5975885230479,1.759776145,1,-0.13766659545898435,6.892906579589844,7.569268548583984
5975887727354,1.76227302,1,-0.4273649963378906,6.961141326904296,7.732074261474609
5975890227406,1.764773072,1,-0.7685387329101562,7.004236956787109,7.9283987976074215
5975892729906,1.767275572,1,-0.9325415466308593,7.122749938964843,8.206126190185547
5975895228500,1.769774166,1,-0.9469067565917968,7.293935357666015,8.585607153320312
5975897725427,1.772271093,1,-0.9409212524414062,7.600393170166015,8.9255837890625
5975900226208,1.774771874,1,-1.1863269226074218,7.758410479736328,9.16859525756836
5975902728187,1.777273853,1,-1.1719617126464843,7.931990100097655,9.459490759277344
5975905230895,1.779776561,1,-1.0235212097167967,7.921216192626953,9.886855755615233
5975907727875,1.782273541,1,-1.052251629638672,7.93558140258789,10.047267266845703
5975910227510,1.784773176,1,-0.7876923461914062,8.040926275634765,10.083180291748047
5975912730375,1.787276041,1,-0.6069301208496093,8.072050897216796,9.943119494628906
5975915228135,1.789773801,1,-0.6200982299804687,7.958326318359375,10.041281762695311
5975917727354,1.79227302,1,-0.7110778930664062,7.396886029052734,10.087968695068358
5975920229541,1.794775207,1,-0.6212953308105469,7.183802081298828,10.002974536132811
5975922728187,1.797273853,1,-0.6667851623535156,6.992265948486327,9.890447058105469
5975925230322,1.799775988,1,-0.7015010864257812,6.854599353027344,9.60194575805664
5975927727041,1.802272707,1,-0.7601590270996094,6.544550238037109,9.345766180419922
5975930227145,1.804772811,1,-0.5913678100585937,6.373364819335937,9.188945971679686
5975932729437,1.807275103,1,-0.4908113403320312,6.150704064941406,8.98304462890625
5975935226625,1.809772291,1,-0.45010991210937495,5.987898352050781,8.576030346679687
5975937728291,1.812273957,1,-0.4321533996582031,5.786785412597656,8.329427575683594
5975940229854,1.81477552,1,-0.4848258361816406,5.674257934570313,8.106766821289062
5975942726937,1.817272603,1,-0.584185205078125,5.653907220458984,7.9272016967773435
5975945230322,1.819775988,1,-0.5698199951171875,5.519831927490234,7.48906279296875
5975947727875,1.822273541,1,-0.7254431030273437,5.40730444946289,7.262810736083984
5975950227302,1.824772968,1,-0.7398083129882812,5.3570262145996095,7.113173132324218
5975952729906,1.827275572,1,-0.8511386901855468,5.374982727050781,6.913257293701172
5975955227562,1.829773228,1,-0.8176198669433593,5.456385583496093,6.530185028076171
5975957727822,1.832273488,1,-0.7984662536621093,5.561730456542969,6.452373474121093
5975960228343,1.834774009,1,-0.8391676818847655,5.686228942871093,6.344634399414062
5975962728031,1.837273697,1,-0.8415618835449218,5.776011505126953,6.1818286865234375
5975965229958,1.839775624,1,-0.8511386901855468,5.882553479003906,5.9376201171875
5975967727093,1.842272759,1,-0.8798691101074219,6.124367846679687,5.804741925048828
5975970227666,1.844773332,1,-0.8834604125976562,6.197390997314453,5.740098480224609
5975972730166,1.847275832,1,-0.8738836059570312,6.23090982055664,5.749675286865234
5975975226885,1.849772551,1,-0.9864110839843749,6.246472131347656,5.722141967773437
5975977728239,1.852273905,1,-0.9732429748535155,6.290764862060547,5.679046337890624
5975980230322,1.854775988,1,-0.9720458740234375,6.4463879699707025,5.516240625
5975982728291,1.857273957,1,-1.0103531005859374,6.4846951965332025,5.45877978515625
5975985228864,1.85977453,1,-1.0330980163574217,6.543353137207031,5.482721801757812
5975987727614,1.86227328,1,-0.8870517150878906,6.449979272460937,5.446808776855469
5975990227406,1.864773072,1,-0.8762778076171874,6.342240197753906,5.373785626220703
5975992729593,1.867275259,1,-0.9337386474609375,6.287173559570312,5.278017559814453
5975995227614,1.86977328,1,-0.9935936889648437,6.245275030517578,5.033808990478516
5975997727354,1.87227302,1,-1.0534487304687499,6.026205578613281,4.9069163024902345
5976000230010,1.874775676,1,-1.1887211242675781,5.892130285644531,4.777629412841796
5976002727458,1.877273124,1,-1.1935095275878906,5.876567974853515,4.717774371337891
5976005230114,1.87977578,1,-1.1767501159667968,5.724536169433593,4.489128112792969
5976007728031,1.882273697,1,-1.1911153259277343,5.701791253662109,4.335899206542969
5976010228135,1.884773801,1,-1.1671733093261718,5.590460876464843,4.179078997802734
5976012729802,1.887275468,1,-1.061828436279297,5.49708701171875,4.096479040527344
5976015228083,1.889773749,1,-1.1827356201171875,5.505466717529297,3.870226983642578
5976017727927,1.892273593,1,-1.1180921752929687,5.297171173095703,3.778050219726562
5976020230427,1.894776093,1,-1.2150573425292968,5.157110375976562,3.708618371582031
5976022727145,1.897272811,1,-1.255758770751953,5.1511248718261715,3.6547488342285153
5976025230166,1.899775832,1,-1.2593500732421874,5.160701678466797,3.414131567382812
5976027727250,1.902272916,1,-1.3778630554199218,5.118803149414062,3.494337322998047
5976030227145,1.904772811,1,-1.3850456604003905,5.1319712585449215,3.385401147460937
5976032729385,1.907275051,1,-1.4832079284667967,5.183446594238281,3.3782185424804685
5976035226260,1.909771926,1,-1.5035586425781249,5.104437939453125,3.3171664001464842
5976037727614,1.91227328,1,-1.5203180541992187,5.299565374755859,3.381809844970703
5976040230479,1.914776145,1,-1.429338391113281,5.378574029541015,3.384204046630859
5976042727614,1.91727328,1,-1.2892775939941405,5.406107348632812,3.417722869873047
5976045230531,1.919776197,1,-1.1707646118164061,5.652710119628906,3.408146063232422
5976047727093,1.922272759,1,-1.1887211242675781,5.723339068603515,3.630806817626953
5976050227614,1.92477328,1,-1.22583125,5.832275244140624,3.7193922790527343
5976052729906,1.927275572,1,-1.254561669921875,5.91846650390625,3.867832781982422
5976055227354,1.92977302,1,-1.2234370483398436,6.046556292724609,3.9899370666503904
5976057727718,1.932273384,1,-1.052251629638672,6.044162091064453,4.152742779541016
5976060230062,1.934775728,1,-0.8930372192382812,6.007051965332031,4.284423870849609
5976062727614,1.93727328,1,-0.9193734375,6.013037469482422,4.460397692871093
5976065229541,1.939775207,1,-0.9983820922851562,6.118382342529297,4.637568615722656
5976067726937,1.942272603,1,-1.1911153259277343,6.306327172851562,4.624400506591797
5976070227927,1.944773593,1,-1.1923124267578125,6.38413872680664,4.581304876708984
5976072729489,1.947275155,1,-1.1456254943847655,6.348225701904297,4.673481640625
5976075228031,1.949773697,1,-1.2306196533203124,6.141127258300781,5.052962603759766
5976077729229,1.952274895,1,-1.1288660827636718,6.100425830078125,5.161898779296875
5976080229854,1.95477552,1,-0.9696516723632812,6.083666418457031,5.318718988037109
5976082727510,1.957273176,1,-0.842758984375,6.124367846679687,5.422866760253906
5976085230791,1.959776457,1,-0.7122749938964843,6.199785198974609,5.699397052001952
5976087726885,1.962272551,1,-0.5638344909667968,6.1650692749023435,5.671863732910156
5976090227197,1.964772863,1,-0.3711012573242187,6.1255649475097655,5.80953032836914
5976092729489,1.967275155,1,-0.594959112548828,6.084863519287109,6.042964990234375
5976095227458,1.969773124,1,-0.5805939025878906,6.101622930908203,6.010643267822266
5976097727249,1.972272915,1,-0.51714755859375,6.229712719726562,6.05852730102539
5976100230166,1.974775832,1,-0.5147533569335937,6.119579443359375,6.0908490234374995
5976102727145,1.977272811,1,-0.6117185241699218,5.91846650390625,6.1447185607910155
5976105234437,1.979780103,1,-0.6979097839355468,5.869385369873046,6.278793853759765
5976107729333,1.982274999,1,-0.7254431030273437,5.90529839477539,6.299144567871093
5976110227354,1.98477302,1,-0.6871358764648438,5.963956335449218,6.227318518066406
5976112729385,1.987275051,1,-0.6919242797851562,5.9962780578613275,6.1279591491699215
5976115227458,1.989773124,1,-0.6835445739746093,5.8454433532714845,6.086060620117187
5976117727614,1.99227328,1,-0.6428431457519531,6.056133099365234,6.112396838378906
5976120229385,1.994775051,1,-0.6248866333007812,6.093243225097656,6.086060620117187
5976122724333,1.997269999,1,-0.5877765075683593,6.147112762451171,6.0525417968749995
5976125228135,1.999773801,1,-0.6093243225097655,6.274005450439453,6.02022007446289
5976127727510,2.002273176,1,-0.55545478515625,6.167463476562499,6.0154316711425775
5976130227822,2.004773488,1,-0.5458779785156249,6.206967803955078,6.009446166992187
5976132729958,2.007275624,1,-0.5770026000976562,6.272808349609375,6.060921502685546
5976135226937,2.009772603,1,-0.5398924743652344,6.344634399414062,6.086060620117187
5976137727666,2.012273332,1,-0.5805939025878906,6.386532928466797,6.151901165771484
5976140229958,2.014775624,1,-0.5195417602539062,6.363788012695312,6.119579443359375
5976142727770,2.017273436,1,-0.5339069702148437,6.41646044921875,6.216544610595703
5976145230218,2.019775884,1,-0.45010991210937495,6.4475850708007805,6.315903979492187
5976147726989,2.022272655,1,-0.37828386230468747,6.460753179931641,6.5038488098144525
5976150227302,2.024772968,1,-0.39145197143554683,6.451176373291015,6.562506750488281
5976152729697,2.027275363,1,-0.3124433166503906,6.512228515625,6.6522893127441405
5976155226989,2.029772655,1,-0.32082302246093747,6.505045910644531,6.9348051086425775
5976157727041,2.032272707,1,-0.17597382202148437,6.5397618347167965,7.098807922363281
5976160230062,2.034775728,1,-0.08738836059570312,6.463147381591797,7.3094976684570305
5976162727822,2.037273488,1,-0.1352723937988281,6.496666204833984,7.381323718261719
5976165229281,2.039774947,1,-0.07541735229492187,6.453570574951171,7.735665563964844
5976167726781,2.042272447,1,-0.01915361328125,6.4356140625,7.982268334960937
5976170227145,2.044772811,1,0.08738836059570312,6.412869146728515,8.204929089355469
5976172729437,2.047275103,1,0.005985504150390624,6.360196710205078,8.288726147460936
5976175227249,2.049772915,1,-0.19393033447265623,6.457161877441406,8.763975177001953
5976177727718,2.052273384,1,-0.00239420166015625,6.421248852539062,8.858546142578124
5976180234541,2.054780207,1,-0.047884033203124995,6.38413872680664,9.0021982421875
5976182729229,2.057274895,1,-0.23702596435546874,6.28837066040039,9.135076434326171
5976185230583,2.059776249,1,-0.4572925170898437,6.414066247558593,9.387664709472656
5976187726989,2.062272655,1,-0.8391676818847655,6.5026517089843745,9.33379517211914
5976190227354,2.06477302,1,-0.9828197814941406,6.508637213134765,9.244012609863281
5976192729854,2.06727552,1,-1.2042834350585936,6.517016918945312,9.291896643066405
5976195227822,2.069773488,1,-1.2629413757324217,6.610390783691406,9.107543115234375
5976197727874,2.07227354,1,-1.1156979736328125,6.6702458251953125,8.904035974121093
5976200229645,2.074775311,1,-1.1552023010253905,6.677428430175781,8.844180932617187
5976202726833,2.077272499,1,-1.159990704345703,6.743268975830078,8.591592657470702
5976205230010,2.079775676,1,-0.9720458740234375,6.868964562988281,8.354566693115235
5976207727145,2.082272811,1,-0.9014169250488281,6.841431243896484,8.352172491455077
5976210227874,2.08477354,1,-0.8403647827148437,6.853402252197265,8.180987072753906
5976212730583,2.087276249,1,-0.6847416748046875,6.834248638916015,8.093598712158203
5976215227197,2.089772863,1,-0.5793968017578125,6.8569935546875,7.827842327880859
5976217728135,2.092273801,1,-0.4070142822265625,6.902483386230468,7.7416510681152335
5976220229697,2.094775363,1,-0.39145197143554683,6.9156514953613275,7.6099699768066404
5976222726312,2.097271978,1,-0.2920926025390625,6.9168485961914055,7.572859851074218
5976225230010,2.099775676,1,-0.2537853759765625,6.795941412353515,7.343016491699219
5976227727822,2.102273488,1,-0.22744915771484372,6.710947253417968,7.319074475097656
5976230228135,2.104773801,1,-0.2537853759765625,6.6151791870117185,7.295132458496093
5976232729802,2.107275468,1,-0.3315969299316406,6.517016918945312,7.214926702880859
5976235227249,2.109772915,1,-0.4477157104492187,6.238092425537109,7.247248425292969
5976237728447,2.112274113,1,-0.6488286499023437,6.186617089843749,7.247248425292969
5976240230479,2.114776145,1,-0.6667851623535156,6.0908490234374995,7.280767248535156
5976242726937,2.117272603,1,-0.7218518005371093,6.05852730102539,7.277175946044921
5976245229749,2.119775415,1,-0.7410054138183594,6.0525417968749995,7.314286071777343
5976247726677,2.122272343,1,-0.6775590698242188,6.063315704345703,7.310694769287109
5976250226781,2.124772447,1,-0.7158662963867187,6.1088055358886715,7.316680273437499
5976252729281,2.127274947,1,-0.6308721374511719,6.151901165771484,7.372944012451171
5976255227406,2.129773072,1,-0.5363011718749999,6.228515618896484,7.375338214111328
5976257727458,2.132273124,1,-0.6117185241699218,6.227318518066406,7.411251239013671
5976260230218,2.134775884,1,-0.5770026000976562,6.241683728027343,7.407659936523437
5976262726624,2.13727229,1,-0.6440402465820312,6.299144567871093,7.472303381347656
5976265229697,2.139775363,1,-0.5985504150390625,6.313509777832031,7.281964349365234
5976267727510,2.142273176,1,-0.6943184814453125,6.369773516845703,7.187393383789062
5976270227718,2.144773384,1,-0.7697358337402344,6.4080807434082026,7.0473325866699215
5976272729437,2.147275103,1,-0.729034405517578,6.443993768310547,7.000645654296875
5976275227197,2.149772863,1,-0.7529764221191406,6.500257507324219,6.7085530517578125
5976277727718,2.152273384,1,-0.6177040283203125,6.623558892822265,6.593631372070312
5976280229906,2.154775572,1,-0.45968671875,6.658274816894531,6.45476767578125
5976282726989,2.157272655,1,-0.584185205078125,6.6271501953125,6.45476767578125
5976285230687,2.159776353,1,-0.7038952880859375,6.616376287841796,6.241683728027343
5976287727510,2.162273176,1,-0.6500257507324219,6.672640026855468,6.00106646118164
5976290228239,2.164773905,1,-0.6260837341308594,6.698976245117187,5.971138940429687
5976292729645,2.167275311,1,-0.5889736083984375,6.72890376586914,5.930437512207031
5976295227249,2.169772915,1,-0.5374982727050781,6.599616876220702,5.773617303466796
5976297727718,2.172273384,1,-0.6751648681640625,6.581660363769531,5.668272430419922
5976300229489,2.174775155,1,-0.7362170104980469,6.500257507324219,5.536591339111328
5976302727770,2.177273436,1,-0.8164227661132812,6.400898138427734,5.413289953613281
5976305230322,2.179775988,1,-0.9109937316894531,6.287173559570312,5.392939239501953
5976307727197,2.182272863,1,-1.0307038146972656,6.302735870361328,5.3007624755859375
5976310227718,2.184773384,1,-1.1097124694824219,6.226121417236328,5.2073886108398435
5976312729385,2.187275051,1,-0.9876081848144531,6.1638721740722655,5.082890124511718
5976315226937,2.189772603,1,-1.1767501159667968,6.0704983093261715,4.916493109130859
5976317727666,2.192273332,1,-1.1456254943847655,6.069301208496094,4.923675714111328
5976320231051,2.194776717,1,-1.0702081420898437,6.0142345703124995,4.827907647705078
5976322727822,2.197273488,1,-1.0965443603515623,5.984307049560546,4.6818613464355465
5976325230426,2.199776092,1,-1.1456254943847655,5.882553479003906,4.695029455566406
5976327726937,2.202272603,1,-1.0654197387695312,5.758054992675781,4.5968671875
5976330227458,2.204773124,1,-1.2868833923339842,5.6766521362304685,4.659116430664063
5976332729645,2.207275311,1,-1.4353238952636718,5.637147808837891,4.41131655883789
5976335228291,2.209773957,1,-1.4341267944335936,5.537788439941406,4.274847064208984
5976337728656,2.212274322,1,-1.255758770751953,5.519831927490234,4.247313745117188
5976340230010,2.214775676,1,-1.2820949890136717,5.537788439941406,4.1192239562988275
5976342726676,2.217272342,1,-1.2617442749023438,5.468356591796875,3.9827544616699218
5976345229281,2.219774947,1,-1.3551181396484375,5.437231970214843,3.9240965209960934
5976347727510,2.222273176,1,-1.429338391113281,5.499481213378906,3.83072265625
5976350227301,2.224772967,1,-1.6029180114746093,5.3570262145996095,3.727771984863281
5976352729333,2.227274999,1,-1.659181750488281,5.33068999633789,3.6547488342285153
5976355228291,2.229773957,1,-1.7561469177246092,5.260061047363281,3.564966271972656
5976357727874,2.23227354,1,-1.830367169189453,5.318718988037109,3.430890979003906
5976360230479,2.234776145,1,-1.897404815673828,5.392939239501953,3.2836475769042965
5976362727458,2.237273124,1,-1.905784521484375,5.394136340332031,3.2908301818847656
5976365229541,2.239775207,1,-1.867477294921875,5.481524700927734,3.142389678955078
5976367727614,2.24227328,1,-1.8567033874511718,5.517437725830078,3.1124621582031247
5976370227770,2.244773436,1,-1.8183961608886718,5.533000036621093,3.0980969482421874
5976372729281,2.247274947,1,-1.7944541442871094,5.592855078125,3.0442274108886718
5976375226676,2.249772342,1,-1.7597382202148437,5.627571002197265,3.019088293457031
5976377724176,2.252269842,1,-1.6041151123046875,5.634753607177734,3.0502129150390624
5976380226520,2.254772186,1,-1.6639701538085936,5.6946086486816405,3.1028853515624997
5976382727770,2.257273436,1,-1.678335363769531,5.79037671508789,3.289633081054687
5976385229541,2.259775207,1,-1.6400281372070311,5.95677373046875,3.3446997192382812
5976387728239,2.262273905,1,-1.543062969970703,5.949591125488281,3.5146880371093747
5976390227926,2.264773592,1,-1.5083470458984374,5.984307049560546,3.6739024475097652
5976392729541,2.267275207,1,-1.5107412475585937,6.040570788574218,4.04141240234375
5976395227510,2.269773176,1,-1.4640543151855467,6.063315704345703,4.2317514343261715
5976397727301,2.272272967,1,-1.5059528442382812,6.123170745849609,4.4184991638183595
5976400230114,2.27477578,1,-1.476025323486328,6.0896519226074215,4.560954162597656
5976402727406,2.277273072,1,-1.5263035583496092,6.09683452758789,4.903325
5976405229958,2.279775624,1,-1.5837643981933593,6.065709906005859,5.055356805419922
5976407727354,2.28227302,1,-1.5885528015136718,5.966350537109375,5.2636523498535155
5976410226989,2.284772655,1,-1.6340426330566404,5.9591679321289055,5.370194323730469
5976412729697,2.287275363,1,-1.62805712890625,5.947196923828125,5.542576843261719
5976415226520,2.289772186,1,-1.5550339782714844,5.864596966552734,5.6203883972167965
5976417727979,2.292273645,1,-1.5442600708007812,5.805939025878906,5.5449710449218745
5976420230374,2.29477604,1,-1.62805712890625,5.84185205078125,5.600037683105469
5976422732926,2.297278592,1,-1.6232687255859375,5.831078143310546,5.570110162353515
5976425232666,2.299778332,1,-1.6172832214355468,5.80953032836914,5.513846423339843
5976427727041,2.302272707,1,-1.4233528869628906,5.796362219238281,5.446808776855469
5976430227197,2.304772863,1,-1.5071499450683592,5.773617303466796,5.428852264404297
5976432729749,2.307275415,1,-1.43652099609375,5.728127471923828,5.200206005859375
5976435228031,2.309773697,1,-1.4915876342773438,5.84185205078125,5.191826300048827
5976437727093,2.312272759,1,-1.4592659118652342,5.795165118408203,5.040991595458984
5976440229749,2.314775415,1,-1.6112977172851561,5.795165118408203,5.074510418701172
5976442727301,2.317272967,1,-1.5322890624999999,5.780799908447265,5.072116217041016
5976445229906,2.319775572,1,-1.2521674682617188,5.766434698486328,5.123591552734375
5976447727249,2.322272915,1,-1.5789759948730469,6.007051965332031,5.146336468505859
5976450228239,2.324773905,1,-1.2952630981445312,6.263231542968749,5.117606048583984
5976452730062,2.327275728,1,-1.3287819213867187,6.4463879699707025,5.29238276977539
5976455228343,2.329774009,1,-1.3335703247070312,6.412869146728515,5.537788439941406
5976457727874,2.33227354,1,-1.3658920471191405,6.426037255859375,5.597643481445312
5976460230583,2.334776249,1,-1.3563152404785155,6.5601125488281244,5.651513018798828
5976462727614,2.33727328,1,-1.3335703247070312,6.6343328002929685,5.8610056640625
5976465231781,2.339777447,1,-1.3263877197265623,6.860584857177734,5.931634613037109
5976467728291,2.342273957,1,-1.3479355346679687,6.928819604492187,6.095637426757812
5976470227041,2.344772707,1,-1.254561669921875,7.0090253601074215,6.2392895263671875
5976472729489,2.347275155,1,-1.2126631408691406,7.0844427124023435,6.372167718505859
5976475226885,2.349772551,1,-1.0570400329589844,7.145494854736327,6.475118389892578
5976477728135,2.352273801,1,-0.9995791931152344,7.173028173828125,6.513425616455078
5976480230114,2.35477578,1,-0.978031378173828,7.198167291259765,6.572083557128906
5976482728499,2.357274165,1,-0.9181763366699218,7.119158636474609,6.701370446777343
5976485230791,2.359776457,1,-0.6464344482421874,7.126341241455077,6.738480572509765
5976487727614,2.36227328,1,-0.44412440795898434,7.104793426513671,6.776787799072265
5976490226989,2.364772655,1,-0.1592144104003906,7.030573175048827,6.886921075439453
5976492729489,2.367275155,1,0.10654197387695312,7.004236956787109,7.0449383850097655
5976495227822,2.369773488,1,0.6284779357910156,6.738480572509765,7.225700610351562
5976497728135,2.372273801,1,0.93852705078125,6.624755993652343,7.319074475097656
5976500230531,2.374776197,1,1.5885528015136718,6.487089398193359,7.3861121215820305
5976502726729,2.377272395,1,1.5406687683105469,6.388927130126953,8.046911779785155
5976505229697,2.379775363,1,1.4999673400878906,5.730521673583984,8.14028564453125
5976507726624,2.38227229,1,2.1930887207031247,5.801150622558594,8.040926275634765
5976510227093,2.384772759,1,2.053027923583984,5.687426043701172,8.200140686035155
5976512730062,2.387275728,1,1.66636435546875,5.49708701171875,8.560468035888672
5976515227406,2.389773072,1,0.86191259765625,4.940435125732422,8.580818749999999
5976517728135,2.392273801,1,0.22505495605468748,4.838681555175781,8.692149127197265
5976520230478,2.394776144,1,-0.25737667846679685,4.872200378417968,8.75320126953125
5976522727458,2.397273124,1,-0.6440402465820312,5.058948107910156,8.993818536376953
5976525229593,2.399775259,1,-1.0462661254882812,5.402516046142578,9.169792358398437
5976527726624,2.40227229,1,-1.2401964599609374,5.572504364013671,9.409212524414063
5976530226520,2.404772186,1,-1.2114660400390624,5.868188269042968,9.585186346435547
5976532728812,2.407274478,1,-1.158793603515625,6.198588098144531,9.886855755615233
5976535226728,2.409772394,1,-1.0474632263183594,6.763619689941406,10.047267266845703
5976537728187,2.412273853,1,-1.083376251220703,6.979097839355468,10.08677159423828
5976540230010,2.414775676,1,-1.073799444580078,7.20774409790039,10.143035333251953
5976542727510,2.417273176,1,-1.1552023010253905,7.454346868896484,10.071209283447265
5976545230114,2.41977578,1,-1.1791443176269532,7.740453967285156,10.013748443603514
5976547727874,2.42227354,1,-1.2593500732421874,7.89727417602539,9.823409411621093
5976550228083,2.424773749,1,-1.199495031738281,7.887697369384765,9.745597857666015
5976552729906,2.427275572,1,-1.3299790222167969,7.89727417602539,9.367313995361327
5976555227562,2.429773228,1,-1.2581529724121092,8.123526232910155,9.064447485351561
5976557728031,2.432273697,1,-1.1635820068359375,8.046911779785155,8.851363537597656
5976560230322,2.434775988,1,-1.1192892761230469,7.924807495117187,8.571241943359375
5976562726989,2.437272655,1,-1.0821791503906248,7.706935144042968,7.921216192626953
5976565229593,2.439775259,1,-0.8846575134277344,7.37414111328125,7.6099699768066404
5976567726885,2.442272551,1,-0.8918401184082031,7.11197603149414,7.432799053955078
5976570226572,2.444772238,1,-0.8367734802246093,6.871358764648437,7.127538342285156
5976572729228,2.447274894,1,-0.6835445739746093,6.628347296142578,6.716932757568359
5976575227666,2.449773332,1,-0.6751648681640625,6.302735870361328,6.543353137207031
5976577728135,2.452273801,1,-0.6548141540527344,6.136338854980468,6.449979272460937
5976580230166,2.454775832,1,-0.49679684448242184,6.056133099365234,6.244077929687499
5976582727926,2.457273592,1,-0.4321533996582031,5.8083332275390624,6.1638721740722655
5976585230374,2.45977604,1,-0.31004911499023435,5.717353564453124,6.118382342529297
5976587726833,2.462272499,1,-0.2561795776367187,5.626373901367187,6.120776544189453
5976590227249,2.464772915,1,-0.19632453613281248,5.5461681457519525,6.119579443359375
5976592729697,2.467275363,1,-0.20470424194335937,5.463568188476562,6.167463476562499
5976595227093,2.469772759,1,-0.201112939453125,5.416881256103515,6.171054779052734
5976597727874,2.47227354,1,-0.15442600708007811,5.370194323730469,6.266822845458984
5976600229697,2.474775363,1,-0.42975919799804685,5.372588525390625,6.398503936767578
5976602883968,2.477429634,1,-0.44053310546874996,5.560533355712891,6.643909606933593
5976605497145,2.480042811,1,-0.5231330627441406,5.687426043701172,6.777984899902344
5976607743291,2.482288957,1,-0.5781997009277343,5.76523759765625,6.932410906982422
5976610238760,2.484784426,1,-0.6177040283203125,5.864596966552734,7.085639813232421
5976612727145,2.487272811,1,-0.6607996582031249,6.0716954101562495,7.359775903320312
5976615226364,2.48977203,1,-0.7398083129882812,6.197390997314453,7.493851196289062
5976617726989,2.492272655,1,-0.7996633544921875,6.360196710205078,7.615955480957031
5976620225166,2.494770832,1,-0.9864110839843749,6.519411120605469,7.739256866455078
5976622725322,2.497270988,1,-0.9229647399902343,6.657077716064452,7.734468463134765
5976625225218,2.499770884,1,-1.0019733947753906,6.815095025634765,7.637503295898437
5976627725531,2.502271197,1,-1.0845733520507812,6.925228302001953,7.563283044433593
5976630228447,2.504774113,1,-1.1911153259277343,6.888118176269531,7.502230902099609
5976632728291,2.507273957,1,-1.2222399475097656,6.789955908203124,7.255628131103515
5976635224645,2.509770311,1,-1.3108254089355469,6.710947253417968,6.926425402832031
5976637727041,2.512272707,1,-1.3120225097656248,6.713341455078124,6.649895111083984
5976640228187,2.514773853,1,-1.3239935180664062,6.6714429260253905,6.410474945068359
5976642728187,2.517273853,1,-1.4053963745117186,6.525396624755859,5.792770916748046
5976645230426,2.519776092,1,-1.408987677001953,6.455964776611328,5.459976885986328
5976647727562,2.522273228,1,-1.4341267944335936,6.432022760009765,5.231330627441406
5976650227301,2.524772967,1,-1.4520833068847656,6.382941625976562,5.051765502929687
5976652728968,2.527274634,1,-1.332373223876953,6.156689569091797,4.568136767578125
5976655227562,2.529773228,1,-1.291671795654297,6.062118603515625,4.3454760131835934
5976657728343,2.532274009,1,-1.254561669921875,6.026205578613281,4.186261602783203
5976660230114,2.53477578,1,-1.2509703674316406,5.980715747070312,4.074931225585937
5976662733031,2.537278697,1,-1.20667763671875,5.84783755493164,3.7984009338378906
5976665232874,2.53977854,1,-1.1743559143066407,5.829881042480468,3.6822821533203123
5976667727353,2.542273019,1,-1.209071838378906,5.823895538330078,3.6343981201171873
5976670228083,2.544773749,1,-1.2006921325683593,5.772420202636718,3.6715082458496093
5976672729749,2.547275415,1,-1.1827356201171875,5.693411547851563,3.5110967346191404
5976675228499,2.549774165,1,-1.2330138549804688,5.659892724609374,3.4775779113769527
5976677728395,2.552274061,1,-1.2222399475097656,5.661089825439452,3.465606903076172
5976680230426,2.554776092,1,-1.255758770751953,5.661089825439452,3.4296938781738278
5976682727666,2.557273332,1,-1.2737152832031249,5.588066674804687,3.5434184570312497
5976685230739,2.559776405,1,-1.303642803955078,5.651513018798828,3.5230677429199218
5976687726989,2.562272655,1,-1.313219610595703,5.6215854980468745,3.5877111877441403
5976690226728,2.564772394,1,-1.4006079711914061,5.600037683105469,3.669114044189453
5976692729697,2.567275363,1,-1.426944189453125,5.522226129150391,3.7110125732421873
5976695227822,2.569773488,1,-1.484405029296875,5.592855078125,3.756502404785156
5976697727301,2.572272967,1,-1.5071499450683592,5.628768103027343,3.755305303955078
5976700228083,2.574773749,1,-1.581370196533203,5.577292767333984,3.822342950439453
5976702727978,2.577273644,1,-1.5658078857421873,5.543773944091797,3.8187516479492185
5976705227249,2.579772915,1,-1.5777788940429687,5.572504364013671,3.9145197143554684
5976707726989,2.582272655,1,-1.5167267517089842,5.5820811706542965,3.9504327392578125
5976710226468,2.584772134,1,-1.4736311218261717,5.6395420104980465,3.831919757080078
5976712729593,2.587275259,1,-1.3287819213867187,5.6563014221191406,4.037821099853516
5976715224906,2.589770572,1,-1.4041992736816404,5.693411547851563,4.140771771240234
5976717728239,2.592273905,1,-1.6244658264160154,5.823895538330078,4.241328240966797
5976720229437,2.594775103,1,-1.4257470886230468,5.84783755493164,4.173093493652344
5976722727301,2.597272967,1,-1.4975731384277342,5.781997009277344,4.27724126586914
5976725226416,2.599772082,1,-1.5083470458984374,5.8454433532714845,4.260481854248047
5976727727197,2.602272863,1,-1.4700398193359374,5.882553479003906,4.256890551757812
5976730226676,2.604772342,1,-1.5011644409179687,5.949591125488281,4.266467358398438
5976732730530,2.607276196,1,-1.4173673828125,5.913678100585937,4.161122485351562
5976735228499,2.609774165,1,-1.7262193969726563,5.916072302246094,4.180276098632812
5976737727874,2.61227354,1,-1.7022773803710936,5.92445200805664,4.007893579101562
5976740230062,2.614775728,1,-1.66636435546875,5.9376201171875,4.083310931396484
5976742726624,2.61727229,1,-1.6124948181152343,5.993883856201172,3.9408559326171875
5976745230999,2.619776665,1,-1.7597382202148437,6.044162091064453,4.005499377441406
5976747727562,2.622273228,1,-1.7645266235351562,6.101622930908203,4.04739790649414
5976750227197,2.624772863,1,-1.6747440612792968,6.236895324707031,4.107252947998047
5976752729437,2.627275103,1,-1.6723498596191406,6.36498511352539,4.13718046875
5976755227770,2.629773436,1,-1.4604630126953124,6.5026517089843745,4.25808765258789
5976757727874,2.63227354,1,-1.3730746520996093,6.542156036376952,4.272452862548828
5976760230739,2.634776405,1,-1.3850456604003905,6.5601125488281244,4.4376527770996095
5976762726676,2.637272342,1,-1.3311761230468748,6.697779144287109,4.495113616943359
5976765230895,2.639776561,1,-1.0187328063964842,6.657077716064452,4.550180255126953
5976767728030,2.642273696,1,-0.9181763366699218,6.704961749267578,4.708197564697265
5976770227353,2.644773019,1,-0.93852705078125,6.70975015258789,4.964377142333984
5976772729385,2.647275051,1,-0.833182177734375,6.7277066650390625,5.111620544433594
5976775227405,2.649773071,1,-0.8200140686035156,6.68461103515625,5.340266802978515
5976777728916,2.652274582,1,-0.7302315063476562,6.745663177490234,5.505466717529297
5976780230843,2.654776509,1,-0.5853823059082031,6.7037646484375,5.9376201171875
5976782726989,2.657272655,1,-0.4908113403320312,6.636727001953124,6.093243225097656
5976785229958,2.659775624,1,-0.5267243652343749,6.612784985351562,6.283582257080078
5976787727197,2.662272863,1,-0.5434837768554687,6.518214019775391,6.537367633056641
5976790227614,2.66477328,1,-0.5482721801757812,6.478709692382812,6.898892083740234
5976792728760,2.667274426,1,-0.5901707092285156,6.4655415832519525,7.145494854736327
5976795227093,2.669772759,1,-0.6081272216796875,6.434416961669921,7.273584643554687
5976797728343,2.672274009,1,-0.6967126831054687,6.4475850708007805,7.392097625732421
5976800230426,2.674776092,1,-0.7242460021972655,6.4739212890625,7.684190228271484
5976802726676,2.677272342,1,-0.9050082275390624,6.688202337646484,7.862558251953125
5976805229905,2.679775571,1,-0.8978256225585937,6.730100866699218,7.967903124999999
5976807726780,2.682272446,1,-1.052251629638672,6.7839704040527335,8.180987072753906
5976810227770,2.684773436,1,-1.0235212097167967,6.795941412353515,8.243236315917969
5976812729697,2.687275363,1,-1.2078747375488281,7.132326745605468,8.273163836669921
5976815226833,2.689772499,1,-1.2473790649414063,7.231686114501953,8.311471063232421
5976817727353,2.692273019,1,-1.313219610595703,7.323862878417969,8.279149340820313
5976820230270,2.694775936,1,-1.3970166687011718,7.308300567626953,8.354566693115235
5976822727562,2.697273228,1,-1.4425065002441406,7.4770917846679685,8.429984045410155
5976825230166,2.699775832,1,-1.4796166259765624,7.505822204589843,8.341398583984375
5976827727458,2.702273124,1,-1.504755743408203,7.605181573486328,8.343792785644531
5976830228187,2.704773853,1,-1.5011644409179687,7.693767034912109,8.300697155761718
5976832729853,2.707275519,1,-1.6077064147949218,7.845798840332031,8.263587030029296
5976835227458,2.709773124,1,-1.7178396911621092,7.9272016967773435,8.273163836669921
5976837728916,2.712274582,1,-2.2014684265136717,7.961917620849609,8.455123162841796
5976840230687,2.714776353,1,-2.3319524169921872,8.10197841796875,8.297105853271484
5976842727353,2.717273019,1,-2.1248539733886718,8.33780728149414,8.269572534179687
5976845230635,2.719776301,1,-1.7238251953125,8.214505895996094,8.400056524658202
5976847727145,2.722272811,1,-1.4640543151855467,8.019378460693359,8.481459381103516
5976850227145,2.724772811,1,-1.407790576171875,7.972691528320312,8.37611450805664
5976852730114,2.72727578,1,-1.284489190673828,7.7416510681152335,8.28034644165039
5976855227197,2.729772863,1,-1.3922282653808593,7.618349682617187,8.105569720458984
5976857728135,2.732273801,1,-1.5346832641601562,7.52737001953125,7.819462622070312
5976860230166,2.734775832,1,-1.6531962463378904,7.4579381713867186,7.539341027832031
5976862728083,2.737273749,1,-1.7669208251953124,7.320271575927734,7.550114935302734
5976865230999,2.739776665,1,-1.5298948608398437,7.034164477539062,7.637503295898437
5976867727301,2.742272967,1,-1.5227122558593749,6.721721160888672,7.643488800048828
5976870227301,2.744772967,1,-1.218648645019531,6.691793640136718,7.605181573486328
5976872730114,2.74727578,1,-0.7386112121582031,6.987477545166016,7.483077288818359
5976875227874,2.74977354,1,-0.47285482788085936,6.967126831054687,7.4794859863281244
5976877728291,2.752273957,1,-0.565031591796875,6.736086370849609,7.602787371826172
5976880230010,2.754775676,1,-0.6236895324707031,6.581660363769531,7.36097300415039
5976882726728,2.757272394,1,-0.6500257507324219,6.488286499023437,7.190984686279297
5976885229385,2.759775051,1,-0.843956085205078,6.381744525146484,7.11197603149414
5976887727353,2.762273019,1,-1.042674822998047,6.281188055419921,6.959944226074218
5976890224228,2.764769894,1,-1.1755530151367186,6.17344898071289,6.750451580810546
5976892727093,2.767272759,1,-1.4413093994140624,5.967547637939453,6.642712506103515
5976895227874,2.76977354,1,-1.407790576171875,6.0142345703124995,6.562506750488281
5976897728135,2.772273801,1,-1.4317325927734375,6.175843182373047,6.332663391113281
5976900229020,2.774774686,1,-1.2689268798828124,6.210559106445312,6.003460662841796
5976902732874,2.77727854,1,-1.189918225097656,6.555324145507812,5.855020159912109
5976905233864,2.77977953,1,-1.2234370483398436,6.582857464599609,5.816712933349609
5976907727510,2.782273176,1,-1.2006921325683593,6.698976245117187,5.7125651611328125
5976910227926,2.784773592,1,-1.2078747375488281,6.760028387451172,5.517437725830078
5976912729124,2.78727479,1,-1.1540052001953125,6.947973217773437,5.352237811279297
5976915227822,2.789773488,1,-1.1851298217773436,6.986280444335937,5.380968231201171
5976917727926,2.792273592,1,-1.1037269653320312,6.979097839355468,5.2456958374023435
5976920229905,2.794775571,1,-1.2222399475097656,6.904877587890625,5.202600207519531
5976922724541,2.797270207,1,-1.1575965026855468,6.879738470458984,5.084087225341796
5976925229958,2.799775624,1,-1.2342109558105467,6.871358764648437,5.002684368896484
5976927728499,2.802274165,1,-1.1767501159667968,6.889315277099609,4.981136553955078
5976930227874,2.80477354,1,-1.2210428466796874,6.8210805297851556,4.861426470947265
5976932729801,2.807275467,1,-1.1456254943847655,6.835445739746094,4.8326960510253905
5976935228187,2.809773853,1,-1.0761936462402344,6.760028387451172,4.952406134033203
5976937727822,2.812273488,1,-1.083376251220703,6.695384942626953,4.929661218261718
5976940229905,2.814775571,1,-0.9876081848144531,6.682216833496093,4.876988781738281
5976942727770,2.817273436,1,-0.958877764892578,6.376956121826171,4.886565588378906
5976945229958,2.819775624,1,-0.9421183532714843,6.218938812255859,4.839878656005859
5976947726728,2.822272394,1,-0.9576806640625,6.11598814086914,4.847061260986328
5976950227510,2.824773176,1,-1.0666168395996094,6.021417175292968,4.805162731933594
5976952727770,2.827273436,1,-1.2174515441894531,5.756857891845703,4.771643908691406
5976955228551,2.829774217,1,-1.313219610595703,5.722141967773437,4.746504791259765
5976957728603,2.832274269,1,-1.3850456604003905,5.585672473144531,4.674678741455078
5976960230999,2.834776665,1,-1.43652099609375,5.467159490966797,4.6255976074218745
5976962727978,2.837273644,1,-1.5095441467285156,5.42047255859375,4.440046978759765
5976965230582,2.839776248,1,-1.5275006591796874,5.390545037841797,4.358644122314453
5976967727718,2.842273384,1,-1.5610194824218748,5.367800122070312,4.216189123535156
5976970227249,2.844772915,1,-1.5227122558593749,5.366603021240234,4.155136981201172
5976972729489,2.847275155,1,-1.5502455749511719,5.34984360961914,4.015076184082031
5976975228395,2.849774061,1,-1.6819266662597656,5.355829113769531,3.912125512695312
5976977728395,2.852274061,1,-1.6711527587890624,5.361814617919921,3.890577697753906
5976980230478,2.854776144,1,-1.6927005737304686,5.2456958374023435,3.5709517761230467
5976982727093,2.857272759,1,-1.7944541442871094,5.403713146972656,3.515885137939453
5976985229645,2.859775311,1,-1.9309236389160156,5.459976885986328,3.3351229125976563
5976987727249,2.862272915,1,-1.9776105712890624,5.4779333984375,3.2213983337402343
5976990227718,2.864773384,1,-1.9572598571777342,5.659892724609374,3.1028853515624997
5976992730947,2.867276613,1,-2.2840683837890623,5.685031842041015,3.0801404357910154
5976995227457,2.869773123,1,-2.128445275878906,5.744886883544922,3.0047230834960934
5976997727562,2.872273228,1,-1.9584569580078124,5.776011505126953,2.922123126220703
5977000230166,2.874775832,1,-1.8997990173339843,5.840654949951172,3.0142998901367184
5977002727197,2.877272863,1,-1.6675614562988281,6.044162091064453,3.034650604248047
5977005230426,2.879776092,1,-1.668758557128906,6.069301208496094,3.0992940490722654
5977007727457,2.882273123,1,-1.6448165405273436,6.099228729248047,3.229778039550781
5977010227562,2.884773228,1,-1.7274164978027342,6.15429536743164,3.2070331237792966
5977012730374,2.88727604,1,-1.9476830505371092,6.366182214355469,3.1280244689941403
5977015227145,2.889772811,1,-2.050633721923828,6.414066247558593,3.071760729980469
5977017727562,2.892273228,1,-2.1021090576171875,6.387730029296875,3.0801404357910154
5977020230010,2.894775676,1,-2.100911956787109,6.418854650878906,3.151966485595703
5977022728551,2.897274217,1,-2.080561242675781,6.331466290283203,3.1387983764648437
5977025230582,2.899776248,1,-2.003946789550781,6.306327172851562,3.1459809814453124
5977027727041,2.902272707,1,-1.927332336425781,6.191405493164062,3.2812533752441406
5977030227457,2.904773123,1,-1.8758570007324218,6.160280871582031,3.4763808105468748
5977032730166,2.907275832,1,-1.753752716064453,6.141127258300781,3.4871547180175777
5977035228239,2.909773905,1,-1.7286135986328124,6.118382342529297,3.6451720275878903
5977037728291,2.912273957,1,-1.7477672119140624,6.150704064941406,3.6834792541503902
5977040230530,2.914776196,1,-1.6555904479980468,6.1638721740722655,3.763685009765625
5977042726780,2.917272446,1,-1.618480322265625,6.086060620117187,3.8199487487792965
5977045230062,2.919775728,1,-1.5945383056640625,6.002263562011718,3.912125512695312
5977047727510,2.922273176,1,-1.5071499450683592,5.910086798095703,3.9372646301269527
5977050227718,2.924773384,1,-1.5705962890624998,5.799953521728515,4.102464544677734
5977052729124,2.92727479,1,-1.7082628845214842,5.825092639160156,4.256890551757812
5977055227510,2.929773176,1,-1.7800889343261719,5.831078143310546,4.364629626464843
5977057728499,2.932274165,1,-1.6531962463378904,5.8083332275390624,4.407725256347656
5977060231207,2.934776873,1,-1.6651672546386718,5.785588311767578,4.764461303710937
5977062727353,2.937273019,1,-1.6340426330566404,5.862202764892578,4.933252520751953
5977065230010,2.939775676,1,-1.6819266662597656,5.969941839599609,5.155913275146484
5977067727249,2.942272915,1,-1.6160861206054686,5.898115789794922,5.463568188476562
5977070227718,2.944773384,1,-1.6843208679199217,6.2021794006347655,5.881356378173828
5977072729385,2.947275051,1,-1.599326708984375,6.4092778442382805,6.136338854980468
5977075227353,2.949773019,1,-1.5729904907226562,6.488286499023437,6.420051751708984
5977077727718,2.952273384,1,-1.7489643127441405,6.6319385986328125,6.867767462158203
5977080230582,2.954776248,1,-1.5682020874023437,6.937199310302734,7.244854223632812
5977082726937,2.957272603,1,-1.351526837158203,7.091625317382812,7.580042456054687
5977085229905,2.959775571,1,-1.2880804931640624,7.224503509521484,7.8158713195800775
5977087728343,2.962274009,1,-1.2701239807128906,7.326257080078125,8.043320477294921
5977090227770,2.964773436,1,-1.3467384338378905,7.617152581787109,8.410830432128906
5977092730687,2.967276353,1,-1.4927847351074217,7.726088757324218,8.505401397705077
5977095227145,2.969772811,1,-1.6160861206054686,7.831433630371094,8.619125976562499
5977097727510,2.972273176,1,-1.6735469604492186,7.862558251953125,8.677783917236328
5977100230166,2.974775832,1,-1.696291876220703,7.970297326660156,8.69454332885742
5977102727301,2.977272967,1,-1.543062969970703,7.97388862915039,8.609549169921875
5977105229801,2.979775467,1,-1.5550339782714844,8.049305981445311,8.595183959960938
5977107727041,2.982272707,1,-1.4975731384277342,8.10197841796875,8.577227447509765
5977110227041,2.984772707,1,-1.419761584472656,8.097190014648437,8.316259466552735
5977112729853,2.987275519,1,-1.3395558288574219,8.012195855712891,8.142679846191406
5977115227093,2.989772759,1,-1.3072341064453123,7.9655089233398435,7.917624890136718
5977117728030,2.992273696,1,-1.2880804931640624,7.9463553100585935,7.764395983886718
5977120230895,2.994776561,1,-1.3670891479492187,7.911639385986327,7.451952667236328
5977122727510,2.997273176,1,-1.3634978454589843,7.791929302978515,7.363367205810547
5977125230843,2.999776509,1,-1.3527239379882812,7.657854010009765,7.316680273437499
5977127726676,3.002272342,1,-1.3024457031249999,7.569268548583984,7.3478048950195305
5977130226520,3.004772186,1,-1.2485761657714842,7.4591352722167965,7.0652890991210935
5977132729749,3.007275415,1,-1.1887211242675781,7.4794859863281244,6.995857250976562
5977135227562,3.009773228,1,-1.1755530151367186,7.618349682617187,6.829460235595703
5977137727666,3.012273332,1,-0.5566518859863281,7.600393170166015,6.6151791870117185
5977140228499,3.014774165,1,-0.9864110839843749,7.584830859375,6.697779144287109
5977142733082,3.017278748,1,-0.8271966735839843,7.688978631591796,6.637924102783202
5977145234437,3.019780103,1,-0.7338228088378905,7.886500268554687,6.5577183471679685
5977147728030,3.022273696,1,-0.7589619262695312,7.886500268554687,6.445190869140625
5977150228343,3.024774009,1,-1.22583125,7.728482958984374,7.165845568847656
5977152730322,3.027275988,1,-1.4927847351074217,7.8924857727050775,7.058106494140625
5977155227197,3.029772863,1,-1.3060370056152344,8.10796392211914,7.104793426513671
5977157727510,3.032273176,1,-0.8259995727539062,7.874529260253905,7.448361364746093
5977160230322,3.034775988,1,-0.40581718139648437,7.275978845214843,7.995436444091796
5977162727301,3.037272967,1,0.3076549133300781,7.225700610351562,8.061276989746093
5977165230009,3.039775675,1,0.4608838195800781,7.152677459716797,8.027758166503906
5977167727301,3.042272967,1,0.2765302917480469,7.26520493774414,7.866149554443359
5977170227978,3.044773644,1,-0.07541735229492187,7.07366880493164,7.666233715820312
5977172728968,3.047274634,1,-0.8295908752441405,6.865373260498046,7.613561279296874
5977175227926,3.049773592,1,-1.1815385192871093,6.682216833496093,7.50821640625
5977177727926,3.052273592,1,-1.3311761230468748,6.537367633056641,7.389703424072265
5977180229749,3.054775415,1,-1.4377180969238281,6.15429536743164,7.4208280456542965
5977182727614,3.05727328,1,-1.2677297790527342,6.0154316711425775,7.426813549804687
5977185230114,3.05977578,1,-1.024718310546875,5.837063647460937,7.413645440673828
5977187727197,3.062272863,1,-0.729034405517578,5.693411547851563,7.3657614074707025
5977190225947,3.064771613,1,-0.5315127685546874,5.6395420104980465,7.363367205810547
5977192729541,3.067275207,1,-0.4752490295410156,5.578489868164062,7.410054138183593
5977195227353,3.069773019,1,-0.44412440795898434,5.5653217590332025,7.428010650634765
5977197727562,3.072273228,1,-0.47165772705078124,5.719747766113281,7.2723875427246085
5977200228082,3.074773748,1,-0.37708676147460934,5.96275923461914,7.232883215332031
5977202728134,3.0772738,1,-0.2813186950683594,6.017825872802734,7.171831072998047
5977205230062,3.079775728,1,-0.22385785522460935,6.106411334228516,7.088034014892577
5977207727301,3.082272967,1,-0.016759411621093748,6.086060620117187,7.012616662597656
5977210226780,3.084772446,1,-0.034715924072265626,6.104017132568359,6.8402341430664055
5977212729645,3.087275311,1,0.028730419921875,6.047753393554687,6.685808135986328
5977215227770,3.089773436,1,-0.08499415893554688,6.023811376953125,6.396109735107421
5977217727666,3.092273332,1,-0.201112939453125,6.036979486083984,6.050147595214844
5977220230791,3.094776457,1,-0.55545478515625,6.008249066162109,5.799953521728515
5977222727614,3.09727328,1,-0.5674257934570313,6.026205578613281,5.556942053222656
5977225230166,3.099775832,1,-0.6967126831054687,6.121973645019531,5.366603021240234
5977227726624,3.10227229,1,-0.7769184387207031,6.254851837158203,5.033808990478516
5977230227457,3.104773123,1,-0.7984662536621093,6.393715533447265,4.929661218261718
5977232729645,3.107275311,1,-0.9181763366699218,6.379350323486328,4.885368487548828
5977235227770,3.109773436,1,-1.0295067138671874,6.440402465820312,4.923675714111328
5977237727666,3.112273332,1,-1.1156979736328125,6.542156036376952,4.786009118652344
5977240229072,3.114774738,1,-0.9229647399902343,6.737283471679687,4.787206219482422
5977242727562,3.117273228,1,-1.0893617553710937,6.777984899902344,4.853046765136718
5977245230166,3.119775832,1,-1.177947216796875,6.7803791015625,4.842272857666015
5977247727301,3.122272967,1,-1.149216796875,6.819883428955078,4.979939453125
5977250226572,3.124772238,1,-1.2832920898437499,7.000645654296875,5.033808990478516
5977252730791,3.127276457,1,-1.3335703247070312,7.038952880859375,5.097255334472656
5977255228030,3.129773696,1,-1.4341267944335936,7.0078282592773435,5.135562561035156
5977257727197,3.132272863,1,-1.5382745666503905,7.067683300781249,5.124788653564453
5977260230791,3.134776457,1,-1.5634136840820312,7.052120989990234,5.1152118469238275
5977262726676,3.137272342,1,-1.6807295654296874,7.094019519042968,5.199008905029297
5977265229957,3.139775623,1,-1.5394716674804687,7.032967376708984,5.214571215820312
5977267726468,3.142272134,1,-1.6903063720703124,6.987477545166016,5.082890124511718
5977270226676,3.144772342,1,-1.3922282653808593,6.894103680419922,4.971559747314453
5977272729749,3.147275415,1,-1.590947003173828,6.810306622314453,4.961982940673828
5977275227926,3.149773592,1,-1.5167267517089842,6.751648681640624,4.950011932373046
5977277727926,3.152273592,1,-1.552639776611328,6.6893994384765625,4.829104748535156
5977280229957,3.154775623,1,-1.4472949035644531,6.5397618347167965,4.826710546875
5977282726832,3.157272498,1,-1.5107412475585937,6.461950280761719,4.667496136474609
5977285230009,3.159775675,1,-1.5059528442382812,6.4643444824218745,4.57771357421875
5977287727822,3.162273488,1,-1.4999673400878906,6.461950280761719,4.44962378540039
5977290226572,3.164772238,1,-1.5346832641601562,6.268019946289062,4.368220928955078
5977292729176,3.167274842,1,-1.600523809814453,6.160280871582031,4.313154290771484
5977295226728,3.169772394,1,-1.5861585998535155,6.118382342529297,4.186261602783203
5977297727666,3.172273332,1,-1.5837643981933593,6.106411334228516,4.065354418945312
5977300229593,3.174775259,1,-1.763329522705078,5.96275923461914,4.074931225585937
5977302726989,3.177272655,1,-1.8734627990722654,5.929240411376953,4.090493536376953
5977305230530,3.179776196,1,-1.889025109863281,5.878962176513672,4.052186309814453
5977307727457,3.182273123,1,-1.9536685546875,5.954379528808594,3.897760302734375
5977310227145,3.184772811,1,-1.8902222106933593,6.025008477783203,3.912125512695312
5977312729749,3.187275415,1,-1.7860744384765623,6.105214233398437,3.9504327392578125
5977315227353,3.189773019,1,-1.9716250671386717,6.155492468261718,3.9516298400878904
5977317728447,3.192274113,1,-1.8710685974121093,6.1267620483398435,3.939658831787109
5977320230634,3.1947763,1,-1.7310078002929687,6.161477972412109,3.9695863525390624
5977322727145,3.197272811,1,-1.649604943847656,6.1267620483398435,3.9240965209960934
5977325229645,3.199775311,1,-1.5502455749511719,6.137535955810547,3.900154504394531
5977327727249,3.202272915,1,-1.6699556579589843,6.133944653320312,4.056974713134766
5977330227509,3.204773175,1,-1.6891092712402342,6.205770703124999,4.071339923095703
5977332730374,3.20727604,1,-1.648407843017578,6.276399652099609,4.128800762939453
5977335227718,3.209773384,1,-1.6927005737304686,6.318298181152343,4.2521021484374995
5977337728447,3.212274113,1,-1.7573440185546874,6.321889483642578,4.3801919372558595
5977340229697,3.214775363,1,-1.6208745239257811,6.351817004394531,4.3622354248046875
5977342727666,3.217273332,1,-1.5562310791015623,6.372167718505859,4.3993455505371095
5977345230114,3.21977578,1,-1.659181750488281,6.387730029296875,4.396951348876953
5977347727614,3.22227328,1,-1.5514426757812498,6.394912634277343,4.416104962158203
5977350227614,3.22477328,1,-1.7094599853515624,6.423643054199219,4.389768743896484
5977352729541,3.227275207,1,-1.7717092285156248,6.42244595336914,4.235342736816406
5977355227926,3.229773592,1,-1.839943975830078,6.368576416015625,4.2149920227050774
5977357728499,3.232274165,1,-1.905784521484375,6.375759020996093,4.328716601562499
5977360230166,3.234775832,1,-2.005143890380859,6.160280871582031,4.290409374999999
5977362727093,3.237272759,1,-2.1320365783691404,6.19260259399414,4.395754248046875
5977365230374,3.23977604,1,-2.038662713623047,6.189011291503906,4.347870214843749
5977367727145,3.242272811,1,-2.1344307800292968,6.153098266601562,4.346673114013671
5977370228030,3.244773696,1,-2.109291662597656,6.4643444824218745,4.356249920654297
5977372730166,3.247275832,1,-2.136824981689453,6.581660363769531,4.42448466796875
5977375226832,3.249772498,1,-2.0661960327148434,6.628347296142578,4.428075970458984
5977377727562,3.252273228,1,-2.105700360107422,6.6714429260253905,4.602852691650391
5977380230114,3.25477578,1,-2.0733786376953125,6.72890376586914,4.491522314453125
5977382731728,3.257277394,1,-1.993172882080078,6.734889270019531,4.526238238525391
5977385233134,3.2597788,1,-2.1021090576171875,6.738480572509765,4.502296221923828
5977387727353,3.262273019,1,-2.1033061584472654,6.8593877563476555,4.187458703613281
5977390227301,3.264772967,1,-2.0925322509765625,6.6893994384765625,4.158728283691406
5977392729124,3.26727479,1,-2.1033061584472654,6.669048724365234,4.179078997802734
5977395227457,3.269773123,1,-1.7980454467773437,6.494272003173828,4.128800762939453
5977397728395,3.272274061,1,-1.956062756347656,6.533776330566406,4.169502191162109
5977400230739,3.274776405,1,-1.744175909423828,6.713341455078124,4.071339923095703
5977402725634,3.2772713,1,-1.5933412048339843,6.828263134765624,3.9803602600097654
5977405227666,3.279773332,1,-1.3970166687011718,6.755239984130859,4.058171813964844
5977407727041,3.282272707,1,-1.3072341064453123,6.6893994384765625,4.313154290771484
5977410227614,3.28477328,1,-1.1528080993652343,6.507440112304687,4.357447021484375
5977412729801,3.287275467,1,-1.052251629638672,6.479906793212891,4.453215087890625
5977415226989,3.289772655,1,-1.0211270080566406,6.415263348388671,4.554968658447265
5977417727822,3.292273488,1,-0.9720458740234375,6.418854650878906,4.857835168457031
5977420229541,3.294775207,1,-0.7841010437011718,6.19260259399414,5.122394451904297
5977422726572,3.297272238,1,-0.5698199951171875,6.117185241699218,5.45877978515625
5977425230114,3.29977578,1,-0.4608838195800781,6.0716954101562495,5.8083332275390624
5977427727093,3.302272759,1,-0.22505495605468748,6.102820031738281,6.568492254638672
5977430226936,3.304772602,1,0.2537853759765625,5.884947680664062,6.963535528564453
5977432729749,3.307275415,1,0.7362170104980469,5.783194110107422,7.278373046874999
5977435227926,3.309773592,1,1.6615759521484375,4.601655590820312,8.12113203125
5977437727770,3.312273436,1,1.1085153686523437,4.689043951416015,8.412027532958984
5977440229489,3.314775155,1,2.3918074584960936,5.576095666503906,8.426392742919921
5977442726676,3.317272342,1,2.529474053955078,5.671863732910156,8.550891229248046
5977445230270,3.319775936,1,2.749740606689453,5.324704492187499,8.708908538818358
5977447726989,3.322272655,1,2.3535002319335936,4.774038110351563,9.253589416503905
5977450228603,3.324774269,1,1.3215993164062498,4.384980340576171,9.269151727294922
5977452730322,3.327275988,1,0.709880792236328,4.571728070068359,9.317035760498046
5977455227457,3.329773123,1,0.2932897033691406,4.675875842285156,9.33379517211914
5977457727718,3.332273384,1,-0.040701428222656245,4.885368487548828,9.725247143554688
5977460230218,3.334775884,1,-0.15562310791015624,4.929661218261718,9.957484704589843
5977462727145,3.337272811,1,-0.2537853759765625,5.237316131591797,10.110713610839843
5977465231207,3.339776873,1,-0.2154781494140625,5.492298608398437,10.242394702148436
5977467727666,3.342273332,1,-0.23582886352539062,6.059724401855468,10.405200415039062
5977470228030,3.344773696,1,-0.6775590698242188,6.265625744628906,10.505756884765624
5977472729957,3.347275623,1,-1.7118541870117185,6.331466290283203,10.631452471923827
5977475227874,3.34977354,1,-1.4149731811523436,6.37815322265625,10.50815108642578
5977477727926,3.352273592,1,-1.6256629272460936,6.755239984130859,10.311826550292968
5977480230061,3.354775727,1,-2.091335150146484,7.031770275878906,10.369287390136718
5977482726936,3.357272602,1,-2.100911956787109,7.279570147705078,10.357316381835936
5977485230061,3.359775727,1,-2.0638018310546875,7.517793212890624,10.496180078124999
5977487727457,3.362273123,1,-2.002749688720703,7.917624890136718,10.357316381835936
5977490227926,3.364773592,1,-1.820790362548828,7.961917620849609,10.24000050048828
5977492730061,3.367275727,1,-1.649604943847656,7.9092451843261715,10.122684619140625
5977495227457,3.369773123,1,-1.6364368347167968,7.8733321594238275,10.101136804199218
5977497727509,3.372273175,1,-1.5538368774414062,7.963114721679687,9.345766180419922
5977500229905,3.374775571,1,-1.4161702819824218,7.900865478515625,8.972270721435546
5977502727614,3.37727328,1,-1.3108254089355469,7.729680059814453,8.695740429687499
5977505229541,3.379775207,1,-1.2976572998046874,7.526172918701171,8.289923248291014
5977507726936,3.382272602,1,-1.3742717529296875,7.0473325866699215,7.9272016967773435
5977510226520,3.384772186,1,-0.8487444885253905,6.865373260498046,7.726088757324218
5977512728916,3.387274582,1,-0.5662286926269531,6.655880615234374,7.429207751464843
5977515227093,3.389772759,1,-0.1867477294921875,6.526593725585937,7.319074475097656
5977517728707,3.392274373,1,0.08738836059570312,6.11598814086914,7.043741284179687
5977520229280,3.394774946,1,0.6356605407714844,5.930437512207031,7.078457208251953
5977522726780,3.397272446,1,0.7649474304199219,5.6754550354003905,7.022193469238281
5977525229801,3.399775467,1,0.7793126403808593,5.479130499267578,6.938396411132812
5977527727301,3.402272967,1,0.7637503295898437,5.048174200439453,6.944381915283203
5977530227301,3.404772967,1,0.5925649108886718,4.860229370117187,6.940790612792968
5977532730530,3.407276196,1,0.36391865234375,4.752490295410156,6.974309436035155
5977535227666,3.409773332,1,0.35314474487304687,4.605246893310547,6.900089184570312
5977537727770,3.412273436,1,0.24899697265624998,4.557362860107421,7.1395093505859375
5977540230166,3.414775832,1,0.07422025146484375,4.643554119873047,7.223306408691406
5977542727614,3.41727328,1,-0.00718260498046875,4.669890338134765,7.337030987548828
5977545229593,3.419775259,1,0.055066638183593745,4.714183068847656,7.3932947265625
5977547727301,3.422272967,1,-0.1867477294921875,5.014655377197266,7.601590270996093
5977550227145,3.424772811,1,-0.36152445068359373,5.049371301269531,7.8553756469726554
5977552730218,3.427275884,1,-0.4584896179199218,5.146336468505859,7.881711865234375
5977555227249,3.429772915,1,-0.63206923828125,5.383362432861328,7.818265521240234
5977557727509,3.432273175,1,-0.6212953308105469,5.760449194335937,7.791929302978515
5977560229541,3.434775207,1,-0.7050923889160156,5.831078143310546,7.723694555664062
5977562727145,3.437272811,1,-0.8212111694335937,6.044162091064453,7.662642413330078
5977565229905,3.439775571,1,-0.7948749511718749,6.092046124267577,7.539341027832031
5977567727822,3.442273488,1,-0.9696516723632812,6.117185241699218,7.0652890991210935
5977570226780,3.444772446,1,-0.9708487731933593,6.260837341308593,6.836642840576172
5977572725999,3.447271665,1,-1.0821791503906248,6.372167718505859,6.555324145507812
5977575226884,3.44977255,1,-1.083376251220703,6.42244595336914,6.193799694824218
5977577726728,3.452272394,1,-1.2617442749023438,6.40329234008789,5.649118817138672
5977580229384,3.45477505,1,-1.341950030517578,6.358999609374999,5.329492895507812
5977582726832,3.457272498,1,-1.2617442749023438,6.337451794433593,5.070919116210937
5977585229801,3.459775467,1,-1.209071838378906,6.311115576171875,4.764461303710937
5977587726989,3.462272655,1,-1.2150573425292968,6.321889483642578,4.20062681274414
5977590227561,3.464773227,1,-1.112106671142578,6.270414147949219,3.882197991943359
5977592729332,3.467274998,1,-1.0390835205078124,6.296750366210937,3.699041564941406
5977595227405,3.469773071,1,-0.958877764892578,6.187814190673827,3.632003918457031
5977597727822,3.472273488,1,-0.9109937316894531,6.1088055358886715,3.2309751403808593
5977600231207,3.474776873,1,-0.8379705810546875,6.050147595214844,3.0071172851562498
5977602726624,3.47727229,1,-0.9804255798339843,5.989095452880859,2.883815899658203
5977605229749,3.479775415,1,-0.9217676391601562,5.987898352050781,2.7545290100097652
5977607727093,3.482272759,1,-0.8942343200683593,5.863399865722656,2.627636322021484
5977610226832,3.484772498,1,-0.8858546142578124,5.815515832519531,2.5821464904785154
5977612730634,3.4872763,1,-0.9002198242187499,5.811924530029296,2.5917232971191404
5977615227770,3.489773436,1,-0.9792284790039062,5.778405706787109,2.6300305236816404
5977617727822,3.492273488,1,-0.9995791931152344,5.635950708007812,2.906560815429687
5977620305322,3.494850988,1,-0.9935936889648437,5.634753607177734,2.931699932861328
5977622749280,3.497294946,1,-1.042674822998047,5.633556506347656,3.132812872314453
5977625244436,3.499790102,1,-1.0678139404296874,5.659892724609374,3.4739866088867184
5977627741259,3.502286925,1,-1.2581529724121092,5.653907220458984,3.622427111816406
5977630243186,3.504788852,1,-1.3204022155761719,5.6586956237792965,3.7804444213867185
5977632744645,3.507290311,1,-1.4161702819824218,5.6395420104980465,3.9360675292968748
5977635239957,3.509785623,1,-1.4939818359375,5.522226129150391,4.39216294555664
5977637740270,3.512285936,1,-1.6065093139648436,5.68862314453125,4.515464331054687
5977640243082,3.514788748,1,-1.637633935546875,5.730521673583984,4.614823699951172
5977642740009,3.517285675,1,-1.6711527587890624,5.735310076904296,4.61602080078125
5977645239801,3.519785467,1,-1.7118541870117185,5.693411547851563,4.7584757995605464
5977647740061,3.522285727,1,-1.7621324218749999,5.883750579833984,4.759672900390624
5977650239020,3.524784686,1,-1.7238251953125,5.953182427978516,4.896142395019531
5977652742874,3.52728854,1,-1.7022773803710936,5.986701251220703,4.778826513671874
5977655240166,3.529785832,1,-1.6256629272460936,6.066907006835937,4.744110589599609
5977657740426,3.532286092,1,-1.5502455749511719,6.1459156616210935,4.734533782958984
5977660240270,3.534785936,1,-1.648407843017578,6.210559106445312,4.754884497070313
5977662741520,3.537287186,1,-1.8088193542480469,6.279990954589843,4.608838195800781
5977665240218,3.539785884,1,-1.801636749267578,6.375759020996093,4.534617944335937
5977667740322,3.542285988,1,-1.7693150268554687,6.350619903564453,4.469974499511719
5977670240634,3.5447863,1,-1.707065783691406,6.297947467041015,4.444835382080078
5977672743916,3.547289582,1,-1.608903515625,6.275202551269531,4.42448466796875
5977675240061,3.549785727,1,-1.562216583251953,6.291961962890625,4.1575311828613275
5977677740009,3.552285675,1,-1.4724340209960938,6.497863305664062,4.217386224365234
5977680243863,3.554789529,1,-1.3970166687011718,6.5026517089843745,4.310760089111328
5977682740791,3.557286457,1,-1.3072341064453123,6.429628558349609,4.303577484130859
5977685240322,3.559785988,1,-1.2401964599609374,6.351817004394531,4.6076410949707025
5977687739384,3.56228505,1,-1.1528080993652343,6.318298181152343,4.721365673828124
5977690241728,3.564787394,1,-1.1480196960449218,6.336254693603515,4.7943888244628905
5977692744541,3.567290207,1,-1.1085153686523437,6.357802508544921,4.983530755615234
5977695242301,3.569787967,1,-1.0510545288085937,6.382941625976562,5.252878442382812
5977697740843,3.572286509,1,-1.0187328063964842,6.366182214355469,5.363011718749999
5977700244384,3.57479005,1,-0.9457096557617187,6.315903979492187,5.515043524169921
5977702740270,3.577285936,1,-0.8846575134277344,6.313509777832031,5.72693037109375
5977705240322,3.579785988,1,-0.7972691528320313,6.336254693603515,5.951985327148437
5977707739541,3.582285207,1,-0.6536170532226562,6.157886669921875,6.177040283203125
5977710240634,3.5847863,1,-0.5207388610839844,6.069301208496094,6.262034442138671
5977712744228,3.587289894,1,-0.4608838195800781,6.075286712646484,6.5385647338867185
5977715241363,3.589787029,1,-0.41419688720703124,6.2213330139160155,6.622361791992187
5977717740374,3.59228604,1,-0.42377369384765623,6.229712719726562,6.68461103515625
5977720287874,3.59483354,1,-0.39264907226562495,6.13514175415039,6.704961749267578
5977722741468,3.597287134,1,-0.5398924743652344,6.0513446960449215,6.78636460571289
5977725241103,3.599786769,1,-0.5698199951171875,6.0884548217773435,7.0269818725585935
5977727740530,3.602286196,1,-0.6512228515624999,6.11598814086914,7.011419561767577
5977730239905,3.604785571,1,-0.6655880615234374,6.124367846679687,7.004236956787109
5977732744541,3.607290207,1,-0.6093243225097655,6.119579443359375,7.055712292480468
5977735239905,3.609785571,1,-0.46208092041015625,6.224924316406249,7.024587670898437
5977737738811,3.612284477,1,-0.3327940307617187,6.330269189453125,7.056909393310547
5977740243655,3.614789321,1,-0.23822306518554687,6.320692382812499,7.067683300781249
5977742739228,3.617284894,1,-0.10773907470703124,6.417657550048828,7.050923889160156
5977745240322,3.619785988,1,-0.0430956298828125,6.381744525146484,6.910863092041015
5977747740270,3.622285936,1,-0.029927520751953124,6.404489440917969,6.771999395751953
5977750240218,3.624785884,1,-0.10773907470703124,6.4080807434082026,6.755239984130859
5977752744541,3.627290207,1,-0.22744915771484372,6.357802508544921,6.645106707763672
5977755240634,3.6297863,1,-0.3806780639648437,6.362590911865234,6.610390783691406
5977757741884,3.63228755,1,-0.47644613037109373,6.391321331787109,6.513425616455078
5977760244541,3.634790207,1,-0.5877765075683593,6.392518432617187,6.481103894042969
