timestamp_ns,t_s,sensor_id,ax,ay,az
3576758388477,0.057271823,1,0.21308394775390624,1.725022296142578,-11.197681164550781
3576760844206,0.059727552,1,0.23104046020507812,1.7322049011230467,-11.213243475341796
3576763341550,0.062224896,1,0.239420166015625,1.7202338928222656,-11.203666668701171
3576765844988,0.064728334,1,0.23582886352539062,1.7178396911621092,-11.203666668701171
3576768342331,0.067225677,1,0.2262520568847656,1.7106570861816406,-11.188104357910156
3576770840977,0.069724323,1,0.22744915771484372,1.753752716064453,-11.195286962890624
3576773342592,0.072225938,1,0.21428104858398436,1.744175909423828,-11.179724652099608
3576775840196,0.074723542,1,0.21787235107421873,1.7429788085937499,-11.18571015625
3576778341029,0.077224375,1,0.2346317626953125,1.734599102783203,-11.182118853759764
3576780843529,0.079726875,1,0.21906945190429686,1.7393875061035156,-11.19887826538086
3576783340092,0.082223438,1,0.21906945190429686,1.7381904052734374,-11.197681164550781
3576785840092,0.084723438,1,0.21308394775390624,1.7465701110839842,-11.182118853759764
3576788341706,0.087225052,1,0.19991583862304688,1.7429788085937499,-11.21084927368164
3576790838998,0.089722344,1,0.20350714111328125,1.7657237243652342,-11.167753643798827
3576793341811,0.092225157,1,0.20949264526367187,1.763329522705078,-11.150994232177734
3576795839467,0.094722813,1,0.22744915771484372,1.7609353210449217,-11.152191333007812
3576798339988,0.097223334,1,0.229843359375,1.7597382202148437,-11.154585534667968
3576800842175,0.099725521,1,0.23223756103515625,1.7513585144042967,-11.200075366210937
3576803339779,0.102223125,1,0.20231004028320312,1.7429788085937499,-11.179724652099608
3576805839936,0.104723282,1,0.21308394775390624,1.734599102783203,-11.142614526367186
3576808340404,0.10722375,1,0.21787235107421873,1.7405846069335937,-11.150994232177734
3576810839831,0.109723177,1,0.229843359375,1.7298106994628906,-11.173739147949219
3576813343217,0.112226563,1,0.239420166015625,1.7561469177246092,-11.170147845458983
3576815840144,0.11472349,1,0.23223756103515625,1.7645266235351562,-11.194089862060546
3576818339675,0.117223021,1,0.2262520568847656,1.753752716064453,-11.201272467041015
3576820842436,0.119725782,1,0.22026655273437498,1.7465701110839842,-11.209652172851563
3576823339936,0.122223282,1,0.21308394775390624,1.7465701110839842,-11.17254204711914
3576825839571,0.124722917,1,0.229843359375,1.7429788085937499,-11.168950744628905
3576828342279,0.127225625,1,0.23343466186523437,1.7214309936523438,-11.166556542968749
3576830839727,0.129723073,1,0.24061726684570311,1.7202338928222656,-11.19169566040039
3576833342644,0.13222599,1,0.2346317626953125,1.7190367919921874,-11.197681164550781
3576835839988,0.134723334,1,0.22864625854492185,1.7202338928222656,-11.195286962890624
3576838341342,0.137224688,1,0.2214636535644531,1.7597382202148437,-11.183315954589844
3576840842123,0.139725469,1,0.20231004028320312,1.7525556152343749,-11.220426080322264
3576843339415,0.142222761,1,0.19512743530273435,1.7597382202148437,-11.2240173828125
3576845840404,0.14472375,1,0.18315642700195311,1.7585411193847655,-11.247959399414063
3576848341863,0.147225209,1,0.1879448303222656,1.7417817077636717,-11.234791290283203
3576850839467,0.149722813,1,0.17956512451171874,1.7082628845214842,-11.194089862060546
3576853342644,0.15222599,1,0.19991583862304688,1.696291876220703,-11.15338843383789
3576855839206,0.154722552,1,0.22026655273437498,1.7214309936523438,-11.145008728027342
3576858339831,0.157223177,1,0.21308394775390624,1.7381904052734374,-11.176133349609374
3576860841706,0.159725052,1,0.21068974609375,1.7405846069335937,-11.16057103881836
3576863339415,0.162222761,1,0.20231004028320312,1.7381904052734374,-11.189301458740234
3576865839363,0.164722709,1,0.21787235107421873,1.7286135986328124,-11.215637677001952
3576868342175,0.167225521,1,0.2154781494140625,1.7381904052734374,-11.19887826538086
3576870838946,0.169722292,1,0.2214636535644531,1.7393875061035156,-11.176133349609374
3576873341446,0.172224792,1,0.2214636535644531,1.7405846069335937,-11.173739147949219
3576875839831,0.174723177,1,0.22505495605468748,1.7393875061035156,-11.165359442138671
3576878339727,0.177223073,1,0.22864625854492185,1.7369933044433592,-11.180921752929686
3576880842331,0.179725677,1,0.24301146850585936,1.7310078002929687,-11.188104357910156
3576883339571,0.182222917,1,0.22385785522460935,1.7405846069335937,-11.195286962890624
3576885839102,0.184722448,1,0.201112939453125,1.7453730102539062,-11.18571015625
3576888342592,0.187225938,1,0.20350714111328125,1.7489643127441405,-11.143811627197264
3576890836863,0.189720209,1,0.19393033447265623,1.7417817077636717,-11.1474029296875
3576893340561,0.192223907,1,0.239420166015625,1.714248388671875,-11.162965240478515
3576895839571,0.194722917,1,0.24779987182617186,1.7298106994628906,-11.17254204711914
3576898339831,0.197223177,1,0.229843359375,1.7357962036132812,-11.17852755126953
3576900841811,0.199725157,1,0.2214636535644531,1.7166425903320313,-11.180921752929686
3576903339779,0.202223125,1,0.2059013427734375,1.7274164978027342,-11.167753643798827
3576905839675,0.204723021,1,0.20470424194335937,1.734599102783203,-11.17852755126953
3576908341498,0.207224844,1,0.19871873779296872,1.7501614135742187,-11.194089862060546
3576910840352,0.209723698,1,0.18555062866210936,1.7513585144042967,-11.19169566040039
3576913341915,0.212225261,1,0.22385785522460935,1.7489643127441405,-11.154585534667968
3576915839779,0.214723125,1,0.22505495605468748,1.7465701110839842,-11.165359442138671
3576918339311,0.217222657,1,0.2262520568847656,1.7465701110839842,-11.200075366210937
3576920842175,0.219725521,1,0.22505495605468748,1.7094599853515624,-11.21683477783203
3576923339519,0.222222865,1,0.22266075439453123,1.705868682861328,-11.213243475341796
3576925839206,0.224722552,1,0.19512743530273435,1.7106570861816406,-11.209652172851563
3576928341863,0.227225209,1,0.19033903198242186,1.7094599853515624,-11.322179650878905
3576930839779,0.229723125,1,0.19991583862304688,1.714248388671875,-11.155782635498046
3576933341967,0.232225313,1,0.23223756103515625,1.7118541870117185,-11.152191333007812
3576935839519,0.234722865,1,0.22505495605468748,1.725022296142578,-11.17852755126953
3576938339467,0.237222813,1,0.19991583862304688,1.7334020019531249,-11.328165155029296
3576940842331,0.239725677,1,0.20231004028320312,1.744175909423828,-11.167753643798827
3576943340248,0.242223594,1,0.22266075439453123,1.7465701110839842,-11.177330450439452
3576945839154,0.2447225,1,0.21906945190429686,1.7429788085937499,-11.206060870361327
3576948341811,0.247225157,1,0.21787235107421873,1.7393875061035156,-11.206060870361327
3576950839883,0.249723229,1,0.21068974609375,1.7381904052734374,-11.195286962890624
3576953341758,0.252225104,1,0.19871873779296872,1.7334020019531249,-11.180921752929686
3576955839936,0.254723282,1,0.19871873779296872,1.7190367919921874,-11.17852755126953
3576958339675,0.257223021,1,0.21188684692382811,1.7310078002929687,-11.165359442138671
3576960842904,0.25972625,1,0.23582886352539062,1.7657237243652342,-11.139023223876952
3576963336498,0.262219844,1,0.24779987182617186,1.7489643127441405,-11.136629022216797
3576965839883,0.264723229,1,0.2262520568847656,1.7489643127441405,-11.154585534667968
3576968342644,0.26722599,1,0.23702596435546874,1.744175909423828,-11.17852755126953
3576970838894,0.26972224,1,0.2442085693359375,1.7286135986328124,-11.19169566040039
3576973342748,0.272226094,1,0.23343466186523437,1.707065783691406,-11.173739147949219
3576975839415,0.274722761,1,0.23343466186523437,1.7082628845214842,-11.156979736328124
3576978340040,0.277223386,1,0.239420166015625,1.7166425903320313,-11.146205828857422
3576980842331,0.279725677,1,0.23582886352539062,1.7238251953125,-11.1474029296875
3576983339519,0.282222865,1,0.22385785522460935,1.7369933044433592,-11.158176837158203
3576985839519,0.284722865,1,0.2166752502441406,1.7357962036132812,-11.167753643798827
3576988341967,0.287225313,1,0.21428104858398436,1.7262193969726563,-11.190498559570312
3576990839571,0.289722917,1,0.24301146850585936,1.7298106994628906,-11.208455072021483
3576993346863,0.292230209,1,0.2549824768066406,1.7334020019531249,-11.214440576171874
3576995840717,0.294724063,1,0.24301146850585936,1.734599102783203,-11.221623181152344
3576998339831,0.297223177,1,0.229843359375,1.7477672119140624,-11.189301458740234
3577000842592,0.299725938,1,0.2214636535644531,1.7453730102539062,-11.176133349609374
3577003338842,0.302222188,1,0.21428104858398436,1.7477672119140624,-11.170147845458983
3577005839988,0.304723334,1,0.2214636535644531,1.7369933044433592,-11.154585534667968
3577008341811,0.307225157,1,0.22744915771484372,1.7322049011230467,-11.174936248779296
3577010839415,0.309722761,1,0.23702596435546874,1.7286135986328124,-11.192892761230468
3577013342019,0.312225365,1,0.23343466186523437,1.7238251953125,-11.186907257080078
3577015839311,0.314722657,1,0.24181436767578124,1.7238251953125,-11.19169566040039
3577018339727,0.317223073,1,0.2501940734863281,1.7334020019531249,-11.183315954589844
3577020841550,0.319724896,1,0.23822306518554687,1.7334020019531249,-11.201272467041015
3577023339519,0.322222865,1,0.22026655273437498,1.744175909423828,-11.195286962890624
3577025839675,0.324723021,1,0.22026655273437498,1.7381904052734374,-11.179724652099608
3577028342279,0.327225625,1,0.21188684692382811,1.7357962036132812,-11.203666668701171
3577030839779,0.329723125,1,0.229843359375,1.7190367919921874,-11.226411584472656
3577033342019,0.332225365,1,0.23702596435546874,1.7465701110839842,-11.233594189453123
3577035839206,0.334722552,1,0.2346317626953125,1.7381904052734374,-11.234791290283203
3577038340613,0.337223959,1,0.23104046020507812,1.7298106994628906,-11.232397088623046
3577040842644,0.33972599,1,0.21188684692382811,1.7393875061035156,-11.225214483642578
3577043339258,0.342222604,1,0.2166752502441406,1.7298106994628906,-11.215637677001952
3577045839310,0.344722656,1,0.22864625854492185,1.7286135986328124,-11.202469567871093
3577048342488,0.347225834,1,0.22266075439453123,1.7190367919921874,-11.212046374511718
3577050839623,0.349722969,1,0.22026655273437498,1.707065783691406,-11.203666668701171
3577053341602,0.352224948,1,0.2346317626953125,1.7022773803710936,-11.17852755126953
3577055839467,0.354722813,1,0.24301146850585936,1.705868682861328,-11.188104357910156
3577058339988,0.357223334,1,0.23702596435546874,1.7214309936523438,-11.19169566040039
3577060842956,0.359726302,1,0.21188684692382811,1.7393875061035156,-11.194089862060546
3577063339363,0.362222709,1,0.21308394775390624,1.7369933044433592,-11.218031878662108
3577065839206,0.364722552,1,0.20829554443359374,1.7334020019531249,-11.204863769531249
3577068341915,0.367225261,1,0.1975216369628906,1.7310078002929687,-11.197681164550781
3577070838894,0.36972224,1,0.23343466186523437,1.7178396911621092,-11.18571015625
3577073341654,0.372225,1,0.23822306518554687,1.7226280944824217,-11.18571015625
3577075839571,0.374722917,1,0.22266075439453123,1.7262193969726563,-11.220426080322264
3577078339831,0.377223177,1,0.22026655273437498,1.734599102783203,-11.203666668701171
3577080842071,0.379725417,1,0.23223756103515625,1.7405846069335937,-11.204863769531249
3577083339363,0.382222709,1,0.23582886352539062,1.7334020019531249,-11.19169566040039
3577085838998,0.384722344,1,0.2454056701660156,1.7489643127441405,-11.212046374511718
3577088342227,0.387225573,1,0.2262520568847656,1.7405846069335937,-11.184513055419922
3577090839623,0.389722969,1,0.22266075439453123,1.7214309936523438,-11.18571015625
3577093342071,0.392225417,1,0.24061726684570311,1.7130512878417967,-11.184513055419922
3577095839258,0.394722604,1,0.24899697265624998,1.715445489501953,-11.188104357910156
3577098339154,0.3972225,1,0.2537853759765625,1.7429788085937499,-11.208455072021483
3577100841706,0.399725052,1,0.23343466186523437,1.7477672119140624,-11.220426080322264
3577103339571,0.402222917,1,0.23223756103515625,1.7381904052734374,-11.179724652099608
3577105838946,0.404722292,1,0.22266075439453123,1.7226280944824217,-11.201272467041015
3577108341550,0.407224896,1,0.20949264526367187,1.7393875061035156,-11.213243475341796
3577110838790,0.409722136,1,0.21188684692382811,1.7513585144042967,-11.222820281982422
3577113341029,0.412224375,1,0.229843359375,1.7513585144042967,-11.219228979492186
3577115839102,0.414722448,1,0.2346317626953125,1.7393875061035156,-11.212046374511718
3577118339154,0.4172225,1,0.22744915771484372,1.744175909423828,-11.206060870361327
3577120842175,0.419725521,1,0.229843359375,1.7310078002929687,-11.204863769531249
3577123339310,0.422222656,1,0.2166752502441406,1.7274164978027342,-11.19169566040039
3577125839571,0.424722917,1,0.20709844360351562,1.7393875061035156,-11.174936248779296
3577128341706,0.427225052,1,0.2154781494140625,1.7298106994628906,-11.17852755126953
3577130839206,0.429722552,1,0.22864625854492185,1.7322049011230467,-11.204863769531249
3577133340717,0.432224063,1,0.22744915771484372,1.7178396911621092,-11.200075366210937
3577135839727,0.434723073,1,0.23343466186523437,1.7238251953125,-11.186907257080078
3577138339050,0.437222396,1,0.2346317626953125,1.7405846069335937,-11.212046374511718
3577140842175,0.439725521,1,0.23223756103515625,1.734599102783203,-11.201272467041015
3577143338790,0.442222136,1,0.2214636535644531,1.7334020019531249,-11.206060870361327
3577145836706,0.444720052,1,0.20949264526367187,1.7381904052734374,-11.214440576171874
3577148337644,0.44722099,1,0.2059013427734375,1.7298106994628906,-11.19169566040039
3577150839727,0.449723073,1,0.21906945190429686,1.725022296142578,-11.226411584472656
3577153342331,0.452225677,1,0.21906945190429686,1.7369933044433592,-11.204863769531249
3577155839571,0.454722917,1,0.21188684692382811,1.7310078002929687,-11.192892761230468
3577158338946,0.457222292,1,0.20350714111328125,1.714248388671875,-11.200075366210937
3577160842175,0.459725521,1,0.23104046020507812,1.714248388671875,-11.183315954589844
3577163339206,0.462222552,1,0.22505495605468748,1.7202338928222656,-11.194089862060546
3577165839363,0.464722709,1,0.24301146850585936,1.7202338928222656,-11.19887826538086
3577168341446,0.467224792,1,0.25139117431640623,1.7369933044433592,-11.190498559570312
3577170839258,0.469722604,1,0.23104046020507812,1.7369933044433592,-11.171344946289063
3577173341706,0.472225052,1,0.22864625854492185,1.7190367919921874,-11.174936248779296
3577175839519,0.474722865,1,0.23343466186523437,1.696291876220703,-11.177330450439452
3577178338529,0.477221875,1,0.22266075439453123,1.7310078002929687,-11.161768139648437
3577180842019,0.479725365,1,0.2442085693359375,1.7525556152343749,-11.161768139648437
3577183339258,0.482222604,1,0.24660277099609373,1.7405846069335937,-11.17852755126953
3577185839831,0.484723177,1,0.23223756103515625,1.7334020019531249,-11.21084927368164
3577188341706,0.487225052,1,0.24899697265624998,1.7369933044433592,-11.19887826538086
3577190838529,0.489721875,1,0.24181436767578124,1.7274164978027342,-11.202469567871093
3577193341550,0.492224896,1,0.2442085693359375,1.744175909423828,-11.218031878662108
3577195839467,0.494722813,1,0.24181436767578124,1.7501614135742187,-11.23000288696289
3577198338790,0.497222136,1,0.22864625854492185,1.7322049011230467,-11.226411584472656
3577200842019,0.499725365,1,0.24779987182617186,1.7238251953125,-11.2240173828125
3577203339415,0.502222761,1,0.2346317626953125,1.7214309936523438,-11.222820281982422
3577205840665,0.504724011,1,0.23702596435546874,1.7322049011230467,-11.213243475341796
3577208341706,0.507225052,1,0.23343466186523437,1.7393875061035156,-11.19887826538086
3577210839206,0.509722552,1,0.2346317626953125,1.7310078002929687,-11.206060870361327
3577213341394,0.51222474,1,0.22864625854492185,1.7369933044433592,-11.186907257080078
3577215838998,0.514722344,1,0.23702596435546874,1.7190367919921874,-11.202469567871093
3577218340092,0.517223438,1,0.2501940734863281,1.70467158203125,-11.19887826538086
3577220842488,0.519725834,1,0.23822306518554687,1.6938976745605467,-11.231199987792968
3577223339363,0.522222709,1,0.21906945190429686,1.715445489501953,-11.240776794433593
3577225839519,0.524722865,1,0.1975216369628906,1.7214309936523438,-11.24915650024414
3577228348946,0.527232292,1,0.19632453613281248,1.7238251953125,-11.208455072021483
3577230841654,0.529725,1,0.19153613281249998,1.7357962036132812,-11.17852755126953
3577233342956,0.532226302,1,0.20949264526367187,1.7453730102539062,-11.192892761230468
3577235839623,0.534722969,1,0.22026655273437498,1.7405846069335937,-11.204863769531249
3577238339623,0.537222969,1,0.20470424194335937,1.7262193969726563,-11.231199987792968
3577240841862,0.539725208,1,0.2262520568847656,1.7381904052734374,-11.19887826538086
3577243339467,0.542222813,1,0.24779987182617186,1.7310078002929687,-11.202469567871093
3577245839050,0.544722396,1,0.2501940734863281,1.734599102783203,-11.173739147949219
3577248341602,0.547224948,1,0.229843359375,1.7573440185546874,-11.188104357910156
3577250839727,0.549723073,1,0.22385785522460935,1.7381904052734374,-11.188104357910156
3577253342487,0.552225833,1,0.21188684692382811,1.7334020019531249,-11.168950744628905
3577255838946,0.554722292,1,0.19153613281249998,1.7202338928222656,-11.161768139648437
3577258339154,0.5572225,1,0.19871873779296872,1.7190367919921874,-11.182118853759764
3577260841602,0.559724948,1,0.2154781494140625,1.7405846069335937,-11.194089862060546
3577263338529,0.562221875,1,0.22385785522460935,1.7274164978027342,-11.202469567871093
3577265839779,0.564723125,1,0.2501940734863281,1.7214309936523438,-11.17254204711914
3577268341862,0.567225208,1,0.239420166015625,1.7310078002929687,-11.180921752929686
3577270839362,0.569722708,1,0.2442085693359375,1.734599102783203,-11.165359442138671
3577273342383,0.572225729,1,0.2214636535644531,1.7334020019531249,-11.17852755126953
3577275839571,0.574722917,1,0.1879448303222656,1.7202338928222656,-11.17852755126953
3577278339571,0.577222917,1,0.18555062866210936,1.707065783691406,-11.180921752929686
3577280842175,0.579725521,1,0.24301146850585936,1.7298106994628906,-11.192892761230468
3577283339675,0.582223021,1,0.24779987182617186,1.7369933044433592,-11.18571015625
3577285839623,0.584722969,1,0.24779987182617186,1.7298106994628906,-11.204863769531249
3577288341654,0.587225,1,0.239420166015625,1.7298106994628906,-11.212046374511718
3577290839623,0.589722969,1,0.21787235107421873,1.7238251953125,-11.222820281982422
3577293341967,0.592225313,1,0.2166752502441406,1.7262193969726563,-11.227608685302734
3577295838894,0.59472224,1,0.20470424194335937,1.715445489501953,-11.228805786132812
3577298339623,0.597222969,1,0.19991583862304688,1.7166425903320313,-11.228805786132812
3577300841550,0.599724896,1,0.201112939453125,1.7274164978027342,-11.215637677001952
3577303339415,0.602222761,1,0.21068974609375,1.7357962036132812,-11.208455072021483
3577305839258,0.604722604,1,0.21188684692382811,1.7477672119140624,-11.233594189453123
3577308341290,0.607224636,1,0.23223756103515625,1.7274164978027342,-11.214440576171874
3577310839154,0.6097225,1,0.22744915771484372,1.725022296142578,-11.188104357910156
3577313341342,0.612224688,1,0.22505495605468748,1.7274164978027342,-11.183315954589844
3577315839310,0.614722656,1,0.22385785522460935,1.7322049011230467,-11.036072552490234
3577318339779,0.617223125,1,0.2442085693359375,1.753752716064453,-11.21683477783203
3577320841706,0.619725052,1,0.23223756103515625,1.7573440185546874,-11.222820281982422
3577323339206,0.622222552,1,0.22026655273437498,1.7573440185546874,-11.209652172851563
3577325839571,0.624722917,1,0.2214636535644531,1.744175909423828,-11.200075366210937
3577328341706,0.627225052,1,0.24899697265624998,1.7238251953125,-11.19887826538086
3577330839362,0.629722708,1,0.229843359375,1.70467158203125,-11.201272467041015
3577333340977,0.632224323,1,0.22505495605468748,1.7238251953125,-11.188104357910156
3577335839675,0.634723021,1,0.2154781494140625,1.734599102783203,-11.330559356689452
3577338340144,0.63722349,1,0.2059013427734375,1.7405846069335937,-11.19887826538086
3577340842540,0.639725886,1,0.21068974609375,1.734599102783203,-11.21683477783203
3577343339310,0.642222656,1,0.2154781494140625,1.734599102783203,-11.213243475341796
3577345838790,0.644722136,1,0.22864625854492185,1.7489643127441405,-11.316194146728515
3577348341810,0.647225156,1,0.23343466186523437,1.7357962036132812,-11.184513055419922
3577350839831,0.649723177,1,0.2214636535644531,1.7322049011230467,-11.19169566040039
3577353341237,0.652224583,1,0.23104046020507812,1.7298106994628906,-11.168950744628905
3577355837696,0.654721042,1,0.21906945190429686,1.7357962036132812,-11.17852755126953
3577358340092,0.657223438,1,0.23104046020507812,1.744175909423828,-11.192892761230468
3577360841810,0.659725156,1,0.21428104858398436,1.734599102783203,-11.204863769531249
3577363338790,0.662222136,1,0.2166752502441406,1.7274164978027342,-11.194089862060546
3577365840092,0.664723438,1,0.21787235107421873,1.7262193969726563,-11.167753643798827
3577368341862,0.667225208,1,0.20470424194335937,1.725022296142578,-11.192892761230468
3577370839467,0.669722813,1,0.21428104858398436,1.7178396911621092,-11.180921752929686
3577373339467,0.672222813,1,0.2059013427734375,1.7405846069335937,-11.171344946289063
3577375839675,0.674723021,1,0.20470424194335937,1.7393875061035156,-11.04564935913086
3577378339415,0.677222761,1,0.2214636535644531,1.7322049011230467,-11.177330450439452
3577380841810,0.679725156,1,0.22026655273437498,1.7190367919921874,-11.179724652099608
3577383339415,0.682222761,1,0.21906945190429686,1.7238251953125,-11.19887826538086
3577385838998,0.684722344,1,0.2214636535644531,1.7262193969726563,-11.218031878662108
3577388342487,0.687225833,1,0.2154781494140625,1.7310078002929687,-11.235988391113281
3577390839206,0.689722552,1,0.22864625854492185,1.734599102783203,-11.233594189453123
3577393342019,0.692225365,1,0.24061726684570311,1.7357962036132812,-11.200075366210937
3577395838998,0.694722344,1,0.25258827514648435,1.7334020019531249,-11.190498559570312
3577398339415,0.697222761,1,0.21308394775390624,1.7573440185546874,-11.186907257080078
3577400842227,0.699725573,1,0.20949264526367187,1.7525556152343749,-11.184513055419922
3577403337019,0.702220365,1,0.21906945190429686,1.744175909423828,-11.179724652099608
3577405839623,0.704722969,1,0.21787235107421873,1.7405846069335937,-11.182118853759764
3577408341810,0.707225156,1,0.2597708801269531,1.7429788085937499,-11.196484063720703
3577410839050,0.709722396,1,0.2346317626953125,1.7429788085937499,-11.213243475341796
3577413341185,0.712224531,1,0.23822306518554687,1.7477672119140624,-11.203666668701171
3577415839050,0.714722396,1,0.22864625854492185,1.7322049011230467,-11.197681164550781
3577418339415,0.717222761,1,0.21906945190429686,1.725022296142578,-11.200075366210937
3577420842331,0.719725677,1,0.23104046020507812,1.7214309936523438,-11.21084927368164
3577423339675,0.722223021,1,0.22385785522460935,1.7190367919921874,-11.206060870361327
3577425838998,0.724722344,1,0.22505495605468748,1.7226280944824217,-11.324573852539062
3577428341133,0.727224479,1,0.19512743530273435,1.7322049011230467,-11.168950744628905
3577430839258,0.729722604,1,0.20709844360351562,1.7381904052734374,-11.183315954589844
3577433342435,0.732225781,1,0.20231004028320312,1.7369933044433592,-11.184513055419922
3577435839519,0.734722865,1,0.20949264526367187,1.7525556152343749,-11.202469567871093
3577438338946,0.737222292,1,0.21428104858398436,1.7369933044433592,-11.196484063720703
3577440842071,0.739725417,1,0.20709844360351562,1.7334020019531249,-11.213243475341796
3577443339258,0.742222604,1,0.20350714111328125,1.744175909423828,-11.19169566040039
3577445839154,0.7447225,1,0.21068974609375,1.7465701110839842,-11.207257971191405
3577448341081,0.747224427,1,0.22864625854492185,1.7465701110839842,-11.177330450439452
3577450838529,0.749721875,1,0.21188684692382811,1.7417817077636717,-11.190498559570312
3577453341862,0.752225208,1,0.21787235107421873,1.7393875061035156,-11.203666668701171
3577455839467,0.754722813,1,0.239420166015625,1.7369933044433592,-11.166556542968749
3577458339831,0.757223177,1,0.22385785522460935,1.7274164978027342,-11.173739147949219
3577460841550,0.759724896,1,0.23104046020507812,1.7310078002929687,-11.204863769531249
3577463346029,0.762229375,1,0.23582886352539062,1.7286135986328124,-11.184513055419922
3577465841289,0.764724635,1,0.23702596435546874,1.7274164978027342,-11.195286962890624
3577468342904,0.76722625,1,0.239420166015625,1.7310078002929687,-11.179724652099608
3577470839935,0.769723281,1,0.23223756103515625,1.7298106994628906,-11.170147845458983
3577473341498,0.772224844,1,0.22266075439453123,1.7334020019531249,-11.19169566040039
3577475839362,0.774722708,1,0.23223756103515625,1.7357962036132812,-11.21084927368164
3577478339623,0.777222969,1,0.23822306518554687,1.7357962036132812,-11.189301458740234
3577480842175,0.779725521,1,0.22266075439453123,1.7310078002929687,-11.165359442138671
3577483338894,0.78222224,1,0.2154781494140625,1.7369933044433592,-11.166556542968749
3577485839779,0.784723125,1,0.22864625854492185,1.7262193969726563,-11.213243475341796
3577488341081,0.787224427,1,0.2442085693359375,1.744175909423828,-11.2240173828125
3577490839675,0.789723021,1,0.24899697265624998,1.7501614135742187,-11.212046374511718
3577493341446,0.792224792,1,0.2537853759765625,1.7322049011230467,-11.195286962890624
3577495838789,0.794722135,1,0.229843359375,1.725022296142578,-11.195286962890624
3577498339727,0.797223073,1,0.24181436767578124,1.7417817077636717,-11.212046374511718
3577500841914,0.79972526,1,0.24061726684570311,1.7465701110839842,-11.218031878662108
3577503338425,0.802221771,1,0.2154781494140625,1.7357962036132812,-11.207257971191405
3577505838998,0.804722344,1,0.2154781494140625,1.7357962036132812,-11.192892761230468
3577508342435,0.807225781,1,0.201112939453125,1.7274164978027342,-11.19887826538086
3577510839362,0.809722708,1,0.18914193115234373,1.7202338928222656,-11.208455072021483
3577513341654,0.812225,1,0.1975216369628906,1.7262193969726563,-11.197681164550781
3577515839467,0.814722813,1,0.20949264526367187,1.7429788085937499,-11.192892761230468
3577518339935,0.817223281,1,0.22026655273437498,1.725022296142578,-11.206060870361327
3577520842539,0.819725885,1,0.229843359375,1.7202338928222656,-11.197681164550781
3577523339206,0.822222552,1,0.24061726684570311,1.7274164978027342,-11.200075366210937
3577525839467,0.824722813,1,0.23822306518554687,1.7214309936523438,-11.192892761230468
3577528341289,0.827224635,1,0.23702596435546874,1.725022296142578,-11.166556542968749
3577530839727,0.829723073,1,0.2166752502441406,1.7429788085937499,-11.149797131347656
3577533341967,0.832225313,1,0.21428104858398436,1.7453730102539062,-11.162965240478515
3577535839779,0.834723125,1,0.22864625854492185,1.7322049011230467,-11.161768139648437
3577538339519,0.837222865,1,0.25258827514648435,1.7369933044433592,-11.150994232177734
3577540841289,0.839724635,1,0.2442085693359375,1.7322049011230467,-11.149797131347656
3577543338894,0.84222224,1,0.22864625854492185,1.7286135986328124,-11.173739147949219
3577545839206,0.844722552,1,0.21308394775390624,1.7262193969726563,-11.154585534667968
3577548341602,0.847224948,1,0.2346317626953125,1.7429788085937499,-11.161768139648437
3577550840456,0.849723802,1,0.24899697265624998,1.7393875061035156,-11.171344946289063
3577553340717,0.852224063,1,0.26336218261718747,1.7369933044433592,-11.17852755126953
3577555839102,0.854722448,1,0.24779987182617186,1.7214309936523438,-11.174936248779296
3577558339362,0.857222708,1,0.23702596435546874,1.7369933044433592,-11.164162341308593
3577560842487,0.859725833,1,0.23702596435546874,1.7238251953125,-11.155782635498046
3577563339883,0.862223229,1,0.22026655273437498,1.7322049011230467,-11.164162341308593
3577565839414,0.86472276,1,0.23104046020507812,1.714248388671875,-11.18571015625
3577568341758,0.867225104,1,0.22505495605468748,1.725022296142578,-11.186907257080078
3577570839102,0.869722448,1,0.21308394775390624,1.7417817077636717,-11.183315954589844
3577573341498,0.872224844,1,0.22026655273437498,1.7465701110839842,-11.209652172851563
3577575839258,0.874722604,1,0.2214636535644531,1.7298106994628906,-11.192892761230468
3577578339050,0.877222396,1,0.2154781494140625,1.744175909423828,-11.209652172851563
3577580842123,0.879725469,1,0.2214636535644531,1.7465701110839842,-11.183315954589844
3577583339258,0.882222604,1,0.2442085693359375,1.7381904052734374,-11.19169566040039
3577585838946,0.884722292,1,0.2537853759765625,1.7369933044433592,-11.194089862060546
3577588341394,0.88722474,1,0.20470424194335937,1.7310078002929687,-11.186907257080078
3577590838737,0.889722083,1,0.22266075439453123,1.7357962036132812,-11.189301458740234
3577593341394,0.89222474,1,0.23104046020507812,1.7298106994628906,-11.195286962890624
3577595839883,0.894723229,1,0.2154781494140625,1.744175909423828,-11.166556542968749
3577598339987,0.897223333,1,0.22864625854492185,1.7393875061035156,-11.143811627197264
3577600841394,0.89972474,1,0.23223756103515625,1.7453730102539062,-11.130643518066405
3577603338737,0.902222083,1,0.22864625854492185,1.7202338928222656,-11.146205828857422
3577605838998,0.904722344,1,0.22266075439453123,1.7262193969726563,-11.186907257080078
3577608341237,0.907224583,1,0.22026655273437498,1.7393875061035156,-11.197681164550781
3577610839206,0.909722552,1,0.22026655273437498,1.7417817077636717,-11.186907257080078
3577613341394,0.91222474,1,0.22744915771484372,1.7357962036132812,-11.194089862060546
3577615839779,0.914723125,1,0.2154781494140625,1.7393875061035156,-11.195286962890624
3577618339727,0.917223073,1,0.2059013427734375,1.7262193969726563,-11.19169566040039
3577620841862,0.919725208,1,0.2154781494140625,1.7405846069335937,-11.197681164550781
3577623339467,0.922222813,1,0.21428104858398436,1.7369933044433592,-11.227608685302734
3577625838842,0.924722188,1,0.201112939453125,1.7286135986328124,-11.212046374511718
3577628342435,0.927225781,1,0.18435352783203124,1.715445489501953,-11.186907257080078
3577630840039,0.929723385,1,0.21308394775390624,1.696291876220703,-11.194089862060546
3577633342175,0.932225521,1,0.23343466186523437,1.714248388671875,-11.219228979492186
3577635838998,0.934722344,1,0.23702596435546874,1.725022296142578,-11.2240173828125
3577638339519,0.937222865,1,0.2154781494140625,1.7286135986328124,-11.202469567871093
3577640841550,0.939724896,1,0.20829554443359374,1.714248388671875,-11.176133349609374
3577643339519,0.942222865,1,0.20231004028320312,1.707065783691406,-11.167753643798827
3577645839414,0.94472276,1,0.19871873779296872,1.7190367919921874,-11.177330450439452
3577648341654,0.947225,1,0.21906945190429686,1.7310078002929687,-11.164162341308593
3577650839154,0.9497225,1,0.2346317626953125,1.7393875061035156,-11.176133349609374
3577653341654,0.952225,1,0.24181436767578124,1.7202338928222656,-11.189301458740234
3577655839414,0.95472276,1,0.2262520568847656,1.7226280944824217,-11.161768139648437
3577658336602,0.957219948,1,0.20949264526367187,1.7310078002929687,-11.197681164550781
3577660839831,0.959723177,1,0.20350714111328125,1.7286135986328124,-11.195286962890624
3577663340248,0.962223594,1,0.2059013427734375,1.7190367919921874,-11.182118853759764
3577665839154,0.9647225,1,0.2059013427734375,1.7262193969726563,-11.171344946289063
3577668341133,0.967224479,1,0.24301146850585936,1.734599102783203,-11.182118853759764
3577670839362,0.969722708,1,0.258573779296875,1.7381904052734374,-11.194089862060546
3577673341237,0.972224583,1,0.2454056701660156,1.7501614135742187,-11.176133349609374
3577675839102,0.974722448,1,0.24061726684570311,1.7202338928222656,-11.18571015625
3577678340039,0.977223385,1,0.24899697265624998,1.7393875061035156,-11.179724652099608
3577680842904,0.97972625,1,0.2454056701660156,1.7405846069335937,-11.17852755126953
3577683339727,0.982223073,1,0.258573779296875,1.7405846069335937,-11.190498559570312
3577685839414,0.98472276,1,0.24779987182617186,1.7429788085937499,-11.214440576171874
3577688341446,0.987224792,1,0.24779987182617186,1.7381904052734374,-11.194089862060546
3577690836498,0.989719844,1,0.23343466186523437,1.725022296142578,-11.189301458740234
3577693338789,0.992222135,1,0.22505495605468748,1.725022296142578,-11.179724652099608
3577695839623,0.994722969,1,0.239420166015625,1.7118541870117185,-11.189301458740234
3577698344050,0.997227396,1,0.24660277099609373,1.7166425903320313,-11.180921752929686
3577700844935,0.999728281,1,0.24660277099609373,1.7190367919921874,-11.166556542968749
3577703338998,1.002222344,1,0.2442085693359375,1.7286135986328124,-11.184513055419922
3577705838789,1.004722135,1,0.24301146850585936,1.7417817077636717,-11.200075366210937
3577708342071,1.007225417,1,0.2549824768066406,1.7429788085937499,-11.204863769531249
3577710839831,1.009723177,1,0.24061726684570311,1.7465701110839842,-11.203666668701171
3577713342123,1.012225469,1,0.22864625854492185,1.7501614135742187,-11.203666668701171
3577715839362,1.014722708,1,0.22864625854492185,1.7357962036132812,-11.204863769531249
3577718339519,1.017222865,1,0.23104046020507812,1.7298106994628906,-11.206060870361327
3577720842383,1.019725729,1,0.22864625854492185,1.7202338928222656,-11.240776794433593
3577723339310,1.022222656,1,0.22864625854492185,1.7274164978027342,-11.247959399414063
3577725839571,1.024722917,1,0.22505495605468748,1.715445489501953,-11.240776794433593
3577728342383,1.027225729,1,0.21308394775390624,1.7034744812011717,-11.233594189453123
3577730839258,1.029722604,1,0.20829554443359374,1.707065783691406,-11.208455072021483
3577733341081,1.032224427,1,0.2214636535644531,1.7214309936523438,-11.215637677001952
3577735839675,1.034723021,1,0.22744915771484372,1.7453730102539062,-11.232397088623046
3577738338894,1.03722224,1,0.229843359375,1.7417817077636717,-11.235988391113281
3577740841185,1.039724531,1,0.22266075439453123,1.7322049011230467,-11.234791290283203
3577743338685,1.042222031,1,0.21906945190429686,1.7202338928222656,-11.201272467041015
3577745839310,1.044722656,1,0.23343466186523437,1.7453730102539062,-11.182118853759764
3577748342487,1.047225833,1,0.229843359375,1.7310078002929687,-11.212046374511718
3577750839154,1.0497225,1,0.21906945190429686,1.7202338928222656,-11.208455072021483
3577753342123,1.052225469,1,0.18914193115234373,1.7334020019531249,-11.234791290283203
3577755838633,1.054721979,1,0.18435352783203124,1.7322049011230467,-11.231199987792968
3577758339258,1.057222604,1,0.20709844360351562,1.7453730102539062,-11.219228979492186
3577760843269,1.059726615,1,0.1867477294921875,1.734599102783203,-11.208455072021483
3577763338737,1.062222083,1,0.18914193115234373,1.7322049011230467,-11.186907257080078
3577765839258,1.064722604,1,0.19991583862304688,1.7286135986328124,-11.182118853759764
3577768341289,1.067224635,1,0.24301146850585936,1.7298106994628906,-11.190498559570312
3577770838737,1.069722083,1,0.2346317626953125,1.7405846069335937,-11.194089862060546
3577773341966,1.072225312,1,0.2166752502441406,1.7489643127441405,-11.177330450439452
3577775839727,1.074723073,1,0.21188684692382811,1.734599102783203,-11.166556542968749
3577778339623,1.077222969,1,0.22266075439453123,1.7286135986328124,-11.159373937988281
3577780842591,1.079725937,1,0.20709844360351562,1.734599102783203,-11.18571015625
3577783338894,1.08222224,1,0.2262520568847656,1.7357962036132812,-11.058817468261719
3577785839310,1.084722656,1,0.22744915771484372,1.7274164978027342,-11.194089862060546
3577788341810,1.087225156,1,0.2549824768066406,1.7262193969726563,-11.170147845458983
3577790839258,1.089722604,1,0.2561795776367187,1.7322049011230467,-11.179724652099608
3577793342435,1.092225781,1,0.2549824768066406,1.7477672119140624,-11.170147845458983
3577795839623,1.094722969,1,0.2442085693359375,1.7717092285156248,-11.177330450439452
3577798339623,1.097222969,1,0.2262520568847656,1.7705121276855467,-11.194089862060546
3577800840300,1.099723646,1,0.2214636535644531,1.7453730102539062,-11.189301458740234
3577803339571,1.102222917,1,0.229843359375,1.744175909423828,-11.186907257080078
3577805839466,1.104722812,1,0.23223756103515625,1.7573440185546874,-11.184513055419922
3577808342019,1.107225365,1,0.22744915771484372,1.7645266235351562,-11.17852755126953
3577810839779,1.109723125,1,0.201112939453125,1.7669208251953124,-11.166556542968749
3577813342279,1.112225625,1,0.201112939453125,1.7681179260253905,-11.159373937988281
3577815839466,1.114722812,1,0.21787235107421873,1.7417817077636717,-11.19169566040039
3577818336133,1.117219479,1,0.21428104858398436,1.7310078002929687,-11.179724652099608
3577820845508,1.119728854,1,0.229843359375,1.7130512878417967,-11.170147845458983
3577823340612,1.122223958,1,0.22505495605468748,1.7130512878417967,-11.166556542968749
3577825839675,1.124723021,1,0.22744915771484372,1.6986860778808592,-11.16057103881836
3577828342539,1.127225885,1,0.229843359375,1.705868682861328,-11.177330450439452
3577830839310,1.129722656,1,0.229843359375,1.697488977050781,-11.168950744628905
3577833341654,1.132225,1,0.23702596435546874,1.6998831787109374,-11.23718549194336
3577835838894,1.13472224,1,0.24301146850585936,1.7405846069335937,-11.221623181152344
3577838340039,1.137223385,1,0.2501940734863281,1.7501614135742187,-11.231199987792968
3577840841550,1.139724896,1,0.24899697265624998,1.753752716064453,-11.218031878662108
3577843339414,1.14222276,1,0.2214636535644531,1.734599102783203,-11.336544860839844
3577845839571,1.144722917,1,0.24181436767578124,1.7322049011230467,-11.186907257080078
3577848341133,1.147224479,1,0.24061726684570311,1.7310078002929687,-11.203666668701171
3577850839154,1.1497225,1,0.22744915771484372,1.715445489501953,-11.215637677001952
3577853342175,1.152225521,1,0.23702596435546874,1.7214309936523438,-11.206060870361327
3577855839206,1.154722552,1,0.21308394775390624,1.7393875061035156,-11.204863769531249
3577858340300,1.157223646,1,0.22026655273437498,1.7453730102539062,-11.195286962890624
3577860843008,1.159726354,1,0.23582886352539062,1.7513585144042967,-11.167753643798827
3577863339414,1.16222276,1,0.239420166015625,1.7501614135742187,-11.136629022216797
3577865839623,1.164722969,1,0.23582886352539062,1.7405846069335937,-11.145008728027342
3577868341602,1.167224948,1,0.23343466186523437,1.7262193969726563,-11.145008728027342
3577870839519,1.169722865,1,0.24061726684570311,1.7262193969726563,-11.149797131347656
3577873342071,1.172225417,1,0.24660277099609373,1.7286135986328124,-11.186907257080078
3577875839519,1.174722865,1,0.20949264526367187,1.734599102783203,-11.186907257080078
3577878340716,1.177224062,1,0.20829554443359374,1.7286135986328124,-11.197681164550781
3577880842123,1.179725469,1,0.21428104858398436,1.7429788085937499,-11.208455072021483
3577883339362,1.182222708,1,0.2262520568847656,1.7393875061035156,-11.19169566040039
3577885839727,1.184723073,1,0.22505495605468748,1.7298106994628906,-11.227608685302734
3577888341654,1.187225,1,0.22026655273437498,1.7202338928222656,-11.221623181152344
3577890839154,1.1897225,1,0.2346317626953125,1.7310078002929687,-11.188104357910156
3577893342123,1.192225469,1,0.2549824768066406,1.7597382202148437,-11.203666668701171
3577895839310,1.194722656,1,0.24660277099609373,1.7417817077636717,-11.183315954589844
3577898339571,1.197222917,1,0.24301146850585936,1.7417817077636717,-11.165359442138671
3577900842227,1.199725573,1,0.2262520568847656,1.7202338928222656,-11.176133349609374
3577903339727,1.202223073,1,0.24061726684570311,1.7369933044433592,-11.167753643798827
3577905838789,1.204722135,1,0.2501940734863281,1.734599102783203,-11.171344946289063
3577908341654,1.207225,1,0.2549824768066406,1.7405846069335937,-11.174936248779296
3577910839102,1.209722448,1,0.25258827514648435,1.744175909423828,-11.184513055419922
3577913342018,1.212225364,1,0.2442085693359375,1.7262193969726563,-11.189301458740234
3577915835873,1.214719219,1,0.24061726684570311,1.7226280944824217,-11.183315954589844
3577918339831,1.217223177,1,0.2454056701660156,1.734599102783203,-11.212046374511718
3577920842071,1.219725417,1,0.2454056701660156,1.7369933044433592,-11.228805786132812
3577923339518,1.222222864,1,0.25139117431640623,1.7393875061035156,-11.182118853759764
3577925839883,1.224723229,1,0.22744915771484372,1.7322049011230467,-11.17254204711914
3577928341706,1.227225052,1,0.22744915771484372,1.7166425903320313,-11.176133349609374
3577930839571,1.229722917,1,0.24301146850585936,1.7106570861816406,-11.200075366210937
3577933344987,1.232228333,1,0.24660277099609373,1.7202338928222656,-11.19169566040039
3577935840873,1.234724219,1,0.23582886352539062,1.7202338928222656,-11.171344946289063
3577938340039,1.237223385,1,0.23702596435546874,1.7357962036132812,-11.189301458740234
3577940842800,1.239726146,1,0.2454056701660156,1.7465701110839842,-11.188104357910156
3577943339675,1.242223021,1,0.23702596435546874,1.7322049011230467,-11.176133349609374
3577945838998,1.244722344,1,0.25139117431640623,1.7190367919921874,-11.212046374511718
3577948342175,1.247225521,1,0.2537853759765625,1.7310078002929687,-11.222820281982422
3577950839362,1.249722708,1,0.258573779296875,1.7226280944824217,-11.203666668701171
3577953342539,1.252225885,1,0.24779987182617186,1.7298106994628906,-11.238382592773437
3577955839154,1.2547225,1,0.22026655273437498,1.7034744812011717,-11.19169566040039
3577958339987,1.257223333,1,0.20709844360351562,1.705868682861328,-11.15338843383789
3577960842018,1.259725364,1,0.2166752502441406,1.7082628845214842,-11.155782635498046
3577963339883,1.262223229,1,0.20350714111328125,1.7226280944824217,-11.183315954589844
3577965840091,1.264723437,1,0.21188684692382811,1.7202338928222656,-11.203666668701171
3577968343060,1.267226406,1,0.22505495605468748,1.7202338928222656,-11.196484063720703
3577970839258,1.269722604,1,0.21308394775390624,1.7238251953125,-11.182118853759764
3577973341914,1.27222526,1,0.2154781494140625,1.7190367919921874,-11.209652172851563
3577975841029,1.274724375,1,0.2454056701660156,1.7178396911621092,-11.209652172851563
3577978340039,1.277223385,1,0.23223756103515625,1.7238251953125,-11.206060870361327
3577980842227,1.279725573,1,0.20709844360351562,1.7094599853515624,-11.21683477783203
3577983339154,1.2822225,1,0.21188684692382811,1.707065783691406,-11.196484063720703
3577985838737,1.284722083,1,0.22385785522460935,1.714248388671875,-11.180921752929686
3577988342383,1.287225729,1,0.21428104858398436,1.714248388671875,-11.174936248779296
3577990838737,1.289722083,1,0.20829554443359374,1.7214309936523438,-11.17852755126953
3577993342071,1.292225417,1,0.2214636535644531,1.7238251953125,-11.197681164550781
3577995839154,1.2947225,1,0.21188684692382811,1.7202338928222656,-11.195286962890624
3577998339675,1.297223021,1,0.21188684692382811,1.7298106994628906,-11.225214483642578
3578000842383,1.299725729,1,0.2166752502441406,1.7274164978027342,-11.213243475341796
3578003338841,1.302222187,1,0.2166752502441406,1.7322049011230467,-11.190498559570312
3578005844258,1.304727604,1,0.21428104858398436,1.744175909423828,-11.200075366210937
3578008343216,1.307226562,1,0.19632453613281248,1.7393875061035156,-11.189301458740234
3578010841341,1.309724687,1,0.1975216369628906,1.7417817077636717,-11.179724652099608
3578013340716,1.312224062,1,0.20709844360351562,1.7417817077636717,-11.192892761230468
3578015840821,1.314724167,1,0.19033903198242186,1.7334020019531249,-11.176133349609374
3578018341029,1.317224375,1,0.22026655273437498,1.7166425903320313,-11.150994232177734
3578020840977,1.319724323,1,0.24061726684570311,1.7298106994628906,-11.154585534667968
3578023340925,1.322224271,1,0.23104046020507812,1.7166425903320313,-11.188104357910156
3578025840977,1.324724323,1,0.229843359375,1.7298106994628906,-11.184513055419922
3578028340196,1.327223542,1,0.2346317626953125,1.7369933044433592,-11.195286962890624
3578030841133,1.329724479,1,0.2561795776367187,1.7417817077636717,-11.184513055419922
3578033345039,1.332228385,1,0.23702596435546874,1.725022296142578,-11.16057103881836
3578035841029,1.334724375,1,0.22266075439453123,1.697488977050781,-11.176133349609374
3578038341393,1.337224739,1,0.2262520568847656,1.705868682861328,-11.179724652099608
3578040843529,1.339726875,1,0.24181436767578124,1.714248388671875,-11.16057103881836
3578043340716,1.342224062,1,0.22864625854492185,1.7214309936523438,-11.155782635498046
3578045838112,1.344721458,1,0.201112939453125,1.7381904052734374,-11.165359442138671
3578048340300,1.347223646,1,0.181959326171875,1.7465701110839842,-11.174936248779296
3578050841341,1.349724687,1,0.18315642700195311,1.7262193969726563,-11.155782635498046
3578053343893,1.352227239,1,0.19033903198242186,1.7525556152343749,-11.170147845458983
3578055840404,1.35472375,1,0.23104046020507812,1.7621324218749999,-11.164162341308593
3578058341237,1.357224583,1,0.23822306518554687,1.7621324218749999,-11.152191333007812
3578060844831,1.359728177,1,0.22266075439453123,1.7717092285156248,-11.18571015625
3578063341862,1.362225208,1,0.22385785522460935,1.7417817077636717,-11.196484063720703
3578065841446,1.364724792,1,0.2154781494140625,1.7465701110839842,-11.174936248779296
3578068343164,1.36722651,1,0.20949264526367187,1.7310078002929687,-11.167753643798827
3578070841550,1.369724896,1,0.2214636535644531,1.7226280944824217,-11.197681164550781
3578073343841,1.372227187,1,0.21787235107421873,1.7274164978027342,-11.17254204711914
3578075841185,1.374724531,1,0.20350714111328125,1.744175909423828,-11.158176837158203
3578078341289,1.377224635,1,0.1975216369628906,1.734599102783203,-11.17852755126953
3578080844206,1.379727552,1,0.20231004028320312,1.7118541870117185,-11.162965240478515
3578083340612,1.382223958,1,0.19033903198242186,1.7082628845214842,-11.206060870361327
3578085841341,1.384724687,1,0.229843359375,1.7118541870117185,-11.201272467041015
3578088343789,1.387227135,1,0.239420166015625,1.7226280944824217,-11.222820281982422
3578090841341,1.389724687,1,0.23582886352539062,1.7166425903320313,-11.2240173828125
3578093343893,1.392227239,1,0.23582886352539062,1.7429788085937499,-11.228805786132812
3578095841446,1.394724792,1,0.23702596435546874,1.744175909423828,-11.220426080322264
3578098340977,1.397224323,1,0.22385785522460935,1.7489643127441405,-11.196484063720703
3578100843477,1.399726823,1,0.21068974609375,1.7609353210449217,-11.18571015625
3578103340768,1.402224114,1,0.21308394775390624,1.7357962036132812,-11.215637677001952
3578105841341,1.404724687,1,0.21906945190429686,1.7274164978027342,-11.227608685302734
3578108343425,1.407226771,1,0.2059013427734375,1.7298106994628906,-11.232397088623046
3578110841445,1.409724791,1,0.22026655273437498,1.7322049011230467,-11.239579693603515
3578113344102,1.412227448,1,0.24181436767578124,1.7357962036132812,-11.219228979492186
3578115841445,1.414724791,1,0.2537853759765625,1.7238251953125,-11.2240173828125
3578118341133,1.417224479,1,0.24181436767578124,1.734599102783203,-11.228805786132812
3578120843737,1.419727083,1,0.23223756103515625,1.7214309936523438,-11.244368096923827
3578123340664,1.42222401,1,0.21068974609375,1.7334020019531249,-11.250353601074218
3578125841654,1.424725,1,0.19991583862304688,1.7561469177246092,-11.239579693603515
3578128343737,1.427227083,1,0.201112939453125,1.7322049011230467,-11.226411584472656
3578130841602,1.429724948,1,0.20829554443359374,1.734599102783203,-11.204863769531249
3578133344466,1.432227812,1,0.24181436767578124,1.7657237243652342,-11.161768139648437
3578135840820,1.434724166,1,0.22744915771484372,1.7621324218749999,-11.162965240478515
3578138341341,1.437224687,1,0.20709844360351562,1.7525556152343749,-11.180921752929686
3578140843529,1.439726875,1,0.21428104858398436,1.753752716064453,-11.167753643798827
3578143340716,1.442224062,1,0.23343466186523437,1.7585411193847655,-11.200075366210937
3578145841758,1.444725104,1,0.2537853759765625,1.7381904052734374,-11.176133349609374
3578148343529,1.447226875,1,0.2454056701660156,1.7357962036132812,-11.167753643798827
3578150840925,1.449724271,1,0.23582886352539062,1.7262193969726563,-11.180921752929686
3578153343633,1.452226979,1,0.239420166015625,1.7274164978027342,-11.162965240478515
3578155840977,1.454724323,1,0.23343466186523437,1.7369933044433592,-11.145008728027342
3578158341602,1.457224948,1,0.229843359375,1.7465701110839842,-11.141417425537108
3578160843529,1.459726875,1,0.22385785522460935,1.7369933044433592,-11.162965240478515
3578163340560,1.462223906,1,0.239420166015625,1.7334020019531249,-11.159373937988281
3578165842175,1.464725521,1,0.2262520568847656,1.7381904052734374,-11.154585534667968
3578168356133,1.467239479,1,0.23223756103515625,1.7369933044433592,-11.159373937988281
3578170839362,1.469722708,1,0.23343466186523437,1.744175909423828,-11.174936248779296
3578173340039,1.472223385,1,0.22744915771484372,1.714248388671875,-11.209652172851563
3578175841185,1.474724531,1,0.23822306518554687,1.7106570861816406,-11.194089862060546
3578178341550,1.477224896,1,0.23822306518554687,1.7082628845214842,-11.180921752929686
3578180843477,1.479726823,1,0.24301146850585936,1.7381904052734374,-11.207257971191405
3578183341185,1.482224531,1,0.25258827514648435,1.763329522705078,-11.21084927368164
3578185841810,1.484725156,1,0.24181436767578124,1.7561469177246092,-11.200075366210937
3578188343789,1.487227135,1,0.22505495605468748,1.7501614135742187,-11.21084927368164
3578190841185,1.489724531,1,0.2214636535644531,1.7381904052734374,-11.21084927368164
3578193343685,1.492227031,1,0.22026655273437498,1.7417817077636717,-11.18571015625
3578195840716,1.494724062,1,0.24660277099609373,1.7465701110839842,-11.166556542968749
3578198341133,1.497224479,1,0.24779987182617186,1.7393875061035156,-11.167753643798827
3578200843008,1.499726354,1,0.23343466186523437,1.7298106994628906,-11.03846675415039
3578203340716,1.502224062,1,0.2166752502441406,1.7453730102539062,-11.184513055419922
3578205840873,1.504724219,1,0.229843359375,1.744175909423828,-11.19169566040039
3578208343477,1.507226823,1,0.23223756103515625,1.725022296142578,-11.201272467041015
3578210840768,1.509724114,1,0.24301146850585936,1.7274164978027342,-11.186907257080078
3578213344258,1.512227604,1,0.25258827514648435,1.763329522705078,-11.192892761230468
3578215840925,1.514724271,1,0.26815058593749996,1.7621324218749999,-11.189301458740234
3578218340716,1.517224062,1,0.2693476867675781,1.7513585144042967,-11.177330450439452
3578220843581,1.519726927,1,0.2657563842773437,1.7525556152343749,-11.042058056640624
3578223340404,1.52222375,1,0.25139117431640623,1.7405846069335937,-11.203666668701171
3578225841393,1.524724739,1,0.23702596435546874,1.7393875061035156,-11.21683477783203
3578228343737,1.527227083,1,0.23104046020507812,1.7417817077636717,-11.2240173828125
3578230840352,1.529723698,1,0.23343466186523437,1.7322049011230467,-11.188104357910156
3578233344466,1.532227812,1,0.2442085693359375,1.7226280944824217,-11.188104357910156
3578235840664,1.53472401,1,0.22266075439453123,1.7178396911621092,-11.177330450439452
3578238340873,1.537224219,1,0.23822306518554687,1.7202338928222656,-11.17852755126953
3578240843737,1.539727083,1,0.2454056701660156,1.7082628845214842,-11.033678350830078
3578243340925,1.542224271,1,0.22864625854492185,1.714248388671875,-11.189301458740234
3578245841654,1.544725,1,0.22266075439453123,1.7118541870117185,-11.209652172851563
3578248343581,1.547226927,1,0.239420166015625,1.7310078002929687,-11.190498559570312
3578250840977,1.549724323,1,0.2442085693359375,1.7322049011230467,-11.173739147949219
3578253344414,1.55222776,1,0.24779987182617186,1.7393875061035156,-11.176133349609374
3578255841081,1.554724427,1,0.23223756103515625,1.7381904052734374,-11.197681164550781
3578258340873,1.557224219,1,0.2262520568847656,1.7417817077636717,-11.209652172851563
3578260843998,1.559727344,1,0.22385785522460935,1.7465701110839842,-11.202469567871093
3578263340873,1.562224219,1,0.22744915771484372,1.7202338928222656,-11.200075366210937
3578265841654,1.564725,1,0.229843359375,1.7357962036132812,-11.19169566040039
3578268344935,1.567228281,1,0.21428104858398436,1.7226280944824217,-11.212046374511718
3578270841498,1.569724844,1,0.20949264526367187,1.7226280944824217,-11.206060870361327
3578273344310,1.572227656,1,0.22266075439453123,1.753752716064453,-11.219228979492186
3578275841445,1.574724791,1,0.22505495605468748,1.7453730102539062,-11.206060870361327
3578278341341,1.577224687,1,0.22385785522460935,1.7501614135742187,-11.189301458740234
3578280843685,1.579727031,1,0.2166752502441406,1.7465701110839842,-11.170147845458983
3578283340143,1.582223489,1,0.19512743530273435,1.7322049011230467,-11.167753643798827
3578285840768,1.584724114,1,0.2059013427734375,1.7310078002929687,-11.168950744628905
3578288343633,1.587226979,1,0.21188684692382811,1.7262193969726563,-11.200075366210937
3578290841393,1.589724739,1,0.2346317626953125,1.7393875061035156,-11.189301458740234
3578293344154,1.5922275,1,0.22864625854492185,1.7286135986328124,-11.188104357910156
3578295838164,1.59472151,1,0.21428104858398436,1.7166425903320313,-11.174936248779296
3578298341133,1.597224479,1,0.22266075439453123,1.7238251953125,-11.156979736328124
3578300843893,1.599727239,1,0.2501940734863281,1.725022296142578,-11.133037719726563
3578303341133,1.602224479,1,0.23822306518554687,1.7190367919921874,-11.148600030517578
3578305841341,1.604724687,1,0.23822306518554687,1.705868682861328,-11.179724652099608
3578308343685,1.607227031,1,0.23822306518554687,1.7202338928222656,-11.173739147949219
3578310840925,1.609724271,1,0.23822306518554687,1.7549498168945312,-11.212046374511718
3578313343737,1.612227083,1,0.239420166015625,1.7465701110839842,-11.207257971191405
3578315841081,1.614724427,1,0.21906945190429686,1.7417817077636717,-11.203666668701171
3578318341133,1.617224479,1,0.22744915771484372,1.7274164978027342,-11.21683477783203
3578320844050,1.619727396,1,0.23702596435546874,1.7429788085937499,-11.179724652099608
3578323340195,1.622223541,1,0.25139117431640623,1.7429788085937499,-11.19887826538086
3578325841185,1.624724531,1,0.25258827514648435,1.7405846069335937,-11.212046374511718
3578328341602,1.627224948,1,0.23223756103515625,1.7357962036132812,-11.204863769531249
3578330840820,1.629724166,1,0.2154781494140625,1.7549498168945312,-11.179724652099608
3578333343060,1.632226406,1,0.22266075439453123,1.7369933044433592,-11.190498559570312
3578335840404,1.63472375,1,0.2166752502441406,1.7429788085937499,-11.203666668701171
3578338341029,1.637224375,1,0.2262520568847656,1.7393875061035156,-11.227608685302734
3578340843529,1.639726875,1,0.21068974609375,1.7357962036132812,-11.207257971191405
3578343340768,1.642224114,1,0.229843359375,1.7381904052734374,-11.182118853759764
3578345840925,1.644724271,1,0.22385785522460935,1.7322049011230467,-11.195286962890624
3578348343633,1.647226979,1,0.21308394775390624,1.7214309936523438,-11.207257971191405
3578350840768,1.649724114,1,0.2262520568847656,1.725022296142578,-11.194089862060546
3578353343841,1.652227187,1,0.24181436767578124,1.7417817077636717,-11.196484063720703
3578355841654,1.654725,1,0.23702596435546874,1.7453730102539062,-11.207257971191405
3578358340560,1.657223906,1,0.24899697265624998,1.7573440185546874,-11.207257971191405
3578360843841,1.659727187,1,0.2214636535644531,1.7513585144042967,-11.174936248779296
3578363340560,1.662223906,1,0.2262520568847656,1.7429788085937499,-11.189301458740234
3578365841654,1.664725,1,0.201112939453125,1.7322049011230467,-11.190498559570312
3578368343529,1.667226875,1,0.201112939453125,1.7238251953125,-11.189301458740234
3578370841133,1.669724479,1,0.21068974609375,1.7310078002929687,-11.176133349609374
3578373344050,1.672227396,1,0.21068974609375,1.70467158203125,-11.194089862060546
3578375841914,1.67472526,1,0.23343466186523437,1.70467158203125,-11.182118853759764
3578378341706,1.677225052,1,0.23343466186523437,1.7166425903320313,-11.177330450439452
3578380843997,1.679727343,1,0.25139117431640623,1.7202338928222656,-11.200075366210937
3578383341393,1.682224739,1,0.23582886352539062,1.7489643127441405,-11.170147845458983
3578385841341,1.684724687,1,0.23822306518554687,1.7501614135742187,-11.162965240478515
3578388343425,1.687226771,1,0.23343466186523437,1.7549498168945312,-11.167753643798827
3578390841185,1.689724531,1,0.21188684692382811,1.7501614135742187,-11.192892761230468
3578393344154,1.6922275,1,0.2154781494140625,1.7178396911621092,-11.19169566040039
3578395837747,1.694721093,1,0.2154781494140625,1.7369933044433592,-11.18571015625
3578398342591,1.697225937,1,0.2262520568847656,1.7513585144042967,-11.194089862060546
3578400844206,1.699727552,1,0.22385785522460935,1.7322049011230467,-11.203666668701171
3578403347591,1.702230937,1,0.21787235107421873,1.7226280944824217,-11.202469567871093
3578405843893,1.704727239,1,0.22266075439453123,1.7238251953125,-11.204863769531249
3578408344310,1.707227656,1,0.23223756103515625,1.7082628845214842,-11.189301458740234
3578410841133,1.709724479,1,0.24660277099609373,1.7094599853515624,-11.202469567871093
3578413343320,1.712226666,1,0.21308394775390624,1.7501614135742187,-11.183315954589844
3578415840768,1.714724114,1,0.20231004028320312,1.7585411193847655,-11.213243475341796
3578418341237,1.717224583,1,0.2442085693359375,1.763329522705078,-11.209652172851563
3578420844050,1.719727396,1,0.24301146850585936,1.7621324218749999,-11.19169566040039
3578423341341,1.722224687,1,0.23104046020507812,1.7585411193847655,-11.189301458740234
3578425838633,1.724721979,1,0.23702596435546874,1.7369933044433592,-11.196484063720703
3578428340404,1.72722375,1,0.23582886352539062,1.7310078002929687,-11.194089862060546
3578430841133,1.729724479,1,0.2346317626953125,1.7357962036132812,-11.19169566040039
3578433343529,1.732226875,1,0.23702596435546874,1.7489643127441405,-11.197681164550781
3578435841133,1.734724479,1,0.21428104858398436,1.7453730102539062,-11.184513055419922
3578438341497,1.737224843,1,0.20350714111328125,1.7357962036132812,-11.17852755126953
3578440843737,1.739727083,1,0.21428104858398436,1.7310078002929687,-11.16057103881836
3578443340977,1.742224323,1,0.2262520568847656,1.7465701110839842,-11.155782635498046
3578445841341,1.744724687,1,0.22266075439453123,1.7381904052734374,-11.189301458740234
3578448343112,1.747226458,1,0.22744915771484372,1.7214309936523438,-11.201272467041015
3578450840664,1.74972401,1,0.22864625854492185,1.7262193969726563,-11.171344946289063
3578453343789,1.752227135,1,0.23702596435546874,1.7393875061035156,-11.164162341308593
3578455840820,1.754724166,1,0.22864625854492185,1.725022296142578,-11.17852755126953
3578458341393,1.757224739,1,0.21428104858398436,1.705868682861328,-11.158176837158203
3578460843372,1.759726718,1,0.21188684692382811,1.7178396911621092,-11.173739147949219
3578463341341,1.762224687,1,0.229843359375,1.7226280944824217,-11.165359442138671
3578465841497,1.764724843,1,0.23822306518554687,1.7298106994628906,-11.166556542968749
3578468344206,1.767227552,1,0.24779987182617186,1.7322049011230467,-11.173739147949219
3578470840925,1.769724271,1,0.2442085693359375,1.7322049011230467,-11.165359442138671
3578473342904,1.77222625,1,0.23822306518554687,1.7178396911621092,-11.18571015625
3578475840768,1.774724114,1,0.24181436767578124,1.7226280944824217,-11.206060870361327
3578478341602,1.777224948,1,0.2442085693359375,1.7262193969726563,-11.21084927368164
3578480843685,1.779727031,1,0.2442085693359375,1.7393875061035156,-11.2240173828125
3578483340508,1.782223854,1,0.229843359375,1.7381904052734374,-11.213243475341796
3578485841341,1.784724687,1,0.23702596435546874,1.7357962036132812,-11.19887826538086
3578488343685,1.787227031,1,0.239420166015625,1.7417817077636717,-11.186907257080078
3578490841185,1.789724531,1,0.2262520568847656,1.7226280944824217,-11.212046374511718
3578493343268,1.792226614,1,0.19153613281249998,1.7166425903320313,-11.195286962890624
3578495841341,1.794724687,1,0.18914193115234373,1.7190367919921874,-11.192892761230468
3578498341133,1.797224479,1,0.19871873779296872,1.7286135986328124,-11.212046374511718
3578500843529,1.799726875,1,0.19153613281249998,1.7310078002929687,-11.207257971191405
3578503341341,1.802224687,1,0.2609679809570312,1.7298106994628906,-11.177330450439452
3578505841445,1.804724791,1,0.2549824768066406,1.725022296142578,-11.173739147949219
3578508343425,1.807226771,1,0.24181436767578124,1.7238251953125,-11.180921752929686
3578510840925,1.809724271,1,0.22266075439453123,1.7334020019531249,-11.213243475341796
3578513343529,1.812226875,1,0.22864625854492185,1.714248388671875,-11.21084927368164
3578515841341,1.814724687,1,0.22505495605468748,1.734599102783203,-11.200075366210937
3578518341393,1.817224739,1,0.229843359375,1.734599102783203,-11.18571015625
3578520843529,1.819726875,1,0.24181436767578124,1.7226280944824217,-11.208455072021483
3578523340820,1.822224166,1,0.258573779296875,1.7465701110839842,-11.197681164550781
3578525840925,1.824724271,1,0.2609679809570312,1.7621324218749999,-11.200075366210937
3578528343320,1.827226666,1,0.24779987182617186,1.7393875061035156,-11.215637677001952
3578530840872,1.829724218,1,0.2454056701660156,1.725022296142578,-11.202469567871093
3578533343268,1.832226614,1,0.2537853759765625,1.7214309936523438,-11.209652172851563
3578535841185,1.834724531,1,0.2561795776367187,1.7393875061035156,-11.203666668701171
3578538341237,1.837224583,1,0.25139117431640623,1.7357962036132812,-11.218031878662108
3578540843164,1.83972651,1,0.24779987182617186,1.7393875061035156,-11.176133349609374
3578543338164,1.84222151,1,0.22744915771484372,1.734599102783203,-11.17254204711914
3578545841602,1.844724948,1,0.21428104858398436,1.7322049011230467,-11.19169566040039
3578548343893,1.847227239,1,0.20350714111328125,1.744175909423828,-11.159373937988281
3578550840924,1.84972427,1,0.21068974609375,1.7405846069335937,-11.196484063720703
3578553343581,1.852226927,1,0.20709844360351562,1.7190367919921874,-11.184513055419922
3578555840716,1.854724062,1,0.21188684692382811,1.7369933044433592,-11.197681164550781
3578558342018,1.857225364,1,0.22864625854492185,1.7381904052734374,-11.165359442138671
3578560843581,1.859726927,1,0.2262520568847656,1.7178396911621092,-11.168950744628905
3578563341029,1.862224375,1,0.2346317626953125,1.7393875061035156,-11.183315954589844
3578565841862,1.864725208,1,0.22026655273437498,1.7429788085937499,-11.179724652099608
3578568343945,1.867227291,1,0.22026655273437498,1.7322049011230467,-11.189301458740234
3578570840664,1.86972401,1,0.23343466186523437,1.7286135986328124,-11.222820281982422
3578573343216,1.872226562,1,0.258573779296875,1.7381904052734374,-11.234791290283203
3578575841029,1.874724375,1,0.2537853759765625,1.7310078002929687,-11.202469567871093
3578578341654,1.877225,1,0.2442085693359375,1.7310078002929687,-11.19169566040039
3578580844414,1.87972776,1,0.24301146850585936,1.7405846069335937,-11.158176837158203
3578583340872,1.882224218,1,0.2454056701660156,1.7214309936523438,-11.161768139648437
3578585841393,1.884724739,1,0.2346317626953125,1.7238251953125,-11.186907257080078
3578588343060,1.887226406,1,0.22266075439453123,1.7286135986328124,-11.18571015625
3578590841341,1.889724687,1,0.21906945190429686,1.714248388671875,-11.197681164550781
3578593344049,1.892227395,1,0.22864625854492185,1.7202338928222656,-11.204863769531249
3578595840872,1.894724218,1,0.23343466186523437,1.7166425903320313,-11.202469567871093
3578598341445,1.897224791,1,0.229843359375,1.7226280944824217,-11.188104357910156
3578600843997,1.899727343,1,0.229843359375,1.715445489501953,-11.192892761230468
3578603341081,1.902224427,1,0.23822306518554687,1.714248388671875,-11.197681164550781
3578605841289,1.904724635,1,0.24301146850585936,1.7274164978027342,-11.202469567871093
3578608343581,1.907226927,1,0.24779987182617186,1.725022296142578,-11.203666668701171
3578610840716,1.909724062,1,0.2454056701660156,1.7094599853515624,-11.19887826538086
3578613344362,1.912227708,1,0.23582886352539062,1.7166425903320313,-11.184513055419922
3578615840872,1.914724218,1,0.21906945190429686,1.7226280944824217,-11.212046374511718
3578618341758,1.917225104,1,0.2166752502441406,1.7226280944824217,-11.32577095336914
3578620843997,1.919727343,1,0.21428104858398436,1.7106570861816406,-11.179724652099608
3578623341237,1.922224583,1,0.21308394775390624,1.7130512878417967,-11.165359442138671
3578625841758,1.924725104,1,0.22026655273437498,1.7190367919921874,-11.167753643798827
3578628343633,1.927226979,1,0.239420166015625,1.7369933044433592,-11.196484063720703
3578630840508,1.929723854,1,0.24660277099609373,1.7405846069335937,-11.17852755126953
3578633343685,1.932227031,1,0.2214636535644531,1.7166425903320313,-11.195286962890624
3578635841081,1.934724427,1,0.23343466186523437,1.7238251953125,-11.170147845458983
3578638349154,1.9372325,1,0.229843359375,1.7166425903320313,-11.040860955810546
3578640847227,1.939730573,1,0.21787235107421873,1.7118541870117185,-11.190498559570312
3578643341081,1.942224427,1,0.23104046020507812,1.7262193969726563,-11.176133349609374
3578645842591,1.944725937,1,0.23104046020507812,1.7118541870117185,-11.164162341308593
3578648343945,1.947227291,1,0.2166752502441406,1.7238251953125,-11.162965240478515
3578650841237,1.949724583,1,0.2214636535644531,1.7369933044433592,-11.155782635498046
3578653343685,1.952227031,1,0.258573779296875,1.7274164978027342,-11.159373937988281
3578655841393,1.954724739,1,0.2609679809570312,1.7310078002929687,-11.176133349609374
3578658341081,1.957224427,1,0.24899697265624998,1.7286135986328124,-11.180921752929686
3578660843164,1.95972651,1,0.23582886352539062,1.7286135986328124,-11.18571015625
3578663340768,1.962224114,1,0.19512743530273435,1.7310078002929687,-11.219228979492186
3578665841602,1.964724948,1,0.18076222534179687,1.7465701110839842,-11.222820281982422
3578668343529,1.967226875,1,0.21188684692382811,1.734599102783203,-11.227608685302734
3578670841133,1.969724479,1,0.22266075439453123,1.7369933044433592,-11.21683477783203
3578673343945,1.972227291,1,0.2262520568847656,1.7369933044433592,-11.208455072021483
3578675837747,1.974721093,1,0.2346317626953125,1.7274164978027342,-11.218031878662108
3578678341914,1.97722526,1,0.22266075439453123,1.7178396911621092,-11.19169566040039
3578680843737,1.979727083,1,0.22385785522460935,1.697488977050781,-11.203666668701171
3578683337852,1.982221198,1,0.23343466186523437,1.7106570861816406,-11.18571015625
3578685841341,1.984724687,1,0.22385785522460935,1.7202338928222656,-11.18571015625
3578688344049,1.987227395,1,0.22505495605468748,1.7190367919921874,-11.161768139648437
3578690841393,1.989724739,1,0.24061726684570311,1.7202338928222656,-11.142614526367186
3578693344258,1.992227604,1,0.20350714111328125,1.7214309936523438,-11.161768139648437
3578695841081,1.994724427,1,0.20709844360351562,1.7010802795410156,-11.167753643798827
3578698341497,1.997224843,1,0.20949264526367187,1.7082628845214842,-11.158176837158203
3578700844102,1.999727448,1,0.21428104858398436,1.7274164978027342,-11.164162341308593
3578703340612,2.002223958,1,0.19512743530273435,1.7298106994628906,-11.197681164550781
3578705841758,2.004725104,1,0.20350714111328125,1.7190367919921874,-11.19169566040039
3578708343945,2.007227291,1,0.2154781494140625,1.7286135986328124,-11.208455072021483
3578710840664,2.00972401,1,0.22505495605468748,1.7310078002929687,-11.200075366210937
3578713343320,2.012226666,1,0.22266075439453123,1.7178396911621092,-11.202469567871093
3578715837852,2.014721198,1,0.23582886352539062,1.7334020019531249,-11.19887826538086
3578718342383,2.017225729,1,0.23702596435546874,1.753752716064453,-11.334150659179686
3578720844622,2.019727968,1,0.21787235107421873,1.7525556152343749,-11.192892761230468
3578723340299,2.022223645,1,0.22744915771484372,1.7549498168945312,-11.218031878662108
3578725840352,2.024723698,1,0.23582886352539062,1.7489643127441405,-11.174936248779296
3578728343216,2.027226562,1,0.22744915771484372,1.7393875061035156,-11.15338843383789
3578730841497,2.029724843,1,0.2454056701660156,1.7238251953125,-11.174936248779296
3578733343685,2.032227031,1,0.258573779296875,1.7274164978027342,-11.183315954589844
3578735841081,2.034724427,1,0.2501940734863281,1.7357962036132812,-11.19169566040039
3578738341602,2.037224948,1,0.23822306518554687,1.7334020019531249,-11.335347760009764
3578740843216,2.039726562,1,0.22744915771484372,1.7226280944824217,-11.174936248779296
3578743340768,2.042224114,1,0.2262520568847656,1.7118541870117185,-11.17852755126953
3578745841341,2.044724687,1,0.23822306518554687,1.7166425903320313,-11.188104357910156
3578748343789,2.047227135,1,0.24301146850585936,1.7226280944824217,-11.17254204711914
3578750841133,2.049724479,1,0.22864625854492185,1.7226280944824217,-11.183315954589844
3578753343424,2.05222677,1,0.21308394775390624,1.7202338928222656,-11.192892761230468
3578755848372,2.054731718,1,0.21188684692382811,1.7357962036132812,-11.188104357910156
3578758342070,2.057225416,1,0.22026655273437498,1.7357962036132812,-11.186907257080078
3578760843633,2.059726979,1,0.21428104858398436,1.714248388671875,-11.177330450439452
3578763340977,2.062224323,1,0.22026655273437498,1.7226280944824217,-11.203666668701171
3578765840872,2.064724218,1,0.23343466186523437,1.7453730102539062,-11.200075366210937
3578768344049,2.067227395,1,0.22864625854492185,1.7393875061035156,-11.162965240478515
3578770841341,2.069724687,1,0.23702596435546874,1.7369933044433592,-11.16057103881836
3578773343945,2.072227291,1,0.24660277099609373,1.7381904052734374,-11.17254204711914
3578775841393,2.074724739,1,0.23343466186523437,1.7453730102539062,-11.171344946289063
3578778341081,2.077224427,1,0.23582886352539062,1.7310078002929687,-11.19887826538086
3578780844414,2.07972776,1,0.23104046020507812,1.7262193969726563,-11.189301458740234
3578783340820,2.082224166,1,0.23822306518554687,1.7381904052734374,-11.180921752929686
3578785840872,2.084724218,1,0.239420166015625,1.744175909423828,-11.174936248779296
3578788343633,2.087226979,1,0.2501940734863281,1.7357962036132812,-11.183315954589844
3578790838581,2.089721927,1,0.22864625854492185,1.7417817077636717,-11.180921752929686
3578793340195,2.092223541,1,0.23104046020507812,1.7489643127441405,-11.152191333007812
3578795840924,2.09472427,1,0.22864625854492185,1.7501614135742187,-11.161768139648437
3578798340924,2.09722427,1,0.22864625854492185,1.7429788085937499,-11.182118853759764
3578800843529,2.099726875,1,0.2262520568847656,1.7417817077636717,-11.159373937988281
3578803340195,2.102223541,1,0.23343466186523437,1.7286135986328124,-11.17254204711914
3578805841601,2.104724947,1,0.22505495605468748,1.7322049011230467,-11.19887826538086
3578808343372,2.107226718,1,0.23343466186523437,1.7274164978027342,-11.186907257080078
3578810840976,2.109724322,1,0.21906945190429686,1.7166425903320313,-11.18571015625
3578813343060,2.112226406,1,0.24181436767578124,1.7214309936523438,-11.208455072021483
3578815841081,2.114724427,1,0.24301146850585936,1.7202338928222656,-11.201272467041015
3578818341445,2.117224791,1,0.2645592834472656,1.7298106994628906,-11.202469567871093
3578820843060,2.119726406,1,0.26336218261718747,1.7238251953125,-11.192892761230468
3578823341289,2.122224635,1,0.258573779296875,1.7262193969726563,-11.221623181152344
3578825841289,2.124724635,1,0.2657563842773437,1.7178396911621092,-11.195286962890624
3578828343529,2.127226875,1,0.2657563842773437,1.7202338928222656,-11.167753643798827
3578830840976,2.129724322,1,0.2597708801269531,1.7310078002929687,-11.152191333007812
3578833343476,2.132226822,1,0.239420166015625,1.7310078002929687,-11.16057103881836
3578835840768,2.134724114,1,0.22026655273437498,1.7178396911621092,-11.165359442138671
3578838341341,2.137224687,1,0.21787235107421873,1.7082628845214842,-11.18571015625
3578840843789,2.139727135,1,0.23223756103515625,1.7262193969726563,-11.179724652099608
3578843340872,2.142224218,1,0.23582886352539062,1.7322049011230467,-11.19169566040039
3578845840351,2.144723697,1,0.24181436767578124,1.7190367919921874,-11.182118853759764
3578848343529,2.147226875,1,0.23822306518554687,1.725022296142578,-11.177330450439452
3578850841185,2.149724531,1,0.22266075439453123,1.7298106994628906,-11.184513055419922
3578853343268,2.152226614,1,0.23822306518554687,1.7214309936523438,-11.190498559570312
3578855840820,2.154724166,1,0.21906945190429686,1.7322049011230467,-11.176133349609374
3578858342643,2.157225989,1,0.22864625854492185,1.734599102783203,-11.183315954589844
3578860843789,2.159727135,1,0.21308394775390624,1.7094599853515624,-11.176133349609374
3578863340351,2.162223697,1,0.2262520568847656,1.7130512878417967,-11.158176837158203
3578865840768,2.164724114,1,0.23343466186523437,1.7226280944824217,-11.16057103881836
3578868342539,2.167225885,1,0.23822306518554687,1.7166425903320313,-11.18571015625
3578870840924,2.16972427,1,0.2166752502441406,1.7178396911621092,-11.192892761230468
3578873344674,2.17222802,1,0.2214636535644531,1.7286135986328124,-11.201272467041015
3578875840768,2.174724114,1,0.23223756103515625,1.7286135986328124,-11.19887826538086
3578878341029,2.177224375,1,0.2346317626953125,1.7166425903320313,-11.177330450439452
3578880843581,2.179726927,1,0.22505495605468748,1.7238251953125,-11.189301458740234
3578883340039,2.182223385,1,0.2166752502441406,1.7393875061035156,-11.19169566040039
3578885841601,2.184724947,1,0.23582886352539062,1.7322049011230467,-11.171344946289063
3578888343424,2.18722677,1,0.24181436767578124,1.7549498168945312,-11.148600030517578
3578890840612,2.189723958,1,0.24061726684570311,1.7310078002929687,-11.16057103881836
3578893343737,2.192227083,1,0.24301146850585936,1.7190367919921874,-11.156979736328124
3578895841081,2.194724427,1,0.24301146850585936,1.7405846069335937,-11.189301458740234
3578898341549,2.197224895,1,0.24181436767578124,1.7286135986328124,-11.213243475341796
3578900843268,2.199726614,1,0.23104046020507812,1.7238251953125,-11.21084927368164
3578903340560,2.202223906,1,0.22864625854492185,1.715445489501953,-11.213243475341796
3578905841185,2.204724531,1,0.23223756103515625,1.7190367919921874,-11.202469567871093
3578908343268,2.207226614,1,0.21787235107421873,1.7262193969726563,-11.186907257080078
3578910840820,2.209724166,1,0.19991583862304688,1.7094599853515624,-11.190498559570312
3578913343789,2.212227135,1,0.21308394775390624,1.705868682861328,-11.195286962890624
3578915841029,2.214724375,1,0.22505495605468748,1.7238251953125,-11.19887826538086
3578918341133,2.217224479,1,0.21906945190429686,1.7369933044433592,-11.197681164550781
3578920844049,2.219727395,1,0.2442085693359375,1.7477672119140624,-11.200075366210937
3578923340247,2.222223593,1,0.2561795776367187,1.7369933044433592,-11.196484063720703
3578925841706,2.224725052,1,0.24301146850585936,1.7286135986328124,-11.212046374511718
3578928342904,2.22722625,1,0.22385785522460935,1.7094599853515624,-11.186907257080078
3578930840820,2.229724166,1,0.23104046020507812,1.7286135986328124,-11.190498559570312
3578933343216,2.232226562,1,0.23702596435546874,1.7369933044433592,-11.202469567871093
3578935840924,2.23472427,1,0.22026655273437498,1.7334020019531249,-11.19887826538086
3578938338581,2.237221927,1,0.229843359375,1.7274164978027342,-11.200075366210937
3578940840716,2.239724062,1,0.22026655273437498,1.714248388671875,-11.220426080322264
3578943341758,2.242225104,1,0.2214636535644531,1.7298106994628906,-11.201272467041015
3578945841185,2.244724531,1,0.22026655273437498,1.7417817077636717,-11.197681164550781
3578948343893,2.247227239,1,0.21068974609375,1.7357962036132812,-11.168950744628905
3578950841393,2.249724739,1,0.21188684692382811,1.7429788085937499,-11.206060870361327
3578953343320,2.252226666,1,0.21068974609375,1.7369933044433592,-11.203666668701171
3578955840404,2.25472375,1,0.20350714111328125,1.7262193969726563,-11.201272467041015
3578958341237,2.257224583,1,0.201112939453125,1.714248388671875,-11.203666668701171
3578960843945,2.259727291,1,0.201112939453125,1.7178396911621092,-11.212046374511718
3578963340612,2.262223958,1,0.1975216369628906,1.7010802795410156,-11.19887826538086
3578965841237,2.264724583,1,0.1975216369628906,1.6986860778808592,-11.16057103881836
3578968343268,2.267226614,1,0.20949264526367187,1.7286135986328124,-11.161768139648437
3578970840872,2.269724218,1,0.22266075439453123,1.7369933044433592,-11.182118853759764
3578973343529,2.272226875,1,0.22744915771484372,1.7381904052734374,-11.197681164550781
3578975840924,2.27472427,1,0.23702596435546874,1.7489643127441405,-11.213243475341796
3578978341601,2.277224947,1,0.22864625854492185,1.7405846069335937,-11.221623181152344
3578980843268,2.279726614,1,0.22864625854492185,1.7178396911621092,-11.208455072021483
3578983341341,2.282224687,1,0.22266075439453123,1.7166425903320313,-11.197681164550781
3578985841393,2.284724739,1,0.20470424194335937,1.715445489501953,-11.19169566040039
3578988343893,2.287227239,1,0.21906945190429686,1.714248388671875,-11.212046374511718
3578990840403,2.289723749,1,0.24660277099609373,1.7238251953125,-11.186907257080078
3578993350403,2.292233749,1,0.2501940734863281,1.7417817077636717,-11.143811627197264
3578995842903,2.294726249,1,0.23582886352539062,1.744175909423828,-11.12226381225586
3578998341081,2.297224427,1,0.22026655273437498,1.7513585144042967,-11.158176837158203
3579000843581,2.299726927,1,0.21906945190429686,1.7561469177246092,-11.158176837158203
3579003340976,2.302224322,1,0.2262520568847656,1.7501614135742187,-11.18571015625
3579005841028,2.304724374,1,0.23104046020507812,1.7453730102539062,-11.182118853759764
3579008343476,2.307226822,1,0.23223756103515625,1.7334020019531249,-11.165359442138671
3579010840820,2.309724166,1,0.22266075439453123,1.7357962036132812,-11.167753643798827
3579013343528,2.312226874,1,0.22744915771484372,1.7393875061035156,-11.188104357910156
3579015841289,2.314724635,1,0.21906945190429686,1.734599102783203,-11.17852755126953
3579018341028,2.317224374,1,0.21428104858398436,1.7381904052734374,-11.155782635498046
3579020843581,2.319726927,1,0.23223756103515625,1.734599102783203,-11.158176837158203
3579023340247,2.322223593,1,0.23702596435546874,1.725022296142578,-11.183315954589844
3579025841549,2.324724895,1,0.22026655273437498,1.7118541870117185,-11.202469567871093
3579028343112,2.327226458,1,0.23822306518554687,1.7298106994628906,-11.203666668701171
3579030841133,2.329724479,1,0.2442085693359375,1.7310078002929687,-11.206060870361327
3579033343789,2.332227135,1,0.239420166015625,1.7393875061035156,-11.21683477783203
3579035840924,2.33472427,1,0.22385785522460935,1.7381904052734374,-11.196484063720703
3579038338737,2.337222083,1,0.23343466186523437,1.7417817077636717,-11.21683477783203
3579040842695,2.339726041,1,0.22744915771484372,1.725022296142578,-11.231199987792968
3579043341758,2.342225104,1,0.2154781494140625,1.7166425903320313,-11.228805786132812
3579045840976,2.344724322,1,0.22266075439453123,1.7130512878417967,-11.184513055419922
3579048343424,2.34722677,1,0.22385785522460935,1.7298106994628906,-11.196484063720703
3579050840716,2.349724062,1,0.24779987182617186,1.714248388671875,-11.196484063720703
3579053342956,2.352226302,1,0.23702596435546874,1.725022296142578,-11.189301458740234
3579055840976,2.354724322,1,0.2154781494140625,1.7178396911621092,-11.196484063720703
3579058341133,2.357224479,1,0.2214636535644531,1.7202338928222656,-11.201272467041015
3579060843528,2.359726874,1,0.22744915771484372,1.7202338928222656,-11.212046374511718
3579063340768,2.362224114,1,0.2214636535644531,1.7322049011230467,-11.194089862060546
3579065841497,2.364724843,1,0.23104046020507812,1.7310078002929687,-11.037269653320312
3579068343268,2.367226614,1,0.25139117431640623,1.7226280944824217,-11.19169566040039
3579070841393,2.369724739,1,0.24899697265624998,1.7238251953125,-11.166556542968749
3579073343737,2.372227083,1,0.23702596435546874,1.7082628845214842,-11.183315954589844
3579075840976,2.374724322,1,0.21428104858398436,1.7094599853515624,-11.16057103881836
3579078340924,2.37722427,1,0.2059013427734375,1.7226280944824217,-11.166556542968749
3579080843372,2.379726718,1,0.21906945190429686,1.7369933044433592,-11.168950744628905
3579083340508,2.382223854,1,0.22026655273437498,1.7405846069335937,-11.170147845458983
3579085841185,2.384724531,1,0.21308394775390624,1.7262193969726563,-11.183315954589844
3579088343268,2.387226614,1,0.19991583862304688,1.7334020019531249,-11.202469567871093
3579090840768,2.389724114,1,0.22026655273437498,1.7381904052734374,-11.173739147949219
3579093344101,2.392227447,1,0.23343466186523437,1.753752716064453,-11.162965240478515
3579095840612,2.394723958,1,0.24181436767578124,1.744175909423828,-11.177330450439452
3579098341601,2.397224947,1,0.2214636535644531,1.7393875061035156,-11.177330450439452
3579100844258,2.399727604,1,0.22744915771484372,1.7322049011230467,-11.184513055419922
3579103340612,2.402223958,1,0.24061726684570311,1.7417817077636717,-11.184513055419922
3579105841914,2.40472526,1,0.22864625854492185,1.7369933044433592,-11.131840618896483
3579108344101,2.407227447,1,0.22026655273437498,1.7417817077636717,-11.150994232177734
3579110840924,2.40972427,1,0.21906945190429686,1.7489643127441405,-11.152191333007812
3579113343268,2.412226614,1,0.22026655273437498,1.7429788085937499,-11.155782635498046
3579115840820,2.414724166,1,0.23343466186523437,1.7274164978027342,-11.167753643798827
3579118341133,2.417224479,1,0.21787235107421873,1.7501614135742187,-11.192892761230468
3579120843841,2.419727187,1,0.20709844360351562,1.7357962036132812,-11.208455072021483
3579123341497,2.422224843,1,0.22026655273437498,1.7417817077636717,-11.204863769531249
3579125841393,2.424724739,1,0.23343466186523437,1.7214309936523438,-11.21084927368164
3579128344101,2.427227447,1,0.24660277099609373,1.7334020019531249,-11.21084927368164
3579130840976,2.429724322,1,0.23343466186523437,1.7274164978027342,-11.188104357910156
3579133343841,2.432227187,1,0.24779987182617186,1.7393875061035156,-11.21084927368164
3579135841445,2.434724791,1,0.2454056701660156,1.7334020019531249,-11.232397088623046
3579138341341,2.437224687,1,0.23822306518554687,1.7322049011230467,-11.201272467041015
3579140843841,2.439727187,1,0.21428104858398436,1.734599102783203,-11.195286962890624
3579143341028,2.442224374,1,0.2262520568847656,1.7226280944824217,-11.21084927368164
3579145841601,2.444724947,1,0.24061726684570311,1.7238251953125,-11.196484063720703
3579148343685,2.447227031,1,0.239420166015625,1.7417817077636717,-11.174936248779296
3579150840247,2.449723593,1,0.24779987182617186,1.7286135986328124,-11.17254204711914
3579153343685,2.452227031,1,0.23582886352539062,1.7226280944824217,-11.173739147949219
3579155841081,2.454724427,1,0.22744915771484372,1.7202338928222656,-11.148600030517578
3579158340820,2.457224166,1,0.2346317626953125,1.705868682861328,-11.162965240478515
3579160843893,2.459727239,1,0.2262520568847656,1.6998831787109374,-11.164162341308593
3579163340351,2.462223697,1,0.22505495605468748,1.7022773803710936,-11.183315954589844
3579165841497,2.464724843,1,0.22864625854492185,1.7166425903320313,-11.329362255859374
3579168344049,2.467227395,1,0.2214636535644531,1.7405846069335937,-11.171344946289063
3579170840664,2.46972401,1,0.2262520568847656,1.7322049011230467,-11.180921752929686
3579173344362,2.472227708,1,0.2262520568847656,1.734599102783203,-11.189301458740234
3579175841341,2.474724687,1,0.21787235107421873,1.7477672119140624,-11.196484063720703
3579178341028,2.477224374,1,0.22744915771484372,1.7286135986328124,-11.227608685302734
3579180844101,2.479727447,1,0.2059013427734375,1.7369933044433592,-11.219228979492186
3579183341601,2.482224947,1,0.21068974609375,1.7381904052734374,-11.225214483642578
3579185841706,2.484725052,1,0.20470424194335937,1.7274164978027342,-11.213243475341796
3579188343528,2.487226874,1,0.21188684692382811,1.7334020019531249,-11.2240173828125
3579190840872,2.489724218,1,0.22266075439453123,1.7334020019531249,-11.218031878662108
3579193343685,2.492227031,1,0.2262520568847656,1.7214309936523438,-11.19887826538086
3579195838060,2.494721406,1,0.229843359375,1.7357962036132812,-11.177330450439452
3579198341081,2.497224427,1,0.2454056701660156,1.7513585144042967,-11.170147845458983
3579200843424,2.49972677,1,0.239420166015625,1.7501614135742187,-11.186907257080078
3579203340924,2.50222427,1,0.24181436767578124,1.7202338928222656,-11.176133349609374
3579205841445,2.504724791,1,0.23822306518554687,1.7178396911621092,-11.19169566040039
3579208343685,2.507227031,1,0.24779987182617186,1.7334020019531249,-11.206060870361327
3579210841341,2.509724687,1,0.2214636535644531,1.7417817077636717,-11.206060870361327
3579213343216,2.512226562,1,0.2166752502441406,1.753752716064453,-11.214440576171874
3579215840612,2.514723958,1,0.2166752502441406,1.7477672119140624,-11.180921752929686
3579218341028,2.517224374,1,0.20470424194335937,1.7369933044433592,-11.194089862060546
3579220843737,2.519727083,1,0.21068974609375,1.7417817077636717,-11.195286962890624
3579223340976,2.522224322,1,0.22266075439453123,1.7405846069335937,-11.194089862060546
3579225841133,2.524724479,1,0.20350714111328125,1.7357962036132812,-11.208455072021483
3579228351758,2.527235104,1,0.19991583862304688,1.7369933044433592,-11.182118853759764
3579230842018,2.529725364,1,0.20470424194335937,1.7393875061035156,-11.186907257080078
3579233343268,2.532226614,1,0.20350714111328125,1.7334020019531249,-11.18571015625
3579235841185,2.534724531,1,0.21906945190429686,1.714248388671875,-11.184513055419922
3579238341080,2.537224426,1,0.21787235107421873,1.7190367919921874,-11.202469567871093
3579240844414,2.53972776,1,0.21428104858398436,1.714248388671875,-11.189301458740234
3579243340247,2.542223593,1,0.20470424194335937,1.714248388671875,-11.203666668701171
3579245842226,2.544725572,1,0.18315642700195311,1.7190367919921874,-11.19887826538086
3579248343789,2.547227135,1,0.20709844360351562,1.7130512878417967,-11.209652172851563
3579250841133,2.549724479,1,0.21428104858398436,1.7214309936523438,-11.213243475341796
3579253343685,2.552227031,1,0.2154781494140625,1.7202338928222656,-11.2240173828125
3579255840716,2.554724062,1,0.22385785522460935,1.7298106994628906,-11.170147845458983
3579258341601,2.557224947,1,0.23582886352539062,1.7286135986328124,-11.17852755126953
3579260843580,2.559726926,1,0.2059013427734375,1.7082628845214842,-11.180921752929686
3579263341133,2.562224479,1,0.18555062866210936,1.7190367919921874,-11.17852755126953
3579265841549,2.564724895,1,0.19033903198242186,1.7274164978027342,-11.196484063720703
3579268343737,2.567227083,1,0.2346317626953125,1.725022296142578,-11.21683477783203
3579270841289,2.569724635,1,0.23582886352539062,1.7130512878417967,-11.19169566040039
3579273343841,2.572227187,1,0.229843359375,1.7094599853515624,-11.192892761230468
3579275841289,2.574724635,1,0.22864625854492185,1.7274164978027342,-11.206060870361327
3579278341601,2.577224947,1,0.24181436767578124,1.7298106994628906,-11.209652172851563
3579280844101,2.579727447,1,0.2346317626953125,1.7334020019531249,-11.21084927368164
3579283340612,2.582223958,1,0.20949264526367187,1.7298106994628906,-11.192892761230468
3579285838737,2.584722083,1,0.20829554443359374,1.7118541870117185,-11.180921752929686
3579288341080,2.587224426,1,0.23822306518554687,1.6927005737304686,-11.183315954589844
3579290841810,2.589725156,1,0.2346317626953125,1.6927005737304686,-11.19887826538086
3579293344414,2.59222776,1,0.239420166015625,1.705868682861328,-11.215637677001952
3579295841862,2.594725208,1,0.24061726684570311,1.7166425903320313,-11.204863769531249
3579298342070,2.597225416,1,0.239420166015625,1.7106570861816406,-11.206060870361327
3579300843685,2.599727031,1,0.22266075439453123,1.714248388671875,-11.188104357910156
3579303340716,2.602224062,1,0.2214636535644531,1.7202338928222656,-11.158176837158203
3579305841080,2.604724426,1,0.24181436767578124,1.7369933044433592,-11.152191333007812
3579308344414,2.60722776,1,0.229843359375,1.7214309936523438,-11.17254204711914
3579310840924,2.60972427,1,0.21188684692382811,1.7178396911621092,-11.170147845458983
3579313343841,2.612227187,1,0.20829554443359374,1.7166425903320313,-11.177330450439452
3579315840716,2.614724062,1,0.21308394775390624,1.7513585144042967,-11.207257971191405
3579318341653,2.617224999,1,0.19632453613281248,1.7597382202148437,-11.200075366210937
3579320843476,2.619726822,1,0.19632453613281248,1.7465701110839842,-11.208455072021483
3579323340716,2.622224062,1,0.20231004028320312,1.7489643127441405,-11.203666668701171
3579325841028,2.624724374,1,0.1975216369628906,1.744175909423828,-11.203666668701171
3579328343528,2.627226874,1,0.22385785522460935,1.7597382202148437,-11.214440576171874
3579330840820,2.629724166,1,0.23343466186523437,1.7405846069335937,-11.206060870361327
3579333343060,2.632226406,1,0.24061726684570311,1.7429788085937499,-11.196484063720703
3579335840924,2.63472427,1,0.23702596435546874,1.7405846069335937,-11.196484063720703
3579338340924,2.63722427,1,0.23223756103515625,1.734599102783203,-11.174936248779296
3579340843945,2.639727291,1,0.22744915771484372,1.714248388671875,-11.155782635498046
3579343341080,2.642224426,1,0.22266075439453123,1.70467158203125,-11.152191333007812
3579345840924,2.64472427,1,0.2214636535644531,1.7274164978027342,-11.174936248779296
3579348343372,2.647226718,1,0.21428104858398436,1.7178396911621092,-11.166556542968749
3579350840768,2.649724114,1,0.21068974609375,1.7286135986328124,-11.168950744628905
3579353343216,2.652226562,1,0.22385785522460935,1.744175909423828,-11.155782635498046
3579355841341,2.654724687,1,0.24061726684570311,1.7322049011230467,-11.162965240478515
3579358341185,2.657224531,1,0.24779987182617186,1.7286135986328124,-11.186907257080078
3579360843476,2.659726822,1,0.26695348510742184,1.7381904052734374,-11.188104357910156
3579363340612,2.662223958,1,0.2537853759765625,1.7417817077636717,-11.17852755126953
3579365841497,2.664724843,1,0.24779987182617186,1.7477672119140624,-11.180921752929686
3579368343997,2.667227343,1,0.239420166015625,1.7334020019531249,-11.183315954589844
3579370840872,2.669724218,1,0.2442085693359375,1.7262193969726563,-11.167753643798827
3579373343580,2.672226926,1,0.2346317626953125,1.715445489501953,-11.166556542968749
3579375841497,2.674724843,1,0.22744915771484372,1.7274164978027342,-11.158176837158203
3579378340924,2.67722427,1,0.20709844360351562,1.7238251953125,-11.168950744628905
3579380843633,2.679726979,1,0.201112939453125,1.725022296142578,-11.165359442138671
3579383340976,2.682224322,1,0.19871873779296872,1.7334020019531249,-11.164162341308593
3579385841080,2.684724426,1,0.22385785522460935,1.7381904052734374,-11.165359442138671
3579388343737,2.687227083,1,0.22026655273437498,1.7298106994628906,-11.180921752929686
3579390841028,2.689724374,1,0.22505495605468748,1.7369933044433592,-11.17852755126953
3579393344778,2.692228124,1,0.2454056701660156,1.7525556152343749,-11.179724652099608
3579395841497,2.694724843,1,0.22744915771484372,1.7369933044433592,-11.165359442138671
3579398340976,2.697224322,1,0.21906945190429686,1.7453730102539062,-11.174936248779296
3579400843945,2.699727291,1,0.22026655273437498,1.7357962036132812,-11.180921752929686
3579403339987,2.702223333,1,0.23104046020507812,1.7202338928222656,-11.196484063720703
3579405840664,2.70472401,1,0.229843359375,1.7298106994628906,-11.203666668701171
3579408343216,2.707226562,1,0.2454056701660156,1.7465701110839842,-11.192892761230468
3579410841549,2.709724895,1,0.23582886352539062,1.7190367919921874,-11.174936248779296
3579413343685,2.712227031,1,0.21787235107421873,1.7238251953125,-11.162965240478515
3579415840716,2.714724062,1,0.2262520568847656,1.7226280944824217,-11.177330450439452
3579418338476,2.717221822,1,0.26336218261718747,1.7238251953125,-11.189301458740234
3579420839518,2.719722864,1,0.2501940734863281,1.7106570861816406,-11.189301458740234
3579423340664,2.72222401,1,0.2346317626953125,1.7106570861816406,-11.186907257080078
3579425840612,2.724723958,1,0.22864625854492185,1.7238251953125,-11.158176837158203
3579428343007,2.727226353,1,0.2346317626953125,1.7357962036132812,-11.14022032470703
3579430840716,2.729724062,1,0.21428104858398436,1.734599102783203,-11.149797131347656
3579433343789,2.732227135,1,0.201112939453125,1.7393875061035156,-11.156979736328124
3579435840455,2.734723801,1,0.20350714111328125,1.7357962036132812,-11.19169566040039
3579438341497,2.737224843,1,0.21428104858398436,1.7322049011230467,-11.204863769531249
3579440843424,2.73972677,1,0.22266075439453123,1.744175909423828,-11.207257971191405
3579443341028,2.742224374,1,0.22026655273437498,1.7429788085937499,-11.202469567871093
3579445841393,2.744724739,1,0.2059013427734375,1.7525556152343749,-11.21683477783203
3579448343789,2.747227135,1,0.24061726684570311,1.7465701110839842,-11.233594189453123
3579450837903,2.749721249,1,0.229843359375,1.7322049011230467,-11.234791290283203
3579453340872,2.752224218,1,0.20829554443359374,1.7214309936523438,-11.24915650024414
3579455841080,2.754724426,1,0.21308394775390624,1.7561469177246092,-11.221623181152344
3579458341497,2.757224843,1,0.25737667846679685,1.7393875061035156,-11.227608685302734
3579460843632,2.759726978,1,0.239420166015625,1.744175909423828,-11.228805786132812
3579463347799,2.762231145,1,0.2442085693359375,1.7465701110839842,-11.24915650024414
3579465842747,2.764726093,1,0.2454056701660156,1.7262193969726563,-11.256339105224608
3579468343841,2.767227187,1,0.239420166015625,1.7262193969726563,-11.238382592773437
3579470841132,2.769724478,1,0.229843359375,1.7238251953125,-11.233594189453123
3579473343164,2.77222651,1,0.2537853759765625,1.7238251953125,-11.228805786132812
3579475840872,2.774724218,1,0.23702596435546874,1.7310078002929687,-11.209652172851563
3579478340976,2.777224322,1,0.23822306518554687,1.753752716064453,-11.194089862060546
3579480843997,2.779727343,1,0.24779987182617186,1.7645266235351562,-11.179724652099608
3579483341028,2.782224374,1,0.23582886352539062,1.7489643127441405,-11.189301458740234
3579485842226,2.784725572,1,0.21188684692382811,1.7369933044433592,-11.21683477783203
3579488343632,2.787226978,1,0.22505495605468748,1.7322049011230467,-11.222820281982422
3579490841445,2.789724791,1,0.2262520568847656,1.7226280944824217,-11.238382592773437
3579493343164,2.79222651,1,0.23104046020507812,1.7238251953125,-11.208455072021483
3579495841445,2.794724791,1,0.239420166015625,1.7262193969726563,-11.174936248779296
3579498341966,2.797225312,1,0.25139117431640623,1.744175909423828,-11.194089862060546
3579500843789,2.799727135,1,0.2537853759765625,1.7322049011230467,-11.197681164550781
3579503340716,2.802224062,1,0.25258827514648435,1.7286135986328124,-11.180921752929686
3579505842070,2.804725416,1,0.24301146850585936,1.725022296142578,-11.195286962890624
3579508344362,2.807227708,1,0.21308394775390624,1.7202338928222656,-11.180921752929686
3579510840976,2.809724322,1,0.21308394775390624,1.725022296142578,-11.165359442138671
3579513344518,2.812227864,1,0.22026655273437498,1.7178396911621092,-11.171344946289063
3579515841080,2.814724426,1,0.22864625854492185,1.734599102783203,-11.152191333007812
3579518341341,2.817224687,1,0.2154781494140625,1.7286135986328124,-11.173739147949219
3579520843320,2.819726666,1,0.22026655273437498,1.7357962036132812,-11.184513055419922
3579523340664,2.82222401,1,0.23104046020507812,1.725022296142578,-11.033678350830078
3579525841601,2.824724947,1,0.25737667846679685,1.7094599853515624,-11.189301458740234
3579528344101,2.827227447,1,0.2657563842773437,1.7190367919921874,-11.201272467041015
3579530837851,2.829721197,1,0.2537853759765625,1.7298106994628906,-11.19169566040039
3579533337278,2.832220624,1,0.25139117431640623,1.7369933044433592,-11.313799945068359
3579535838268,2.834721614,1,0.2561795776367187,1.7190367919921874,-11.188104357910156
3579538341341,2.837224687,1,0.23104046020507812,1.7381904052734374,-11.188104357910156
3579540843841,2.839727187,1,0.21906945190429686,1.744175909423828,-11.207257971191405
3579543341289,2.842224635,1,0.23104046020507812,1.7166425903320313,-11.196484063720703
3579545841862,2.844725208,1,0.2537853759765625,1.7106570861816406,-11.183315954589844
3579548343060,2.847226406,1,0.22026655273437498,1.7298106994628906,-11.194089862060546
3579550840872,2.849724218,1,0.2214636535644531,1.7286135986328124,-11.177330450439452
3579553344205,2.852227551,1,0.23702596435546874,1.7166425903320313,-11.037269653320312
3579555840664,2.85472401,1,0.22744915771484372,1.70467158203125,-11.197681164550781
3579558341028,2.857224374,1,0.22744915771484372,1.714248388671875,-11.176133349609374
3579560843372,2.859726718,1,0.23343466186523437,1.7166425903320313,-11.180921752929686
3579563341080,2.862224426,1,0.229843359375,1.7274164978027342,-11.044452258300781
3579565841549,2.864724895,1,0.2214636535644531,1.7381904052734374,-11.190498559570312
3579568343893,2.867227239,1,0.20709844360351562,1.7274164978027342,-11.17254204711914
3579570840664,2.86972401,1,0.22864625854492185,1.7322049011230467,-11.170147845458983
3579573343580,2.872226926,1,0.23822306518554687,1.7214309936523438,-11.182118853759764
3579575841080,2.874724426,1,0.23223756103515625,1.7286135986328124,-11.209652172851563
3579578341341,2.877224687,1,0.22744915771484372,1.7274164978027342,-11.212046374511718
3579580843945,2.879727291,1,0.22266075439453123,1.7238251953125,-11.214440576171874
3579583341028,2.882224374,1,0.21068974609375,1.7214309936523438,-11.180921752929686
3579585840716,2.884724062,1,0.20829554443359374,1.7310078002929687,-11.171344946289063
3579588342851,2.887226197,1,0.2262520568847656,1.7226280944824217,-11.170147845458983
3579590840924,2.88972427,1,0.2346317626953125,1.7226280944824217,-11.158176837158203
3579593343580,2.892226926,1,0.21068974609375,1.7381904052734374,-11.149797131347656
3579595840507,2.894723853,1,0.18555062866210936,1.7381904052734374,-11.149797131347656
3579598341966,2.897225312,1,0.20470424194335937,1.7369933044433592,-11.154585534667968
3579600843789,2.899727135,1,0.21068974609375,1.725022296142578,-11.170147845458983
3579603340299,2.902223645,1,0.20949264526367187,1.7322049011230467,-11.049240661621093
3579605840664,2.90472401,1,0.22266075439453123,1.7489643127441405,-11.227608685302734
3579608343320,2.907226666,1,0.20829554443359374,1.7561469177246092,-11.195286962890624
3579610840664,2.90972401,1,0.201112939453125,1.7465701110839842,-11.184513055419922
3579613343424,2.91222677,1,0.2154781494140625,1.7369933044433592,-11.17852755126953
3579615840768,2.914724114,1,0.22864625854492185,1.7118541870117185,-11.186907257080078
3579618341549,2.917224895,1,0.229843359375,1.7118541870117185,-11.206060870361327
3579620843685,2.919727031,1,0.23822306518554687,1.707065783691406,-11.212046374511718
3579623340560,2.922223906,1,0.2346317626953125,1.715445489501953,-11.220426080322264
3579625841445,2.924724791,1,0.2262520568847656,1.7429788085937499,-11.209652172851563
3579628343737,2.927227083,1,0.2059013427734375,1.7262193969726563,-11.23000288696289
3579630839987,2.929723333,1,0.19033903198242186,1.7166425903320313,-11.246762298583985
3579633343007,2.932226353,1,0.1927332336425781,1.7214309936523438,-11.227608685302734
3579635840664,2.93472401,1,0.2262520568847656,1.714248388671875,-11.213243475341796
3579638340976,2.937224322,1,0.2346317626953125,1.7202338928222656,-11.228805786132812
3579640843684,2.93972703,1,0.24301146850585936,1.7334020019531249,-11.219228979492186
3579643340664,2.94222401,1,0.229843359375,1.7322049011230467,-11.173739147949219
3579645840976,2.944724322,1,0.1867477294921875,1.7429788085937499,-11.173739147949219
3579648343684,2.94722703,1,0.19512743530273435,1.7334020019531249,-11.16057103881836
3579650840872,2.949724218,1,0.1975216369628906,1.7202338928222656,-11.15338843383789
3579653343580,2.952226926,1,0.20949264526367187,1.734599102783203,-11.196484063720703
3579655840664,2.95472401,1,0.239420166015625,1.7262193969726563,-11.194089862060546
3579658341445,2.957224791,1,0.22864625854492185,1.7262193969726563,-11.189301458740234
3579660843372,2.959726718,1,0.23343466186523437,1.7298106994628906,-11.182118853759764
3579663339778,2.962223124,1,0.23822306518554687,1.714248388671875,-11.197681164550781
3579665841080,2.964724426,1,0.23702596435546874,1.725022296142578,-11.202469567871093
3579668343164,2.96722651,1,0.22266075439453123,1.7393875061035156,-11.214440576171874
3579670840247,2.969723593,1,0.20829554443359374,1.734599102783203,-11.184513055419922
3579673342903,2.972226249,1,0.2214636535644531,1.7393875061035156,-11.190498559570312
3579675838580,2.974721926,1,0.20350714111328125,1.7310078002929687,-11.179724652099608
3579678343059,2.977226405,1,0.21068974609375,1.725022296142578,-11.196484063720703
3579680844934,2.97972828,1,0.2154781494140625,1.7310078002929687,-11.182118853759764
3579683340820,2.982224166,1,0.20709844360351562,1.7322049011230467,-11.176133349609374
3579685840403,2.984723749,1,0.21428104858398436,1.7190367919921874,-11.159373937988281
3579688344101,2.987227447,1,0.2166752502441406,1.7118541870117185,-11.155782635498046
3579690841497,2.989724843,1,0.21188684692382811,1.7274164978027342,-11.156979736328124
3579693343059,2.992226405,1,0.2214636535644531,1.7357962036132812,-11.158176837158203
3579695840872,2.994724218,1,0.20470424194335937,1.7501614135742187,-11.17254204711914
3579698348216,2.997231562,1,0.21068974609375,1.7429788085937499,-11.203666668701171
3579700845924,2.99972927,1,0.20949264526367187,1.7417817077636717,-11.213243475341796
3579703341653,3.002224999,1,0.1879448303222656,1.7477672119140624,-11.182118853759764
3579705838893,3.004722239,1,0.20709844360351562,1.7525556152343749,-11.19887826538086
3579708340664,3.00722401,1,0.239420166015625,1.744175909423828,-11.201272467041015
3579710841289,3.009724635,1,0.2442085693359375,1.7453730102539062,-11.213243475341796
3579713343789,3.012227135,1,0.2454056701660156,1.7322049011230467,-11.207257971191405
3579715842018,3.014725364,1,0.23104046020507812,1.753752716064453,-11.21084927368164
3579718341549,3.017224895,1,0.2154781494140625,1.7417817077636717,-11.177330450439452
3579720843424,3.01972677,1,0.2059013427734375,1.7286135986328124,-11.17254204711914
3579723341497,3.022224843,1,0.19393033447265623,1.7334020019531249,-11.208455072021483
3579725841289,3.024724635,1,0.21308394775390624,1.7274164978027342,-11.207257971191405
3579728344101,3.027227447,1,0.21308394775390624,1.7405846069335937,-11.186907257080078
3579730841497,3.029724843,1,0.21188684692382811,1.7453730102539062,-11.207257971191405
3579733343424,3.03222677,1,0.19632453613281248,1.7405846069335937,-11.214440576171874
3579735841184,3.03472453,1,0.23343466186523437,1.7238251953125,-11.184513055419922
3579738338997,3.037222343,1,0.2501940734863281,1.7214309936523438,-11.156979736328124
3579740840507,3.039723853,1,0.2609679809570312,1.7286135986328124,-11.161768139648437
3579743341497,3.042224843,1,0.2346317626953125,1.7393875061035156,-11.19169566040039
3579745841341,3.044724687,1,0.23702596435546874,1.7417817077636717,-11.164162341308593
3579748343059,3.047226405,1,0.23822306518554687,1.7369933044433592,-11.167753643798827
3579750841237,3.049724583,1,0.22864625854492185,1.7357962036132812,-11.171344946289063
3579753344778,3.052228124,1,0.22744915771484372,1.7357962036132812,-11.194089862060546
3579755840872,3.054724218,1,0.229843359375,1.7429788085937499,-11.194089862060546
3579758342122,3.057225468,1,0.24061726684570311,1.7465701110839842,-11.21084927368164
3579760844309,3.059727655,1,0.229843359375,1.7549498168945312,-11.201272467041015
3579763340820,3.062224166,1,0.23582886352539062,1.7501614135742187,-11.219228979492186
3579765840924,3.06472427,1,0.22026655273437498,1.7417817077636717,-11.207257971191405
3579768343268,3.067226614,1,0.21906945190429686,1.7513585144042967,-11.194089862060546
3579770840976,3.069724322,1,0.20949264526367187,1.744175909423828,-11.173739147949219
3579773344153,3.072227499,1,0.229843359375,1.7369933044433592,-11.225214483642578
3579775841289,3.074724635,1,0.22744915771484372,1.7381904052734374,-11.214440576171874
3579778341809,3.077225155,1,0.22505495605468748,1.7489643127441405,-11.180921752929686
3579780843476,3.079726822,1,0.23223756103515625,1.7465701110839842,-11.188104357910156
3579783338268,3.082221614,1,0.23223756103515625,1.725022296142578,-11.188104357910156
3579785842122,3.084725468,1,0.23104046020507812,1.7238251953125,-11.197681164550781
3579788344570,3.087227916,1,0.2214636535644531,1.7310078002929687,-11.18571015625
3579790841080,3.089724426,1,0.22744915771484372,1.7489643127441405,-11.184513055419922
3579793343632,3.092226978,1,0.22026655273437498,1.7202338928222656,-11.201272467041015
3579795841341,3.094724687,1,0.22864625854492185,1.7238251953125,-11.166556542968749
3579798341497,3.097224843,1,0.23104046020507812,1.7298106994628906,-11.196484063720703
3579800843476,3.099726822,1,0.24301146850585936,1.7310078002929687,-11.196484063720703
3579803341289,3.102224635,1,0.24181436767578124,1.7585411193847655,-11.158176837158203
3579805841237,3.104724583,1,0.22864625854492185,1.7753005310058592,-11.190498559570312
3579808343476,3.107226822,1,0.2214636535644531,1.7657237243652342,-11.17852755126953
3579810841549,3.109724895,1,0.22505495605468748,1.7561469177246092,-11.196484063720703
3579813343997,3.112227343,1,0.22026655273437498,1.7405846069335937,-11.207257971191405
3579815841132,3.114724478,1,0.21068974609375,1.7465701110839842,-11.225214483642578
3579818341028,3.117224374,1,0.22026655273437498,1.7393875061035156,-11.215637677001952
3579820843632,3.119726978,1,0.21308394775390624,1.7190367919921874,-11.196484063720703
3579823340976,3.122224322,1,0.2166752502441406,1.7274164978027342,-11.19169566040039
3579825841184,3.12472453,1,0.2346317626953125,1.7369933044433592,-11.173739147949219
3579828343632,3.127226978,1,0.239420166015625,1.7310078002929687,-11.158176837158203
3579830840924,3.12972427,1,0.25139117431640623,1.7310078002929687,-11.155782635498046
3579833344934,3.13222828,1,0.25139117431640623,1.7334020019531249,-11.180921752929686
3579835841445,3.134724791,1,0.22744915771484372,1.7310078002929687,-11.18571015625
3579838342174,3.13722552,1,0.22385785522460935,1.7322049011230467,-11.194089862060546
3579840844257,3.139727603,1,0.20709844360351562,1.7310078002929687,-11.204863769531249
3579843340612,3.142223958,1,0.21428104858398436,1.7585411193847655,-11.186907257080078
3579845841028,3.144724374,1,0.2262520568847656,1.7501614135742187,-11.179724652099608
3579848343893,3.147227239,1,0.2442085693359375,1.7549498168945312,-11.17852755126953
3579850841080,3.149724426,1,0.23223756103515625,1.7453730102539062,-11.196484063720703
3579853343789,3.152227135,1,0.2346317626953125,1.7477672119140624,-11.182118853759764
3579855841184,3.15472453,1,0.229843359375,1.734599102783203,-11.171344946289063
3579858341393,3.157224739,1,0.24301146850585936,1.7202338928222656,-11.188104357910156
3579860843476,3.159726822,1,0.2154781494140625,1.7202338928222656,-11.18571015625
3579863340976,3.162224322,1,0.1879448303222656,1.7202338928222656,-11.208455072021483
3579865841028,3.164724374,1,0.21787235107421873,1.725022296142578,-11.192892761230468
3579868343580,3.167226926,1,0.21906945190429686,1.7274164978027342,-11.165359442138671
3579870841080,3.169724426,1,0.20231004028320312,1.7214309936523438,-11.167753643798827
3579873343632,3.172226978,1,0.20470424194335937,1.7357962036132812,-11.166556542968749
3579875841497,3.174724843,1,0.1879448303222656,1.7214309936523438,-11.17852755126953
3579878341966,3.177225312,1,0.19512743530273435,1.7298106994628906,-11.203666668701171
3579880843372,3.179726718,1,0.21428104858398436,1.7393875061035156,-11.206060870361327
3579883341601,3.182224947,1,0.20709844360351562,1.7357962036132812,-11.182118853759764
3579885841236,3.184724582,1,0.20949264526367187,1.7417817077636717,-11.167753643798827
3579888343893,3.187227239,1,0.22266075439453123,1.7405846069335937,-11.173739147949219
3579890841028,3.189724374,1,0.23822306518554687,1.7286135986328124,-11.156979736328124
3579893343268,3.192226614,1,0.24181436767578124,1.7262193969726563,-11.168950744628905
3579895841184,3.19472453,1,0.20949264526367187,1.7393875061035156,-11.156979736328124
3579898341549,3.197224895,1,0.23223756103515625,1.7322049011230467,-11.159373937988281
3579900843528,3.199726874,1,0.24061726684570311,1.725022296142578,-11.189301458740234
3579903340716,3.202224062,1,0.23582886352539062,1.7286135986328124,-11.17254204711914
3579905841132,3.204724478,1,0.2442085693359375,1.7429788085937499,-11.162965240478515
3579908343164,3.20722651,1,0.23822306518554687,1.763329522705078,-11.164162341308593
3579910841393,3.209724739,1,0.2262520568847656,1.7573440185546874,-11.156979736328124
3579913343372,3.212226718,1,0.23343466186523437,1.7286135986328124,-11.173739147949219
3579915841393,3.214724739,1,0.2561795776367187,1.7310078002929687,-11.197681164550781
3579918341705,3.217225051,1,0.2537853759765625,1.7190367919921874,-11.195286962890624
3579920843736,3.219727082,1,0.24660277099609373,1.705868682861328,-11.180921752929686
3579923341028,3.222224374,1,0.23702596435546874,1.7310078002929687,-11.195286962890624
3579925841028,3.224724374,1,0.229843359375,1.7393875061035156,-11.204863769531249
3579928343476,3.227226822,1,0.22505495605468748,1.7393875061035156,-11.174936248779296
3579930840507,3.229723853,1,0.22385785522460935,1.7489643127441405,-11.15338843383789
3579933348632,3.232231978,1,0.22864625854492185,1.725022296142578,-11.167753643798827
3579935842591,3.234725937,1,0.23702596435546874,1.7286135986328124,-11.171344946289063
3579938341757,3.237225103,1,0.23104046020507812,1.7310078002929687,-11.16057103881836
3579940843736,3.239727082,1,0.21906945190429686,1.725022296142578,-11.177330450439452
3579943341184,3.24222453,1,0.1975216369628906,1.7489643127441405,-11.17852755126953
3579945841028,3.244724374,1,0.22026655273437498,1.7238251953125,-11.19169566040039
3579948343632,3.247226978,1,0.24660277099609373,1.7202338928222656,-11.19169566040039
3579950840664,3.24972401,1,0.239420166015625,1.7286135986328124,-11.209652172851563
3579953343736,3.252227082,1,0.23582886352539062,1.7286135986328124,-11.220426080322264
3579955840351,3.254723697,1,0.21068974609375,1.7465701110839842,-11.204863769531249
3579958341601,3.257224947,1,0.21308394775390624,1.7681179260253905,-11.201272467041015
3579960843893,3.259727239,1,0.22864625854492185,1.7621324218749999,-11.200075366210937
3579963338424,3.26222177,1,0.23582886352539062,1.7477672119140624,-11.18571015625
3579965842018,3.264725364,1,0.24899697265624998,1.7501614135742187,-11.18571015625
3579968343424,3.26722677,1,0.23582886352539062,1.7501614135742187,-11.158176837158203
3579970841236,3.269724582,1,0.23223756103515625,1.7513585144042967,-11.039663854980468
3579973344101,3.272227447,1,0.22744915771484372,1.7202338928222656,-11.202469567871093
3579975840455,3.274723801,1,0.23223756103515625,1.7322049011230467,-11.201272467041015
3579978341705,3.277225051,1,0.2262520568847656,1.7178396911621092,-11.18571015625
3579980843528,3.279726874,1,0.22744915771484372,1.7022773803710936,-11.156979736328124
3579983340872,3.282224218,1,0.23223756103515625,1.7322049011230467,-11.192892761230468
3579985841757,3.284725103,1,0.2214636535644531,1.7262193969726563,-11.183315954589844
3579988343997,3.287227343,1,0.21188684692382811,1.7381904052734374,-11.200075366210937
3579990840924,3.28972427,1,0.2214636535644531,1.7322049011230467,-11.221623181152344
3579993343789,3.292227135,1,0.22385785522460935,1.7190367919921874,-11.231199987792968
3579995841289,3.294724635,1,0.22864625854492185,1.7357962036132812,-11.219228979492186
3579998340716,3.297224062,1,0.22266075439453123,1.734599102783203,-11.19169566040039
3580000844049,3.299727395,1,0.20709844360351562,1.7286135986328124,-11.162965240478515
3580003340924,3.30222427,1,0.2154781494140625,1.715445489501953,-11.176133349609374
3580005862174,3.30474552,1,0.22266075439453123,1.725022296142578,-11.180921752929686
3580008373997,3.307257343,1,0.20949264526367187,1.7357962036132812,-11.182118853759764
3580010848632,3.309731978,1,0.1975216369628906,1.7381904052734374,-11.334150659179686
3580013346809,3.312230155,1,0.20829554443359374,1.7453730102539062,-11.200075366210937
3580015839205,3.314722551,1,0.2059013427734375,1.7274164978027342,-11.207257971191405
3580018340247,3.317223593,1,0.19632453613281248,1.7262193969726563,-11.195286962890624
3580020840195,3.319723541,1,0.201112939453125,1.7357962036132812,-11.200075366210937
3580023339934,3.32222328,1,0.20949264526367187,1.7226280944824217,-11.228805786132812
3580025839153,3.324722499,1,0.22864625854492185,1.7322049011230467,-11.213243475341796
3580028342486,3.327225832,1,0.23223756103515625,1.7298106994628906,-11.206060870361327
3580030839934,3.32972328,1,0.21188684692382811,1.7178396911621092,-11.21084927368164
3580033338945,3.332222291,1,0.20709844360351562,1.734599102783203,-11.218031878662108
3580035839205,3.334722551,1,0.2346317626953125,1.725022296142578,-11.209652172851563
3580038340247,3.337223593,1,0.2346317626953125,1.7226280944824217,-11.180921752929686
3580040841861,3.339725207,1,0.23223756103515625,1.7190367919921874,-11.165359442138671
3580043340403,3.342223749,1,0.19991583862304688,1.707065783691406,-11.161768139648437
3580045839518,3.344722864,1,0.20949264526367187,1.715445489501953,-11.164162341308593
3580048341341,3.347224687,1,0.21787235107421873,1.7405846069335937,-11.168950744628905
3580050839414,3.34972276,1,0.24061726684570311,1.7298106994628906,-11.16057103881836
3580053342539,3.352225885,1,0.24301146850585936,1.7286135986328124,-11.15338843383789
3580055839778,3.354723124,1,0.20949264526367187,1.7262193969726563,-11.174936248779296
3580058339309,3.357222655,1,0.2166752502441406,1.7262193969726563,-11.176133349609374
3580060841861,3.359725207,1,0.21428104858398436,1.725022296142578,-11.207257971191405
3580063339257,3.362222603,1,0.23822306518554687,1.7322049011230467,-11.186907257080078
3580065839882,3.364723228,1,0.23223756103515625,1.725022296142578,-11.183315954589844
3580068341914,3.36722526,1,0.24660277099609373,1.7405846069335937,-11.182118853759764
3580070839257,3.369722603,1,0.22744915771484372,1.7381904052734374,-11.194089862060546
3580073342122,3.372225468,1,0.21906945190429686,1.7322049011230467,-11.202469567871093
3580075839726,3.374723072,1,0.21308394775390624,1.7322049011230467,-11.18571015625
3580078339622,3.377222968,1,0.22864625854492185,1.7322049011230467,-11.194089862060546
3580080842018,3.379725364,1,0.2214636535644531,1.714248388671875,-11.19169566040039
3580083337747,3.382221093,1,0.21906945190429686,1.7094599853515624,-11.190498559570312
3580085839934,3.38472328,1,0.21787235107421873,1.7238251953125,-11.177330450439452
3580088342538,3.387225884,1,0.2262520568847656,1.7274164978027342,-11.201272467041015
3580090839466,3.389722812,1,0.22385785522460935,1.7202338928222656,-11.195286962890624
3580093342278,3.392225624,1,0.24181436767578124,1.7286135986328124,-11.156979736328124
3580095838997,3.394722343,1,0.24779987182617186,1.7286135986328124,-11.154585534667968
3580098339101,3.397222447,1,0.24301146850585936,1.7369933044433592,-11.170147845458983
3580100842122,3.399725468,1,0.23582886352539062,1.7369933044433592,-11.150994232177734
3580103338841,3.402222187,1,0.22505495605468748,1.7238251953125,-11.1474029296875
3580105839934,3.40472328,1,0.21787235107421873,1.7226280944824217,-11.135431921386719
3580108341966,3.407225312,1,0.21068974609375,1.7202338928222656,-11.155782635498046
3580110838841,3.409722187,1,0.20470424194335937,1.7226280944824217,-11.192892761230468
3580113341393,3.412224739,1,0.18435352783203124,1.7094599853515624,-11.171344946289063
3580115839153,3.414722499,1,0.19153613281249998,1.7262193969726563,-11.180921752929686
3580118339413,3.417222759,1,0.19033903198242186,1.7369933044433592,-11.162965240478515
3580120842591,3.419725937,1,0.19632453613281248,1.7369933044433592,-11.180921752929686
3580123339986,3.422223332,1,0.22026655273437498,1.7525556152343749,-11.170147845458983
3580125839674,3.42472302,1,0.2059013427734375,1.7645266235351562,-11.158176837158203
3580128342591,3.427225937,1,0.21787235107421873,1.7597382202148437,-11.154585534667968
3580130839049,3.429722395,1,0.21787235107421873,1.7585411193847655,-11.184513055419922
3580133341132,3.432224478,1,0.1879448303222656,1.7334020019531249,-11.17852755126953
3580135838945,3.434722291,1,0.21428104858398436,1.705868682861328,-11.201272467041015
3580138339986,3.437223332,1,0.21188684692382811,1.714248388671875,-11.204863769531249
3580140842226,3.439725572,1,0.2154781494140625,1.7334020019531249,-11.177330450439452
3580143339674,3.44222302,1,0.2262520568847656,1.7226280944824217,-11.166556542968749
3580145839622,3.444722968,1,0.22864625854492185,1.7286135986328124,-11.152191333007812
3580148341653,3.447224999,1,0.2442085693359375,1.7298106994628906,-11.1474029296875
3580150839674,3.44972302,1,0.23582886352539062,1.7429788085937499,-11.19169566040039
3580153342538,3.452225884,1,0.23104046020507812,1.7453730102539062,-11.202469567871093
3580155839778,3.454723124,1,0.2549824768066406,1.7322049011230467,-11.209652172851563
3580158340507,3.457223853,1,0.26695348510742184,1.7106570861816406,-11.212046374511718
3580160841757,3.459725103,1,0.2549824768066406,1.7106570861816406,-11.225214483642578
3580163339466,3.462222812,1,0.21906945190429686,1.7357962036132812,-11.227608685302734
3580165839257,3.464722603,1,0.20350714111328125,1.7417817077636717,-11.192892761230468
3580168347382,3.467230728,1,0.20829554443359374,1.7238251953125,-11.164162341308593
3580170841653,3.469724999,1,0.21428104858398436,1.7166425903320313,-11.17254204711914
3580173342903,3.472226249,1,0.21068974609375,1.7226280944824217,-11.165359442138671
3580175840038,3.474723384,1,0.20709844360351562,1.7357962036132812,-11.188104357910156
3580178339830,3.477223176,1,0.23223756103515625,1.734599102783203,-11.212046374511718
3580180842278,3.479725624,1,0.2501940734863281,1.7298106994628906,-11.188104357910156
3580183338684,3.48222203,1,0.25258827514648435,1.725022296142578,-11.177330450439452
3580185839570,3.484722916,1,0.24301146850585936,1.7178396911621092,-11.16057103881836
3580188342018,3.487225364,1,0.23343466186523437,1.7226280944824217,-11.14022032470703
3580190840143,3.489723489,1,0.21906945190429686,1.7226280944824217,-11.182118853759764
3580193341966,3.492225312,1,0.2214636535644531,1.7262193969726563,-11.176133349609374
3580195839986,3.494723332,1,0.22385785522460935,1.7274164978027342,-11.184513055419922
3580198339518,3.497222864,1,0.22864625854492185,1.7310078002929687,-11.19169566040039
3580200842070,3.499725416,1,0.22266075439453123,1.7226280944824217,-11.190498559570312
3580203339518,3.502222864,1,0.21428104858398436,1.7262193969726563,-11.14022032470703
3580205840247,3.504723593,1,0.21308394775390624,1.7166425903320313,-11.17254204711914
3580208342799,3.507226145,1,0.21188684692382811,1.7166425903320313,-11.202469567871093
3580210839361,3.509722707,1,0.21188684692382811,1.715445489501953,-11.219228979492186
3580213342174,3.51222552,1,0.1975216369628906,1.7393875061035156,-11.222820281982422
3580215839205,3.514722551,1,0.21188684692382811,1.7381904052734374,-11.19887826538086
3580218352382,3.517235728,1,0.22385785522460935,1.744175909423828,-11.1474029296875
3580220859674,3.51974302,1,0.22744915771484372,1.725022296142578,-11.156979736328124
3580223419049,3.522302395,1,0.22505495605468748,1.7238251953125,-11.166556542968749
3580225868632,3.524751978,1,0.22744915771484372,1.7286135986328124,-11.170147845458983
3580228366028,3.527249374,1,0.22864625854492185,1.7369933044433592,-11.177330450439452
3580230851809,3.529735155,1,0.20470424194335937,1.734599102783203,-11.182118853759764
3580233351653,3.532234999,1,0.22266075439453123,1.7286135986328124,-11.201272467041015
3580235850611,3.534733957,1,0.22266075439453123,1.7286135986328124,-11.19169566040039
3580238350924,3.53723427,1,0.22505495605468748,1.7334020019531249,-11.167753643798827
3580240851132,3.539734478,1,0.2346317626953125,1.7393875061035156,-11.190498559570312
3580243350663,3.542234009,1,0.20470424194335937,1.7573440185546874,-11.213243475341796
3580245851445,3.544734791,1,0.21068974609375,1.7609353210449217,-11.200075366210937
3580248357018,3.547240364,1,0.22266075439453123,1.7573440185546874,-11.323376751708985
