timestamp_ns,t_s,sensor_id,ax,ay,az,gx,gy,gz
3893039158825,0.172745,2,8.117540728759765,5.756857891845703,0.7062894897460937,-1.7786259541984732,0.3282442748091603,-1.6259541984732824
3893045644971,0.179231146,2,8.099584216308592,5.746083984375,0.7062894897460937,-1.7709923664122138,0.2366412213740458,-1.5725190839694656
3893052317263,0.185903438,2,8.09479581298828,5.764040496826172,0.7422025146484375,-1.7557251908396947,0.1984732824427481,-1.5954198473282444
3893058957471,0.192543646,2,8.12711753540039,5.734112976074218,0.7565677246093749,-1.7709923664122138,0.21374045801526717,-1.549618320610687
3893065620388,0.199206563,2,8.110358123779296,5.742492681884765,0.729034405517578,-1.7938931297709924,0.2366412213740458,-1.5725190839694656
3893072282836,0.205869011,2,8.110358123779296,5.7317187744140625,0.7062894897460937,-1.7251908396946565,0.2824427480916031,-1.5877862595419847
3893078953096,0.212539271,2,8.113949426269532,5.700594152832031,0.7242460021972655,-1.7557251908396947,0.3282442748091603,-1.5725190839694656
3893085620440,0.219206615,2,8.117540728759765,5.7508723876953125,0.7206546997070312,-1.8015267175572518,0.20610687022900764,-1.549618320610687
3893092289450,0.225875625,2,8.12113203125,5.743689782714843,0.7110778930664062,-1.7786259541984732,0.25190839694656486,-1.5801526717557253
3893098949763,0.232535938,2,8.095992913818359,5.767631799316406,0.7074865905761718,-1.7251908396946565,0.3435114503816794,-1.6488549618320612
3893105620023,0.239206198,2,7.969100225830077,5.755660791015624,0.6919242797851562,-1.8091603053435115,0.2748091603053435,-1.6030534351145038
3893112283877,0.245870052,2,8.122329132080077,5.761646295166015,0.6823474731445313,-1.7251908396946565,0.33587786259541985,-1.6488549618320612
3893118949398,0.252535573,2,8.093598712158203,5.761646295166015,0.6823474731445313,-1.7938931297709924,0.25190839694656486,-1.6412213740458015
3893125647836,0.259234011,2,8.129511737060547,5.773617303466796,0.6775590698242188,-1.7938931297709924,0.15267175572519084,-1.6488549618320612
3893132290648,0.265876823,2,8.116343627929687,5.747281085205078,0.7158662963867187,-1.786259541984733,0.15267175572519084,-1.633587786259542
3893138948773,0.272534948,2,8.110358123779296,5.753266589355468,0.7505822204589844,-1.7328244274809161,0.3053435114503817,-1.633587786259542
3893145621534,0.279207709,2,8.12711753540039,5.729324572753906,0.7170633972167968,-1.7938931297709924,0.2748091603053435,-1.6106870229007633
3893152282315,0.28586849,2,8.123526232910155,5.740098480224609,0.7386112121582031,-1.7328244274809161,0.13740458015267176,-1.6106870229007633
3893158990179,0.292576354,2,8.112752325439452,5.7508723876953125,0.7146691955566405,-1.7251908396946565,0.24427480916030533,-1.549618320610687
3893165618721,0.299204896,2,8.125920434570313,5.749675286865234,0.70868369140625,-1.7328244274809161,0.2900763358778626,-1.5648854961832062
3893172285961,0.305872136,2,8.104372619628906,5.743689782714843,0.7015010864257812,-1.7557251908396947,0.2824427480916031,-1.5954198473282444
3893178951638,0.312537813,2,8.137891442871092,5.761646295166015,0.7206546997070312,-1.7633587786259541,0.31297709923664124,-1.5648854961832062
3893185619711,0.319205886,2,8.105569720458984,5.753266589355468,0.7146691955566405,-1.7786259541984732,0.29770992366412213,-1.5419847328244274
3893192281690,0.325867865,2,8.106766821289062,5.736507177734374,0.6727706665039062,-1.8015267175572518,0.17557251908396945,-1.5877862595419847
3893198948929,0.332535104,2,8.118737829589843,5.743689782714843,0.6823474731445313,-1.8015267175572518,0.2824427480916031,-1.6030534351145038
3893205615596,0.339201771,2,8.093598712158203,5.764040496826172,0.729034405517578,-1.7404580152671756,0.32061068702290074,-1.6259541984732824
3893212281377,0.345867552,2,8.130708837890625,5.7520694885253905,0.7326257080078125,-1.7709923664122138,0.1450381679389313,-1.5877862595419847
3893218953304,0.352539479,2,8.119934930419921,5.741295581054687,0.7338228088378905,-1.717557251908397,0.22137404580152673,-1.6412213740458015
3893225624554,0.359210729,2,8.118737829589843,5.749675286865234,0.7050923889160156,-1.7709923664122138,0.1984732824427481,-1.6259541984732824
3893232281273,0.365867448,2,8.112752325439452,5.744886883544922,0.7230489013671875,-1.7786259541984732,0.17557251908396945,-1.5877862595419847
3893238952575,0.37253875,2,8.105569720458984,5.773617303466796,0.7793126403808593,-1.786259541984733,0.3053435114503817,-1.6946564885496183
3893245618513,0.379204688,2,8.099584216308592,5.741295581054687,0.6979097839355468,-1.786259541984733,0.22137404580152673,-1.633587786259542
3893252279607,0.385865782,2,8.099584216308592,5.742492681884765,0.7206546997070312,-1.7786259541984732,0.21374045801526717,-1.5725190839694656
3893258958200,0.392544375,2,8.112752325439452,5.742492681884765,0.7158662963867187,-1.8015267175572518,0.33587786259541985,-1.534351145038168
3893265619867,0.399206042,2,8.079233502197265,5.741295581054687,0.7158662963867187,-1.83206106870229,0.22137404580152673,-1.5954198473282444
3893272278773,0.405864948,2,8.090007409667969,5.747281085205078,0.7003039855957031,-1.83206106870229,0.22900763358778625,-1.5648854961832062
3893278977836,0.412564011,2,8.093598712158203,5.740098480224609,0.6931213806152343,-1.7786259541984732,0.22900763358778625,-1.6030534351145038
3893285617002,0.419203177,2,8.092401611328125,5.754463690185546,0.7110778930664062,-1.7404580152671756,0.2824427480916031,-1.6030534351145038
3893292280544,0.425866719,2,8.103175518798828,5.7520694885253905,0.70868369140625,-1.717557251908397,0.2366412213740458,-1.5954198473282444
3893298946377,0.432532552,2,8.095992913818359,5.746083984375,0.7015010864257812,-1.7633587786259541,0.19083969465648856,-1.5801526717557253
3893305588929,0.439175104,2,8.10197841796875,5.749675286865234,0.7266402038574218,-1.7633587786259541,0.32061068702290074,-1.6030534351145038
3893312287992,0.445874167,2,8.10796392211914,5.756857891845703,0.7793126403808593,-1.8091603053435115,0.2748091603053435,-1.5954198473282444
3893318951013,0.452537188,2,8.122329132080077,5.753266589355468,0.719457598876953,-1.7938931297709924,0.19083969465648856,-1.6488549618320612
3893325613513,0.459199688,2,8.095992913818359,5.7508723876953125,0.7326257080078125,-1.7328244274809161,0.31297709923664124,-1.5419847328244274
3893332288825,0.465875,2,8.08881030883789,5.742492681884765,0.7062894897460937,-1.7633587786259541,0.17557251908396945,-1.549618320610687
3893338945856,0.472532031,2,8.12113203125,5.753266589355468,0.7015010864257812,-1.6793893129770991,0.20610687022900764,-1.5648854961832062
3893345616169,0.479202344,2,8.103175518798828,5.738901379394531,0.7134720947265625,-1.717557251908397,0.26717557251908397,-1.6412213740458015
3893352285284,0.485871459,2,8.129511737060547,5.734112976074218,0.7410054138183594,-1.7404580152671756,0.22900763358778625,-1.5725190839694656
3893358954034,0.492540209,2,8.093598712158203,5.746083984375,0.7457938171386719,-1.7786259541984732,0.21374045801526717,-1.5877862595419847
3893365614398,0.499200573,2,8.099584216308592,5.748478186035156,0.7278373046875,-1.7404580152671756,0.183206106870229,-1.5114503816793894
3893372281429,0.505867604,2,8.145074047851562,5.756857891845703,0.7314286071777343,-1.7938931297709924,0.12213740458015267,-1.534351145038168
3893378956117,0.512542292,2,8.117540728759765,5.753266589355468,0.6955155822753906,-1.7938931297709924,0.2366412213740458,-1.5801526717557253
3893385623929,0.519210104,2,8.110358123779296,5.762843395996094,0.6823474731445313,-1.786259541984733,0.26717557251908397,-1.5648854961832062
3893392282471,0.525868646,2,8.10796392211914,5.749675286865234,0.6943184814453125,-1.7938931297709924,0.25190839694656486,-1.5801526717557253
3893398947263,0.532533438,2,8.10796392211914,5.736507177734374,0.7242460021972655,-1.7938931297709924,0.3053435114503817,-1.5801526717557253
3893405613565,0.53919974,2,8.111555224609374,5.736507177734374,0.7230489013671875,-1.7328244274809161,0.29770992366412213,-1.5572519083969465
3893412338929,0.545925104,2,8.116343627929687,5.756857891845703,0.6955155822753906,-1.748091603053435,0.20610687022900764,-1.5877862595419847
3893418958304,0.552544479,2,8.093598712158203,5.7508723876953125,0.6955155822753906,-1.748091603053435,0.25190839694656486,-1.6412213740458015
3893425635648,0.559221823,2,8.110358123779296,5.774814404296874,0.7661445312499999,-1.7557251908396947,0.25190839694656486,-1.6488549618320612
3893432289294,0.565875469,2,8.090007409667969,5.7700260009765625,0.7517793212890624,-1.7251908396946565,0.183206106870229,-1.6488549618320612
3893438949554,0.572535729,2,8.109161022949218,5.77122310180664,0.7422025146484375,-1.7786259541984732,0.17557251908396945,-1.6106870229007633
3893445621273,0.579207448,2,8.122329132080077,5.744886883544922,0.7553706237792969,-1.7938931297709924,0.2595419847328244,-1.5648854961832062
3893452284711,0.585870886,2,8.103175518798828,5.728127471923828,0.7350199096679687,-1.748091603053435,0.20610687022900764,-1.5877862595419847
3893458945596,0.592531771,2,8.147468249511718,5.738901379394531,0.7218518005371093,-1.7404580152671756,0.19083969465648856,-1.633587786259542
3893465618200,0.599204375,2,8.100781317138672,5.766434698486328,0.7134720947265625,-1.6793893129770991,0.32061068702290074,-1.5801526717557253
3893472276742,0.605862917,2,8.113949426269532,5.764040496826172,0.7122749938964843,-1.7404580152671756,0.2366412213740458,-1.6412213740458015
3893478954815,0.61254099,2,8.105569720458984,5.760449194335937,0.6943184814453125,-1.748091603053435,0.17557251908396945,-1.633587786259542
3893485615440,0.619201615,2,8.125920434570313,5.783194110107422,0.7601590270996094,-1.748091603053435,0.29770992366412213,-1.6030534351145038
3893492283356,0.625869531,2,8.111555224609374,5.748478186035156,0.7481880187988281,-1.786259541984733,0.24427480916030533,-1.5419847328244274
3893498946742,0.632532917,2,8.110358123779296,5.767631799316406,0.7326257080078125,-1.786259541984733,0.11450381679389313,-1.5877862595419847
3893505650700,0.639236875,2,8.100781317138672,5.723339068603515,0.7422025146484375,-1.7786259541984732,0.26717557251908397,-1.6030534351145038
3893512284867,0.645871042,2,8.128314636230469,5.756857891845703,0.7230489013671875,-1.786259541984733,0.2595419847328244,-1.5648854961832062
3893518947992,0.652534167,2,8.105569720458984,5.759252093505859,0.6967126831054687,-1.7938931297709924,0.24427480916030533,-1.6564885496183206
3893525614190,0.659200365,2,8.110358123779296,5.741295581054687,0.7062894897460937,-1.717557251908397,0.29770992366412213,-1.633587786259542
3893532282784,0.665868959,2,8.093598712158203,5.746083984375,0.737414111328125,-1.786259541984733,0.16030534351145037,-1.5190839694656488
3893538953356,0.672539531,2,8.106766821289062,5.7317187744140625,0.709880792236328,-1.7557251908396947,0.15267175572519084,-1.549618320610687
3893545619554,0.679205729,2,8.106766821289062,5.716156463623046,0.7326257080078125,-1.7709923664122138,0.26717557251908397,-1.5801526717557253
3893552279606,0.685865781,2,8.112752325439452,5.716156463623046,0.7398083129882812,-1.7709923664122138,0.13740458015267176,-1.6030534351145038
3893558950908,0.692537083,2,8.14627114868164,5.736507177734374,0.7398083129882812,-1.7557251908396947,0.19083969465648856,-1.6259541984732824
3893565616065,0.69920224,2,8.116343627929687,5.76523759765625,0.7302315063476562,-1.7557251908396947,0.2900763358778626,-1.5725190839694656
3893572285752,0.705871927,2,8.086416107177733,5.746083984375,0.7206546997070312,-1.7709923664122138,0.2900763358778626,-1.5877862595419847
3893578954971,0.712541146,2,8.113949426269532,5.741295581054687,0.7410054138183594,-1.748091603053435,0.25190839694656486,-1.5877862595419847
3893585621638,0.719207813,2,8.149862451171874,5.755660791015624,0.699106884765625,-1.7633587786259541,0.25190839694656486,-1.6259541984732824
3893592283356,0.725869531,2,8.11514652709961,5.755660791015624,0.7541735229492187,-1.7557251908396947,0.2748091603053435,-1.633587786259542
3893598953200,0.732539375,2,8.100781317138672,5.738901379394531,0.7553706237792969,-1.786259541984733,0.21374045801526717,-1.5801526717557253
3893605614294,0.739200469,2,8.106766821289062,5.758054992675781,0.7122749938964843,-1.7633587786259541,0.2748091603053435,-1.5572519083969465
3893612282211,0.745868386,2,8.104372619628906,5.746083984375,0.7350199096679687,-1.7786259541984732,0.2748091603053435,-1.5954198473282444
3893618952211,0.752538386,2,8.093598712158203,5.743689782714843,0.6847416748046875,-1.7938931297709924,0.17557251908396945,-1.5648854961832062
3893625619606,0.759205781,2,8.100781317138672,5.749675286865234,0.6931213806152343,-1.83206106870229,0.25190839694656486,-1.5877862595419847
3893632287002,0.765873177,2,8.0828248046875,5.781997009277344,0.6823474731445313,-1.7938931297709924,0.2595419847328244,-1.5190839694656488
3893638948356,0.772534531,2,8.087613208007811,5.786785412597656,0.6871358764648438,-1.7709923664122138,0.17557251908396945,-1.549618320610687
3893645614138,0.779200313,2,8.12113203125,5.749675286865234,0.7266402038574218,-1.7328244274809161,0.2595419847328244,-1.5877862595419847
3893652280856,0.785867031,2,8.13310303955078,5.753266589355468,0.7050923889160156,-1.786259541984733,0.2595419847328244,-1.6259541984732824
3893658946533,0.792532708,2,8.113949426269532,5.746083984375,0.7326257080078125,-1.7328244274809161,0.21374045801526717,-1.5954198473282444
3893665614398,0.799200573,2,8.105569720458984,5.747281085205078,0.7338228088378905,-1.7251908396946565,0.25190839694656486,-1.5648854961832062
3893672285908,0.805872083,2,8.106766821289062,5.758054992675781,0.7074865905761718,-1.7633587786259541,0.21374045801526717,-1.5725190839694656
3893678950231,0.812536406,2,8.128314636230469,5.738901379394531,0.7026981872558593,-1.816793893129771,0.10687022900763359,-1.6106870229007633
3893685619919,0.819206094,2,8.122329132080077,5.741295581054687,0.6907271789550781,-1.7786259541984732,0.26717557251908397,-1.6641221374045803
3893692281898,0.825868073,2,8.122329132080077,5.768828900146484,0.7062894897460937,-1.6946564885496183,0.29770992366412213,-1.5725190839694656
3893698948877,0.832535052,2,8.124723333740233,5.768828900146484,0.6979097839355468,-1.717557251908397,0.20610687022900764,-1.6030534351145038
3893705615544,0.839201719,2,8.117540728759765,5.734112976074218,0.6979097839355468,-1.7633587786259541,0.31297709923664124,-1.5725190839694656
3893712279971,0.845866146,2,8.093598712158203,5.780799908447265,0.7338228088378905,-1.7633587786259541,0.29770992366412213,-1.5572519083969465
3893718946742,0.852532917,2,8.106766821289062,5.759252093505859,0.729034405517578,-1.748091603053435,0.29770992366412213,-1.5572519083969465
3893725616898,0.859203073,2,8.129511737060547,5.766434698486328,0.7242460021972655,-1.7328244274809161,0.183206106870229,-1.5572519083969465
3893732282992,0.865869167,2,8.135497241210937,5.7520694885253905,0.6811503723144531,-1.6870229007633588,0.29770992366412213,-1.6106870229007633
3893738948513,0.872534688,2,8.112752325439452,5.740098480224609,0.709880792236328,-1.7404580152671756,0.22137404580152673,-1.549618320610687
3893745614398,0.879200573,2,8.117540728759765,5.734112976074218,0.7003039855957031,-1.7251908396946565,0.22900763358778625,-1.5801526717557253
3893752276273,0.885862448,2,8.111555224609374,5.742492681884765,0.7398083129882812,-1.7633587786259541,0.3435114503816794,-1.5648854961832062
3893758948877,0.892535052,2,8.145074047851562,5.735310076904296,0.7457938171386719,-1.7328244274809161,0.2900763358778626,-1.633587786259542
3893765620283,0.899206458,2,8.125920434570313,5.743689782714843,0.7493851196289062,-1.7557251908396947,0.21374045801526717,-1.6412213740458015
3893772279294,0.905865469,2,8.123526232910155,5.7317187744140625,0.729034405517578,-1.8473282442748091,0.24427480916030533,-1.549618320610687
3893778984815,0.91257099,2,8.12711753540039,5.748478186035156,0.7170633972167968,-1.7938931297709924,0.20610687022900764,-1.5877862595419847
3893785590492,0.919176667,2,8.098387115478515,5.780799908447265,0.6967126831054687,-1.7404580152671756,0.22900763358778625,-1.5419847328244274
3893792305231,0.925891406,2,8.098387115478515,5.744886883544922,0.6883329772949218,-1.6870229007633588,0.25190839694656486,-1.5877862595419847
3893798947835,0.93253401,2,8.112752325439452,5.772420202636718,0.718260498046875,-1.7328244274809161,0.21374045801526717,-1.5877862595419847
3893805634294,0.939220469,2,8.119934930419921,5.741295581054687,0.718260498046875,-1.8091603053435115,0.2366412213740458,-1.618320610687023
3893812279815,0.94586599,2,8.100781317138672,5.755660791015624,0.7266402038574218,-1.8473282442748091,0.26717557251908397,-1.5954198473282444
3893818942940,0.952529115,2,8.095992913818359,5.760449194335937,0.737414111328125,-1.8091603053435115,0.19083969465648856,-1.5419847328244274
3893825622367,0.959208542,2,8.122329132080077,5.737704278564453,0.7362170104980469,-1.7633587786259541,0.2595419847328244,-1.5572519083969465
3893832289033,0.965875208,2,8.137891442871092,5.725733270263672,0.7170633972167968,-1.7404580152671756,0.2748091603053435,-1.549618320610687
3893838953304,0.972539479,2,8.137891442871092,5.738901379394531,0.718260498046875,-1.816793893129771,0.2366412213740458,-1.5801526717557253
3893845616690,0.979202865,2,8.143876947021484,5.738901379394531,0.6871358764648438,-1.786259541984733,0.25190839694656486,-1.549618320610687
3893852277992,0.985864167,2,8.112752325439452,5.743689782714843,0.6871358764648438,-1.7404580152671756,0.20610687022900764,-1.618320610687023
3893858952263,0.992538438,2,8.118737829589843,5.740098480224609,0.7398083129882812,-1.7404580152671756,0.183206106870229,-1.5572519083969465
3893865613721,0.999199896,2,8.116343627929687,5.754463690185546,0.6931213806152343,-1.8015267175572518,0.183206106870229,-1.5877862595419847
3893872281481,1.005867656,2,8.118737829589843,5.76523759765625,0.7146691955566405,-1.8015267175572518,0.25190839694656486,-1.5877862595419847
3893878949710,1.012535885,2,8.110358123779296,5.761646295166015,0.7206546997070312,-1.8625954198473282,0.19083969465648856,-1.5190839694656488
3893885640648,1.019226823,2,8.130708837890625,5.755660791015624,0.7218518005371093,-1.8091603053435115,0.17557251908396945,-1.5725190839694656
3893892286273,1.025872448,2,8.130708837890625,5.738901379394531,0.7302315063476562,-1.7938931297709924,0.32061068702290074,-1.618320610687023
3893898952679,1.032538854,2,8.100781317138672,5.725733270263672,0.7158662963867187,-1.7938931297709924,0.22900763358778625,-1.5419847328244274
3893905614085,1.03920026,2,8.118737829589843,5.7520694885253905,0.6955155822753906,-1.7709923664122138,0.16793893129770993,-1.5190839694656488
3893912284815,1.04587099,2,8.099584216308592,5.744886883544922,0.7158662963867187,-1.7633587786259541,0.21374045801526717,-1.534351145038168
3893918943200,1.052529375,2,8.130708837890625,5.736507177734374,0.7673416320800781,-1.816793893129771,0.2366412213740458,-1.5954198473282444
3893925613825,1.0592,2,8.103175518798828,5.77122310180664,0.7230489013671875,-1.8015267175572518,0.1984732824427481,-1.6030534351145038
3893932285075,1.06587125,2,8.098387115478515,5.7508723876953125,0.7625532287597656,-1.7251908396946565,0.3053435114503817,-1.5954198473282444
3893938946585,1.07253276,2,8.12113203125,5.766434698486328,0.7350199096679687,-1.7251908396946565,0.29770992366412213,-1.5725190839694656
3893945617992,1.079204167,2,8.111555224609374,5.758054992675781,0.6907271789550781,-1.7328244274809161,0.183206106870229,-1.5725190839694656
3893952285231,1.085871406,2,8.14028564453125,5.737704278564453,0.7278373046875,-1.8015267175572518,0.3053435114503817,-1.6030534351145038
3893958948981,1.092535156,2,8.11514652709961,5.749675286865234,0.7278373046875,-1.7786259541984732,0.31297709923664124,-1.5419847328244274
3893965616533,1.099202708,2,8.075642199707032,5.736507177734374,0.7122749938964843,-1.748091603053435,0.21374045801526717,-1.5648854961832062
3893972281169,1.105867344,2,8.098387115478515,5.722141967773437,0.7314286071777343,-1.717557251908397,0.2900763358778626,-1.5572519083969465
3893978955804,1.112541979,2,8.100781317138672,5.7329158752441405,0.7242460021972655,-1.7251908396946565,0.2595419847328244,-1.5725190839694656
3893985614450,1.119200625,2,8.100781317138672,5.741295581054687,0.7206546997070312,-1.7328244274809161,0.24427480916030533,-1.5801526717557253
3893992286429,1.125872604,2,8.12113203125,5.741295581054687,0.729034405517578,-1.7557251908396947,0.32061068702290074,-1.6259541984732824
3893998940440,1.132526615,2,8.112752325439452,5.77122310180664,0.729034405517578,-1.7557251908396947,0.25190839694656486,-1.6030534351145038
3894005775179,1.139361354,2,8.090007409667969,5.7843912109375,0.7278373046875,-1.717557251908397,0.1984732824427481,-1.633587786259542
3894012242367,1.145828542,2,8.147468249511718,5.773617303466796,0.7278373046875,-1.7328244274809161,0.1984732824427481,-1.633587786259542
3894018913721,1.152499896,2,8.103175518798828,5.758054992675781,0.7398083129882812,-1.6793893129770991,0.25190839694656486,-1.633587786259542
3894025620752,1.159206927,2,8.095992913818359,5.754463690185546,0.7266402038574218,-1.7557251908396947,0.21374045801526717,-1.6488549618320612
3894032285387,1.165871562,2,8.123526232910155,5.741295581054687,0.7206546997070312,-1.7633587786259541,0.20610687022900764,-1.6641221374045803
3894038952627,1.172538802,2,8.112752325439452,5.77122310180664,0.7206546997070312,-1.7404580152671756,0.22900763358778625,-1.6564885496183206
3894045618512,1.179204687,2,8.113949426269532,5.746083984375,0.7529764221191406,-1.7709923664122138,0.20610687022900764,-1.5648854961832062
3894052283304,1.185869479,2,8.112752325439452,5.738901379394531,0.7015010864257812,-1.6946564885496183,0.2595419847328244,-1.5877862595419847
3894058953617,1.192539792,2,8.100781317138672,5.7508723876953125,0.7553706237792969,-1.6870229007633588,0.26717557251908397,-1.618320610687023
3894065618252,1.199204427,2,8.103175518798828,5.748478186035156,0.7577648254394531,-1.6870229007633588,0.19083969465648856,-1.5725190839694656
3894072282158,1.205868333,2,8.123526232910155,5.728127471923828,0.7158662963867187,-1.7557251908396947,0.09923664122137404,-1.5725190839694656
3894078958096,1.212544271,2,8.12711753540039,5.723339068603515,0.70868369140625,-1.717557251908397,0.1984732824427481,-1.534351145038168
3894085621377,1.219207552,2,8.142679846191406,5.759252093505859,0.7314286071777343,-1.748091603053435,0.2366412213740458,-1.6412213740458015
3894092280648,1.225866823,2,8.11514652709961,5.742492681884765,0.7362170104980469,-1.786259541984733,0.2748091603053435,-1.633587786259542
3894098950856,1.232537031,2,8.109161022949218,5.760449194335937,0.7266402038574218,-1.786259541984733,0.2824427480916031,-1.6106870229007633
3894105584502,1.239170677,2,8.098387115478515,5.736507177734374,0.7433996154785156,-1.7786259541984732,0.20610687022900764,-1.5038167938931297
3894112294710,1.245880885,2,8.093598712158203,5.7149593627929685,0.719457598876953,-1.786259541984733,0.2900763358778626,-1.6488549618320612
3894118952523,1.252538698,2,8.100781317138672,5.741295581054687,0.718260498046875,-1.7786259541984732,0.2900763358778626,-1.6030534351145038
3894125618877,1.259205052,2,8.100781317138672,5.725733270263672,0.6871358764648438,-1.717557251908397,0.16793893129770993,-1.6106870229007633
3894132285231,1.265871406,2,8.117540728759765,5.725733270263672,0.7134720947265625,-1.7786259541984732,0.26717557251908397,-1.5648854961832062
3894138952627,1.272538802,2,8.116343627929687,5.7149593627929685,0.7134720947265625,-1.7709923664122138,0.2595419847328244,-1.5954198473282444
3894145654762,1.279240937,2,8.119934930419921,5.738901379394531,0.70868369140625,-1.8015267175572518,0.1984732824427481,-1.633587786259542
3894152294085,1.28588026,2,8.10197841796875,5.738901379394531,0.7062894897460937,-1.8015267175572518,0.1984732824427481,-1.6259541984732824
3894158953929,1.292540104,2,8.098387115478515,5.749675286865234,0.7398083129882812,-1.7557251908396947,0.22137404580152673,-1.5572519083969465
3894165630596,1.299216771,2,8.116343627929687,5.723339068603515,0.719457598876953,-1.7633587786259541,0.2366412213740458,-1.5572519083969465
3894172303669,1.305889844,2,8.105569720458984,5.767631799316406,0.679953271484375,-1.7557251908396947,0.15267175572519084,-1.618320610687023
3894178961429,1.312547604,2,8.068459594726562,5.753266589355468,0.699106884765625,-1.7328244274809161,0.24427480916030533,-1.5572519083969465
3894185640075,1.31922625,2,8.100781317138672,5.7329158752441405,0.7386112121582031,-1.7404580152671756,0.26717557251908397,-1.6030534351145038
3894192293044,1.325879219,2,8.106766821289062,5.742492681884765,0.7457938171386719,-1.748091603053435,0.2900763358778626,-1.5725190839694656
3894198951481,1.332537656,2,8.10197841796875,5.737704278564453,0.6919242797851562,-1.8015267175572518,0.2366412213740458,-1.5801526717557253
3894205619867,1.339206042,2,8.092401611328125,5.777208605957031,0.7338228088378905,-1.7633587786259541,0.17557251908396945,-1.6030534351145038
3894212293408,1.345879583,2,8.123526232910155,5.749675286865234,0.7589619262695312,-1.7709923664122138,0.19083969465648856,-1.6106870229007633
3894218954346,1.352540521,2,8.113949426269532,5.730521673583984,0.7637503295898437,-1.7938931297709924,0.2900763358778626,-1.618320610687023
3894225623460,1.359209635,2,8.128314636230469,5.729324572753906,0.7110778930664062,-1.8091603053435115,0.24427480916030533,-1.6259541984732824
3894232288200,1.365874375,2,8.13310303955078,5.746083984375,0.6907271789550781,-1.7786259541984732,0.2595419847328244,-1.5877862595419847
3894238961273,1.372547448,2,8.117540728759765,5.742492681884765,0.719457598876953,-1.8091603053435115,0.3969465648854962,-1.6030534351145038
3894245594554,1.379180729,2,8.124723333740233,5.7329158752441405,0.7266402038574218,-1.7557251908396947,0.24427480916030533,-1.6030534351145038
3894252292314,1.385878489,2,8.142679846191406,5.736507177734374,0.7110778930664062,-1.7328244274809161,0.13740458015267176,-1.6030534351145038
3894258954867,1.392541042,2,8.113949426269532,5.738901379394531,0.7589619262695312,-1.7099236641221374,0.2824427480916031,-1.618320610687023
3894265653981,1.399240156,2,8.125920434570313,5.728127471923828,0.6763619689941406,-1.7251908396946565,0.16793893129770993,-1.5801526717557253
3894272293356,1.405879531,2,8.125920434570313,5.753266589355468,0.6703764648437499,-1.786259541984733,0.1450381679389313,-1.5572519083969465
3894278954033,1.412540208,2,8.143876947021484,5.753266589355468,0.7038952880859375,-1.8015267175572518,0.2748091603053435,-1.6030534351145038
3894285622314,1.419208489,2,8.124723333740233,5.748478186035156,0.7038952880859375,-1.786259541984733,0.22900763358778625,-1.5801526717557253
3894292285335,1.42587151,2,8.10796392211914,5.778405706787109,0.7242460021972655,-1.786259541984733,0.22900763358778625,-1.6030534351145038
3894298954137,1.432540312,2,8.13310303955078,5.762843395996094,0.7338228088378905,-1.8244274809160306,0.22900763358778625,-1.5877862595419847
3894305626481,1.439212656,2,8.12711753540039,5.756857891845703,0.7493851196289062,-1.7633587786259541,0.3053435114503817,-1.5877862595419847
3894312290908,1.445877083,2,8.128314636230469,5.740098480224609,0.7038952880859375,-1.7938931297709924,0.17557251908396945,-1.5954198473282444
3894318953617,1.452539792,2,8.119934930419921,5.740098480224609,0.689530078125,-1.7709923664122138,0.22900763358778625,-1.5725190839694656
3894325619814,1.459205989,2,8.122329132080077,5.773617303466796,0.7601590270996094,-1.7938931297709924,0.2824427480916031,-1.5572519083969465
3894332259189,1.465845364,2,8.10796392211914,5.76523759765625,0.7302315063476562,-1.786259541984733,0.21374045801526717,-1.5648854961832062
3894338961533,1.472547708,2,8.104372619628906,5.748478186035156,0.74699091796875,-1.7404580152671756,0.22137404580152673,-1.5572519083969465
3894345624762,1.479210937,2,8.103175518798828,5.742492681884765,0.7481880187988281,-1.7938931297709924,0.26717557251908397,-1.6564885496183206
3894352288721,1.485874896,2,8.105569720458984,5.741295581054687,0.7338228088378905,-1.7633587786259541,0.16030534351145037,-1.633587786259542
3894358954502,1.492540677,2,8.10796392211914,5.735310076904296,0.7254431030273437,-1.7938931297709924,0.26717557251908397,-1.6412213740458015
3894365619398,1.499205573,2,8.117540728759765,5.760449194335937,0.7481880187988281,-1.7557251908396947,0.29770992366412213,-1.5801526717557253
3894372294971,1.505881146,2,8.095992913818359,5.748478186035156,0.7314286071777343,-1.7709923664122138,0.24427480916030533,-1.5648854961832062
3894378957054,1.512543229,2,8.098387115478515,5.768828900146484,0.7481880187988281,-1.7328244274809161,0.24427480916030533,-1.6106870229007633
3894385628148,1.519214323,2,8.10796392211914,5.760449194335937,0.7254431030273437,-1.7633587786259541,0.2748091603053435,-1.5954198473282444
3894392289242,1.525875417,2,8.103175518798828,5.735310076904296,0.7074865905761718,-1.7786259541984732,0.21374045801526717,-1.5954198473282444
3894398953044,1.532539219,2,8.11514652709961,5.747281085205078,0.7003039855957031,-1.748091603053435,0.29770992366412213,-1.6030534351145038
3894405621637,1.539207812,2,8.11514652709961,5.729324572753906,0.699106884765625,-1.7557251908396947,0.2748091603053435,-1.6259541984732824
3894412288200,1.545874375,2,8.097190014648437,5.767631799316406,0.7134720947265625,-1.748091603053435,0.19083969465648856,-1.5572519083969465
3894418956742,1.552542917,2,8.097190014648437,5.761646295166015,0.7122749938964843,-1.7328244274809161,0.32061068702290074,-1.633587786259542
3894425621846,1.559208021,2,8.119934930419921,5.761646295166015,0.7565677246093749,-1.7633587786259541,0.25190839694656486,-1.6412213740458015
3894432294919,1.565881094,2,8.112752325439452,5.744886883544922,0.7565677246093749,-1.7557251908396947,0.183206106870229,-1.6106870229007633
3894438957471,1.572543646,2,8.131905938720703,5.7508723876953125,0.7314286071777343,-1.7557251908396947,0.29770992366412213,-1.6030534351145038
3894445619710,1.579205885,2,8.113949426269532,5.781997009277344,0.7565677246093749,-1.6870229007633588,0.29770992366412213,-1.5877862595419847
3894452292054,1.585878229,2,8.10197841796875,5.76523759765625,0.6979097839355468,-1.786259541984733,0.26717557251908397,-1.5877862595419847
3894458950856,1.592537031,2,8.119934930419921,5.772420202636718,0.7326257080078125,-1.8244274809160306,0.16030534351145037,-1.5954198473282444
3894465623148,1.599209323,2,8.105569720458984,5.723339068603515,0.7386112121582031,-1.7557251908396947,0.2595419847328244,-1.5725190839694656
3894472291741,1.605877916,2,8.106766821289062,5.740098480224609,0.7410054138183594,-1.7709923664122138,0.25190839694656486,-1.549618320610687
3894478954398,1.612540573,2,8.139088543701172,5.764040496826172,0.7517793212890624,-1.7557251908396947,0.22900763358778625,-1.5725190839694656
3894485622314,1.619208489,2,8.109161022949218,5.762843395996094,0.718260498046875,-1.7557251908396947,0.26717557251908397,-1.618320610687023
3894492288096,1.625874271,2,8.093598712158203,5.760449194335937,0.7003039855957031,-1.8015267175572518,0.183206106870229,-1.5114503816793894
3894498961273,1.632547448,2,8.104372619628906,5.754463690185546,0.7481880187988281,-1.8015267175572518,0.20610687022900764,-1.5725190839694656
3894505621012,1.639207187,2,8.116343627929687,5.748478186035156,0.6847416748046875,-1.6946564885496183,0.366412213740458,-1.5725190839694656
3894512327210,1.645913385,2,8.10197841796875,5.72693037109375,0.7003039855957031,-1.6870229007633588,0.3053435114503817,-1.5572519083969465
3894518952054,1.652538229,2,8.125920434570313,5.740098480224609,0.7398083129882812,-1.748091603053435,0.24427480916030533,-1.5954198473282444
3894525619502,1.659205677,2,8.106766821289062,5.7520694885253905,0.7613561279296874,-1.717557251908397,0.2900763358778626,-1.5725190839694656
3894532298669,1.665884844,2,8.103175518798828,5.764040496826172,0.7565677246093749,-1.702290076335878,0.15267175572519084,-1.6030534351145038
3894538960648,1.672546823,2,8.09479581298828,5.7508723876953125,0.7505822204589844,-1.7251908396946565,0.16793893129770993,-1.6564885496183206
3894545621169,1.679207344,2,8.081627703857421,5.755660791015624,0.7386112121582031,-1.816793893129771,0.22137404580152673,-1.618320610687023
3894552293981,1.685880156,2,8.106766821289062,5.747281085205078,0.7565677246093749,-1.786259541984733,0.15267175572519084,-1.633587786259542
3894558953200,1.692539375,2,8.116343627929687,5.768828900146484,0.7134720947265625,-1.7404580152671756,0.24427480916030533,-1.6259541984732824
3894565640544,1.699226719,2,8.116343627929687,5.746083984375,0.709880792236328,-1.7328244274809161,0.2824427480916031,-1.6030534351145038
3894572293877,1.705880052,2,8.123526232910155,5.746083984375,0.7350199096679687,-1.8091603053435115,0.2366412213740458,-1.5725190839694656
3894578948721,1.712534896,2,8.12113203125,5.766434698486328,0.7350199096679687,-1.748091603053435,0.2900763358778626,-1.5801526717557253
3894585594033,1.719180208,2,8.100781317138672,5.785588311767578,0.7110778930664062,-1.748091603053435,0.24427480916030533,-1.5648854961832062
3894592290335,1.72587651,2,8.124723333740233,5.76523759765625,0.7230489013671875,-1.717557251908397,0.24427480916030533,-1.5801526717557253
3894598954137,1.732540312,2,8.08881030883789,5.76523759765625,0.7517793212890624,-1.7557251908396947,0.16793893129770993,-1.5801526717557253
3894605620908,1.739207083,2,8.123526232910155,5.7329158752441405,0.7015010864257812,-1.7404580152671756,0.26717557251908397,-1.633587786259542
3894612287054,1.745873229,2,8.103175518798828,5.755660791015624,0.709880792236328,-1.7786259541984732,0.25190839694656486,-1.618320610687023
3894618954919,1.752541094,2,8.10796392211914,5.760449194335937,0.719457598876953,-1.7099236641221374,0.19083969465648856,-1.5725190839694656
3894625625596,1.759211771,2,8.116343627929687,5.746083984375,0.7110778930664062,-1.7251908396946565,0.2366412213740458,-1.6564885496183206
3894632295179,1.765881354,2,8.11514652709961,5.772420202636718,0.7326257080078125,-1.7099236641221374,0.2824427480916031,-1.5648854961832062
3894638954658,1.772540833,2,8.123526232910155,5.7508723876953125,0.7074865905761718,-1.7557251908396947,0.183206106870229,-1.5648854961832062
3894645650752,1.779236927,2,8.119934930419921,5.754463690185546,0.6955155822753906,-1.7328244274809161,0.2824427480916031,-1.6259541984732824
3894652292002,1.785878177,2,8.117540728759765,5.744886883544922,0.7015010864257812,-1.7709923664122138,0.3053435114503817,-1.633587786259542
3894658952939,1.792539114,2,8.106766821289062,5.756857891845703,0.6967126831054687,-1.786259541984733,0.20610687022900764,-1.6106870229007633
3894665622835,1.79920901,2,8.122329132080077,5.754463690185546,0.7481880187988281,-1.7557251908396947,0.3053435114503817,-1.6106870229007633
3894672289814,1.805875989,2,8.07683930053711,5.756857891845703,0.7266402038574218,-1.786259541984733,0.22900763358778625,-1.5954198473282444
3894678954085,1.81254026,2,8.117540728759765,5.773617303466796,0.7386112121582031,-1.748091603053435,0.25190839694656486,-1.6030534351145038
3894685617106,1.819203281,2,8.128314636230469,5.7700260009765625,0.7122749938964843,-1.7786259541984732,0.26717557251908397,-1.5648854961832062
3894692296273,1.825882448,2,8.139088543701172,5.755660791015624,0.7134720947265625,-1.8244274809160306,0.1984732824427481,-1.549618320610687
3894698952627,1.832538802,2,8.116343627929687,5.747281085205078,0.70868369140625,-1.816793893129771,0.2366412213740458,-1.549618320610687
3894705620023,1.839206198,2,8.109161022949218,5.747281085205078,0.7553706237792969,-1.7557251908396947,0.32061068702290074,-1.534351145038168
3894712290023,1.845876198,2,8.109161022949218,5.740098480224609,0.7242460021972655,-1.786259541984733,0.21374045801526717,-1.6106870229007633
3894718953252,1.852539427,2,8.130708837890625,5.740098480224609,0.6823474731445313,-1.748091603053435,0.20610687022900764,-1.5572519083969465
3894725621481,1.859207656,2,8.112752325439452,5.742492681884765,0.6823474731445313,-1.7328244274809161,0.3053435114503817,-1.6259541984732824
3894732289866,1.865876041,2,8.123526232910155,5.741295581054687,0.6919242797851562,-1.7328244274809161,0.25190839694656486,-1.5877862595419847
3894738950231,1.872536406,2,8.087613208007811,5.755660791015624,0.737414111328125,-1.7251908396946565,0.25190839694656486,-1.5954198473282444
3894745625543,1.879211718,2,8.087613208007811,5.740098480224609,0.6907271789550781,-1.7557251908396947,0.22137404580152673,-1.5954198473282444
3894752290804,1.885876979,2,8.095992913818359,5.711368060302734,0.737414111328125,-1.748091603053435,0.366412213740458,-1.5419847328244274
3894758953200,1.892539375,2,8.12113203125,5.737704278564453,0.7110778930664062,-1.7938931297709924,0.19083969465648856,-1.5954198473282444
3894765620231,1.899206406,2,8.117540728759765,5.740098480224609,0.7230489013671875,-1.7709923664122138,0.19083969465648856,-1.5725190839694656
3894772292158,1.905878333,2,8.10197841796875,5.743689782714843,0.7505822204589844,-1.7099236641221374,0.2748091603053435,-1.5954198473282444
3894778953668,1.912539843,2,8.13310303955078,5.747281085205078,0.7350199096679687,-1.7251908396946565,0.183206106870229,-1.6030534351145038
3894785623877,1.919210052,2,8.100781317138672,5.749675286865234,0.7302315063476562,-1.7251908396946565,0.183206106870229,-1.5572519083969465
3894792285752,1.925871927,2,8.10796392211914,5.780799908447265,0.70868369140625,-1.7633587786259541,0.21374045801526717,-1.6259541984732824
3894798954450,1.932540625,2,8.097190014648437,5.724536169433593,0.7134720947265625,-1.6946564885496183,0.19083969465648856,-1.6030534351145038
3894805619293,1.939205468,2,8.135497241210937,5.764040496826172,0.7170633972167968,-1.7099236641221374,0.2595419847328244,-1.618320610687023
3894812340856,1.945927031,2,8.14627114868164,5.729324572753906,0.7637503295898437,-1.7099236641221374,0.2748091603053435,-1.5801526717557253
3894818955335,1.95254151,2,8.11514652709961,5.742492681884765,0.7218518005371093,-1.8091603053435115,0.20610687022900764,-1.5954198473282444
3894825622939,1.959209114,2,8.104372619628906,5.7520694885253905,0.7038952880859375,-1.717557251908397,0.16030534351145037,-1.6030534351145038
3894832287158,1.965873333,2,8.129511737060547,5.761646295166015,0.7553706237792969,-1.6870229007633588,0.2366412213740458,-1.6030534351145038
3894838955075,1.97254125,2,8.122329132080077,5.756857891845703,0.7517793212890624,-1.7251908396946565,0.19083969465648856,-1.6106870229007633
3894845634658,1.979220833,2,8.129511737060547,5.756857891845703,0.7314286071777343,-1.7404580152671756,0.22900763358778625,-1.5648854961832062
3894852297002,1.985883177,2,8.136694342041014,5.748478186035156,0.7158662963867187,-1.8015267175572518,0.25190839694656486,-1.5954198473282444
3894858954241,1.992540416,2,8.136694342041014,5.7508723876953125,0.7242460021972655,-1.7633587786259541,0.1984732824427481,-1.5648854961832062
3894865621481,1.999207656,2,8.122329132080077,5.7508723876953125,0.7015010864257812,-1.7099236641221374,0.26717557251908397,-1.6412213740458015
3894872285491,2.005871666,2,8.123526232910155,5.755660791015624,0.7015010864257812,-1.7404580152671756,0.26717557251908397,-1.534351145038168
3894878989241,2.012575416,2,8.135497241210937,5.774814404296874,0.7062894897460937,-1.7404580152671756,0.183206106870229,-1.5572519083969465
3894885634866,2.019221041,2,8.086416107177733,5.781997009277344,0.7146691955566405,-1.7251908396946565,0.183206106870229,-1.5648854961832062
3894892292939,2.025879114,2,8.122329132080077,5.7891796142578125,0.7338228088378905,-1.7786259541984732,0.2900763358778626,-1.5648854961832062
3894898954918,2.032541093,2,8.12113203125,5.766434698486328,0.729034405517578,-1.8244274809160306,0.37404580152671757,-1.549618320610687
3894905625023,2.039211198,2,8.098387115478515,5.774814404296874,0.7230489013671875,-1.7786259541984732,0.29770992366412213,-1.5801526717557253
3894912299345,2.04588552,2,8.090007409667969,5.7317187744140625,0.6775590698242188,-1.748091603053435,0.2900763358778626,-1.5572519083969465
3894918953408,2.052539583,2,8.12113203125,5.754463690185546,0.7122749938964843,-1.6870229007633588,0.2595419847328244,-1.5572519083969465
3894925626429,2.059212604,2,8.12113203125,5.755660791015624,0.699106884765625,-1.7328244274809161,0.2366412213740458,-1.549618320610687
3894932296012,2.065882187,2,8.125920434570313,5.7700260009765625,0.709880792236328,-1.7328244274809161,0.26717557251908397,-1.6030534351145038
3894938954658,2.072540833,2,8.11514652709961,5.756857891845703,0.6859387756347656,-1.7557251908396947,0.2595419847328244,-1.6412213740458015
3894945635648,2.079221823,2,8.110358123779296,5.761646295166015,0.709880792236328,-1.7328244274809161,0.17557251908396945,-1.5877862595419847
3894952297106,2.085883281,2,8.12113203125,5.722141967773437,0.7386112121582031,-1.702290076335878,0.2900763358778626,-1.5725190839694656
3894958953981,2.092540156,2,8.116343627929687,5.747281085205078,0.7757213378906249,-1.7938931297709924,0.20610687022900764,-1.5572519083969465
3894965624502,2.099210677,2,8.125920434570313,5.734112976074218,0.7445967163085937,-1.748091603053435,0.183206106870229,-1.6488549618320612
3894972292158,2.105878333,2,8.118737829589843,5.747281085205078,0.7457938171386719,-1.7938931297709924,0.2595419847328244,-1.618320610687023
3894978966012,2.112552187,2,8.103175518798828,5.736507177734374,0.7673416320800781,-1.7404580152671756,0.22900763358778625,-1.618320610687023
3894985624762,2.119210937,2,8.106766821289062,5.7317187744140625,0.7769184387207031,-1.7328244274809161,0.24427480916030533,-1.618320610687023
3894992293981,2.125880156,2,8.123526232910155,5.746083984375,0.7577648254394531,-1.7099236641221374,0.2748091603053435,-1.6412213740458015
3894998952470,2.132538645,2,8.130708837890625,5.747281085205078,0.7529764221191406,-1.7328244274809161,0.21374045801526717,-1.5954198473282444
3895005625387,2.139211562,2,8.130708837890625,5.734112976074218,0.709880792236328,-1.7557251908396947,0.2366412213740458,-1.5877862595419847
3895012293720,2.145879895,2,8.122329132080077,5.734112976074218,0.7314286071777343,-1.7633587786259541,0.24427480916030533,-1.534351145038168
3895018957887,2.152544062,2,8.130708837890625,5.7317187744140625,0.7314286071777343,-1.748091603053435,0.21374045801526717,-1.5648854961832062
3895025656898,2.159243073,2,8.145074047851562,5.743689782714843,0.7134720947265625,-1.748091603053435,0.22137404580152673,-1.5877862595419847
3895032331585,2.16591776,2,8.092401611328125,5.722141967773437,0.7206546997070312,-1.7786259541984732,0.22137404580152673,-1.633587786259542
3895038955908,2.172542083,2,8.097190014648437,5.730521673583984,0.7649474304199219,-1.7251908396946565,0.3053435114503817,-1.633587786259542
3895045624606,2.179210781,2,8.091204510498047,5.753266589355468,0.7565677246093749,-1.7099236641221374,0.2595419847328244,-1.5648854961832062
3895052291377,2.185877552,2,8.10796392211914,5.746083984375,0.7733271362304687,-1.748091603053435,0.26717557251908397,-1.5725190839694656
3895058951273,2.192537448,2,8.111555224609374,5.753266589355468,0.7601590270996094,-1.7251908396946565,0.3435114503816794,-1.5801526717557253
3895065620127,2.199206302,2,8.079233502197265,5.7700260009765625,0.7637503295898437,-1.7328244274809161,0.2824427480916031,-1.6030534351145038
3895072289814,2.205875989,2,8.113949426269532,5.741295581054687,0.7422025146484375,-1.7328244274809161,0.33587786259541985,-1.5419847328244274
3895078952835,2.21253901,2,8.110358123779296,5.747281085205078,0.7038952880859375,-1.748091603053435,0.29770992366412213,-1.5801526717557253
3895085622731,2.219208906,2,8.149862451171874,5.737704278564453,0.7062894897460937,-1.7557251908396947,0.20610687022900764,-1.5877862595419847
3895092288512,2.225874687,2,8.111555224609374,5.746083984375,0.6979097839355468,-1.7251908396946565,0.25190839694656486,-1.549618320610687
3895098922731,2.232508906,2,8.125920434570313,5.774814404296874,0.7122749938964843,-1.717557251908397,0.3511450381679389,-1.6106870229007633
3895105624450,2.239210625,2,8.119934930419921,5.7520694885253905,0.70868369140625,-1.7328244274809161,0.24427480916030533,-1.6106870229007633
3895112290231,2.245876406,2,8.123526232910155,5.761646295166015,0.7386112121582031,-1.6946564885496183,0.22900763358778625,-1.5648854961832062
3895118952575,2.25253875,2,8.12113203125,5.758054992675781,0.719457598876953,-1.717557251908397,0.22900763358778625,-1.6412213740458015
3895125623772,2.259209947,2,8.116343627929687,5.768828900146484,0.7326257080078125,-1.7099236641221374,0.2748091603053435,-1.7404580152671756
3895132265127,2.265851302,2,8.129511737060547,5.755660791015624,0.729034405517578,-1.7938931297709924,0.29770992366412213,-1.618320610687023
3895138962106,2.272548281,2,8.117540728759765,5.738901379394531,0.7302315063476562,-1.83206106870229,0.24427480916030533,-1.6030534351145038
3895145619450,2.279205625,2,8.117540728759765,5.7520694885253905,0.7254431030273437,-1.7786259541984732,0.16030534351145037,-1.6564885496183206
3895152287366,2.285873541,2,8.097190014648437,5.7520694885253905,0.7386112121582031,-1.7557251908396947,0.22900763358778625,-1.6412213740458015
3895158955075,2.29254125,2,8.116343627929687,5.740098480224609,0.7386112121582031,-1.7633587786259541,0.22900763358778625,-1.6106870229007633
3895165624762,2.299210937,2,8.117540728759765,5.761646295166015,0.6943184814453125,-1.7633587786259541,0.16793893129770993,-1.5801526717557253
3895172288252,2.305874427,2,8.111555224609374,5.762843395996094,0.7050923889160156,-1.786259541984733,0.16793893129770993,-1.6259541984732824
3895178953408,2.312539583,2,8.109161022949218,5.749675286865234,0.6943184814453125,-1.7633587786259541,0.2824427480916031,-1.6259541984732824
3895185621585,2.31920776,2,8.123526232910155,5.759252093505859,0.7314286071777343,-1.748091603053435,0.24427480916030533,-1.5954198473282444
3895192286793,2.325872968,2,8.091204510498047,5.724536169433593,0.7206546997070312,-1.717557251908397,0.17557251908396945,-1.6259541984732824
3895198955179,2.332541354,2,8.090007409667969,5.725733270263672,0.7242460021972655,-1.7633587786259541,0.2595419847328244,-1.6106870229007633
3895205622470,2.339208645,2,8.090007409667969,5.754463690185546,0.7541735229492187,-1.786259541984733,0.25190839694656486,-1.5725190839694656
3895212290387,2.345876562,2,8.123526232910155,5.759252093505859,0.6787561706542968,-1.7786259541984732,0.22137404580152673,-1.5877862595419847
3895218955022,2.352541197,2,8.092401611328125,5.7329158752441405,0.7003039855957031,-1.748091603053435,0.22900763358778625,-1.6030534351145038
3895225618200,2.359204375,2,8.087613208007811,5.781997009277344,0.719457598876953,-1.7633587786259541,0.2824427480916031,-1.6030534351145038
3895232291220,2.365877395,2,8.10796392211914,5.760449194335937,0.6955155822753906,-1.748091603053435,0.22900763358778625,-1.549618320610687
3895238957731,2.372543906,2,8.12113203125,5.730521673583984,0.719457598876953,-1.7633587786259541,0.22137404580152673,-1.6030534351145038
3895245622627,2.379208802,2,8.10197841796875,5.736507177734374,0.7230489013671875,-1.7938931297709924,0.1984732824427481,-1.549618320610687
3895252290127,2.385876302,2,8.118737829589843,5.760449194335937,0.7326257080078125,-1.7557251908396947,0.16793893129770993,-1.5877862595419847
3895258954970,2.392541145,2,8.12711753540039,5.7520694885253905,0.7422025146484375,-1.7633587786259541,0.25190839694656486,-1.5648854961832062
3895265621741,2.399207916,2,8.117540728759765,5.747281085205078,0.7398083129882812,-1.7557251908396947,0.24427480916030533,-1.5801526717557253
3895272291793,2.405877968,2,8.124723333740233,5.737704278564453,0.7074865905761718,-1.7786259541984732,0.26717557251908397,-1.5572519083969465
3895278949450,2.412535625,2,8.104372619628906,5.749675286865234,0.7170633972167968,-1.748091603053435,0.3282442748091603,-1.5954198473282444
3895285624918,2.419211093,2,8.086416107177733,5.766434698486328,0.7386112121582031,-1.7557251908396947,0.2824427480916031,-1.618320610687023
3895292285439,2.425871614,2,8.086416107177733,5.728127471923828,0.7422025146484375,-1.7328244274809161,0.2366412213740458,-1.5801526717557253
3895298958304,2.432544479,2,8.106766821289062,5.728127471923828,0.7625532287597656,-1.6870229007633588,0.2900763358778626,-1.549618320610687
3895305634866,2.439221041,2,8.091204510498047,5.767631799316406,0.7625532287597656,-1.7786259541984732,0.22900763358778625,-1.618320610687023
3895312297210,2.445883385,2,8.116343627929687,5.760449194335937,0.699106884765625,-1.7786259541984732,0.25190839694656486,-1.6030534351145038
3895318949085,2.45253526,2,8.113949426269532,5.777208605957031,0.7601590270996094,-1.7557251908396947,0.25190839694656486,-1.5419847328244274
3895325622574,2.459208749,2,8.091204510498047,5.7508723876953125,0.7481880187988281,-1.7709923664122138,0.33587786259541985,-1.5419847328244274
3895332289970,2.465876145,2,8.12113203125,5.755660791015624,0.7230489013671875,-1.748091603053435,0.20610687022900764,-1.618320610687023
3895338953460,2.472539635,2,8.106766821289062,5.777208605957031,0.7254431030273437,-1.7328244274809161,0.25190839694656486,-1.549618320610687
3895345620960,2.479207135,2,8.116343627929687,5.758054992675781,0.7110778930664062,-1.717557251908397,0.32061068702290074,-1.5954198473282444
3895352291064,2.485877239,2,8.135497241210937,5.755660791015624,0.7266402038574218,-1.748091603053435,0.2366412213740458,-1.5725190839694656
3895358957054,2.492543229,2,8.125920434570313,5.748478186035156,0.7038952880859375,-1.8015267175572518,0.26717557251908397,-1.5648854961832062
3895365644658,2.499230833,2,8.104372619628906,5.7508723876953125,0.6919242797851562,-1.7709923664122138,0.29770992366412213,-1.6106870229007633
3895372287210,2.505873385,2,8.111555224609374,5.7700260009765625,0.7003039855957031,-1.7786259541984732,0.1984732824427481,-1.6412213740458015
3895378955231,2.512541406,2,8.117540728759765,5.744886883544922,0.729034405517578,-1.7404580152671756,0.26717557251908397,-1.6412213740458015
3895385629241,2.519215416,2,8.125920434570313,5.755660791015624,0.7565677246093749,-1.6793893129770991,0.2748091603053435,-1.534351145038168
3895392287835,2.52587401,2,8.119934930419921,5.749675286865234,0.6979097839355468,-1.7251908396946565,0.1984732824427481,-1.5572519083969465
3895398953772,2.532539947,2,8.117540728759765,5.741295581054687,0.7050923889160156,-1.748091603053435,0.2824427480916031,-1.5648854961832062
3895405670022,2.539256197,2,8.11514652709961,5.740098480224609,0.7350199096679687,-1.7099236641221374,0.2824427480916031,-1.633587786259542
3895412290387,2.545876562,2,8.118737829589843,5.7317187744140625,0.70868369140625,-1.7404580152671756,0.2595419847328244,-1.6106870229007633
3895418957054,2.552543229,2,8.113949426269532,5.7520694885253905,0.7230489013671875,-1.7328244274809161,0.26717557251908397,-1.6030534351145038
3895425621845,2.55920802,2,8.122329132080077,5.746083984375,0.7637503295898437,-1.7557251908396947,0.26717557251908397,-1.6030534351145038
3895432288564,2.565874739,2,8.110358123779296,5.743689782714843,0.7445967163085937,-1.7709923664122138,0.22900763358778625,-1.6106870229007633
3895438951324,2.572537499,2,8.110358123779296,5.753266589355468,0.7314286071777343,-1.816793893129771,0.29770992366412213,-1.5877862595419847
3895445623824,2.579209999,2,8.131905938720703,5.753266589355468,0.7541735229492187,-1.816793893129771,0.22137404580152673,-1.618320610687023
3895452287627,2.585873802,2,8.12113203125,5.746083984375,0.7541735229492187,-1.8091603053435115,0.183206106870229,-1.5419847328244274
3895458954814,2.592540989,2,8.124723333740233,5.737704278564453,0.7589619262695312,-1.8091603053435115,0.2900763358778626,-1.534351145038168
3895465620960,2.599207135,2,8.137891442871092,5.730521673583984,0.6979097839355468,-1.7709923664122138,0.2900763358778626,-1.633587786259542
3895472289137,2.605875312,2,8.122329132080077,5.729324572753906,0.7050923889160156,-1.6870229007633588,0.22137404580152673,-1.633587786259542
3895478956897,2.612543072,2,8.130708837890625,5.749675286865234,0.7266402038574218,-1.717557251908397,0.183206106870229,-1.5954198473282444
3895485590335,2.61917651,2,8.09479581298828,5.740098480224609,0.7003039855957031,-1.717557251908397,0.3053435114503817,-1.5954198473282444
3895492293252,2.625879427,2,8.11514652709961,5.743689782714843,0.718260498046875,-1.717557251908397,0.24427480916030533,-1.534351145038168
3895498953668,2.632539843,2,8.128314636230469,5.734112976074218,0.709880792236328,-1.7251908396946565,0.21374045801526717,-1.6030534351145038
3895505615752,2.639201927,2,8.117540728759765,5.742492681884765,0.7314286071777343,-1.7251908396946565,0.2748091603053435,-1.5572519083969465
3895512288981,2.645875156,2,8.124723333740233,5.716156463623046,0.6859387756347656,-1.7633587786259541,0.183206106870229,-1.5419847328244274
3895518954970,2.652541145,2,8.075642199707032,5.730521673583984,0.719457598876953,-1.7099236641221374,0.17557251908396945,-1.5954198473282444
3895525624137,2.659210312,2,8.098387115478515,5.735310076904296,0.719457598876953,-1.6946564885496183,0.2824427480916031,-1.5954198473282444
3895532289762,2.665875937,2,8.080430603027343,5.742492681884765,0.7074865905761718,-1.7633587786259541,0.17557251908396945,-1.6259541984732824
3895538951220,2.672537395,2,8.111555224609374,5.743689782714843,0.7541735229492187,-1.7938931297709924,0.2595419847328244,-1.6259541984732824
3895545620439,2.679206614,2,8.118737829589843,5.741295581054687,0.7278373046875,-1.7557251908396947,0.2824427480916031,-1.633587786259542
3895552290856,2.685877031,2,8.130708837890625,5.748478186035156,0.7266402038574218,-1.7251908396946565,0.24427480916030533,-1.5954198473282444
3895558953512,2.692539687,2,8.123526232910155,5.729324572753906,0.7314286071777343,-1.7099236641221374,0.2900763358778626,-1.5572519083969465
3895565621949,2.699208124,2,8.111555224609374,5.7508723876953125,0.7170633972167968,-1.7786259541984732,0.22900763358778625,-1.5877862595419847
3895572286741,2.705872916,2,8.117540728759765,5.77122310180664,0.7326257080078125,-1.7099236641221374,0.25190839694656486,-1.6030534351145038
3895578956741,2.712542916,2,8.104372619628906,5.759252093505859,0.7445967163085937,-1.717557251908397,0.2595419847328244,-1.6564885496183206
3895585622470,2.719208645,2,8.104372619628906,5.746083984375,0.7793126403808593,-1.7709923664122138,0.2595419847328244,-1.5801526717557253
3895592290804,2.725876979,2,8.092401611328125,5.746083984375,0.8834604125976562,-1.748091603053435,0.19083969465648856,-1.5801526717557253
3895598950595,2.73253677,2,8.110358123779296,5.7700260009765625,0.7302315063476562,-1.8091603053435115,0.2595419847328244,-1.5648854961832062
3895605623199,2.739209374,2,8.104372619628906,5.781997009277344,0.7230489013671875,-1.8091603053435115,0.2595419847328244,-1.6030534351145038
3895612258981,2.745845156,2,8.116343627929687,5.767631799316406,0.7613561279296874,-1.786259541984733,0.2595419847328244,-1.6259541984732824
3895618957939,2.752544114,2,8.105569720458984,5.747281085205078,0.7362170104980469,-1.7557251908396947,0.26717557251908397,-1.6259541984732824
3895625624137,2.759210312,2,8.100781317138672,5.737704278564453,0.7206546997070312,-1.7328244274809161,0.22900763358778625,-1.5801526717557253
3895632293408,2.765879583,2,8.125920434570313,5.754463690185546,0.7146691955566405,-1.7404580152671756,0.2366412213740458,-1.5725190839694656
3895638955074,2.772541249,2,8.125920434570313,5.758054992675781,0.7266402038574218,-1.7328244274809161,0.17557251908396945,-1.5114503816793894
3895645621376,2.779207551,2,8.091204510498047,5.734112976074218,0.719457598876953,-1.748091603053435,0.29770992366412213,-1.5801526717557253
3895652292001,2.785878176,2,8.085219006347655,5.717353564453124,0.7637503295898437,-1.7328244274809161,0.2824427480916031,-1.5801526717557253
3895658956116,2.792542291,2,8.10796392211914,5.729324572753906,0.7386112121582031,-1.7328244274809161,0.20610687022900764,-1.633587786259542
3895665623720,2.799209895,2,8.117540728759765,5.7329158752441405,0.7302315063476562,-1.786259541984733,0.22900763358778625,-1.5877862595419847
3895672289085,2.80587526,2,8.130708837890625,5.737704278564453,0.729034405517578,-1.7938931297709924,0.22137404580152673,-1.5725190839694656
3895678968512,2.812554687,2,8.10796392211914,5.76523759765625,0.7433996154785156,-1.786259541984733,0.2366412213740458,-1.534351145038168
3895685630179,2.819216354,2,8.10796392211914,5.761646295166015,0.7314286071777343,-1.7633587786259541,0.25190839694656486,-1.5877862595419847
3895692287001,2.825873176,2,8.111555224609374,5.741295581054687,0.7266402038574218,-1.7557251908396947,0.21374045801526717,-1.5801526717557253
3895698953356,2.832539531,2,8.091204510498047,5.766434698486328,0.7062894897460937,-1.7328244274809161,0.26717557251908397,-1.5648854961832062
3895705625231,2.839211406,2,8.10197841796875,5.7700260009765625,0.737414111328125,-1.7557251908396947,0.26717557251908397,-1.6030534351145038
3895712289397,2.845875572,2,8.103175518798828,5.7520694885253905,0.7517793212890624,-1.7633587786259541,0.2595419847328244,-1.549618320610687
3895718954554,2.852540729,2,8.117540728759765,5.7520694885253905,0.6967126831054687,-1.7633587786259541,0.2366412213740458,-1.5419847328244274
3895725619554,2.859205729,2,8.104372619628906,5.738901379394531,0.7302315063476562,-1.7557251908396947,0.2900763358778626,-1.5801526717557253
3895732287574,2.865873749,2,8.104372619628906,5.7520694885253905,0.7230489013671875,-1.7557251908396947,0.20610687022900764,-1.6030534351145038
3895738957887,2.872544062,2,8.103175518798828,5.7520694885253905,0.718260498046875,-1.7404580152671756,0.183206106870229,-1.618320610687023
3895745636741,2.879222916,2,8.111555224609374,5.748478186035156,0.718260498046875,-1.7633587786259541,0.2824427480916031,-1.5725190839694656
3895752290856,2.885877031,2,8.098387115478515,5.7329158752441405,0.7529764221191406,-1.7633587786259541,0.19083969465648856,-1.5648854961832062
3895758956481,2.892542656,2,8.129511737060547,5.749675286865234,0.7565677246093749,-1.8015267175572518,0.19083969465648856,-1.5648854961832062
3895765623356,2.899209531,2,8.12711753540039,5.760449194335937,0.7481880187988281,-1.7251908396946565,0.2595419847328244,-1.5648854961832062
3895772331272,2.905917447,2,8.130708837890625,5.755660791015624,0.7326257080078125,-1.7404580152671756,0.22900763358778625,-1.5114503816793894
3895778960543,2.912546718,2,8.143876947021484,5.7508723876953125,0.7673416320800781,-1.748091603053435,0.1297709923664122,-1.5954198473282444
3895785654866,2.919241041,2,8.110358123779296,5.7520694885253905,0.7350199096679687,-1.7786259541984732,0.17557251908396945,-1.6030534351145038
3895792291012,2.925877187,2,8.104372619628906,5.7508723876953125,0.7326257080078125,-1.7709923664122138,0.19083969465648856,-1.5725190839694656
3895798954814,2.932540989,2,8.104372619628906,5.753266589355468,0.7386112121582031,-1.7709923664122138,0.1984732824427481,-1.6106870229007633
3895805620751,2.939206926,2,8.113949426269532,5.754463690185546,0.7601590270996094,-1.7328244274809161,0.1984732824427481,-1.5801526717557253
3895812292106,2.945878281,2,8.14627114868164,5.736507177734374,0.7062894897460937,-1.7938931297709924,0.29770992366412213,-1.5954198473282444
3895818950803,2.952536978,2,8.148665350341796,5.740098480224609,0.7350199096679687,-1.7938931297709924,0.1450381679389313,-1.5572519083969465
3895825620022,2.959206197,2,8.12113203125,5.747281085205078,0.7230489013671875,-1.8091603053435115,0.25190839694656486,-1.5801526717557253
3895832285283,2.965871458,2,8.110358123779296,5.728127471923828,0.6931213806152343,-1.7557251908396947,0.21374045801526717,-1.5954198473282444
3895838972366,2.972558541,2,8.125920434570313,5.755660791015624,0.7134720947265625,-1.8015267175572518,0.19083969465648856,-1.6564885496183206
3895845623824,2.979209999,2,8.11514652709961,5.734112976074218,0.7410054138183594,-1.8244274809160306,0.2366412213740458,-1.5801526717557253
3895852292887,2.985879062,2,8.116343627929687,5.7317187744140625,0.718260498046875,-1.7633587786259541,0.26717557251908397,-1.6030534351145038
3895858948460,2.992534635,2,8.099584216308592,5.742492681884765,0.7433996154785156,-1.6870229007633588,0.22137404580152673,-1.5801526717557253
3895865593095,2.99917927,2,8.12711753540039,5.755660791015624,0.7697358337402344,-1.816793893129771,0.24427480916030533,-1.5954198473282444
3895872301637,3.005887812,2,8.270769635009765,5.746083984375,0.7481880187988281,-1.7786259541984732,0.2824427480916031,-1.6412213740458015
3895878948981,3.012535156,2,8.117540728759765,5.766434698486328,0.7410054138183594,-1.8549618320610688,0.19083969465648856,-1.6412213740458015
3895885626116,3.019212291,2,8.141482745361328,5.766434698486328,0.7110778930664062,-1.8396946564885497,0.2366412213740458,-1.6259541984732824
3895892290960,3.025877135,2,8.123526232910155,5.768828900146484,0.7110778930664062,-1.717557251908397,0.24427480916030533,-1.618320610687023
3895898954658,3.032540833,2,8.105569720458984,5.753266589355468,0.709880792236328,-1.717557251908397,0.24427480916030533,-1.5801526717557253
3895905621376,3.039207551,2,8.117540728759765,5.730521673583984,0.7050923889160156,-1.7099236641221374,0.16793893129770993,-1.6030534351145038
3895912288824,3.045874999,2,8.098387115478515,5.754463690185546,0.7314286071777343,-1.7099236641221374,0.2366412213740458,-1.6030534351145038
3895918957106,3.052543281,2,8.11514652709961,5.759252093505859,0.7158662963867187,-1.7404580152671756,0.2900763358778626,-1.6488549618320612
3895925620126,3.059206301,2,8.122329132080077,5.760449194335937,0.7529764221191406,-1.748091603053435,0.2900763358778626,-1.5572519083969465
3895932291585,3.06587776,2,8.10796392211914,5.741295581054687,0.7565677246093749,-1.7251908396946565,0.25190839694656486,-1.6106870229007633
3895938955126,3.072541301,2,8.09479581298828,5.738901379394531,0.7326257080078125,-1.7404580152671756,0.19083969465648856,-1.618320610687023
3895945627106,3.079213281,2,8.105569720458984,5.743689782714843,0.7110778930664062,-1.7404580152671756,0.21374045801526717,-1.633587786259542
3895952287678,3.085873853,2,8.105569720458984,5.716156463623046,0.737414111328125,-1.717557251908397,0.2366412213740458,-1.618320610687023
3895958956897,3.092543072,2,8.131905938720703,5.734112976074218,0.7457938171386719,-1.7786259541984732,0.16030534351145037,-1.5725190839694656
3895965621897,3.099208072,2,8.097190014648437,5.746083984375,0.6727706665039062,-1.7404580152671756,0.20610687022900764,-1.6030534351145038
3895972290647,3.105876822,2,8.111555224609374,5.734112976074218,0.7445967163085937,-1.702290076335878,0.3282442748091603,-1.618320610687023
3895978950283,3.112536458,2,8.113949426269532,5.762843395996094,0.7062894897460937,-1.7633587786259541,0.2366412213740458,-1.6412213740458015
3895985629866,3.119216041,2,8.128314636230469,5.755660791015624,0.7685387329101562,-1.7709923664122138,0.22137404580152673,-1.633587786259542
3895992290803,3.125876978,2,8.123526232910155,5.744886883544922,0.7433996154785156,-1.7938931297709924,0.2595419847328244,-1.6030534351145038
3895998956168,3.132542343,2,8.119934930419921,5.766434698486328,0.709880792236328,-1.7786259541984732,0.22900763358778625,-1.5572519083969465
3896005622522,3.139208697,2,8.124723333740233,5.764040496826172,0.7302315063476562,-1.7557251908396947,0.2366412213740458,-1.618320610687023
3896012289658,3.145875833,2,8.135497241210937,5.743689782714843,0.7242460021972655,-1.786259541984733,0.31297709923664124,-1.5954198473282444
3896018954189,3.152540364,2,8.26837543334961,5.753266589355468,0.7433996154785156,-1.7633587786259541,0.22137404580152673,-1.5877862595419847
3896025624397,3.159210572,2,8.11514652709961,5.756857891845703,0.7721300354003906,-1.7633587786259541,0.21374045801526717,-1.5801526717557253
3896032290699,3.165876874,2,8.111555224609374,5.756857891845703,0.7721300354003906,-1.748091603053435,0.2366412213740458,-1.618320610687023
3896038957210,3.172543385,2,8.130708837890625,5.743689782714843,0.74699091796875,-1.748091603053435,0.19083969465648856,-1.633587786259542
3896047003928,3.180590103,2,8.262389929199218,5.76523759765625,0.7589619262695312,-1.786259541984733,0.21374045801526717,-1.6412213740458015
3896053376220,3.186962395,2,8.109161022949218,5.76523759765625,0.7254431030273437,-1.83206106870229,0.2366412213740458,-1.6488549618320612
3896059313824,3.192899999,2,8.093598712158203,5.768828900146484,0.7254431030273437,-1.83206106870229,0.2366412213740458,-1.5954198473282444
3896065658824,3.199244999,2,8.131905938720703,5.754463690185546,0.7338228088378905,-1.7633587786259541,0.13740458015267176,-1.5954198473282444
3896072301533,3.205887708,2,8.131905938720703,5.725733270263672,0.7601590270996094,-1.8015267175572518,0.2366412213740458,-1.6106870229007633
3896078998772,3.212584947,2,8.117540728759765,5.701791253662109,0.6907271789550781,-1.816793893129771,0.2824427480916031,-1.6030534351145038
3896085629710,3.219215885,2,8.091204510498047,5.722141967773437,0.7302315063476562,-1.7709923664122138,0.25190839694656486,-1.618320610687023
3896092293772,3.225879947,2,8.135497241210937,5.736507177734374,0.7757213378906249,-1.786259541984733,0.20610687022900764,-1.5877862595419847
3896098964866,3.232551041,2,8.116343627929687,5.7317187744140625,0.709880792236328,-1.717557251908397,0.2595419847328244,-1.5801526717557253
3896105629397,3.239215572,2,8.118737829589843,5.756857891845703,0.7050923889160156,-1.7786259541984732,0.21374045801526717,-1.618320610687023
3896112298772,3.245884947,2,8.123526232910155,5.772420202636718,0.7338228088378905,-1.8015267175572518,0.25190839694656486,-1.618320610687023
3896118960699,3.252546874,2,8.113949426269532,5.781997009277344,0.6763619689941406,-1.7557251908396947,0.25190839694656486,-1.5801526717557253
3896125650022,3.259236197,2,8.117540728759765,5.762843395996094,0.7134720947265625,-1.7099236641221374,0.19083969465648856,-1.5572519083969465
3896132298824,3.265884999,2,8.095992913818359,5.737704278564453,0.7481880187988281,-1.7709923664122138,0.25190839694656486,-1.618320610687023
3896138998512,3.272584687,2,8.110358123779296,5.744886883544922,0.7685387329101562,-1.7709923664122138,0.22137404580152673,-1.5725190839694656
3896145627939,3.279214114,2,8.116343627929687,5.758054992675781,0.7134720947265625,-1.717557251908397,0.21374045801526717,-1.6564885496183206
3896152295751,3.285881926,2,8.11514652709961,5.7329158752441405,0.7661445312499999,-1.7709923664122138,0.22137404580152673,-1.5801526717557253
3896158958460,3.292544635,2,8.10197841796875,5.760449194335937,0.7350199096679687,-1.7557251908396947,0.22900763358778625,-1.5801526717557253
3896165631012,3.299217187,2,7.97388862915039,5.744886883544922,0.7577648254394531,-1.7938931297709924,0.183206106870229,-1.549618320610687
3896172294970,3.305881145,2,8.12711753540039,5.760449194335937,0.699106884765625,-1.7709923664122138,0.183206106870229,-1.633587786259542
3896178955595,3.31254177,2,8.110358123779296,5.760449194335937,0.699106884765625,-1.7786259541984732,0.183206106870229,-1.5648854961832062
3896185597939,3.319184114,2,8.105569720458984,5.767631799316406,0.7422025146484375,-1.7786259541984732,0.2748091603053435,-1.5648854961832062
3896192307626,3.325893801,2,8.110358123779296,5.756857891845703,0.7338228088378905,-1.816793893129771,0.2748091603053435,-1.6106870229007633
3896198984032,3.332570207,2,8.125920434570313,5.754463690185546,0.7517793212890624,-1.7404580152671756,0.26717557251908397,-1.5954198473282444
3896205635022,3.339221197,2,8.093598712158203,5.754463690185546,0.699106884765625,-1.7404580152671756,0.25190839694656486,-1.5954198473282444
3896212319032,3.345905207,2,8.104372619628906,5.737704278564453,0.729034405517578,-1.717557251908397,0.2824427480916031,-1.5648854961832062
3896218961845,3.35254802,2,8.113949426269532,5.711368060302734,0.7362170104980469,-1.7633587786259541,0.22900763358778625,-1.5267175572519085
3896225658303,3.359244478,2,8.095992913818359,5.773617303466796,0.7110778930664062,-1.7404580152671756,0.1450381679389313,-1.6259541984732824
3896232304866,3.365891041,2,8.098387115478515,5.736507177734374,0.6847416748046875,-1.786259541984733,0.1450381679389313,-1.534351145038168
3896238983668,3.372569843,2,8.103175518798828,5.759252093505859,0.6919242797851562,-1.7328244274809161,0.183206106870229,-1.5954198473282444
3896245633407,3.379219582,2,8.123526232910155,5.742492681884765,0.7074865905761718,-1.786259541984733,0.22137404580152673,-1.5725190839694656
3896252316428,3.385902603,2,8.117540728759765,5.729324572753906,0.7038952880859375,-1.786259541984733,0.26717557251908397,-1.6259541984732824
3896258961272,3.392547447,2,8.104372619628906,5.749675286865234,0.7026981872558593,-1.7709923664122138,0.2595419847328244,-1.5801526717557253
3896265654501,3.399240676,2,8.128314636230469,5.728127471923828,0.7350199096679687,-1.6946564885496183,0.1984732824427481,-1.6030534351145038
3896272296585,3.40588276,2,8.110358123779296,5.744886883544922,0.7422025146484375,-1.7328244274809161,0.2595419847328244,-1.6030534351145038
3896278988616,3.412574791,2,8.125920434570313,5.773617303466796,0.6691793640136718,-1.7633587786259541,0.22900763358778625,-1.5572519083969465
3896285631064,3.419217239,2,8.098387115478515,5.767631799316406,0.7278373046875,-1.7404580152671756,0.20610687022900764,-1.5954198473282444
3896292322210,3.425908385,2,8.116343627929687,5.786785412597656,0.7398083129882812,-1.7633587786259541,0.21374045801526717,-1.5801526717557253
3896298964241,3.432550416,2,8.095992913818359,5.756857891845703,0.7457938171386719,-1.7328244274809161,0.22900763358778625,-1.5954198473282444
3896305665595,3.43925177,2,8.087613208007811,5.746083984375,0.7362170104980469,-1.7251908396946565,0.22900763358778625,-1.549618320610687
3896312301272,3.445887447,2,8.087613208007811,5.747281085205078,0.7433996154785156,-1.7633587786259541,0.26717557251908397,-1.6030534351145038
3896318983824,3.452569999,2,8.110358123779296,5.741295581054687,0.7386112121582031,-1.748091603053435,0.19083969465648856,-1.549618320610687
3896325631532,3.459217707,2,8.12711753540039,5.741295581054687,0.7386112121582031,-1.7404580152671756,0.22137404580152673,-1.5801526717557253
3896332317105,3.46590328,2,8.111555224609374,5.748478186035156,0.7541735229492187,-1.7328244274809161,0.2748091603053435,-1.6030534351145038
3896338959553,3.472545728,2,8.086416107177733,5.723339068603515,0.7134720947265625,-1.7328244274809161,0.2748091603053435,-1.5648854961832062
3896345652574,3.479238749,2,8.110358123779296,5.741295581054687,0.6931213806152343,-1.7557251908396947,0.2900763358778626,-1.5648854961832062
3896352295803,3.485881978,2,8.135497241210937,5.704185455322265,0.7637503295898437,-1.7786259541984732,0.2366412213740458,-1.6030534351145038
3896358982939,3.492569114,2,8.109161022949218,5.72693037109375,0.7553706237792969,-1.816793893129771,0.2366412213740458,-1.6106870229007633
3896365630439,3.499216614,2,8.123526232910155,5.772420202636718,0.7481880187988281,-1.7633587786259541,0.24427480916030533,-1.5877862595419847
3896372318564,3.505904739,2,8.131905938720703,5.768828900146484,0.718260498046875,-1.748091603053435,0.21374045801526717,-1.5038167938931297
3896378931012,3.512517187,2,8.125920434570313,5.737704278564453,0.7218518005371093,-1.6946564885496183,0.20610687022900764,-1.5725190839694656
3896385656897,3.519243072,2,8.10197841796875,5.735310076904296,0.6979097839355468,-1.7251908396946565,0.183206106870229,-1.5572519083969465
3896392295855,3.52588203,2,8.109161022949218,5.760449194335937,0.7170633972167968,-1.702290076335878,0.19083969465648856,-1.5419847328244274
3896398988928,3.532575103,2,8.112752325439452,5.746083984375,0.70868369140625,-1.7099236641221374,0.19083969465648856,-1.618320610687023
3896405629918,3.539216093,2,8.111555224609374,5.735310076904296,0.737414111328125,-1.748091603053435,0.15267175572519084,-1.6412213740458015
3896412321897,3.545908072,2,8.129511737060547,5.744886883544922,0.6931213806152343,-1.8015267175572518,0.26717557251908397,-1.5954198473282444
3896418964032,3.552550207,2,8.125920434570313,5.746083984375,0.7481880187988281,-1.7633587786259541,0.2824427480916031,-1.6412213740458015
3896425767887,3.559354062,2,8.122329132080077,5.768828900146484,0.7302315063476562,-1.786259541984733,0.2366412213740458,-1.5801526717557253
3896434346168,3.567932343,2,8.095992913818359,5.753266589355468,0.699106884765625,-1.7709923664122138,0.22900763358778625,-1.5572519083969465
3896442916845,3.57650302,2,8.10796392211914,5.7317187744140625,0.7158662963867187,-1.7557251908396947,0.20610687022900764,-1.5648854961832062
3896451367366,3.584953541,2,8.104372619628906,5.766434698486328,0.7206546997070312,-1.7557251908396947,0.22900763358778625,-1.6488549618320612
3896459857678,3.593443853,2,8.109161022949218,5.758054992675781,0.7386112121582031,-1.786259541984733,0.21374045801526717,-1.6106870229007633
3896468361012,3.601947187,2,8.116343627929687,5.748478186035156,0.7398083129882812,-1.786259541984733,0.2748091603053435,-1.6106870229007633
3896476839814,3.610425989,2,8.10197841796875,5.747281085205078,0.729034405517578,-1.816793893129771,0.2748091603053435,-1.549618320610687
3896485227418,3.618813593,2,8.122329132080077,5.768828900146484,0.7362170104980469,-1.7557251908396947,0.16793893129770993,-1.6106870229007633
3896493728407,3.627314582,2,8.124723333740233,5.742492681884765,0.7110778930664062,-1.7786259541984732,0.1984732824427481,-1.633587786259542
3896502128459,3.635714634,2,8.090007409667969,5.749675286865234,0.7266402038574218,-1.7709923664122138,0.29770992366412213,-1.618320610687023
3896510677262,3.644263437,2,8.105569720458984,5.72693037109375,0.7134720947265625,-1.83206106870229,0.2595419847328244,-1.5954198473282444
3896519137626,3.652723801,2,8.103175518798828,5.736507177734374,0.7206546997070312,-1.7404580152671756,0.22137404580152673,-1.5877862595419847
3896527590230,3.661176405,2,8.095992913818359,5.741295581054687,0.7517793212890624,-1.7557251908396947,0.20610687022900764,-1.5954198473282444
3896535044189,3.668630364,2,8.111555224609374,5.7329158752441405,0.7302315063476562,-1.7557251908396947,0.32061068702290074,-1.5954198473282444
3896542458355,3.67604453,2,8.095992913818359,5.7508723876953125,0.6919242797851562,-1.7099236641221374,0.20610687022900764,-1.5877862595419847
3896549994345,3.68358052,2,7.979874133300781,5.7700260009765625,0.7422025146484375,-1.786259541984733,0.15267175572519084,-1.6030534351145038
3896557444501,3.691030676,2,8.110358123779296,5.746083984375,0.7350199096679687,-1.8091603053435115,0.2748091603053435,-1.6488549618320612
3896564970959,3.698557134,2,8.103175518798828,5.7317187744140625,0.7445967163085937,-1.816793893129771,0.25190839694656486,-1.5572519083969465
3896572369241,3.705955416,2,8.10796392211914,5.7508723876953125,0.6847416748046875,-1.8015267175572518,0.19083969465648856,-1.5419847328244274
3896579890387,3.713476562,2,8.111555224609374,5.7700260009765625,0.7230489013671875,-1.7786259541984732,0.22900763358778625,-1.6106870229007633
3896587347887,3.720934062,2,8.116343627929687,5.777208605957031,0.7338228088378905,-1.8244274809160306,0.24427480916030533,-1.5572519083969465
3896594874293,3.728460468,2,8.112752325439452,5.759252093505859,0.7266402038574218,-1.7099236641221374,0.2824427480916031,-1.5877862595419847
3896602302157,3.735888332,2,8.10796392211914,5.754463690185546,0.7230489013671875,-1.7633587786259541,0.21374045801526717,-1.5877862595419847
3896609818564,3.743404739,2,8.111555224609374,5.7520694885253905,0.7326257080078125,-1.7786259541984732,0.2366412213740458,-1.5877862595419847
3896617269397,3.750855572,2,8.104372619628906,5.743689782714843,0.7661445312499999,-1.7709923664122138,0.24427480916030533,-1.534351145038168
3896624827939,3.758414114,2,8.112752325439452,5.741295581054687,0.7158662963867187,-1.7328244274809161,0.24427480916030533,-1.5267175572519085
3896632241793,3.765827968,2,8.103175518798828,5.7329158752441405,0.689530078125,-1.7938931297709924,0.24427480916030533,-1.5648854961832062
3896639723303,3.773309478,2,8.147468249511718,5.737704278564453,0.7026981872558593,-1.7251908396946565,0.32061068702290074,-1.618320610687023
3896647182626,3.780768801,2,8.123526232910155,5.758054992675781,0.7015010864257812,-1.7786259541984732,0.19083969465648856,-1.5801526717557253
3896654729918,3.788316093,2,7.969100225830077,5.738901379394531,0.7565677246093749,-1.7633587786259541,0.22900763358778625,-1.5725190839694656
3896662202886,3.795789061,2,8.12113203125,5.7149593627929685,0.7362170104980469,-1.7557251908396947,0.21374045801526717,-1.534351145038168
3896669731741,3.803317916,2,8.105569720458984,5.744886883544922,0.7457938171386719,-1.717557251908397,0.10687022900763359,-1.5954198473282444
3896677140959,3.810727134,2,8.11514652709961,5.760449194335937,0.7517793212890624,-1.7709923664122138,0.16030534351145037,-1.6106870229007633
3896684665282,3.818251457,2,8.12113203125,5.747281085205078,0.7505822204589844,-1.7709923664122138,0.1984732824427481,-1.618320610687023
3896692125439,3.825711614,2,8.097190014648437,5.764040496826172,0.7410054138183594,-1.7786259541984732,0.1984732824427481,-1.618320610687023
3896699610907,3.833197082,2,8.113949426269532,5.7520694885253905,0.699106884765625,-1.7251908396946565,0.2595419847328244,-1.5954198473282444
3896707013564,3.840599739,2,8.098387115478515,5.761646295166015,0.7134720947265625,-1.702290076335878,0.2748091603053435,-1.5648854961832062
3896714533043,3.848119218,2,8.095992913818359,5.76523759765625,0.7074865905761718,-1.7709923664122138,0.22900763358778625,-1.5190839694656488
3896722001011,3.855587186,2,8.098387115478515,5.783194110107422,0.7230489013671875,-1.7938931297709924,0.22137404580152673,-1.5267175572519085
3896729533199,3.863119374,2,8.104372619628906,5.761646295166015,0.7158662963867187,-1.8015267175572518,0.29770992366412213,-1.6412213740458015
3896736987886,3.870574061,2,8.11514652709961,5.758054992675781,0.7398083129882812,-1.7557251908396947,0.2824427480916031,-1.5877862595419847
3896744490647,3.878076822,2,8.093598712158203,5.748478186035156,0.7553706237792969,-1.786259541984733,0.25190839694656486,-1.6106870229007633
3896751931272,3.885517447,2,8.113949426269532,5.759252093505859,0.7146691955566405,-1.8091603053435115,0.19083969465648856,-1.5419847328244274
3896759524709,3.893110884,2,8.09479581298828,5.710170959472656,0.7278373046875,-1.7404580152671756,0.15267175572519084,-1.6030534351145038
3896766928407,3.900514582,2,8.117540728759765,5.778405706787109,0.7338228088378905,-1.7404580152671756,0.22137404580152673,-1.5877862595419847
3896774311793,3.907897968,2,8.090007409667969,5.741295581054687,0.7529764221191406,-1.7938931297709924,0.24427480916030533,-1.5801526717557253
3896781616845,3.91520302,2,8.10197841796875,5.748478186035156,0.7146691955566405,-1.786259541984733,0.2366412213740458,-1.5572519083969465
3896788971324,3.922557499,2,8.116343627929687,5.743689782714843,0.7493851196289062,-1.8015267175572518,0.25190839694656486,-1.6030534351145038
3896796291064,3.929877239,2,8.124723333740233,5.736507177734374,0.7422025146484375,-1.7633587786259541,0.16793893129770993,-1.6030534351145038
3896803596064,3.937182239,2,8.116343627929687,5.738901379394531,0.7038952880859375,-1.7709923664122138,0.2366412213740458,-1.6564885496183206
3896810952314,3.944538489,2,8.129511737060547,5.735310076904296,0.6907271789550781,-1.7404580152671756,0.21374045801526717,-1.6106870229007633
3896818369449,3.951955624,2,8.128314636230469,5.756857891845703,0.6835445739746093,-1.748091603053435,0.22137404580152673,-1.5648854961832062
3896825731480,3.959317655,2,8.112752325439452,5.743689782714843,0.7062894897460937,-1.8549618320610688,0.29770992366412213,-1.6106870229007633
3896833922209,3.967508384,2,8.129511737060547,5.737704278564453,0.729034405517578,-1.816793893129771,0.25190839694656486,-1.5954198473282444
3896842322261,3.975908436,2,8.12711753540039,5.746083984375,0.7302315063476562,-1.6870229007633588,0.22900763358778625,-1.534351145038168
3896850696845,3.98428302,2,8.119934930419921,5.7508723876953125,0.7206546997070312,-1.786259541984733,0.20610687022900764,-1.5725190839694656
3896859078043,3.992664218,2,8.12113203125,5.773617303466796,0.7242460021972655,-1.748091603053435,0.19083969465648856,-1.5419847328244274
3896867530022,4.001116197,2,8.103175518798828,5.755660791015624,0.6787561706542968,-1.748091603053435,0.2900763358778626,-1.6106870229007633
3896875851428,4.009437603,2,8.139088543701172,5.746083984375,0.6859387756347656,-1.7633587786259541,0.26717557251908397,-1.5648854961832062
3896884220126,4.017806301,2,8.125920434570313,5.7125651611328125,0.7062894897460937,-1.6793893129770991,0.3282442748091603,-1.6106870229007633
3896892509449,4.026095624,2,8.080430603027343,5.749675286865234,0.7050923889160156,-1.7328244274809161,0.25190839694656486,-1.5648854961832062
3896900874553,4.034460728,2,8.095992913818359,5.740098480224609,0.7565677246093749,-1.7557251908396947,0.24427480916030533,-1.633587786259542
3896909199657,4.042785832,2,8.137891442871092,5.722141967773437,0.7074865905761718,-1.7557251908396947,0.2900763358778626,-1.5648854961832062
3896917530282,4.051116457,2,8.112752325439452,5.738901379394531,0.719457598876953,-1.702290076335878,0.19083969465648856,-1.549618320610687
3896925856636,4.059442811,2,8.109161022949218,5.735310076904296,0.6955155822753906,-1.7328244274809161,0.24427480916030533,-1.5725190839694656
3896933434136,4.067020311,2,8.122329132080077,5.724536169433593,0.7015010864257812,-1.7709923664122138,0.1984732824427481,-1.5419847328244274
3896940825178,4.074411353,2,8.113949426269532,5.746083984375,0.7134720947265625,-1.8091603053435115,0.2595419847328244,-1.5877862595419847
3896948199657,4.081785832,2,8.273163836669921,5.735310076904296,0.70868369140625,-1.786259541984733,0.26717557251908397,-1.6030534351145038
3896955544761,4.089130936,2,8.11514652709961,5.753266589355468,0.7541735229492187,-1.7633587786259541,0.22137404580152673,-1.6030534351145038
3896962996063,4.096582238,2,8.090007409667969,5.736507177734374,0.7206546997070312,-1.717557251908397,0.2748091603053435,-1.5648854961832062
3896970369813,4.103955988,2,8.128314636230469,5.764040496826172,0.7218518005371093,-1.7557251908396947,0.26717557251908397,-1.5648854961832062
3896977674918,4.111261093,2,8.103175518798828,5.729324572753906,0.7062894897460937,-1.717557251908397,0.22137404580152673,-1.5725190839694656
3896985058616,4.118644791,2,8.119934930419921,5.761646295166015,0.7134720947265625,-1.7404580152671756,0.33587786259541985,-1.6030534351145038
3896992370282,4.125956457,2,8.128314636230469,5.741295581054687,0.7218518005371093,-1.748091603053435,0.24427480916030533,-1.633587786259542
3896999708668,4.133294843,2,8.111555224609374,5.772420202636718,0.7422025146484375,-1.7251908396946565,0.22900763358778625,-1.5648854961832062
3897007012678,4.140598853,2,8.113949426269532,5.758054992675781,0.7362170104980469,-1.6870229007633588,0.2748091603053435,-1.6106870229007633
3897014361011,4.147947186,2,8.112752325439452,5.754463690185546,0.7134720947265625,-1.7251908396946565,0.24427480916030533,-1.5725190839694656
3897021735491,4.155321666,2,8.128314636230469,5.768828900146484,0.7505822204589844,-1.702290076335878,0.1984732824427481,-1.6488549618320612
3897029114605,4.16270078,2,8.125920434570313,5.759252093505859,0.709880792236328,-1.6946564885496183,0.21374045801526717,-1.6106870229007633
3897036499136,4.170085311,2,8.111555224609374,5.776011505126953,0.7026981872558593,-1.786259541984733,0.22137404580152673,-1.6030534351145038
3897043872782,4.177458957,2,8.117540728759765,5.746083984375,0.7266402038574218,-1.7328244274809161,0.25190839694656486,-1.5954198473282444
3897051215855,4.18480203,2,8.103175518798828,5.754463690185546,0.7314286071777343,-1.7709923664122138,0.3053435114503817,-1.6412213740458015
3897058536532,4.192122707,2,8.12711753540039,5.741295581054687,0.7841010437011718,-1.7633587786259541,0.16030534351145037,-1.6793893129770991
3897065846740,4.199432915,2,8.116343627929687,5.741295581054687,0.7457938171386719,-1.7557251908396947,0.24427480916030533,-1.6106870229007633
3897073132209,4.206718384,2,8.123526232910155,5.747281085205078,0.7026981872558593,-1.786259541984733,0.22900763358778625,-1.5572519083969465
3897080497470,4.214083645,2,8.0828248046875,5.761646295166015,0.7422025146484375,-1.7557251908396947,0.2595419847328244,-1.5801526717557253
3897087809397,4.221395572,2,8.129511737060547,5.7508723876953125,0.7709329345703124,-1.7633587786259541,0.24427480916030533,-1.5572519083969465
3897095146063,4.228732238,2,8.099584216308592,5.7520694885253905,0.6955155822753906,-1.7786259541984732,0.22900763358778625,-1.5801526717557253
3897102511793,4.236097968,2,8.113949426269532,5.747281085205078,0.718260498046875,-1.7709923664122138,0.19083969465648856,-1.5725190839694656
3897109818147,4.243404322,2,8.081627703857421,5.756857891845703,0.7481880187988281,-1.83206106870229,0.2595419847328244,-1.5954198473282444
3897117157313,4.250743488,2,8.113949426269532,5.761646295166015,0.7314286071777343,-1.8015267175572518,0.22137404580152673,-1.618320610687023
3897124473303,4.258059478,2,8.117540728759765,5.761646295166015,0.7230489013671875,-1.7328244274809161,0.29770992366412213,-1.549618320610687
3897131787418,4.265373593,2,8.122329132080077,5.755660791015624,0.7266402038574218,-1.7251908396946565,0.3511450381679389,-1.5801526717557253
3897139153720,4.272739895,2,8.112752325439452,5.758054992675781,0.7422025146484375,-1.7633587786259541,0.21374045801526717,-1.5648854961832062
3897146481480,4.280067655,2,8.103175518798828,5.749675286865234,0.7493851196289062,-1.7938931297709924,0.2595419847328244,-1.5801526717557253
3897153802730,4.287388905,2,8.103175518798828,5.758054992675781,0.7649474304199219,-1.7633587786259541,0.26717557251908397,-1.5419847328244274
3897161143199,4.294729374,2,8.098387115478515,5.764040496826172,0.737414111328125,-1.7557251908396947,0.21374045801526717,-1.5801526717557253
3897168462522,4.302048697,2,8.12711753540039,5.764040496826172,0.737414111328125,-1.7557251908396947,0.2824427480916031,-1.5419847328244274
3897175786168,4.309372343,2,8.086416107177733,5.781997009277344,0.7266402038574218,-1.7251908396946565,0.31297709923664124,-1.5419847328244274
3897183133407,4.316719582,2,8.112752325439452,5.742492681884765,0.6943184814453125,-1.7099236641221374,0.21374045801526717,-1.5877862595419847
3897190519240,4.324105415,2,8.11514652709961,5.7520694885253905,0.7422025146484375,-1.6870229007633588,0.25190839694656486,-1.6030534351145038
3897197836011,4.331422186,2,8.105569720458984,5.779602807617187,0.719457598876953,-1.748091603053435,0.25190839694656486,-1.5572519083969465
3897205159501,4.338745676,2,8.122329132080077,5.773617303466796,0.7577648254394531,-1.7557251908396947,0.3053435114503817,-1.618320610687023
3897212474918,4.346061093,2,8.145074047851562,5.748478186035156,0.7338228088378905,-1.7557251908396947,0.31297709923664124,-1.6412213740458015
3897219792678,4.353378853,2,8.10796392211914,5.7508723876953125,0.7314286071777343,-1.7251908396946565,0.25190839694656486,-1.6412213740458015
3897227068459,4.360654634,2,8.122329132080077,5.76523759765625,0.74699091796875,-1.6946564885496183,0.16793893129770993,-1.5725190839694656
3897234547157,4.368133332,2,8.117540728759765,5.740098480224609,0.6943184814453125,-1.7786259541984732,0.16793893129770993,-1.633587786259542
3897241903824,4.375489999,2,8.105569720458984,5.7329158752441405,0.7338228088378905,-1.83206106870229,0.17557251908396945,-1.5801526717557253
3897249241272,4.382827447,2,8.084021905517577,5.735310076904296,0.7170633972167968,-1.7786259541984732,0.21374045801526717,-1.6030534351145038
3897256554501,4.390140676,2,8.125920434570313,5.742492681884765,0.719457598876953,-1.7709923664122138,0.21374045801526717,-1.5725190839694656
3897263894345,4.39748052,2,8.113949426269532,5.725733270263672,0.7326257080078125,-1.7633587786259541,0.17557251908396945,-1.5190839694656488
3897271287105,4.40487328,2,8.12113203125,5.747281085205078,0.7445967163085937,-1.7557251908396947,0.2748091603053435,-1.5267175572519085
3897278606063,4.412192238,2,8.100781317138672,5.741295581054687,0.7314286071777343,-1.7404580152671756,0.25190839694656486,-1.5877862595419847
3897285913928,4.419500103,2,8.12113203125,5.767631799316406,0.7637503295898437,-1.7709923664122138,0.183206106870229,-1.5877862595419847
3897293222470,4.426808645,2,8.09479581298828,5.759252093505859,0.7158662963867187,-1.7709923664122138,0.2366412213740458,-1.5954198473282444
3897300546740,4.434132915,2,8.128314636230469,5.740098480224609,0.7553706237792969,-1.7786259541984732,0.24427480916030533,-1.633587786259542
3897307852313,4.441438488,2,8.154650854492187,5.749675286865234,0.7122749938964843,-1.748091603053435,0.1984732824427481,-1.6106870229007633
3897315216636,4.448802811,2,8.105569720458984,5.747281085205078,0.7242460021972655,-1.7251908396946565,0.16793893129770993,-1.5954198473282444
3897322561115,4.45614729,2,8.106766821289062,5.768828900146484,0.6955155822753906,-1.7099236641221374,0.22900763358778625,-1.618320610687023
3897329914136,4.463500311,2,8.092401611328125,5.747281085205078,0.7254431030273437,-1.6870229007633588,0.2595419847328244,-1.5648854961832062
3897337250022,4.470836197,2,8.06965669555664,5.77122310180664,0.7314286071777343,-1.7099236641221374,0.20610687022900764,-1.5954198473282444
3897344567470,4.478153645,2,8.106766821289062,5.7329158752441405,0.718260498046875,-1.6946564885496183,0.183206106870229,-1.5801526717557253
3897351957313,4.485543488,2,8.093598712158203,5.736507177734374,0.7433996154785156,-1.6870229007633588,0.24427480916030533,-1.5877862595419847
3897359306011,4.492892186,2,8.11514652709961,5.754463690185546,0.729034405517578,-1.7557251908396947,0.1984732824427481,-1.5419847328244274
3897366664292,4.500250467,2,8.12113203125,5.729324572753906,0.719457598876953,-1.6946564885496183,0.2366412213740458,-1.5801526717557253
3897373986324,4.507572499,2,8.117540728759765,5.7329158752441405,0.6967126831054687,-1.8015267175572518,0.26717557251908397,-1.633587786259542
3897381319917,4.514906092,2,8.109161022949218,5.737704278564453,0.7326257080078125,-1.8244274809160306,0.1984732824427481,-1.5419847328244274
3897388667938,4.522254113,2,8.135497241210937,5.723339068603515,0.7254431030273437,-1.7557251908396947,0.22137404580152673,-1.6106870229007633
3897395989032,4.529575207,2,8.110358123779296,5.728127471923828,0.7158662963867187,-1.7709923664122138,0.2748091603053435,-1.6259541984732824
3897403285647,4.536871822,2,8.100781317138672,5.7329158752441405,0.718260498046875,-1.717557251908397,0.183206106870229,-1.633587786259542
3897410715438,4.544301613,2,8.100781317138672,5.743689782714843,0.718260498046875,-1.6870229007633588,0.21374045801526717,-1.6106870229007633
3897418033615,4.55161979,2,8.105569720458984,5.747281085205078,0.7398083129882812,-1.7328244274809161,0.25190839694656486,-1.5190839694656488
3897425311376,4.558897551,2,8.12113203125,5.744886883544922,0.718260498046875,-1.7404580152671756,0.22900763358778625,-1.5954198473282444
3897432672157,4.566258332,2,8.116343627929687,5.7317187744140625,0.7230489013671875,-1.7251908396946565,0.2824427480916031,-1.5648854961832062
3897439977209,4.573563384,2,8.113949426269532,5.724536169433593,0.7050923889160156,-1.748091603053435,0.29770992366412213,-1.534351145038168
3897447359917,4.580946092,2,8.124723333740233,5.762843395996094,0.7134720947265625,-1.748091603053435,0.19083969465648856,-1.534351145038168
3897454733407,4.588319582,2,8.11514652709961,5.737704278564453,0.729034405517578,-1.748091603053435,0.22137404580152673,-1.633587786259542
3897462093772,4.595679947,2,8.112752325439452,5.776011505126953,0.7326257080078125,-1.7557251908396947,0.3053435114503817,-1.6030534351145038
3897469392678,4.602978853,2,8.109161022949218,5.766434698486328,0.719457598876953,-1.7404580152671756,0.183206106870229,-1.6793893129770991
3897476703355,4.61028953,2,8.106766821289062,5.7520694885253905,0.7338228088378905,-1.7404580152671756,0.1984732824427481,-1.5801526717557253
3897484088511,4.617674686,2,8.119934930419921,5.7700260009765625,0.7422025146484375,-1.7633587786259541,0.2366412213740458,-1.618320610687023
3897491398615,4.62498479,2,8.129511737060547,5.776011505126953,0.7158662963867187,-1.748091603053435,0.25190839694656486,-1.6564885496183206
3897498741636,4.632327811,2,8.113949426269532,5.761646295166015,0.70868369140625,-1.748091603053435,0.25190839694656486,-1.5877862595419847
3897506087261,4.639673436,2,8.093598712158203,5.786785412597656,0.7326257080078125,-1.7786259541984732,0.22900763358778625,-1.5725190839694656
3897513435490,4.647021665,2,8.09479581298828,5.7891796142578125,0.7206546997070312,-1.8015267175572518,0.2366412213740458,-1.5648854961832062
3897520822105,4.65440828,2,8.124723333740233,5.76523759765625,0.7278373046875,-1.7786259541984732,0.25190839694656486,-1.5038167938931297
3897528153980,4.661740155,2,8.271966735839843,5.738901379394531,0.7433996154785156,-1.7404580152671756,0.183206106870229,-1.5267175572519085
3897535520542,4.669106717,2,8.119934930419921,5.741295581054687,0.719457598876953,-1.7251908396946565,0.25190839694656486,-1.549618320610687
3897542896115,4.67648229,2,8.118737829589843,5.76523759765625,0.7158662963867187,-1.748091603053435,0.25190839694656486,-1.5801526717557253
3897550237626,4.683823801,2,8.125920434570313,5.764040496826172,0.6907271789550781,-1.816793893129771,0.25190839694656486,-1.5419847328244274
3897557544605,4.69113078,2,8.14627114868164,5.734112976074218,0.7326257080078125,-1.8015267175572518,0.2900763358778626,-1.618320610687023
3897564892990,4.698479165,2,8.113949426269532,5.761646295166015,0.6596025573730468,-1.7633587786259541,0.22137404580152673,-1.5572519083969465
3897572208199,4.705794374,2,8.116343627929687,5.777208605957031,0.6967126831054687,-1.7557251908396947,0.1984732824427481,-1.549618320610687
3897579521063,4.713107238,2,8.090007409667969,5.759252093505859,0.7338228088378905,-1.7709923664122138,0.26717557251908397,-1.6030534351145038
3897586909969,4.720496144,2,8.105569720458984,5.740098480224609,0.7206546997070312,-1.7938931297709924,0.1450381679389313,-1.5038167938931297
3897594266897,4.727853072,2,8.104372619628906,5.746083984375,0.7445967163085937,-1.7404580152671756,0.1297709923664122,-1.5725190839694656
3897601617990,4.735204165,2,8.119934930419921,5.7700260009765625,0.7038952880859375,-1.7786259541984732,0.1984732824427481,-1.5801526717557253
3897608967157,4.742553332,2,8.103175518798828,5.768828900146484,0.7218518005371093,-1.7938931297709924,0.2595419847328244,-1.618320610687023
3897616304188,4.749890363,2,8.131905938720703,5.749675286865234,0.6919242797851562,-1.7938931297709924,0.22900763358778625,-1.5267175572519085
3897623606480,4.757192655,2,8.090007409667969,5.780799908447265,0.7529764221191406,-1.7251908396946565,0.32061068702290074,-1.5725190839694656
3897630991167,4.764577342,2,8.070853796386718,5.753266589355468,0.729034405517578,-1.717557251908397,0.25190839694656486,-1.5725190839694656
3897638333824,4.771919999,2,8.113949426269532,5.758054992675781,0.7230489013671875,-1.7404580152671756,0.3435114503816794,-1.5419847328244274
3897645655386,4.779241561,2,8.12711753540039,5.761646295166015,0.7242460021972655,-1.7404580152671756,0.24427480916030533,-1.5801526717557253
3897652979865,4.78656604,2,8.124723333740233,5.761646295166015,0.7003039855957031,-1.748091603053435,0.26717557251908397,-1.6106870229007633
3897660266272,4.793852447,2,8.104372619628906,5.735310076904296,0.7062894897460937,-1.7709923664122138,0.25190839694656486,-1.5801526717557253
3897667589813,4.801175988,2,8.111555224609374,5.740098480224609,0.7350199096679687,-1.7709923664122138,0.21374045801526717,-1.6030534351145038
3897674937053,4.808523228,2,8.106766821289062,5.7329158752441405,0.7517793212890624,-1.7938931297709924,0.21374045801526717,-1.5419847328244274
3897682303772,4.815889947,2,8.084021905517577,5.7329158752441405,0.7493851196289062,-1.786259541984733,0.2595419847328244,-1.6030534351145038
3897689600230,4.823186405,2,8.117540728759765,5.7508723876953125,0.709880792236328,-1.7557251908396947,0.1984732824427481,-1.5877862595419847
3897696925230,4.830511405,2,8.098387115478515,5.759252093505859,0.6883329772949218,-1.7404580152671756,0.2748091603053435,-1.633587786259542
3897704272105,4.83785828,2,8.104372619628906,5.766434698486328,0.7218518005371093,-1.748091603053435,0.22137404580152673,-1.5954198473282444
3897711593667,4.845179842,2,8.110358123779296,5.753266589355468,0.7577648254394531,-1.7099236641221374,0.19083969465648856,-1.5725190839694656
3897718917313,4.852503488,2,8.103175518798828,5.741295581054687,0.7218518005371093,-1.748091603053435,0.22900763358778625,-1.5954198473282444
3897726247209,4.859833384,2,8.11514652709961,5.772420202636718,0.6823474731445313,-1.7557251908396947,0.24427480916030533,-1.633587786259542
3897733600178,4.867186353,2,8.106766821289062,5.756857891845703,0.6727706665039062,-1.7709923664122138,0.13740458015267176,-1.6259541984732824
3897740924865,4.87451104,2,8.112752325439452,5.759252093505859,0.7517793212890624,-1.7557251908396947,0.2595419847328244,-1.4809160305343512
3897748297313,4.881883488,2,8.099584216308592,5.747281085205078,0.7529764221191406,-1.7328244274809161,0.2366412213740458,-1.5190839694656488
3897755594865,4.88918104,2,8.118737829589843,5.741295581054687,0.7386112121582031,-1.7328244274809161,0.183206106870229,-1.5725190839694656
3897763040230,4.896626405,2,8.118737829589843,5.778405706787109,0.7302315063476562,-1.7557251908396947,0.2595419847328244,-1.6030534351145038
3897770415646,4.904001821,2,8.12113203125,5.7508723876953125,0.7350199096679687,-1.786259541984733,0.2366412213740458,-1.5954198473282444
3897777777574,4.911363749,2,8.098387115478515,5.744886883544922,0.7158662963867187,-1.7557251908396947,0.1984732824427481,-1.5801526717557253
3897785147157,4.918733332,2,8.125920434570313,5.716156463623046,0.7170633972167968,-1.7557251908396947,0.22900763358778625,-1.6641221374045803
3897792488980,4.926075155,2,8.100781317138672,5.7520694885253905,0.7745242370605468,-1.702290076335878,0.2366412213740458,-1.6564885496183206
3897799787261,4.933373436,2,8.110358123779296,5.761646295166015,0.7314286071777343,-1.83206106870229,0.31297709923664124,-1.6412213740458015
3897807127730,4.940713905,2,8.103175518798828,5.780799908447265,0.7433996154785156,-1.83206106870229,0.2366412213740458,-1.633587786259542
3897814494084,4.948080259,2,8.10796392211914,5.76523759765625,0.7110778930664062,-1.7404580152671756,0.183206106870229,-1.5725190839694656
3897821803199,4.955389374,2,8.112752325439452,5.761646295166015,0.719457598876953,-1.8015267175572518,0.31297709923664124,-1.5877862595419847
3897829256063,4.962842238,2,8.128314636230469,5.738901379394531,0.7302315063476562,-1.7709923664122138,0.183206106870229,-1.5877862595419847
3897836648303,4.970234478,2,8.093598712158203,5.759252093505859,0.7637503295898437,-1.748091603053435,0.22900763358778625,-1.6641221374045803
3897843865230,4.977451405,2,8.104372619628906,5.741295581054687,0.7266402038574218,-1.786259541984733,0.25190839694656486,-1.618320610687023
3897851344605,4.98493078,2,8.11514652709961,5.730521673583984,0.729034405517578,-1.702290076335878,0.22137404580152673,-1.5648854961832062
3897858724188,4.992310363,2,8.10796392211914,5.7700260009765625,0.7314286071777343,-1.7633587786259541,0.2595419847328244,-1.5572519083969465
3897866035751,4.999621926,2,8.129511737060547,5.766434698486328,0.7637503295898437,-1.7251908396946565,0.2748091603053435,-1.6488549618320612
3897873355646,5.006941821,2,8.111555224609374,5.7508723876953125,0.7326257080078125,-1.8015267175572518,0.22137404580152673,-1.5877862595419847
3897880688146,5.014274321,2,8.10796392211914,5.740098480224609,0.7170633972167968,-1.748091603053435,0.25190839694656486,-1.5572519083969465
3897887996324,5.021582499,2,8.111555224609374,5.746083984375,0.7230489013671875,-1.702290076335878,0.3282442748091603,-1.6106870229007633
3897895337105,5.02892328,2,8.128314636230469,5.76523759765625,0.7026981872558593,-1.7709923664122138,0.22137404580152673,-1.5954198473282444
3897902679865,5.03626604,2,8.12711753540039,5.762843395996094,0.7338228088378905,-1.7633587786259541,0.22137404580152673,-1.6259541984732824
3897909996896,5.043583071,2,8.130708837890625,5.746083984375,0.7278373046875,-1.717557251908397,0.2900763358778626,-1.5648854961832062
3897917325542,5.050911717,2,8.11514652709961,5.77122310180664,0.7601590270996094,-1.7404580152671756,0.183206106870229,-1.6030534351145038
3897924661844,5.058248019,2,8.111555224609374,5.764040496826172,0.6943184814453125,-1.786259541984733,0.2824427480916031,-1.6030534351145038
3897932101792,5.065687967,2,8.09479581298828,5.7329158752441405,0.7003039855957031,-1.7709923664122138,0.1450381679389313,-1.6106870229007633
3897939413823,5.072999998,2,8.10796392211914,5.717353564453124,0.7350199096679687,-1.7251908396946565,0.19083969465648856,-1.5801526717557253
3897946776636,5.080362811,2,8.091204510498047,5.742492681884765,0.7649474304199219,-1.7404580152671756,0.21374045801526717,-1.5877862595419847
3897954105855,5.08769203,2,8.10796392211914,5.7520694885253905,0.6727706665039062,-1.7786259541984732,0.22137404580152673,-1.5954198473282444
3897961414605,5.09500078,2,8.128314636230469,5.723339068603515,0.7589619262695312,-1.7709923664122138,0.2824427480916031,-1.5725190839694656
3897968702365,5.10228854,2,8.097190014648437,5.753266589355468,0.729034405517578,-1.83206106870229,0.1984732824427481,-1.5572519083969465
3897976065126,5.109651301,2,8.12711753540039,5.7508723876953125,0.70868369140625,-1.748091603053435,0.17557251908396945,-1.618320610687023
3897983360438,5.116946613,2,8.103175518798828,5.755660791015624,0.7230489013671875,-1.7404580152671756,0.3435114503816794,-1.549618320610687
3897990650907,5.124237082,2,8.131905938720703,5.719747766113281,0.7206546997070312,-1.7404580152671756,0.3053435114503817,-1.618320610687023
3897997978146,5.131564321,2,8.125920434570313,5.718550665283203,0.7230489013671875,-1.7633587786259541,0.2366412213740458,-1.618320610687023
3898005446636,5.139032811,2,8.11514652709961,5.746083984375,0.7062894897460937,-1.7557251908396947,0.32061068702290074,-1.6412213740458015
3898013455959,5.147042134,2,8.08881030883789,5.734112976074218,0.7230489013671875,-1.7404580152671756,0.22137404580152673,-1.5725190839694656
3898020714709,5.154300884,2,8.111555224609374,5.7317187744140625,0.7230489013671875,-1.7099236641221374,0.22900763358778625,-1.534351145038168
3898027886011,5.161472186,2,8.092401611328125,5.749675286865234,0.718260498046875,-1.6870229007633588,0.26717557251908397,-1.5725190839694656
3898035318615,5.16890479,2,8.106766821289062,5.741295581054687,0.7110778930664062,-1.7328244274809161,0.19083969465648856,-1.549618320610687
3898042604657,5.176190832,2,8.100781317138672,5.7520694885253905,0.7218518005371093,-1.7709923664122138,0.1984732824427481,-1.5954198473282444
3898049873771,5.183459946,2,8.10796392211914,5.740098480224609,0.7553706237792969,-1.7938931297709924,0.29770992366412213,-1.5572519083969465
3898057238094,5.190824269,2,8.125920434570313,5.7520694885253905,0.7302315063476562,-1.748091603053435,0.22137404580152673,-1.5801526717557253
3898064552782,5.198138957,2,8.10197841796875,5.743689782714843,0.7529764221191406,-1.7404580152671756,0.24427480916030533,-1.6030534351145038
3898071910803,5.205496978,2,8.12711753540039,5.761646295166015,0.7362170104980469,-1.8091603053435115,0.1297709923664122,-1.5572519083969465
3898079258355,5.21284453,2,8.135497241210937,5.768828900146484,0.7050923889160156,-1.7786259541984732,0.19083969465648856,-1.5648854961832062
3898086597886,5.220184061,2,8.131905938720703,5.742492681884765,0.7062894897460937,-1.748091603053435,0.26717557251908397,-1.465648854961832
3898093880542,5.227466717,2,8.105569720458984,5.766434698486328,0.7350199096679687,-1.7938931297709924,0.183206106870229,-1.5267175572519085
3898101162990,5.234749165,2,8.109161022949218,5.756857891845703,0.6584054565429687,-1.748091603053435,0.29770992366412213,-1.5801526717557253
3898108481428,5.242067603,2,8.116343627929687,5.735310076904296,0.6703764648437499,-1.7786259541984732,0.31297709923664124,-1.5648854961832062
3898115786271,5.249372446,2,8.125920434570313,5.754463690185546,0.7110778930664062,-1.7709923664122138,0.16030534351145037,-1.5267175572519085
3898123118511,5.256704686,2,8.116343627929687,5.746083984375,0.7254431030273437,-1.786259541984733,0.2366412213740458,-1.5419847328244274
3898130480073,5.264066248,2,8.12711753540039,5.741295581054687,0.7601590270996094,-1.7328244274809161,0.24427480916030533,-1.5419847328244274
3898137797678,5.271383853,2,8.139088543701172,5.737704278564453,0.6967126831054687,-1.7328244274809161,0.17557251908396945,-1.5038167938931297
3898145153198,5.278739373,2,8.125920434570313,5.7520694885253905,0.7505822204589844,-1.7328244274809161,0.2748091603053435,-1.6030534351145038
3898152471167,5.286057342,2,8.128314636230469,5.7329158752441405,0.7110778930664062,-1.7328244274809161,0.31297709923664124,-1.5725190839694656
3898159793719,5.293379894,2,8.117540728759765,5.760449194335937,0.7302315063476562,-1.7709923664122138,0.11450381679389313,-1.5801526717557253
3898167144084,5.300730259,2,8.105569720458984,5.762843395996094,0.7302315063476562,-1.7633587786259541,0.21374045801526717,-1.5648854961832062
3898174985230,5.308571405,2,8.11514652709961,5.76523759765625,0.7493851196289062,-1.7709923664122138,0.22137404580152673,-1.5725190839694656
3898182373980,5.315960155,2,8.117540728759765,5.755660791015624,0.7637503295898437,-1.7709923664122138,0.1450381679389313,-1.5267175572519085
3898189716115,5.32330229,2,8.112752325439452,5.7508723876953125,0.7218518005371093,-1.8015267175572518,0.2366412213740458,-1.5267175572519085
3898197036844,5.330623019,2,8.100781317138672,5.753266589355468,0.7457938171386719,-1.7786259541984732,0.1984732824427481,-1.5801526717557253
3898204334136,5.337920311,2,8.085219006347655,5.746083984375,0.7637503295898437,-1.717557251908397,0.2900763358778626,-1.5572519083969465
3898211684553,5.345270728,2,8.116343627929687,5.761646295166015,0.7386112121582031,-1.7404580152671756,0.2824427480916031,-1.5419847328244274
3898218941428,5.352527603,2,8.117540728759765,5.746083984375,0.7254431030273437,-1.7709923664122138,0.22137404580152673,-1.5725190839694656
3898226303094,5.359889269,2,8.123526232910155,5.776011505126953,0.7517793212890624,-1.717557251908397,0.2748091603053435,-1.5648854961832062
3898233692625,5.3672788,2,8.093598712158203,5.759252093505859,0.718260498046875,-1.786259541984733,0.25190839694656486,-1.5725190839694656
3898241030125,5.3746163,2,8.111555224609374,5.758054992675781,0.7254431030273437,-1.7557251908396947,0.20610687022900764,-1.5648854961832062
3898248404657,5.381990832,2,8.110358123779296,5.740098480224609,0.7661445312499999,-1.7328244274809161,0.32061068702290074,-1.6488549618320612
3898255731480,5.389317655,2,8.106766821289062,5.753266589355468,0.7218518005371093,-1.7557251908396947,0.2366412213740458,-1.5419847328244274
3898263152261,5.396738436,2,8.124723333740233,5.735310076904296,0.74699091796875,-1.7099236641221374,0.15267175572519084,-1.618320610687023
3898270527938,5.404114113,2,8.113949426269532,5.7329158752441405,0.718260498046875,-1.6870229007633588,0.2824427480916031,-1.6259541984732824
3898277841844,5.411428019,2,8.119934930419921,5.7508723876953125,0.6919242797851562,-1.748091603053435,0.22900763358778625,-1.6030534351145038
3898285218615,5.41880479,2,8.131905938720703,5.760449194335937,0.718260498046875,-1.717557251908397,0.1984732824427481,-1.6259541984732824
3898292483250,5.426069425,2,8.128314636230469,5.761646295166015,0.7134720947265625,-1.6870229007633588,0.3053435114503817,-1.6030534351145038
3898299719292,5.433305467,2,8.111555224609374,5.7508723876953125,0.7003039855957031,-1.786259541984733,0.22137404580152673,-1.6641221374045803
3898306984500,5.440570675,2,8.118737829589843,5.744886883544922,0.7062894897460937,-1.7099236641221374,0.1984732824427481,-1.5648854961832062
3898314330907,5.447917082,2,8.091204510498047,5.740098480224609,0.7445967163085937,-1.748091603053435,0.2748091603053435,-1.5877862595419847
3898321629500,5.455215675,2,8.134300140380859,5.774814404296874,0.74699091796875,-1.786259541984733,0.22137404580152673,-1.549618320610687
3898328967000,5.462553175,2,8.14627114868164,5.797559320068359,0.6943184814453125,-1.7709923664122138,0.2595419847328244,-1.5877862595419847
3898336297105,5.46988328,2,8.109161022949218,5.7329158752441405,0.7386112121582031,-1.7938931297709924,0.31297709923664124,-1.5954198473282444
3898343596219,5.477182394,2,8.103175518798828,5.737704278564453,0.7517793212890624,-1.8015267175572518,0.22137404580152673,-1.5877862595419847
3898350932625,5.4845188,2,8.116343627929687,5.749675286865234,0.6691793640136718,-1.7633587786259541,0.26717557251908397,-1.5877862595419847
3898358298042,5.491884217,2,8.106766821289062,5.742492681884765,0.6847416748046875,-1.7251908396946565,0.1450381679389313,-1.5725190839694656
3898365600646,5.499186821,2,8.128314636230469,5.747281085205078,0.6967126831054687,-1.6793893129770991,0.22137404580152673,-1.618320610687023
3898372939917,5.506526092,2,8.131905938720703,5.740098480224609,0.7529764221191406,-1.7404580152671756,0.2900763358778626,-1.6412213740458015
3898380205750,5.513791925,2,8.105569720458984,5.744886883544922,0.74699091796875,-1.7328244274809161,0.20610687022900764,-1.5801526717557253
3898387516063,5.521102238,2,8.116343627929687,5.734112976074218,0.7242460021972655,-1.7633587786259541,0.29770992366412213,-1.633587786259542
3898394878511,5.528464686,2,8.111555224609374,5.7520694885253905,0.7158662963867187,-1.7328244274809161,0.2366412213740458,-1.5725190839694656
3898402184813,5.535770988,2,8.123526232910155,5.748478186035156,0.7326257080078125,-1.7709923664122138,0.16793893129770993,-1.5725190839694656
3898409506115,5.54309229,2,8.095992913818359,5.716156463623046,0.7218518005371093,-1.717557251908397,0.2900763358778626,-1.6030534351145038
3898416838927,5.550425102,2,8.125920434570313,5.753266589355468,0.7206546997070312,-1.786259541984733,0.2824427480916031,-1.5725190839694656
3898424146063,5.557732238,2,8.093598712158203,5.762843395996094,0.6979097839355468,-1.786259541984733,0.21374045801526717,-1.5954198473282444
3898431377313,5.564963488,2,8.135497241210937,5.753266589355468,0.6955155822753906,-1.8091603053435115,0.3053435114503817,-1.5725190839694656
3898438722886,5.572309061,2,8.106766821289062,5.737704278564453,0.7026981872558593,-1.786259541984733,0.1984732824427481,-1.5725190839694656
3898446023511,5.579609686,2,8.073247998046874,5.755660791015624,0.7517793212890624,-1.7709923664122138,0.183206106870229,-1.5725190839694656
3898453339396,5.586925571,2,8.097190014648437,5.7125651611328125,0.7649474304199219,-1.8396946564885497,0.2900763358778626,-1.5954198473282444
3898460664552,5.594250727,2,8.099584216308592,5.725733270263672,0.7074865905761718,-1.7786259541984732,0.2366412213740458,-1.6106870229007633
3898467926688,5.601512863,2,8.111555224609374,5.759252093505859,0.7398083129882812,-1.748091603053435,0.16030534351145037,-1.5419847328244274
3898475303980,5.608890155,2,8.15345375366211,5.758054992675781,0.699106884765625,-1.748091603053435,0.2824427480916031,-1.4732824427480915
3898482573980,5.616160155,2,8.125920434570313,5.754463690185546,0.7314286071777343,-1.786259541984733,0.19083969465648856,-1.534351145038168
3898489903875,5.62349005,2,8.105569720458984,5.766434698486328,0.7158662963867187,-1.7938931297709924,0.19083969465648856,-1.5877862595419847
3898497239969,5.630826144,2,8.099584216308592,5.753266589355468,0.74699091796875,-1.7786259541984732,0.25190839694656486,-1.6259541984732824
3898504536115,5.63812229,2,8.099584216308592,5.7520694885253905,0.7613561279296874,-1.7633587786259541,0.20610687022900764,-1.4961832061068703
3898511820021,5.645406196,2,8.092401611328125,5.758054992675781,0.7026981872558593,-1.748091603053435,0.32061068702290074,-1.5954198473282444
3898519142052,5.652728227,2,8.093598712158203,5.746083984375,0.7565677246093749,-1.7938931297709924,0.22137404580152673,-1.549618320610687
3898526521167,5.660107342,2,8.130708837890625,5.761646295166015,0.7062894897460937,-1.7786259541984732,0.17557251908396945,-1.618320610687023
3898533868563,5.667454738,2,8.104372619628906,5.743689782714843,0.7134720947265625,-1.7557251908396947,0.25190839694656486,-1.6412213740458015
3898541203355,5.67478953,2,8.109161022949218,5.760449194335937,0.7266402038574218,-1.786259541984733,0.1984732824427481,-1.6259541984732824
3898548518771,5.682104946,2,8.124723333740233,5.7700260009765625,0.7134720947265625,-1.7786259541984732,0.2748091603053435,-1.6030534351145038
3898555818563,5.689404738,2,8.111555224609374,5.753266589355468,0.719457598876953,-1.7938931297709924,0.3511450381679389,-1.6030534351145038
3898563136948,5.696723123,2,8.106766821289062,5.7700260009765625,0.7481880187988281,-1.7633587786259541,0.183206106870229,-1.5419847328244274
3898570504396,5.704090571,2,8.131905938720703,5.779602807617187,0.6967126831054687,-1.748091603053435,0.24427480916030533,-1.5954198473282444
3898577798355,5.71138453,2,8.116343627929687,5.760449194335937,0.7781155395507812,-1.7786259541984732,0.2824427480916031,-1.5725190839694656
3898585231896,5.718818071,2,8.092401611328125,5.762843395996094,0.6859387756347656,-1.7938931297709924,0.1984732824427481,-1.5725190839694656
3898592540490,5.726126665,2,8.090007409667969,5.754463690185546,0.7003039855957031,-1.7786259541984732,0.1984732824427481,-1.5877862595419847
3898599873354,5.733459529,2,8.09479581298828,5.7508723876953125,0.7206546997070312,-1.7709923664122138,0.2748091603053435,-1.5801526717557253
3898607192990,5.740779165,2,8.147468249511718,5.749675286865234,0.7254431030273437,-1.7557251908396947,0.17557251908396945,-1.549618320610687
3898614536427,5.748122602,2,8.14627114868164,5.777208605957031,0.7445967163085937,-1.748091603053435,0.2824427480916031,-1.549618320610687
3898621845907,5.755432082,2,8.119934930419921,5.776011505126953,0.7422025146484375,-1.7709923664122138,0.29770992366412213,-1.5877862595419847
3898629145907,5.762732082,2,8.105569720458984,5.759252093505859,0.7015010864257812,-1.7786259541984732,0.22137404580152673,-1.5801526717557253
3898636513667,5.770099842,2,8.122329132080077,5.725733270263672,0.7278373046875,-1.748091603053435,0.15267175572519084,-1.618320610687023
3898643769917,5.777356092,2,8.118737829589843,5.764040496826172,0.737414111328125,-1.7557251908396947,0.22137404580152673,-1.5648854961832062
3898651108771,5.784694946,2,8.124723333740233,5.766434698486328,0.7278373046875,-1.717557251908397,0.24427480916030533,-1.6106870229007633
3898658484292,5.792070467,2,8.10197841796875,5.743689782714843,0.7350199096679687,-1.6564885496183206,0.2595419847328244,-1.5725190839694656
3898665882365,5.79946854,2,8.137891442871092,5.756857891845703,0.7721300354003906,-1.7786259541984732,0.15267175572519084,-1.5801526717557253
3898673217990,5.806804165,2,8.109161022949218,5.730521673583984,0.7314286071777343,-1.7557251908396947,0.26717557251908397,-1.5572519083969465
3898680488146,5.814074321,2,8.130708837890625,5.742492681884765,0.7529764221191406,-1.7328244274809161,0.29770992366412213,-1.5954198473282444
3898687729865,5.82131604,2,8.097190014648437,5.766434698486328,0.7278373046875,-1.7557251908396947,0.21374045801526717,-1.5648854961832062
3898695084657,5.828670832,2,8.110358123779296,5.755660791015624,0.6955155822753906,-1.8091603053435115,0.2748091603053435,-1.6488549618320612
3898702424292,5.836010467,2,8.12711753540039,5.725733270263672,0.718260498046875,-1.7633587786259541,0.16030534351145037,-1.5877862595419847
3898709693719,5.843279894,2,8.12113203125,5.779602807617187,0.7206546997070312,-1.786259541984733,0.1297709923664122,-1.549618320610687
3898716962261,5.850548436,2,8.117540728759765,5.76523759765625,0.7254431030273437,-1.7709923664122138,0.3053435114503817,-1.5801526717557253
3898724291844,5.857878019,2,8.110358123779296,5.7317187744140625,0.7410054138183594,-1.717557251908397,0.2748091603053435,-1.5801526717557253
3898731587469,5.865173644,2,8.110358123779296,5.746083984375,0.7553706237792969,-1.8244274809160306,0.20610687022900764,-1.5801526717557253
3898738932729,5.872518904,2,8.11514652709961,5.756857891845703,0.7110778930664062,-1.7633587786259541,0.2366412213740458,-1.618320610687023
3898746303511,5.879889686,2,8.099584216308592,5.740098480224609,0.7003039855957031,-1.8091603053435115,0.3053435114503817,-1.6259541984732824
3898753611844,5.887198019,2,8.0828248046875,5.747281085205078,0.7481880187988281,-1.7404580152671756,0.19083969465648856,-1.5190839694656488
3898760947209,5.894533384,2,8.10796392211914,5.779602807617187,0.6931213806152343,-1.7786259541984732,0.21374045801526717,-1.5877862595419847
3898768275542,5.901861717,2,8.099584216308592,5.7520694885253905,0.7589619262695312,-1.7404580152671756,0.20610687022900764,-1.549618320610687
3898775605542,5.909191717,2,8.119934930419921,5.734112976074218,0.7254431030273437,-1.7404580152671756,0.20610687022900764,-1.6106870229007633
3898782943771,5.916529946,2,8.10796392211914,5.741295581054687,0.74699091796875,-1.7251908396946565,0.29770992366412213,-1.5877862595419847
3898790299292,5.923885467,2,8.098387115478515,5.755660791015624,0.7601590270996094,-1.7633587786259541,0.2824427480916031,-1.5648854961832062
3898797607886,5.931194061,2,8.105569720458984,5.759252093505859,0.7637503295898437,-1.7786259541984732,0.2900763358778626,-1.6106870229007633
3898804946792,5.938532967,2,8.116343627929687,5.746083984375,0.7481880187988281,-1.7786259541984732,0.16030534351145037,-1.549618320610687
3898812284292,5.945870467,2,8.11514652709961,5.748478186035156,0.7433996154785156,-1.7786259541984732,0.22900763358778625,-1.534351145038168
3898819539500,5.953125675,2,8.135497241210937,5.725733270263672,0.6979097839355468,-1.7938931297709924,0.32061068702290074,-1.5648854961832062
3898826912313,5.960498488,2,8.109161022949218,5.7508723876953125,0.737414111328125,-1.7938931297709924,0.21374045801526717,-1.5954198473282444
3898834262365,5.96784854,2,8.15345375366211,5.754463690185546,0.7481880187988281,-1.8015267175572518,0.24427480916030533,-1.5801526717557253
3898841594813,5.975180988,2,8.273163836669921,5.776011505126953,0.7589619262695312,-1.786259541984733,0.2748091603053435,-1.5801526717557253
3898848899604,5.982485779,2,8.11514652709961,5.762843395996094,0.7625532287597656,-1.786259541984733,0.21374045801526717,-1.5954198473282444
3898856173563,5.989759738,2,8.137891442871092,5.758054992675781,0.7050923889160156,-1.7557251908396947,0.2595419847328244,-1.5572519083969465
3898863400021,5.996986196,2,8.099584216308592,5.738901379394531,0.6967126831054687,-1.748091603053435,0.2824427480916031,-1.5572519083969465
3898870724448,6.004310623,2,8.118737829589843,5.72693037109375,0.709880792236328,-1.7251908396946565,0.16030534351145037,-1.5648854961832062
3898877988250,6.011574425,2,8.104372619628906,5.7329158752441405,0.7314286071777343,-1.6946564885496183,0.2366412213740458,-1.5877862595419847
3898885268146,6.018854321,2,8.124723333740233,5.742492681884765,0.7230489013671875,-1.7328244274809161,0.37404580152671757,-1.6106870229007633
3898892538875,6.02612505,2,8.134300140380859,5.747281085205078,0.729034405517578,-1.7404580152671756,0.1984732824427481,-1.534351145038168
3898899852677,6.033438852,2,8.100781317138672,5.738901379394531,0.7110778930664062,-1.7251908396946565,0.25190839694656486,-1.5648854961832062
3898907103667,6.040689842,2,8.104372619628906,5.736507177734374,0.74699091796875,-1.7557251908396947,0.2748091603053435,-1.5572519083969465
3898914392156,6.047978331,2,8.142679846191406,5.744886883544922,0.7302315063476562,-1.7328244274809161,0.183206106870229,-1.549618320610687
3898921702886,6.055289061,2,8.117540728759765,5.738901379394531,0.7003039855957031,-1.717557251908397,0.24427480916030533,-1.5267175572519085
3898928931896,6.062518071,2,8.13310303955078,5.749675286865234,0.7230489013671875,-1.6793893129770991,0.16793893129770993,-1.6106870229007633
3898936343146,6.069929321,2,8.074445098876952,5.742492681884765,0.7122749938964843,-1.748091603053435,0.19083969465648856,-1.534351145038168
