timestamp_ns,t_s,sensor_id,ax,ay,az,gx,gy,gz
3893037074659,0.170660834,1,0.201112939453125,1.7298106994628906,-11.194089862060546,-0.816793893129771,0.5572519083969466,-1.3587786259541985
3893043704450,0.177290625,1,0.201112939453125,1.7274164978027342,-11.177330450439452,-0.8778625954198473,0.5877862595419847,-1.3358778625954197
3893050366430,0.183952605,1,0.21906945190429686,1.7274164978027342,-11.037269653320312,-0.8091603053435115,0.5954198473282443,-1.3358778625954197
3893057030700,0.190616875,1,0.24660277099609373,1.7286135986328124,-11.190498559570312,-0.8702290076335878,0.5572519083969466,-1.3053435114503817
3893063694971,0.197281146,1,0.21906945190429686,1.7166425903320313,-11.208455072021483,-0.8702290076335878,0.5877862595419847,-1.3358778625954197
3893070363773,0.203949948,1,0.22266075439453123,1.7298106994628906,-11.194089862060546,-0.8854961832061069,0.5877862595419847,-1.3435114503816794
3893077029294,0.210615469,1,0.21906945190429686,1.753752716064453,-11.165359442138671,-0.8702290076335878,0.48091603053435117,-1.3435114503816794
3893083696169,0.217282344,1,0.22266075439453123,1.744175909423828,-11.177330450439452,-0.8396946564885496,0.44274809160305345,-1.2900763358778626
3893090364555,0.22395073,1,0.21906945190429686,1.7369933044433592,-11.166556542968749,-0.8931297709923665,0.5572519083969466,-1.3358778625954197
3893097028669,0.230614844,1,0.22744915771484372,1.7322049011230467,-11.177330450439452,-0.8091603053435115,0.5801526717557252,-1.3129770992366412
3893103696742,0.237282917,1,0.22026655273437498,1.7525556152343749,-11.182118853759764,-0.7862595419847328,0.5954198473282443,-1.297709923664122
3893110362575,0.24394875,1,0.21068974609375,1.7238251953125,-11.231199987792968,-0.8320610687022901,0.6641221374045801,-1.366412213740458
3893117027680,0.250613855,1,0.21308394775390624,1.7489643127441405,-11.19169566040039,-0.7404580152671756,0.549618320610687,-1.3587786259541985
3893123694763,0.257280938,1,0.21068974609375,1.7082628845214842,-11.222820281982422,-0.8473282442748091,0.5725190839694656,-1.3282442748091603
3893130362211,0.263948386,1,0.201112939453125,1.7334020019531249,-11.201272467041015,-0.8396946564885496,0.6335877862595419,-1.297709923664122
3893137027992,0.270614167,1,0.23582886352539062,1.744175909423828,-11.21683477783203,-0.7862595419847328,0.5419847328244275,-1.297709923664122
3893143695544,0.277281719,1,0.20709844360351562,1.7298106994628906,-11.188104357910156,-0.8854961832061069,0.5648854961832062,-1.297709923664122
3893150362367,0.283948542,1,0.22266075439453123,1.7106570861816406,-11.197681164550781,-0.9007633587786259,0.6106870229007634,-1.3358778625954197
3893157027679,0.290613854,1,0.21068974609375,1.7190367919921874,-11.219228979492186,-0.816793893129771,0.5648854961832062,-1.3053435114503817
3893163697523,0.297283698,1,0.2346317626953125,1.725022296142578,-11.184513055419922,-0.8015267175572519,0.5801526717557252,-1.2900763358778626
3893170363825,0.30395,1,0.22266075439453123,1.7190367919921874,-11.165359442138671,-0.8244274809160306,0.549618320610687,-1.3129770992366412
3893177027940,0.310614115,1,0.23582886352539062,1.7262193969726563,-11.233594189453123,-0.7633587786259542,0.549618320610687,-1.2748091603053435
3893183696013,0.317282188,1,0.23582886352539062,1.7334020019531249,-11.21084927368164,-0.8091603053435115,0.5419847328244275,-1.2671755725190839
3893190361586,0.323947761,1,0.22026655273437498,1.7334020019531249,-11.177330450439452,-0.7786259541984732,0.5648854961832062,-1.3129770992366412
3893197029242,0.330615417,1,0.23104046020507812,1.7489643127441405,-11.177330450439452,-0.7938931297709924,0.5801526717557252,-1.297709923664122
3893203695700,0.337281875,1,0.22026655273437498,1.7369933044433592,-11.225214483642578,-0.7938931297709924,0.5801526717557252,-1.282442748091603
3893210360961,0.343947136,1,0.2442085693359375,1.7322049011230467,-11.197681164550781,-0.8473282442748091,0.5801526717557252,-1.3053435114503817
3893217030648,0.350616823,1,0.21068974609375,1.7417817077636717,-11.171344946289063,-0.8625954198473282,0.6030534351145038,-1.3053435114503817
3893223696325,0.3572825,1,0.2154781494140625,1.725022296142578,-11.200075366210937,-0.8091603053435115,0.5648854961832062,-1.2748091603053435
3893230361898,0.363948073,1,0.2346317626953125,1.7238251953125,-11.180921752929686,-0.8702290076335878,0.5572519083969466,-1.3129770992366412
3893237029763,0.370615938,1,0.2166752502441406,1.7369933044433592,-11.214440576171874,-0.8473282442748091,0.5648854961832062,-1.3282442748091603
3893243696273,0.377282448,1,0.22744915771484372,1.7262193969726563,-11.21084927368164,-0.8244274809160306,0.5267175572519084,-1.3358778625954197
3893250362315,0.38394849,1,0.23104046020507812,1.7369933044433592,-11.213243475341796,-0.8702290076335878,0.6564885496183206,-1.2748091603053435
3893257029502,0.390615677,1,0.21308394775390624,1.7202338928222656,-11.204863769531249,-0.7862595419847328,0.6183206106870229,-1.3435114503816794
3893263697107,0.397283282,1,0.20829554443359374,1.734599102783203,-11.19169566040039,-0.7938931297709924,0.5572519083969466,-1.3587786259541985
3893270363357,0.403949532,1,0.21906945190429686,1.7393875061035156,-11.197681164550781,-0.8854961832061069,0.5725190839694656,-1.3358778625954197
3893277029502,0.410615677,1,0.22026655273437498,1.7262193969726563,-11.200075366210937,-0.8778625954198473,0.5648854961832062,-1.3282442748091603
3893283695648,0.417281823,1,0.23822306518554687,1.7357962036132812,-11.208455072021483,-0.8778625954198473,0.5038167938931297,-1.2748091603053435
3893290362211,0.423948386,1,0.22026655273437498,1.7310078002929687,-11.165359442138671,-0.9007633587786259,0.5343511450381679,-1.3053435114503817
3893297029867,0.430616042,1,0.2549824768066406,1.7322049011230467,-11.206060870361327,-0.8702290076335878,0.5114503816793893,-1.2748091603053435
3893303694919,0.437281094,1,0.2501940734863281,1.715445489501953,-11.176133349609374,-0.816793893129771,0.5267175572519084,-1.2748091603053435
3893310363825,0.44395,1,0.22505495605468748,1.7322049011230467,-11.195286962890624,-0.8702290076335878,0.6412213740458015,-1.251908396946565
3893317030284,0.450616459,1,0.22505495605468748,1.7238251953125,-11.19169566040039,-0.8396946564885496,0.5954198473282443,-1.3053435114503817
3893323694711,0.457280886,1,0.2346317626953125,1.7286135986328124,-11.188104357910156,-0.7786259541984732,0.5648854961832062,-1.282442748091603
3893330362940,0.463949115,1,0.2346317626953125,1.7322049011230467,-11.19887826538086,-0.8549618320610687,0.5954198473282443,-1.3282442748091603
3893337029919,0.470616094,1,0.22864625854492185,1.7322049011230467,-11.32577095336914,-0.7862595419847328,0.48854961832061067,-1.3358778625954197
3893343693929,0.477280104,1,0.22505495605468748,1.725022296142578,-11.17254204711914,-0.8396946564885496,0.5267175572519084,-1.3282442748091603
3893350363409,0.483949584,1,0.23702596435546874,1.744175909423828,-11.19887826538086,-0.8396946564885496,0.6030534351145038,-1.3129770992366412
3893357029919,0.490616094,1,0.21188684692382811,1.7573440185546874,-11.208455072021483,-0.8702290076335878,0.6030534351145038,-1.2671755725190839
3893363695544,0.497281719,1,0.20709844360351562,1.7214309936523438,-11.221623181152344,-0.8015267175572519,0.549618320610687,-1.2671755725190839
3893370362367,0.503948542,1,0.23223756103515625,1.734599102783203,-11.213243475341796,-0.7938931297709924,0.5954198473282443,-1.282442748091603
3893377027888,0.510614063,1,0.23104046020507812,1.744175909423828,-11.174936248779296,-0.8396946564885496,0.5801526717557252,-1.3435114503816794
3893383697211,0.517283386,1,0.22864625854492185,1.7429788085937499,-11.15338843383789,-0.7633587786259542,0.5419847328244275,-1.3587786259541985
3893390363565,0.52394974,1,0.21428104858398436,1.7369933044433592,-11.207257971191405,-0.8702290076335878,0.5419847328244275,-1.3282442748091603
3893397027888,0.530614063,1,0.22505495605468748,1.7286135986328124,-11.186907257080078,-0.8931297709923665,0.5725190839694656,-1.3587786259541985
3893403695388,0.537281563,1,0.22864625854492185,1.7322049011230467,-11.162965240478515,-0.8244274809160306,0.5648854961832062,-1.366412213740458
3893410372211,0.543958386,1,0.22744915771484372,1.7214309936523438,-11.225214483642578,-0.8320610687022901,0.5572519083969466,-1.2900763358778626
3893417032367,0.550618542,1,0.23702596435546874,1.7501614135742187,-11.192892761230468,-0.8549618320610687,0.6106870229007634,-1.3358778625954197
3893423702106,0.557288281,1,0.24301146850585936,1.7082628845214842,-11.203666668701171,-0.7938931297709924,0.5877862595419847,-1.3206106870229009
3893430364711,0.563950886,1,0.23104046020507812,1.7274164978027342,-11.176133349609374,-0.816793893129771,0.5648854961832062,-1.297709923664122
3893437029711,0.570615886,1,0.22744915771484372,1.7369933044433592,-11.177330450439452,-0.8244274809160306,0.6030534351145038,-1.3435114503816794
3893443696429,0.577282604,1,0.23702596435546874,1.7274164978027342,-11.177330450439452,-0.7938931297709924,0.549618320610687,-1.2671755725190839
3893450363200,0.583949375,1,0.2442085693359375,1.725022296142578,-11.195286962890624,-0.7862595419847328,0.5725190839694656,-1.3129770992366412
3893457029815,0.59061599,1,0.24181436767578124,1.7429788085937499,-11.204863769531249,-0.8015267175572519,0.5648854961832062,-1.3435114503816794
3893463695752,0.597281927,1,0.21068974609375,1.7238251953125,-11.180921752929686,-0.8091603053435115,0.5801526717557252,-1.297709923664122
3893470360284,0.603946459,1,0.21068974609375,1.7178396911621092,-11.170147845458983,-0.8625954198473282,0.6106870229007634,-1.3129770992366412
3893477029919,0.610616094,1,0.2262520568847656,1.7178396911621092,-11.156979736328124,-0.816793893129771,0.6335877862595419,-1.3053435114503817
3893483695440,0.617281615,1,0.21428104858398436,1.7286135986328124,-11.156979736328124,-0.8396946564885496,0.5572519083969466,-1.3053435114503817
3893490360231,0.623946406,1,0.23582886352539062,1.7357962036132812,-11.176133349609374,-0.8396946564885496,0.5877862595419847,-1.3587786259541985
3893497028825,0.630615,1,0.24061726684570311,1.734599102783203,-11.165359442138671,-0.8473282442748091,0.5877862595419847,-1.3206106870229009
3893503692836,0.637279011,1,0.23104046020507812,1.7214309936523438,-11.208455072021483,-0.8549618320610687,0.5801526717557252,-1.3206106870229009
3893510362159,0.643948334,1,0.2561795776367187,1.7298106994628906,-11.208455072021483,-0.7862595419847328,0.5572519083969466,-1.3206106870229009
3893517028461,0.650614636,1,0.24899697265624998,1.7513585144042967,-11.189301458740234,-0.8091603053435115,0.5877862595419847,-1.3129770992366412
3893523696169,0.657282344,1,0.2537853759765625,1.7286135986328124,-11.192892761230468,-0.7709923664122137,0.549618320610687,-1.3129770992366412
3893530362471,0.663948646,1,0.22266075439453123,1.7190367919921874,-11.197681164550781,-0.7557251908396947,0.549618320610687,-1.251908396946565
3893537029763,0.670615938,1,0.22385785522460935,1.7381904052734374,-11.19169566040039,-0.8244274809160306,0.5343511450381679,-1.3206106870229009
3893543696794,0.677282969,1,0.21428104858398436,1.7238251953125,-11.207257971191405,-0.8015267175572519,0.5801526717557252,-1.3282442748091603
3893550363461,0.683949636,1,0.22385785522460935,1.7357962036132812,-11.196484063720703,-0.8320610687022901,0.549618320610687,-1.282442748091603
3893557029867,0.690616042,1,0.22744915771484372,1.7357962036132812,-11.21084927368164,-0.8549618320610687,0.5801526717557252,-1.3282442748091603
3893563694502,0.697280677,1,0.24660277099609373,1.7286135986328124,-11.221623181152344,-0.7938931297709924,0.5801526717557252,-1.366412213740458
3893570363565,0.70394974,1,0.23104046020507812,1.7286135986328124,-11.234791290283203,-0.8015267175572519,0.6183206106870229,-1.381679389312977
3893577029190,0.710615365,1,0.24181436767578124,1.7489643127441405,-11.219228979492186,-0.9007633587786259,0.6564885496183206,-1.3206106870229009
3893583694294,0.717280469,1,0.24779987182617186,1.744175909423828,-11.207257971191405,-0.8320610687022901,0.6030534351145038,-1.366412213740458
3893590362627,0.723948802,1,0.21188684692382811,1.7226280944824217,-11.213243475341796,-0.8244274809160306,0.6030534351145038,-1.3129770992366412
3893597029086,0.730615261,1,0.21308394775390624,1.7130512878417967,-11.204863769531249,-0.8549618320610687,0.6259541984732825,-1.282442748091603
3893603694763,0.737280938,1,0.21906945190429686,1.734599102783203,-11.184513055419922,-0.7557251908396947,0.5572519083969466,-1.3129770992366412
3893610362471,0.743948646,1,0.22864625854492185,1.7178396911621092,-11.17254204711914,-0.8091603053435115,0.5801526717557252,-1.297709923664122
3893617028877,0.750615052,1,0.22864625854492185,1.7310078002929687,-11.183315954589844,-0.916030534351145,0.549618320610687,-1.282442748091603
3893623696586,0.757282761,1,0.23223756103515625,1.7310078002929687,-11.162965240478515,-0.8320610687022901,0.5572519083969466,-1.3129770992366412
3893630361898,0.763948073,1,0.22744915771484372,1.7357962036132812,-11.162965240478515,-0.8244274809160306,0.5572519083969466,-1.297709923664122
3893637028304,0.770614479,1,0.23702596435546874,1.725022296142578,-11.201272467041015,-0.8244274809160306,0.5648854961832062,-1.3435114503816794
3893643695856,0.777282031,1,0.2262520568847656,1.7393875061035156,-11.180921752929686,-0.8015267175572519,0.5648854961832062,-1.3358778625954197
3893650361690,0.783947865,1,0.1975216369628906,1.7322049011230467,-11.177330450439452,-0.8396946564885496,0.5572519083969466,-1.3358778625954197
3893657027419,0.790613594,1,0.239420166015625,1.7429788085937499,-11.171344946289063,-0.7938931297709924,0.549618320610687,-1.2900763358778626
3893663694971,0.797281146,1,0.21308394775390624,1.7393875061035156,-11.201272467041015,-0.8931297709923665,0.6106870229007634,-1.3511450381679388
3893670362471,0.803948646,1,0.23582886352539062,1.714248388671875,-11.192892761230468,-0.8015267175572519,0.5877862595419847,-1.3358778625954197
3893677027158,0.810613333,1,0.23702596435546874,1.7238251953125,-11.21084927368164,-0.8091603053435115,0.6564885496183206,-1.3053435114503817
3893683695596,0.817281771,1,0.22266075439453123,1.7417817077636717,-11.164162341308593,-0.8473282442748091,0.6412213740458015,-1.3358778625954197
3893690362419,0.823948594,1,0.20350714111328125,1.7298106994628906,-11.17852755126953,-0.8473282442748091,0.5419847328244275,-1.3587786259541985
3893697028461,0.830614636,1,0.22744915771484372,1.7214309936523438,-11.194089862060546,-0.9083969465648855,0.5648854961832062,-1.2900763358778626
3893703695388,0.837281563,1,0.22385785522460935,1.6986860778808592,-11.221623181152344,-0.8473282442748091,0.5954198473282443,-1.3282442748091603
3893710362523,0.843948698,1,0.22385785522460935,1.7405846069335937,-11.19169566040039,-0.7938931297709924,0.5572519083969466,-1.3129770992366412
3893717028773,0.850614948,1,0.24301146850585936,1.734599102783203,-11.201272467041015,-0.9083969465648855,0.5648854961832062,-1.3587786259541985
3893723694658,0.857280833,1,0.2346317626953125,1.7310078002929687,-11.218031878662108,-0.8396946564885496,0.6106870229007634,-1.3740458015267176
3893730361325,0.8639475,1,0.23223756103515625,1.7094599853515624,-11.218031878662108,-0.7862595419847328,0.5801526717557252,-1.3129770992366412
3893737029815,0.87061599,1,0.23343466186523437,1.7262193969726563,-11.173739147949219,-0.816793893129771,0.5954198473282443,-1.3053435114503817
3893743695283,0.877281458,1,0.2346317626953125,1.7573440185546874,-11.195286962890624,-0.8244274809160306,0.5801526717557252,-1.3511450381679388
3893750361221,0.883947396,1,0.21308394775390624,1.7286135986328124,-11.197681164550781,-0.816793893129771,0.5267175572519084,-1.297709923664122
3893757029815,0.89061599,1,0.21308394775390624,1.7202338928222656,-11.196484063720703,-0.8854961832061069,0.6030534351145038,-1.282442748091603
3893763696794,0.897282969,1,0.24899697265624998,1.7202338928222656,-11.182118853759764,-0.8320610687022901,0.6106870229007634,-1.3740458015267176
3893770360804,0.903946979,1,0.1867477294921875,1.7453730102539062,-11.182118853759764,-0.8549618320610687,0.6183206106870229,-1.366412213740458
3893777033617,0.910619792,1,0.22026655273437498,1.7465701110839842,-11.206060870361327,-0.8549618320610687,0.6717557251908397,-1.381679389312977
3893783697783,0.917283958,1,0.23343466186523437,1.725022296142578,-11.186907257080078,-0.916030534351145,0.6717557251908397,-1.3358778625954197
3893790365544,0.923951719,1,0.22385785522460935,1.7501614135742187,-11.189301458740234,-0.816793893129771,0.6183206106870229,-1.3358778625954197
3893797031117,0.930617292,1,0.24061726684570311,1.7310078002929687,-11.201272467041015,-0.7633587786259542,0.5954198473282443,-1.3129770992366412
3893803702419,0.937288594,1,0.25139117431640623,1.7405846069335937,-11.221623181152344,-0.8396946564885496,0.6030534351145038,-1.3358778625954197
3893810363773,0.943949948,1,0.22505495605468748,1.7274164978027342,-11.146205828857422,-0.816793893129771,0.6030534351145038,-1.3740458015267176
3893817029294,0.950615469,1,0.22266075439453123,1.705868682861328,-11.13423482055664,-0.8396946564885496,0.5648854961832062,-1.3053435114503817
3893823695856,0.957282031,1,0.20709844360351562,1.714248388671875,-11.149797131347656,-0.8473282442748091,0.5419847328244275,-1.3129770992366412
3893830363304,0.963949479,1,0.22505495605468748,1.7214309936523438,-11.196484063720703,-0.8091603053435115,0.549618320610687,-1.3129770992366412
3893837029606,0.970615781,1,0.21906945190429686,1.7094599853515624,-11.188104357910156,-0.816793893129771,0.5267175572519084,-1.3435114503816794
3893843694190,0.977280365,1,0.22864625854492185,1.734599102783203,-11.19169566040039,-0.8091603053435115,0.6106870229007634,-1.3282442748091603
3893850362940,0.983949115,1,0.20949264526367187,1.7477672119140624,-11.245565197753905,-0.8320610687022901,0.6030534351145038,-1.3053435114503817
3893857029085,0.99061526,1,0.23702596435546874,1.7453730102539062,-11.201272467041015,-0.7938931297709924,0.6106870229007634,-1.3358778625954197
3893863693513,0.997279688,1,0.22505495605468748,1.7166425903320313,-11.18571015625,-0.8778625954198473,0.6335877862595419,-1.3358778625954197
3893870362158,1.003948333,1,0.2442085693359375,1.7226280944824217,-11.176133349609374,-0.7862595419847328,0.5877862595419847,-1.3129770992366412
3893877028565,1.01061474,1,0.21787235107421873,1.7298106994628906,-11.209652172851563,-0.816793893129771,0.5954198473282443,-1.3129770992366412
3893883691377,1.017277552,1,0.24061726684570311,1.744175909423828,-11.179724652099608,-0.8320610687022901,0.6564885496183206,-1.3206106870229009
3893890364658,1.023950833,1,0.2454056701660156,1.725022296142578,-11.165359442138671,-0.7404580152671756,0.6106870229007634,-1.3282442748091603
3893897029450,1.030615625,1,0.19991583862304688,1.725022296142578,-11.159373937988281,-0.8320610687022901,0.6030534351145038,-1.3206106870229009
3893903696221,1.037282396,1,0.19991583862304688,1.7334020019531249,-11.195286962890624,-0.8396946564885496,0.5801526717557252,-1.3358778625954197
3893910362054,1.043948229,1,0.229843359375,1.7334020019531249,-11.335347760009764,-0.7557251908396947,0.6335877862595419,-1.3206106870229009
3893917027523,1.050613698,1,0.2262520568847656,1.7453730102539062,-11.182118853759764,-0.816793893129771,0.5267175572519084,-1.3435114503816794
3893923696221,1.057282396,1,0.2214636535644531,1.7417817077636717,-11.201272467041015,-0.816793893129771,0.6106870229007634,-1.3358778625954197
3893930362106,1.063948281,1,0.2154781494140625,1.7178396911621092,-11.227608685302734,-0.8320610687022901,0.6106870229007634,-1.3053435114503817
3893937027419,1.070613594,1,0.19871873779296872,1.725022296142578,-11.202469567871093,-0.7633587786259542,0.5801526717557252,-1.3053435114503817
3893943696221,1.077282396,1,0.23822306518554687,1.7393875061035156,-11.182118853759764,-0.8473282442748091,0.5954198473282443,-1.2748091603053435
3893950361794,1.083947969,1,0.23702596435546874,1.7429788085937499,-11.194089862060546,-0.816793893129771,0.5267175572519084,-1.282442748091603
3893957028460,1.090614635,1,0.23822306518554687,1.7310078002929687,-11.232397088623046,-0.7862595419847328,0.5114503816793893,-1.2671755725190839
3893963695908,1.097282083,1,0.22864625854492185,1.7214309936523438,-11.196484063720703,-0.8473282442748091,0.5725190839694656,-1.3206106870229009
3893970362263,1.103948438,1,0.21308394775390624,1.7262193969726563,-11.225214483642578,-0.8549618320610687,0.5114503816793893,-1.3740458015267176
3893977027419,1.110613594,1,0.20231004028320312,1.7082628845214842,-11.190498559570312,-0.816793893129771,0.549618320610687,-1.3435114503816794
3893983695544,1.117281719,1,0.2561795776367187,1.7298106994628906,-11.188104357910156,-0.9007633587786259,0.6030534351145038,-1.3511450381679388
3893990363200,1.123949375,1,0.229843359375,1.7405846069335937,-11.21683477783203,-0.8396946564885496,0.6335877862595419,-1.3435114503816794
3893997028721,1.130614896,1,0.20829554443359374,1.714248388671875,-11.195286962890624,-0.7480916030534351,0.5267175572519084,-1.3282442748091603
3894003837575,1.13742375,1,0.2537853759765625,1.7190367919921874,-11.195286962890624,-0.816793893129771,0.549618320610687,-1.3129770992366412
3894010359710,1.143945885,1,0.2645592834472656,1.7357962036132812,-11.165359442138671,-0.8015267175572519,0.5419847328244275,-1.3282442748091603
3894017028096,1.150614271,1,0.2214636535644531,1.7310078002929687,-11.161768139648437,-0.7862595419847328,0.5725190839694656,-1.3358778625954197
3894023696637,1.157282812,1,0.21188684692382811,1.7202338928222656,-11.218031878662108,-0.8244274809160306,0.6412213740458015,-1.3358778625954197
3894030361065,1.16394724,1,0.2442085693359375,1.7286135986328124,-11.179724652099608,-0.8015267175572519,0.5877862595419847,-1.3511450381679388
3894037029971,1.170616146,1,0.24301146850585936,1.7322049011230467,-11.177330450439452,-0.8396946564885496,0.6030534351145038,-1.282442748091603
3894043695023,1.177281198,1,0.24301146850585936,1.7274164978027342,-11.208455072021483,-0.8778625954198473,0.6946564885496184,-1.2595419847328244
3894050361690,1.183947865,1,0.24660277099609373,1.7274164978027342,-11.158176837158203,-0.8091603053435115,0.6183206106870229,-1.3129770992366412
3894057029242,1.190615417,1,0.20829554443359374,1.7417817077636717,-11.158176837158203,-0.8320610687022901,0.5572519083969466,-1.297709923664122
3894063696065,1.19728224,1,0.2214636535644531,1.7369933044433592,-11.188104357910156,-0.8320610687022901,0.5419847328244275,-1.3435114503816794
3894070363617,1.203949792,1,0.24899697265624998,1.7417817077636717,-11.179724652099608,-0.8473282442748091,0.5419847328244275,-1.3740458015267176
3894077028460,1.210614635,1,0.22505495605468748,1.7118541870117185,-11.162965240478515,-0.7938931297709924,0.5801526717557252,-1.3740458015267176
3894083696481,1.217282656,1,0.21906945190429686,1.7130512878417967,-11.19169566040039,-0.8473282442748091,0.5572519083969466,-1.2900763358778626
3894090362419,1.223948594,1,0.2059013427734375,1.7214309936523438,-11.209652172851563,-0.8931297709923665,0.5877862595419847,-1.2900763358778626
3894097028669,1.230614844,1,0.2346317626953125,1.714248388671875,-11.19887826538086,-0.8320610687022901,0.5648854961832062,-1.3435114503816794
3894103694971,1.237281146,1,0.2262520568847656,1.7417817077636717,-11.204863769531249,-0.8473282442748091,0.5801526717557252,-1.3435114503816794
3894110363721,1.243949896,1,0.21308394775390624,1.734599102783203,-11.206060870361327,-0.8473282442748091,0.5572519083969466,-1.3358778625954197
3894117029762,1.250615937,1,0.2262520568847656,1.7202338928222656,-11.188104357910156,-0.7404580152671756,0.5648854961832062,-1.2748091603053435
3894123695335,1.25728151,1,0.2166752502441406,1.7334020019531249,-11.247959399414063,-0.8625954198473282,0.5877862595419847,-1.297709923664122
3894130361585,1.26394776,1,0.229843359375,1.7453730102539062,-11.213243475341796,-0.8625954198473282,0.5801526717557252,-1.3511450381679388
3894137029606,1.270615781,1,0.21188684692382811,1.7310078002929687,-11.189301458740234,-0.7938931297709924,0.549618320610687,-1.3282442748091603
3894143700492,1.277286667,1,0.23702596435546874,1.7334020019531249,-11.180921752929686,-0.7938931297709924,0.48854961832061067,-1.3282442748091603
3894150364971,1.283951146,1,0.23822306518554687,1.7549498168945312,-11.208455072021483,-0.8931297709923665,0.5877862595419847,-1.3358778625954197
3894157029502,1.290615677,1,0.23582886352539062,1.7202338928222656,-11.221623181152344,-0.7938931297709924,0.5343511450381679,-1.3435114503816794
3894163699971,1.297286146,1,0.20709844360351562,1.7334020019531249,-11.177330450439452,-0.8396946564885496,0.5190839694656488,-1.3358778625954197
3894170361742,1.303947917,1,0.22864625854492185,1.7357962036132812,-11.212046374511718,-0.8244274809160306,0.5877862595419847,-1.3511450381679388
3894177030440,1.310616615,1,0.20709844360351562,1.7202338928222656,-11.215637677001952,-0.7633587786259542,0.5419847328244275,-1.2595419847328244
3894183700648,1.317286823,1,0.229843359375,1.7405846069335937,-11.201272467041015,-0.8244274809160306,0.5877862595419847,-1.282442748091603
3894190363304,1.323949479,1,0.229843359375,1.7166425903320313,-11.200075366210937,-0.7786259541984732,0.6106870229007634,-1.2595419847328244
3894197027002,1.330613177,1,0.25139117431640623,1.7166425903320313,-11.329362255859374,-0.816793893129771,0.5267175572519084,-1.251908396946565
3894203695231,1.337281406,1,0.2214636535644531,1.7489643127441405,-11.176133349609374,-0.8625954198473282,0.5801526717557252,-1.2900763358778626
3894210363200,1.343949375,1,0.25258827514648435,1.7310078002929687,-11.208455072021483,-0.8625954198473282,0.5648854961832062,-1.3053435114503817
3894217027210,1.350613385,1,0.23343466186523437,1.7489643127441405,-11.21084927368164,-0.8625954198473282,0.5648854961832062,-1.3206106870229009
3894223695700,1.357281875,1,0.2166752502441406,1.7573440185546874,-11.173739147949219,-0.8396946564885496,0.5725190839694656,-1.3206106870229009
3894230361377,1.363947552,1,0.22385785522460935,1.7393875061035156,-11.171344946289063,-0.8854961832061069,0.5648854961832062,-1.3206106870229009
3894237027627,1.370613802,1,0.22385785522460935,1.7274164978027342,-11.152191333007812,-0.8244274809160306,0.5038167938931297,-1.3129770992366412
3894243696846,1.377283021,1,0.22505495605468748,1.734599102783203,-11.173739147949219,-0.8015267175572519,0.4580152671755725,-1.3129770992366412
3894250363304,1.383949479,1,0.22385785522460935,1.7393875061035156,-11.207257971191405,-0.8778625954198473,0.5725190839694656,-1.3282442748091603
3894257029919,1.390616094,1,0.2442085693359375,1.7226280944824217,-11.173739147949219,-0.7938931297709924,0.5954198473282443,-1.297709923664122
3894263693356,1.397279531,1,0.24061726684570311,1.705868682861328,-11.19887826538086,-0.7938931297709924,0.6030534351145038,-1.3053435114503817
3894270362002,1.403948177,1,0.23223756103515625,1.705868682861328,-11.18571015625,-0.8549618320610687,0.5954198473282443,-1.3129770992366412
3894277029710,1.410615885,1,0.21188684692382811,1.7274164978027342,-11.166556542968749,-0.8244274809160306,0.5725190839694656,-1.297709923664122
3894283695700,1.417281875,1,0.22026655273437498,1.7334020019531249,-11.212046374511718,-0.8320610687022901,0.5190839694656488,-1.297709923664122
3894290360439,1.423946614,1,0.21906945190429686,1.7489643127441405,-11.17852755126953,-0.8396946564885496,0.6335877862595419,-1.3129770992366412
3894297029710,1.430615885,1,0.20949264526367187,1.7214309936523438,-11.218031878662108,-0.7480916030534351,0.6335877862595419,-1.366412213740458
3894303695127,1.437281302,1,0.19991583862304688,1.714248388671875,-11.209652172851563,-0.8549618320610687,0.6259541984732825,-1.3587786259541985
3894310360960,1.443947135,1,0.21787235107421873,1.7322049011230467,-11.182118853759764,-0.8702290076335878,0.6030534351145038,-1.3358778625954197
3894317029189,1.450615364,1,0.22864625854492185,1.7226280944824217,-11.19169566040039,-0.8091603053435115,0.5572519083969466,-1.3282442748091603
3894323695179,1.457281354,1,0.23822306518554687,1.7525556152343749,-11.189301458740234,-0.8244274809160306,0.5190839694656488,-1.282442748091603
3894330359762,1.463945937,1,0.23822306518554687,1.7310078002929687,-11.194089862060546,-0.7938931297709924,0.5648854961832062,-1.3358778625954197
3894337030283,1.470616458,1,0.22864625854492185,1.7310078002929687,-11.194089862060546,-0.7862595419847328,0.48854961832061067,-1.3587786259541985
3894343696325,1.4772825,1,0.22385785522460935,1.7178396911621092,-11.194089862060546,-0.8091603053435115,0.5114503816793893,-1.3053435114503817
3894350362679,1.483948854,1,0.22864625854492185,1.7190367919921874,-11.203666668701171,-0.8091603053435115,0.6412213740458015,-1.3206106870229009
3894357028564,1.490614739,1,0.20949264526367187,1.7310078002929687,-11.173739147949219,-0.8625954198473282,0.6412213740458015,-1.3435114503816794
3894363694085,1.49728026,1,0.20949264526367187,1.7226280944824217,-11.167753643798827,-0.8091603053435115,0.5572519083969466,-1.3435114503816794
3894370364450,1.503950625,1,0.20350714111328125,1.7298106994628906,-11.173739147949219,-0.8854961832061069,0.5419847328244275,-1.3053435114503817
3894377029867,1.510616042,1,0.24660277099609373,1.7274164978027342,-11.19887826538086,-0.8778625954198473,0.5267175572519084,-1.3282442748091603
3894383694346,1.517280521,1,0.23223756103515625,1.7501614135742187,-11.165359442138671,-0.8015267175572519,0.5267175572519084,-1.3282442748091603
3894390362575,1.52394875,1,0.22864625854492185,1.7357962036132812,-11.17852755126953,-0.9007633587786259,0.5877862595419847,-1.3435114503816794
3894397028721,1.530614896,1,0.21188684692382811,1.714248388671875,-11.168950744628905,-0.8549618320610687,0.5267175572519084,-1.3282442748091603
3894403695075,1.53728125,1,0.2262520568847656,1.7094599853515624,-11.148600030517578,-0.7709923664122137,0.5190839694656488,-1.2671755725190839
3894410362314,1.543948489,1,0.22266075439453123,1.7561469177246092,-11.161768139648437,-0.8854961832061069,0.5954198473282443,-1.2900763358778626
3894417029762,1.550615937,1,0.20350714111328125,1.7310078002929687,-11.176133349609374,-0.8702290076335878,0.6259541984732825,-1.3053435114503817
3894423695283,1.557281458,1,0.2214636535644531,1.7178396911621092,-11.155782635498046,-0.8473282442748091,0.5038167938931297,-1.3511450381679388
3894430361533,1.563947708,1,0.2166752502441406,1.7369933044433592,-11.177330450439452,-0.8931297709923665,0.5954198473282443,-1.366412213740458
3894437029346,1.570615521,1,0.2166752502441406,1.715445489501953,-11.220426080322264,-0.8549618320610687,0.5572519083969466,-1.3740458015267176
3894443696377,1.577282552,1,0.2262520568847656,1.7214309936523438,-11.171344946289063,-0.816793893129771,0.4961832061068702,-1.3282442748091603
3894450363044,1.583949219,1,0.23822306518554687,1.7106570861816406,-11.204863769531249,-0.8854961832061069,0.5419847328244275,-1.3129770992366412
3894457028460,1.590614635,1,0.2442085693359375,1.725022296142578,-11.209652172851563,-0.7862595419847328,0.5801526717557252,-1.3129770992366412
3894463695752,1.597281927,1,0.21906945190429686,1.734599102783203,-11.196484063720703,-0.8244274809160306,0.5877862595419847,-1.2748091603053435
3894470362575,1.60394875,1,0.22266075439453123,1.715445489501953,-11.182118853759764,-0.9007633587786259,0.6564885496183206,-1.3206106870229009
3894477028148,1.610614323,1,0.22266075439453123,1.7286135986328124,-11.183315954589844,-0.8549618320610687,0.5572519083969466,-1.3435114503816794
3894483695075,1.61728125,1,0.2154781494140625,1.7286135986328124,-11.156979736328124,-0.8702290076335878,0.5114503816793893,-1.2900763358778626
3894490362835,1.62394901,1,0.20829554443359374,1.734599102783203,-11.156979736328124,-0.8625954198473282,0.6259541984732825,-1.3282442748091603
3894497028825,1.630615,1,0.20350714111328125,1.7226280944824217,-11.176133349609374,-0.8625954198473282,0.5725190839694656,-1.3282442748091603
3894503695596,1.637281771,1,0.20949264526367187,1.7334020019531249,-11.19169566040039,-0.7709923664122137,0.5725190839694656,-1.3511450381679388
3894510369606,1.643955781,1,0.2262520568847656,1.7453730102539062,-11.189301458740234,-0.8091603053435115,0.5343511450381679,-1.3511450381679388
3894517029189,1.650615364,1,0.2262520568847656,1.7226280944824217,-11.192892761230468,-0.7557251908396947,0.5572519083969466,-1.3893129770992367
3894523695283,1.657281458,1,0.23223756103515625,1.7489643127441405,-11.206060870361327,-0.8473282442748091,0.6335877862595419,-1.3435114503816794
3894530361585,1.66394776,1,0.22505495605468748,1.7405846069335937,-11.152191333007812,-0.9083969465648855,0.5954198473282443,-1.3206106870229009
3894537033408,1.670619583,1,0.20231004028320312,1.7549498168945312,-11.159373937988281,-0.8854961832061069,0.5801526717557252,-1.3893129770992367
3894543696169,1.677282344,1,0.22505495605468748,1.7214309936523438,-11.164162341308593,-0.7938931297709924,0.549618320610687,-1.3282442748091603
3894550361533,1.683947708,1,0.21188684692382811,1.7118541870117185,-11.213243475341796,-0.8473282442748091,0.5419847328244275,-1.3587786259541985
3894557029658,1.690615833,1,0.2166752502441406,1.7298106994628906,-11.252747802734374,-0.816793893129771,0.5801526717557252,-1.3358778625954197
3894563701012,1.697287187,1,0.21068974609375,1.7214309936523438,-11.192892761230468,-0.7709923664122137,0.5343511450381679,-1.3206106870229009
3894570362262,1.703948437,1,0.23822306518554687,1.7310078002929687,-11.213243475341796,-0.8396946564885496,0.4732824427480916,-1.297709923664122
3894577029189,1.710615364,1,0.2214636535644531,1.7549498168945312,-11.197681164550781,-0.9083969465648855,0.5572519083969466,-1.3740458015267176
3894583696273,1.717282448,1,0.2059013427734375,1.744175909423828,-11.221623181152344,-0.8702290076335878,0.5190839694656488,-1.3282442748091603
3894590361377,1.723947552,1,0.20829554443359374,1.7226280944824217,-11.200075366210937,-0.816793893129771,0.5572519083969466,-1.2748091603053435
3894597029762,1.730615937,1,0.1927332336425781,1.7369933044433592,-11.182118853759764,-0.8473282442748091,0.5343511450381679,-1.3587786259541985
3894603696481,1.737282656,1,0.23822306518554687,1.7190367919921874,-11.168950744628905,-0.7175572519083969,0.5648854961832062,-1.3511450381679388
3894610360908,1.743947083,1,0.2214636535644531,1.734599102783203,-11.204863769531249,-0.8244274809160306,0.5954198473282443,-1.3053435114503817
3894617028616,1.750614791,1,0.2214636535644531,1.7022773803710936,-11.174936248779296,-0.8931297709923665,0.648854961832061,-1.3282442748091603
3894623696273,1.757282448,1,0.22505495605468748,1.7022773803710936,-11.177330450439452,-0.816793893129771,0.5877862595419847,-1.3511450381679388
3894630361741,1.763947916,1,0.21308394775390624,1.734599102783203,-11.177330450439452,-0.8396946564885496,0.5954198473282443,-1.2900763358778626
3894637028825,1.770615,1,0.2154781494140625,1.715445489501953,-11.190498559570312,-0.8396946564885496,0.5801526717557252,-1.3053435114503817
3894643691221,1.777277396,1,0.2346317626953125,1.7405846069335937,-11.201272467041015,-0.8549618320610687,0.5801526717557252,-1.3129770992366412
3894650363043,1.783949218,1,0.20709844360351562,1.7429788085937499,-11.197681164550781,-0.7938931297709924,0.5343511450381679,-1.3129770992366412
3894657030700,1.790616875,1,0.19991583862304688,1.7274164978027342,-11.220426080322264,-0.8931297709923665,0.5343511450381679,-1.297709923664122
3894663694606,1.797280781,1,0.229843359375,1.7262193969726563,-11.184513055419922,-0.8549618320610687,0.6106870229007634,-1.3740458015267176
3894670362262,1.803948437,1,0.21906945190429686,1.7190367919921874,-11.19169566040039,-0.7938931297709924,0.5648854961832062,-1.3435114503816794
3894677028564,1.810614739,1,0.21906945190429686,1.7118541870117185,-11.195286962890624,-0.8549618320610687,0.5267175572519084,-1.3358778625954197
3894683693564,1.817279739,1,0.2537853759765625,1.725022296142578,-11.208455072021483,-0.8625954198473282,0.5267175572519084,-1.3358778625954197
3894690364346,1.823950521,1,0.22026655273437498,1.7322049011230467,-11.21683477783203,-0.8549618320610687,0.549618320610687,-1.297709923664122
3894697030023,1.830616198,1,0.239420166015625,1.753752716064453,-11.21084927368164,-0.8549618320610687,0.5419847328244275,-1.2748091603053435
3894703693721,1.837279896,1,0.2154781494140625,1.7202338928222656,-11.219228979492186,-0.816793893129771,0.5190839694656488,-1.2748091603053435
3894710362366,1.843948541,1,0.24061726684570311,1.7106570861816406,-11.19887826538086,-0.8244274809160306,0.5267175572519084,-1.3129770992366412
3894717029293,1.850615468,1,0.2442085693359375,1.7166425903320313,-11.184513055419922,-0.8091603053435115,0.5572519083969466,-1.3282442748091603
3894723697002,1.857283177,1,0.23343466186523437,1.7178396911621092,-11.159373937988281,-0.7862595419847328,0.5877862595419847,-1.3129770992366412
3894730360387,1.863946562,1,0.21787235107421873,1.7202338928222656,-11.189301458740234,-0.7709923664122137,0.5343511450381679,-1.3206106870229009
3894737027679,1.870613854,1,0.26216508178710934,1.7214309936523438,-11.18571015625,-0.8549618320610687,0.5725190839694656,-1.3358778625954197
3894743695023,1.877281198,1,0.22385785522460935,1.705868682861328,-11.166556542968749,-0.7938931297709924,0.549618320610687,-1.3587786259541985
3894750362471,1.883948646,1,0.25139117431640623,1.7130512878417967,-11.203666668701171,-0.8320610687022901,0.5801526717557252,-1.3358778625954197
3894757027991,1.890614166,1,0.21308394775390624,1.7274164978027342,-11.18571015625,-0.9083969465648855,0.5343511450381679,-1.3206106870229009
3894763695960,1.897282135,1,0.21308394775390624,1.7274164978027342,-11.183315954589844,-0.8320610687022901,0.549618320610687,-1.3511450381679388
3894770362679,1.903948854,1,0.24181436767578124,1.7274164978027342,-11.060014569091797,-0.8244274809160306,0.5419847328244275,-1.3282442748091603
3894777027418,1.910613593,1,0.19153613281249998,1.7286135986328124,-11.213243475341796,-0.8702290076335878,0.5801526717557252,-1.3435114503816794
3894783695596,1.917281771,1,0.2442085693359375,1.7381904052734374,-11.215637677001952,-0.8702290076335878,0.5572519083969466,-1.2900763358778626
3894790361273,1.923947448,1,0.2597708801269531,1.7405846069335937,-11.23718549194336,-0.8244274809160306,0.5572519083969466,-1.2671755725190839
3894797029137,1.930615312,1,0.25139117431640623,1.7525556152343749,-11.188104357910156,-0.8015267175572519,0.5343511450381679,-1.2671755725190839
3894803694658,1.937280833,1,0.24301146850585936,1.7381904052734374,-11.190498559570312,-0.8015267175572519,0.6030534351145038,-1.297709923664122
3894810360700,1.943946875,1,0.2214636535644531,1.7381904052734374,-11.173739147949219,-0.8244274809160306,0.5648854961832062,-1.3282442748091603
3894817031950,1.950618125,1,0.21068974609375,1.7238251953125,-11.218031878662108,-0.8320610687022901,0.5572519083969466,-1.3358778625954197
3894823695439,1.957281614,1,0.20709844360351562,1.744175909423828,-11.177330450439452,-0.8778625954198473,0.549618320610687,-1.3282442748091603
3894830361481,1.963947656,1,0.2262520568847656,1.7334020019531249,-11.168950744628905,-0.816793893129771,0.5190839694656488,-1.3129770992366412
3894837029189,1.970615364,1,0.2442085693359375,1.725022296142578,-11.133037719726563,-0.8625954198473282,0.5801526717557252,-1.3282442748091603
3894843694971,1.977281146,1,0.23702596435546874,1.7286135986328124,-11.179724652099608,-0.8702290076335878,0.6030534351145038,-1.3893129770992367
3894850363564,1.983949739,1,0.2214636535644531,1.7118541870117185,-11.196484063720703,-0.8473282442748091,0.5877862595419847,-1.2900763358778626
3894857028721,1.990614896,1,0.2346317626953125,1.7226280944824217,-11.200075366210937,-0.8702290076335878,0.5419847328244275,-1.2290076335877862
3894863695387,1.997281562,1,0.239420166015625,1.744175909423828,-11.219228979492186,-0.8549618320610687,0.5343511450381679,-1.251908396946565
3894870360648,2.003946823,1,0.24061726684570311,1.7334020019531249,-11.190498559570312,-0.7862595419847328,0.549618320610687,-1.3358778625954197
3894877034345,2.01062052,1,0.23223756103515625,1.7525556152343749,-11.180921752929686,-0.9007633587786259,0.5954198473282443,-1.2900763358778626
3894883697002,2.017283177,1,0.19991583862304688,1.7274164978027342,-11.207257971191405,-0.8778625954198473,0.6183206106870229,-1.2900763358778626
3894890362470,2.023948645,1,0.22505495605468748,1.7166425903320313,-11.206060870361327,-0.8244274809160306,0.5419847328244275,-1.297709923664122
3894897028616,2.030614791,1,0.229843359375,1.697488977050781,-11.250353601074218,-0.8625954198473282,0.5572519083969466,-1.3206106870229009
3894903696220,2.037282395,1,0.229843359375,1.7429788085937499,-11.190498559570312,-0.8244274809160306,0.648854961832061,-1.3511450381679388
3894910364814,2.043950989,1,0.2442085693359375,1.7429788085937499,-11.154585534667968,-0.8244274809160306,0.6106870229007634,-1.3358778625954197
3894917030335,2.05061651,1,0.25139117431640623,1.7489643127441405,-11.154585534667968,-0.816793893129771,0.6030534351145038,-1.3511450381679388
3894923696116,2.057282291,1,0.22744915771484372,1.7417817077636717,-11.152191333007812,-0.816793893129771,0.6030534351145038,-1.3282442748091603
3894930363148,2.063949323,1,0.18914193115234373,1.7274164978027342,-11.222820281982422,-0.8396946564885496,0.6030534351145038,-1.3511450381679388
3894937030283,2.070616458,1,0.20709844360351562,1.7178396911621092,-11.21084927368164,-0.7557251908396947,0.6030534351145038,-1.3511450381679388
3894943698720,2.077284895,1,0.21906945190429686,1.7393875061035156,-11.225214483642578,-0.8625954198473282,0.6335877862595419,-1.3206106870229009
3894950364085,2.08395026,1,0.22026655273437498,1.7334020019531249,-11.183315954589844,-0.7557251908396947,0.6106870229007634,-1.3206106870229009
3894957029137,2.090615312,1,0.21188684692382811,1.7238251953125,-11.219228979492186,-0.7938931297709924,0.5419847328244275,-1.2900763358778626
3894963693720,2.097279895,1,0.2214636535644531,1.715445489501953,-11.212046374511718,-0.8244274809160306,0.5572519083969466,-1.3129770992366412
3894970362887,2.103949062,1,0.23223756103515625,1.7369933044433592,-11.238382592773437,-0.8702290076335878,0.549618320610687,-1.3206106870229009
3894977032158,2.110618333,1,0.23822306518554687,1.7214309936523438,-11.215637677001952,-0.8473282442748091,0.5419847328244275,-1.3053435114503817
3894983696377,2.117282552,1,0.22266075439453123,1.7274164978027342,-11.179724652099608,-0.8854961832061069,0.549618320610687,-1.2900763358778626
3894990362523,2.123948698,1,0.21068974609375,1.7202338928222656,-11.184513055419922,-0.8473282442748091,0.48091603053435117,-1.2748091603053435
3894997028668,2.130614843,1,0.21906945190429686,1.725022296142578,-11.197681164550781,-0.7862595419847328,0.5114503816793893,-1.3053435114503817
3895003695804,2.137281979,1,0.21188684692382811,1.7298106994628906,-11.218031878662108,-0.9083969465648855,0.6793893129770993,-1.3511450381679388
3895010363460,2.143949635,1,0.22266075439453123,1.744175909423828,-11.215637677001952,-0.816793893129771,0.6259541984732825,-1.3129770992366412
3895017027262,2.150613437,1,0.2166752502441406,1.7262193969726563,-11.196484063720703,-0.8015267175572519,0.5954198473282443,-1.282442748091603
3895023694450,2.157280625,1,0.2442085693359375,1.7429788085937499,-11.194089862060546,-0.8778625954198473,0.6030534351145038,-1.3206106870229009
3895030369866,2.163956041,1,0.17956512451171874,1.7405846069335937,-11.183315954589844,-0.8015267175572519,0.6106870229007634,-1.3435114503816794
3895037029970,2.170616145,1,0.2214636535644531,1.7513585144042967,-11.19169566040039,-0.8549618320610687,0.5954198473282443,-1.2595419847328244
3895043696845,2.17728302,1,0.20949264526367187,1.7429788085937499,-11.15338843383789,-0.8778625954198473,0.5877862595419847,-1.282442748091603
3895050362679,2.183948854,1,0.20949264526367187,1.7477672119140624,-11.159373937988281,-0.8015267175572519,0.5572519083969466,-1.3511450381679388
3895057027470,2.190613645,1,0.23104046020507812,1.7477672119140624,-11.159373937988281,-0.7786259541984732,0.5419847328244275,-1.3282442748091603
3895063695648,2.197281823,1,0.23582886352539062,1.7477672119140624,-11.159373937988281,-0.8473282442748091,0.6106870229007634,-1.366412213740458
3895070362054,2.203948229,1,0.21787235107421873,1.7262193969726563,-11.17852755126953,-0.8473282442748091,0.6183206106870229,-1.3282442748091603
3895077029970,2.210616145,1,0.239420166015625,1.7094599853515624,-11.171344946289063,-0.8396946564885496,0.6183206106870229,-1.3282442748091603
3895083695700,2.217281875,1,0.23582886352539062,1.7226280944824217,-11.208455072021483,-0.8778625954198473,0.5725190839694656,-1.3053435114503817
3895090360752,2.223946927,1,0.23582886352539062,1.7274164978027342,-11.184513055419922,-0.8702290076335878,0.5419847328244275,-1.3129770992366412
3895097030022,2.230616197,1,0.22266075439453123,1.744175909423828,-11.183315954589844,-0.7709923664122137,0.5725190839694656,-1.3053435114503817
3895103695543,2.237281718,1,0.21188684692382811,1.7226280944824217,-11.195286962890624,-0.8320610687022901,0.5954198473282443,-1.3053435114503817
3895110360335,2.24394651,1,0.23104046020507812,1.7525556152343749,-11.195286962890624,-0.7633587786259542,0.6030534351145038,-1.366412213740458
3895117029606,2.250615781,1,0.20231004028320312,1.7405846069335937,-11.220426080322264,-0.7709923664122137,0.5572519083969466,-1.3358778625954197
3895123694970,2.257281145,1,0.24181436767578124,1.7417817077636717,-11.192892761230468,-0.8549618320610687,0.5877862595419847,-1.3129770992366412
3895130361533,2.263947708,1,0.2346317626953125,1.7286135986328124,-11.165359442138671,-0.8473282442748091,0.6030534351145038,-1.3053435114503817
3895137030960,2.270617135,1,0.20949264526367187,1.7214309936523438,-11.220426080322264,-0.7709923664122137,0.5877862595419847,-1.2900763358778626
3895143695179,2.277281354,1,0.2262520568847656,1.7465701110839842,-11.196484063720703,-0.8320610687022901,0.5801526717557252,-1.3053435114503817
3895150360439,2.283946614,1,0.2454056701660156,1.7621324218749999,-11.240776794433593,-0.8931297709923665,0.549618320610687,-1.366412213740458
3895157028772,2.290614947,1,0.22864625854492185,1.7166425903320313,-11.174936248779296,-0.8320610687022901,0.5572519083969466,-1.3358778625954197
3895163696168,2.297282343,1,0.25258827514648435,1.7381904052734374,-11.180921752929686,-0.916030534351145,0.5648854961832062,-1.3358778625954197
3895170363252,2.303949427,1,0.2442085693359375,1.7405846069335937,-11.173739147949219,-0.8396946564885496,0.5572519083969466,-1.3435114503816794
3895177028460,2.310614635,1,0.24660277099609373,1.70467158203125,-11.225214483642578,-0.8244274809160306,0.5877862595419847,-1.3358778625954197
3895183693512,2.317279687,1,0.21906945190429686,1.744175909423828,-11.154585534667968,-0.7786259541984732,0.5725190839694656,-1.3129770992366412
3895190362679,2.323948854,1,0.21906945190429686,1.7214309936523438,-11.203666668701171,-0.7557251908396947,0.5419847328244275,-1.3129770992366412
3895197029189,2.330615364,1,0.19871873779296872,1.7214309936523438,-11.203666668701171,-0.7862595419847328,0.549618320610687,-1.2671755725190839
3895203694554,2.337280729,1,0.20470424194335937,1.7238251953125,-11.203666668701171,-0.8549618320610687,0.5954198473282443,-1.3053435114503817
3895210362575,2.34394875,1,0.19033903198242186,1.7381904052734374,-11.207257971191405,-0.8549618320610687,0.6106870229007634,-1.3587786259541985
3895217029241,2.350615416,1,0.22505495605468748,1.7369933044433592,-11.202469567871093,-0.8244274809160306,0.6106870229007634,-1.297709923664122
3895223694033,2.357280208,1,0.19033903198242186,1.7310078002929687,-11.189301458740234,-0.8244274809160306,0.5267175572519084,-1.297709923664122
3895230362106,2.363948281,1,0.22505495605468748,1.714248388671875,-11.173739147949219,-0.9083969465648855,0.6335877862595419,-1.366412213740458
3895237028981,2.370615156,1,0.22385785522460935,1.725022296142578,-11.228805786132812,-0.8015267175572519,0.549618320610687,-1.366412213740458
3895243695283,2.377281458,1,0.24181436767578124,1.7453730102539062,-11.190498559570312,-0.8244274809160306,0.549618320610687,-1.3435114503816794
3895250362210,2.383948385,1,0.2454056701660156,1.725022296142578,-11.23000288696289,-0.8091603053435115,0.6641221374045801,-1.3129770992366412
3895257028200,2.390614375,1,0.24061726684570311,1.7118541870117185,-11.207257971191405,-0.816793893129771,0.5801526717557252,-1.3282442748091603
3895263696272,2.397282447,1,0.21906945190429686,1.7429788085937499,-11.186907257080078,-0.8320610687022901,0.6183206106870229,-1.3282442748091603
3895270362991,2.403949166,1,0.2154781494140625,1.7310078002929687,-11.234791290283203,-0.8702290076335878,0.6183206106870229,-1.3435114503816794
3895277027679,2.410613854,1,0.2346317626953125,1.7501614135742187,-11.235988391113281,-0.7633587786259542,0.5725190839694656,-1.2900763358778626
3895283695127,2.417281302,1,0.23822306518554687,1.7238251953125,-11.206060870361327,-0.7862595419847328,0.5877862595419847,-1.2900763358778626
3895290361689,2.423947864,1,0.2214636535644531,1.7549498168945312,-11.171344946289063,-0.8396946564885496,0.5648854961832062,-1.3053435114503817
3895297028564,2.430614739,1,0.2346317626953125,1.7369933044433592,-11.202469567871093,-0.8320610687022901,0.5038167938931297,-1.251908396946565
3895303697991,2.437284166,1,0.2262520568847656,1.7286135986328124,-11.204863769531249,-0.8854961832061069,0.5343511450381679,-1.2748091603053435
3895310362262,2.443948437,1,0.24181436767578124,1.7393875061035156,-11.21084927368164,-0.8320610687022901,0.5572519083969466,-1.2595419847328244
3895317027262,2.450613437,1,0.22266075439453123,1.7393875061035156,-11.192892761230468,-0.7633587786259542,0.6106870229007634,-1.297709923664122
3895323694502,2.457280677,1,0.239420166015625,1.7357962036132812,-11.200075366210937,-0.8015267175572519,0.6335877862595419,-1.3282442748091603
3895330361481,2.463947656,1,0.21188684692382811,1.7274164978027342,-11.221623181152344,-0.8015267175572519,0.6030534351145038,-1.3969465648854962
3895337027366,2.470613541,1,0.21188684692382811,1.7381904052734374,-11.202469567871093,-0.816793893129771,0.5190839694656488,-1.3435114503816794
3895343695804,2.477281979,1,0.19632453613281248,1.7381904052734374,-11.336544860839844,-0.8778625954198473,0.5648854961832062,-1.3587786259541985
3895350363564,2.483949739,1,0.22266075439453123,1.7525556152343749,-11.183315954589844,-0.7938931297709924,0.5038167938931297,-1.3587786259541985
3895357028616,2.490614791,1,0.2346317626953125,1.7525556152343749,-11.176133349609374,-0.7938931297709924,0.5267175572519084,-1.366412213740458
3895363700439,2.497286614,1,0.24061726684570311,1.7381904052734374,-11.206060870361327,-0.7786259541984732,0.5267175572519084,-1.3282442748091603
3895370361585,2.50394776,1,0.229843359375,1.714248388671875,-11.19169566040039,-0.8473282442748091,0.6335877862595419,-1.3282442748091603
3895377028981,2.510615156,1,0.21428104858398436,1.7310078002929687,-11.201272467041015,-0.8473282442748091,0.5343511450381679,-1.3282442748091603
3895383694241,2.517280416,1,0.21906945190429686,1.7513585144042967,-11.162965240478515,-0.8015267175572519,0.5343511450381679,-1.2748091603053435
3895390359866,2.523946041,1,0.2442085693359375,1.7286135986328124,-11.183315954589844,-0.7938931297709924,0.6030534351145038,-1.3053435114503817
3895397029918,2.530616093,1,0.239420166015625,1.715445489501953,-11.168950744628905,-0.8549618320610687,0.5648854961832062,-1.3511450381679388
3895403699554,2.537285729,1,0.229843359375,1.7226280944824217,-11.197681164550781,-0.8396946564885496,0.6030534351145038,-1.3053435114503817
3895410362210,2.543948385,1,0.24061726684570311,1.7381904052734374,-11.189301458740234,-0.8473282442748091,0.6183206106870229,-1.3129770992366412
3895417030022,2.550616197,1,0.24181436767578124,1.7525556152343749,-11.186907257080078,-0.816793893129771,0.549618320610687,-1.3358778625954197
3895423696064,2.557282239,1,0.20829554443359374,1.7190367919921874,-11.203666668701171,-0.7709923664122137,0.5190839694656488,-1.2900763358778626
3895430360491,2.563946666,1,0.23104046020507812,1.7286135986328124,-11.218031878662108,-0.8320610687022901,0.5725190839694656,-1.3282442748091603
3895437028720,2.570614895,1,0.21188684692382811,1.725022296142578,-11.208455072021483,-0.8396946564885496,0.5648854961832062,-1.3358778625954197
3895443696220,2.577282395,1,0.22385785522460935,1.725022296142578,-11.19169566040039,-0.7862595419847328,0.48091603053435117,-1.3053435114503817
3895450361533,2.583947708,1,0.21188684692382811,1.7238251953125,-11.170147845458983,-0.8244274809160306,0.6030534351145038,-1.282442748091603
3895457029814,2.590615989,1,0.19871873779296872,1.7381904052734374,-11.200075366210937,-0.7633587786259542,0.5877862595419847,-1.3358778625954197
3895463693460,2.597279635,1,0.239420166015625,1.7214309936523438,-11.192892761230468,-0.7862595419847328,0.6030534351145038,-1.3358778625954197
3895470362470,2.603948645,1,0.20829554443359374,1.7429788085937499,-11.215637677001952,-0.7938931297709924,0.648854961832061,-1.2900763358778626
3895477029918,2.610616093,1,0.20829554443359374,1.7238251953125,-11.17852755126953,-0.7938931297709924,0.6335877862595419,-1.2671755725190839
3895483693199,2.617279374,1,0.21787235107421873,1.7238251953125,-11.204863769531249,-0.8625954198473282,0.5877862595419847,-1.2671755725190839
3895490363929,2.623950104,1,0.21906945190429686,1.7334020019531249,-11.204863769531249,-0.8702290076335878,0.5877862595419847,-1.2671755725190839
3895497028668,2.630614843,1,0.26695348510742184,1.7310078002929687,-11.192892761230468,-0.8702290076335878,0.5954198473282443,-1.3358778625954197
3895503693824,2.637279999,1,0.24181436767578124,1.7393875061035156,-11.182118853759764,-0.8015267175572519,0.5954198473282443,-1.3206106870229009
3895510361897,2.643948072,1,0.2166752502441406,1.7322049011230467,-11.167753643798827,-0.8396946564885496,0.5267175572519084,-1.3206106870229009
3895517029606,2.650615781,1,0.21068974609375,1.7310078002929687,-11.17852755126953,-0.8854961832061069,0.5343511450381679,-1.3358778625954197
3895523697001,2.657283176,1,0.20231004028320312,1.7501614135742187,-11.156979736328124,-0.7862595419847328,0.5419847328244275,-1.3053435114503817
3895530361949,2.663948124,1,0.19033903198242186,1.7322049011230467,-11.155782635498046,-0.8396946564885496,0.5419847328244275,-1.2748091603053435
3895537027210,2.670613385,1,0.229843359375,1.7130512878417967,-11.192892761230468,-0.8854961832061069,0.6030534351145038,-1.297709923664122
3895543695804,2.677281979,1,0.21787235107421873,1.7190367919921874,-11.196484063720703,-0.8015267175572519,0.5725190839694656,-1.3740458015267176
3895550362001,2.683948176,1,0.21188684692382811,1.7465701110839842,-11.184513055419922,-0.816793893129771,0.6106870229007634,-1.297709923664122
3895557028512,2.690614687,1,0.21188684692382811,1.7262193969726563,-11.212046374511718,-0.8396946564885496,0.5877862595419847,-1.366412213740458
3895563695856,2.697282031,1,0.2561795776367187,1.7190367919921874,-11.19887826538086,-0.8244274809160306,0.5190839694656488,-1.3053435114503817
3895570361533,2.703947708,1,0.258573779296875,1.7298106994628906,-11.19169566040039,-0.8396946564885496,0.5267175572519084,-1.3053435114503817
3895577028043,2.710614218,1,0.20709844360351562,1.7214309936523438,-11.2240173828125,-0.8625954198473282,0.6335877862595419,-1.3282442748091603
3895583694970,2.717281145,1,0.2346317626953125,1.7130512878417967,-11.195286962890624,-0.8473282442748091,0.5419847328244275,-1.3282442748091603
3895590362054,2.723948229,1,0.2166752502441406,1.725022296142578,-11.188104357910156,-0.7862595419847328,0.5038167938931297,-1.3511450381679388
3895597026897,2.730613072,1,0.21188684692382811,1.7094599853515624,-11.189301458740234,-0.8244274809160306,0.5419847328244275,-1.3740458015267176
3895603695022,2.737281197,1,0.2214636535644531,1.7322049011230467,-11.154585534667968,-0.8396946564885496,0.5725190839694656,-1.297709923664122
3895610362626,2.743948801,1,0.2154781494140625,1.7274164978027342,-11.196484063720703,-0.8549618320610687,0.5419847328244275,-1.366412213740458
3895617030699,2.750616874,1,0.2549824768066406,1.7202338928222656,-11.182118853759764,-0.8015267175572519,0.6030534351145038,-1.3435114503816794
3895623696012,2.757282187,1,0.2549824768066406,1.7369933044433592,-11.201272467041015,-0.7862595419847328,0.6259541984732825,-1.2900763358778626
3895630362731,2.763948906,1,0.229843359375,1.7369933044433592,-11.2240173828125,-0.8015267175572519,0.5267175572519084,-1.3053435114503817
3895637030022,2.770616197,1,0.2262520568847656,1.7262193969726563,-11.2240173828125,-0.8320610687022901,0.6106870229007634,-1.3053435114503817
3895643694918,2.777281093,1,0.25258827514648435,1.7190367919921874,-11.219228979492186,-0.8320610687022901,0.5114503816793893,-1.3358778625954197
3895650361481,2.783947656,1,0.22385785522460935,1.725022296142578,-11.206060870361327,-0.8015267175572519,0.5114503816793893,-1.3358778625954197
3895657027887,2.790614062,1,0.2442085693359375,1.7393875061035156,-11.170147845458983,-0.8015267175572519,0.5801526717557252,-1.3282442748091603
3895663695179,2.797281354,1,0.2537853759765625,1.7298106994628906,-11.197681164550781,-0.8473282442748091,0.549618320610687,-1.3206106870229009
3895670360751,2.803946926,1,0.24899697265624998,1.7082628845214842,-11.21084927368164,-0.816793893129771,0.48091603053435117,-1.3358778625954197
3895677031845,2.81061802,1,0.21428104858398436,1.7214309936523438,-11.179724652099608,-0.8320610687022901,0.5267175572519084,-1.297709923664122
3895683696689,2.817282864,1,0.2154781494140625,1.744175909423828,-11.19887826538086,-0.8625954198473282,0.6030534351145038,-1.3358778625954197
3895690360543,2.823946718,1,0.24061726684570311,1.7130512878417967,-11.18571015625,-0.8931297709923665,0.5954198473282443,-1.3358778625954197
3895697029137,2.830615312,1,0.201112939453125,1.7298106994628906,-11.203666668701171,-0.8854961832061069,0.5267175572519084,-1.3435114503816794
3895703696012,2.837282187,1,0.22505495605468748,1.725022296142578,-11.171344946289063,-0.8244274809160306,0.5343511450381679,-1.3053435114503817
3895710362158,2.843948333,1,0.21308394775390624,1.7417817077636717,-11.194089862060546,-0.8854961832061069,0.5419847328244275,-1.297709923664122
3895717028460,2.850614635,1,0.22864625854492185,1.7262193969726563,-11.218031878662108,-0.8778625954198473,0.5801526717557252,-1.3053435114503817
3895723694606,2.857280781,1,0.2645592834472656,1.7298106994628906,-11.162965240478515,-0.8015267175572519,0.5343511450381679,-1.297709923664122
3895730362418,2.863948593,1,0.23223756103515625,1.7214309936523438,-11.171344946289063,-0.8015267175572519,0.5267175572519084,-1.3511450381679388
3895737029293,2.870615468,1,0.22864625854492185,1.7286135986328124,-11.176133349609374,-0.8396946564885496,0.5725190839694656,-1.3435114503816794
3895743698564,2.877284739,1,0.20949264526367187,1.7082628845214842,-11.190498559570312,-0.7862595419847328,0.5572519083969466,-1.3358778625954197
3895750362991,2.883949166,1,0.1879448303222656,1.705868682861328,-11.184513055419922,-0.816793893129771,0.5267175572519084,-1.3358778625954197
3895757028512,2.890614687,1,0.23582886352539062,1.7202338928222656,-11.214440576171874,-0.8396946564885496,0.5648854961832062,-1.3358778625954197
3895763693616,2.897279791,1,0.23582886352539062,1.7513585144042967,-11.201272467041015,-0.816793893129771,0.5419847328244275,-1.3206106870229009
3895770370699,2.903956874,1,0.25139117431640623,1.7513585144042967,-11.189301458740234,-0.816793893129771,0.6183206106870229,-1.3129770992366412
3895777030647,2.910616822,1,0.239420166015625,1.7298106994628906,-11.189301458740234,-0.816793893129771,0.6183206106870229,-1.3206106870229009
3895783692210,2.917278385,1,0.23822306518554687,1.7298106994628906,-11.17852755126953,-0.816793893129771,0.5267175572519084,-1.2900763358778626
3895790364137,2.923950312,1,0.2346317626953125,1.7585411193847655,-11.184513055419922,-0.8091603053435115,0.5267175572519084,-1.3129770992366412
3895797029658,2.930615833,1,0.2705447875976562,1.753752716064453,-11.201272467041015,-0.8396946564885496,0.5038167938931297,-1.3129770992366412
3895803695178,2.937281353,1,0.23702596435546874,1.7477672119140624,-11.190498559570312,-0.8091603053435115,0.4732824427480916,-1.3358778625954197
3895810362053,2.943948228,1,0.24061726684570311,1.734599102783203,-11.176133349609374,-0.7938931297709924,0.5343511450381679,-1.3206106870229009
3895817027106,2.950613281,1,0.24181436767578124,1.7453730102539062,-11.206060870361327,-0.8625954198473282,0.5648854961832062,-1.3206106870229009
3895823695856,2.957282031,1,0.21787235107421873,1.7489643127441405,-11.183315954589844,-0.8625954198473282,0.6259541984732825,-1.3129770992366412
3895830363199,2.963949374,1,0.22266075439453123,1.7166425903320313,-11.176133349609374,-0.7786259541984732,0.5725190839694656,-1.3129770992366412
3895837028616,2.970614791,1,0.2346317626953125,1.714248388671875,-11.207257971191405,-0.8473282442748091,0.5801526717557252,-1.2671755725190839
3895843698147,2.977284322,1,0.22744915771484372,1.7166425903320313,-11.188104357910156,-0.8854961832061069,0.549618320610687,-1.3358778625954197
3895850362106,2.983948281,1,0.2214636535644531,1.7310078002929687,-11.202469567871093,-0.8015267175572519,0.5725190839694656,-1.3129770992366412
3895857026272,2.990612447,1,0.24061726684570311,1.7417817077636717,-11.174936248779296,-0.8091603053435115,0.549618320610687,-1.2900763358778626
3895863695126,2.997281301,1,0.21906945190429686,1.7357962036132812,-11.192892761230468,-0.8549618320610687,0.5343511450381679,-1.282442748091603
3895870364241,3.003950416,1,0.23822306518554687,1.7022773803710936,-11.202469567871093,-0.8244274809160306,0.5954198473282443,-1.3206106870229009
3895877026949,3.010613124,1,0.23223756103515625,1.714248388671875,-11.214440576171874,-0.8549618320610687,0.6030534351145038,-1.3282442748091603
3895883694345,3.01728052,1,0.24301146850585936,1.7369933044433592,-11.215637677001952,-0.8396946564885496,0.6259541984732825,-1.297709923664122
3895890362053,3.023948228,1,0.2597708801269531,1.7501614135742187,-11.173739147949219,-0.8091603053435115,0.5648854961832062,-1.2595419847328244
3895897029814,3.030615989,1,0.21068974609375,1.7405846069335937,-11.189301458740234,-0.8473282442748091,0.6106870229007634,-1.2900763358778626
3895903694397,3.037280572,1,0.22505495605468748,1.734599102783203,-11.159373937988281,-0.8396946564885496,0.6259541984732825,-1.282442748091603
3895910360699,3.043946874,1,0.22505495605468748,1.734599102783203,-11.192892761230468,-0.8244274809160306,0.6183206106870229,-1.2900763358778626
3895917029293,3.050615468,1,0.229843359375,1.734599102783203,-11.195286962890624,-0.8702290076335878,0.5954198473282443,-1.3129770992366412
3895923694553,3.057280728,1,0.23223756103515625,1.7202338928222656,-11.195286962890624,-0.8320610687022901,0.6106870229007634,-1.366412213740458
3895930361012,3.063947187,1,0.22266075439453123,1.7393875061035156,-11.207257971191405,-0.8320610687022901,0.6106870229007634,-1.3282442748091603
3895937030803,3.070616978,1,0.22026655273437498,1.7298106994628906,-11.203666668701171,-0.8396946564885496,0.5954198473282443,-1.3282442748091603
3895943695439,3.077281614,1,0.21308394775390624,1.7274164978027342,-11.176133349609374,-0.8091603053435115,0.5954198473282443,-1.297709923664122
3895950361064,3.083947239,1,0.21787235107421873,1.744175909423828,-11.174936248779296,-0.7480916030534351,0.5725190839694656,-1.3358778625954197
3895957028668,3.090614843,1,0.23343466186523437,1.7453730102539062,-11.197681164550781,-0.8396946564885496,0.5877862595419847,-1.3053435114503817
3895963695595,3.09728177,1,0.2166752502441406,1.7310078002929687,-11.23000288696289,-0.8473282442748091,0.5877862595419847,-1.3206106870229009
3895970361793,3.103947968,1,0.2454056701660156,1.7417817077636717,-11.207257971191405,-0.816793893129771,0.5954198473282443,-1.3206106870229009
3895977027939,3.110614114,1,0.21428104858398436,1.7322049011230467,-11.203666668701171,-0.8015267175572519,0.5801526717557252,-1.3206106870229009
3895983695855,3.11728203,1,0.22505495605468748,1.7106570861816406,-11.21683477783203,-0.8473282442748091,0.6030534351145038,-1.297709923664122
3895990363355,3.12394953,1,0.22744915771484372,1.7118541870117185,-11.16057103881836,-0.7786259541984732,0.6106870229007634,-1.282442748091603
3895997029449,3.130615624,1,0.19871873779296872,1.7262193969726563,-11.167753643798827,-0.8091603053435115,0.6030534351145038,-1.282442748091603
3896003695543,3.137281718,1,0.21787235107421873,1.7357962036132812,-11.182118853759764,-0.8396946564885496,0.5572519083969466,-1.3435114503816794
3896010362887,3.143949062,1,0.21906945190429686,1.7226280944824217,-11.195286962890624,-0.8473282442748091,0.5343511450381679,-1.3358778625954197
3896017028720,3.150614895,1,0.23582886352539062,1.7357962036132812,-11.23000288696289,-0.8854961832061069,0.5648854961832062,-1.3129770992366412
3896023694137,3.157280312,1,0.21787235107421873,1.7369933044433592,-11.194089862060546,-0.8931297709923665,0.5954198473282443,-1.2748091603053435
3896030361533,3.163947708,1,0.23104046020507812,1.734599102783203,-11.183315954589844,-0.8473282442748091,0.5954198473282443,-1.297709923664122
3896037030283,3.170616458,1,0.2346317626953125,1.7190367919921874,-11.19887826538086,-0.8091603053435115,0.5343511450381679,-1.3435114503816794
3896044147418,3.177733593,1,0.229843359375,1.7334020019531249,-11.183315954589844,-0.8473282442748091,0.5954198473282443,-1.3129770992366412
3896051380439,3.184966614,1,0.2214636535644531,1.7453730102539062,-11.209652172851563,-0.8015267175572519,0.549618320610687,-1.3206106870229009
3896057372835,3.19095901,1,0.2214636535644531,1.7166425903320313,-11.213243475341796,-0.8091603053435115,0.5877862595419847,-1.3206106870229009
3896063697939,3.197284114,1,0.239420166015625,1.7166425903320313,-11.213243475341796,-0.7862595419847328,0.5725190839694656,-1.3282442748091603
3896070362574,3.203948749,1,0.24660277099609373,1.7561469177246092,-11.164162341308593,-0.7862595419847328,0.5038167938931297,-1.3206106870229009
3896077032730,3.210618905,1,0.19632453613281248,1.7286135986328124,-11.202469567871093,-0.8015267175572519,0.5038167938931297,-1.2748091603053435
3896083695439,3.217281614,1,0.22505495605468748,1.7405846069335937,-11.194089862060546,-0.8244274809160306,0.5267175572519084,-1.2748091603053435
3896090363095,3.22394927,1,0.2537853759765625,1.7262193969726563,-11.190498559570312,-0.7862595419847328,0.549618320610687,-1.3511450381679388
3896097032366,3.230618541,1,0.2442085693359375,1.7202338928222656,-11.19169566040039,-0.7251908396946565,0.5267175572519084,-1.3053435114503817
3896103696533,3.237282708,1,0.2346317626953125,1.7214309936523438,-11.17852755126953,-0.7862595419847328,0.549618320610687,-1.3358778625954197
3896110365126,3.243951301,1,0.2346317626953125,1.7298106994628906,-11.183315954589844,-0.7709923664122137,0.5801526717557252,-1.366412213740458
3896117031272,3.250617447,1,0.25139117431640623,1.7190367919921874,-11.207257971191405,-0.7786259541984732,0.5801526717557252,-1.3358778625954197
3896123698720,3.257284895,1,0.24061726684570311,1.7334020019531249,-11.182118853759764,-0.916030534351145,0.6183206106870229,-1.3282442748091603
3896130365335,3.26395151,1,0.229843359375,1.7178396911621092,-11.21084927368164,-0.8854961832061069,0.6183206106870229,-1.3511450381679388
3896137037730,3.270623905,1,0.2262520568847656,1.707065783691406,-11.202469567871093,-0.7938931297709924,0.5954198473282443,-1.3282442748091603
3896143697105,3.27728328,1,0.21068974609375,1.714248388671875,-11.188104357910156,-0.8244274809160306,0.5877862595419847,-1.3358778625954197
3896150363668,3.283949843,1,0.23582886352539062,1.7106570861816406,-11.227608685302734,-0.8320610687022901,0.5572519083969466,-1.3511450381679388
3896157030230,3.290616405,1,0.22505495605468748,1.7357962036132812,-11.18571015625,-0.816793893129771,0.5572519083969466,-1.3358778625954197
3896163698876,3.297285051,1,0.24061726684570311,1.6998831787109374,-11.214440576171874,-0.8473282442748091,0.5954198473282443,-1.3435114503816794
3896170363720,3.303949895,1,0.229843359375,1.7381904052734374,-11.194089862060546,-0.8091603053435115,0.5572519083969466,-1.3511450381679388
3896177027522,3.310613697,1,0.21068974609375,1.7202338928222656,-11.188104357910156,-0.8396946564885496,0.5419847328244275,-1.3206106870229009
3896183697366,3.317283541,1,0.22744915771484372,1.7393875061035156,-11.189301458740234,-0.816793893129771,0.5725190839694656,-1.297709923664122
3896190365491,3.323951666,1,0.2346317626953125,1.7166425903320313,-11.196484063720703,-0.8396946564885496,0.549618320610687,-1.297709923664122
3896197029449,3.330615624,1,0.2346317626953125,1.7429788085937499,-11.17852755126953,-0.7633587786259542,0.5725190839694656,-1.2900763358778626
3896203698407,3.337284582,1,0.2154781494140625,1.7429788085937499,-11.060014569091797,-0.816793893129771,0.549618320610687,-1.3206106870229009
3896210362835,3.34394901,1,0.1975216369628906,1.7453730102539062,-11.213243475341796,-0.8015267175572519,0.5877862595419847,-1.3129770992366412
3896217028303,3.350614478,1,0.19153613281249998,1.7274164978027342,-11.189301458740234,-0.8015267175572519,0.5877862595419847,-1.297709923664122
3896223696793,3.357282968,1,0.21308394775390624,1.7429788085937499,-11.196484063720703,-0.8549618320610687,0.5877862595419847,-1.297709923664122
3896230362782,3.363948957,1,0.20949264526367187,1.753752716064453,-11.184513055419922,-0.8702290076335878,0.5801526717557252,-1.3053435114503817
3896237029762,3.370615937,1,0.23223756103515625,1.7381904052734374,-11.179724652099608,-0.7480916030534351,0.6030534351145038,-1.3358778625954197
3896243696324,3.377282499,1,0.2166752502441406,1.7417817077636717,-11.179724652099608,-0.8473282442748091,0.5648854961832062,-1.3511450381679388
3896250362157,3.383948332,1,0.20470424194335937,1.7334020019531249,-11.174936248779296,-0.8015267175572519,0.5648854961832062,-1.3282442748091603
3896257031897,3.390618072,1,0.23223756103515625,1.7465701110839842,-11.212046374511718,-0.8015267175572519,0.5343511450381679,-1.3206106870229009
3896263696637,3.397282812,1,0.24779987182617186,1.7369933044433592,-11.212046374511718,-0.816793893129771,0.5267175572519084,-1.3206106870229009
3896270361428,3.403947603,1,0.24301146850585936,1.7202338928222656,-11.232397088623046,-0.8854961832061069,0.5267175572519084,-1.3511450381679388
3896277029605,3.41061578,1,0.24061726684570311,1.7202338928222656,-11.168950744628905,-0.9007633587786259,0.4961832061068702,-1.3435114503816794
3896283695387,3.417281562,1,0.22385785522460935,1.707065783691406,-11.203666668701171,-0.8549618320610687,0.4961832061068702,-1.3282442748091603
3896290362105,3.42394828,1,0.23582886352539062,1.7238251953125,-11.213243475341796,-0.7938931297709924,0.5190839694656488,-1.381679389312977
3896297030282,3.430616457,1,0.21428104858398436,1.7369933044433592,-11.213243475341796,-0.7709923664122137,0.648854961832061,-1.3587786259541985
3896303696897,3.437283072,1,0.20350714111328125,1.7513585144042967,-11.174936248779296,-0.8625954198473282,0.5343511450381679,-1.3129770992366412
3896310363199,3.443949374,1,0.23343466186523437,1.7274164978027342,-11.201272467041015,-0.8320610687022901,0.549618320610687,-1.3053435114503817
3896317030699,3.450616874,1,0.22266075439453123,1.7214309936523438,-11.186907257080078,-0.8396946564885496,0.5572519083969466,-1.297709923664122
3896323695907,3.457282082,1,0.22266075439453123,1.7298106994628906,-11.171344946289063,-0.8778625954198473,0.6259541984732825,-1.2748091603053435
3896330361116,3.463947291,1,0.1975216369628906,1.753752716064453,-11.213243475341796,-0.8244274809160306,0.6183206106870229,-1.3206106870229009
3896337028720,3.470614895,1,0.1975216369628906,1.753752716064453,-11.177330450439452,-0.8320610687022901,0.6183206106870229,-1.2900763358778626
3896343696532,3.477282707,1,0.20949264526367187,1.753752716064453,-11.19887826538086,-0.8702290076335878,0.5343511450381679,-1.3358778625954197
3896350363928,3.483950103,1,0.19871873779296872,1.7310078002929687,-11.19887826538086,-0.8091603053435115,0.5419847328244275,-1.3358778625954197
3896357030855,3.49061703,1,0.23822306518554687,1.7202338928222656,-11.176133349609374,-0.8091603053435115,0.5267175572519084,-1.297709923664122
3896363695439,3.497281614,1,0.239420166015625,1.705868682861328,-11.196484063720703,-0.8244274809160306,0.5267175572519084,-1.3053435114503817
3896370363043,3.503949218,1,0.21906945190429686,1.7286135986328124,-11.19887826538086,-0.816793893129771,0.6259541984732825,-1.3053435114503817
3896377030751,3.510616926,1,0.23702596435546874,1.7274164978027342,-11.23000288696289,-0.7862595419847328,0.5877862595419847,-1.3206106870229009
3896383695074,3.517281249,1,0.21188684692382811,1.715445489501953,-11.161768139648437,-0.816793893129771,0.5572519083969466,-1.3587786259541985
3896390362470,3.523948645,1,0.21068974609375,1.7262193969726563,-11.213243475341796,-0.8625954198473282,0.5648854961832062,-1.366412213740458
3896397030855,3.53061703,1,0.23223756103515625,1.7094599853515624,-11.204863769531249,-0.8320610687022901,0.5877862595419847,-1.3587786259541985
3896403695126,3.537281301,1,0.2346317626953125,1.7130512878417967,-11.18571015625,-0.8854961832061069,0.5801526717557252,-1.3053435114503817
3896410363876,3.543950051,1,0.21906945190429686,1.7190367919921874,-11.146205828857422,-0.8625954198473282,0.6106870229007634,-1.3282442748091603
3896417029501,3.550615676,1,0.23104046020507812,1.70467158203125,-11.173739147949219,-0.8015267175572519,0.549618320610687,-1.3358778625954197
3896423698928,3.557285103,1,0.20470424194335937,1.7238251953125,-11.214440576171874,-0.8702290076335878,0.6259541984732825,-1.2900763358778626
3896431531897,3.565118072,1,0.23223756103515625,1.7357962036132812,-11.139023223876952,-0.8320610687022901,0.6030534351145038,-1.3129770992366412
3896440130855,3.57371703,1,0.24660277099609373,1.7369933044433592,-11.183315954589844,-0.816793893129771,0.5801526717557252,-1.3053435114503817
3896448554241,3.582140416,1,0.25737667846679685,1.7465701110839842,-11.165359442138671,-0.8549618320610687,0.5954198473282443,-1.3129770992366412
3896457097209,3.590683384,1,0.20829554443359374,1.7298106994628906,-11.201272467041015,-0.816793893129771,0.6106870229007634,-1.297709923664122
3896465515074,3.599101249,1,0.20829554443359374,1.725022296142578,-11.204863769531249,-0.8854961832061069,0.6183206106870229,-1.3206106870229009
3896474086637,3.607672812,1,0.23822306518554687,1.7621324218749999,-11.200075366210937,-0.8549618320610687,0.5801526717557252,-1.3587786259541985
3896482396845,3.61598302,1,0.22864625854492185,1.7549498168945312,-11.174936248779296,-0.8320610687022901,0.5114503816793893,-1.3206106870229009
3896490951637,3.624537812,1,0.22864625854492185,1.7178396911621092,-11.213243475341796,-0.8091603053435115,0.5801526717557252,-1.3129770992366412
3896499322366,3.632908541,1,0.21068974609375,1.7226280944824217,-11.214440576171874,-0.7709923664122137,0.549618320610687,-1.3282442748091603
3896507857991,3.641444166,1,0.2454056701660156,1.7214309936523438,-11.190498559570312,-0.8091603053435115,0.5877862595419847,-1.297709923664122
3896516325230,3.649911405,1,0.22744915771484372,1.7393875061035156,-11.201272467041015,-0.8549618320610687,0.5725190839694656,-1.3358778625954197
3896524915022,3.658501197,1,0.2454056701660156,1.714248388671875,-11.042058056640624,-0.916030534351145,0.549618320610687,-1.3358778625954197
3896532597522,3.666183697,1,0.239420166015625,1.725022296142578,-11.162965240478515,-0.8473282442748091,0.5419847328244275,-1.3587786259541985
3896539900855,3.67348703,1,0.23343466186523437,1.7286135986328124,-11.189301458740234,-0.7862595419847328,0.5801526717557252,-1.2900763358778626
3896547518147,3.681104322,1,0.22385785522460935,1.7525556152343749,-11.197681164550781,-0.916030534351145,0.6641221374045801,-1.282442748091603
3896554939137,3.688525312,1,0.24061726684570311,1.7381904052734374,-11.170147845458983,-0.9007633587786259,0.6564885496183206,-1.282442748091603
3896562527001,3.696113176,1,0.2442085693359375,1.7322049011230467,-11.186907257080078,-0.8854961832061069,0.5343511450381679,-1.3053435114503817
3896569887834,3.703474009,1,0.2166752502441406,1.7202338928222656,-11.207257971191405,-0.916030534351145,0.648854961832061,-1.366412213740458
3896577448928,3.711035103,1,0.2214636535644531,1.7525556152343749,-11.195286962890624,-0.8854961832061069,0.5267175572519084,-1.3129770992366412
3896584874293,3.718460468,1,0.21428104858398436,1.7274164978027342,-11.171344946289063,-0.8473282442748091,0.5343511450381679,-1.3282442748091603
3896592427522,3.726013697,1,0.22505495605468748,1.7334020019531249,-11.186907257080078,-0.8320610687022901,0.6106870229007634,-1.3053435114503817
3896599791480,3.733377655,1,0.239420166015625,1.7381904052734374,-11.184513055419922,-0.7938931297709924,0.6183206106870229,-1.297709923664122
3896607345491,3.740931666,1,0.23822306518554687,1.7357962036132812,-11.174936248779296,-0.7862595419847328,0.5572519083969466,-1.3129770992366412
3896614764345,3.74835052,1,0.20709844360351562,1.7310078002929687,-11.17852755126953,-0.8244274809160306,0.6793893129770993,-1.3053435114503817
3896622349084,3.755935259,1,0.24061726684570311,1.7178396911621092,-11.188104357910156,-0.8396946564885496,0.5725190839694656,-1.3206106870229009
3896629763095,3.76334927,1,0.20709844360351562,1.744175909423828,-11.14022032470703,-0.816793893129771,0.6030534351145038,-1.282442748091603
3896637272782,3.770858957,1,0.229843359375,1.7453730102539062,-11.183315954589844,-0.7633587786259542,0.5801526717557252,-1.251908396946565
3896644709241,3.778295416,1,0.21308394775390624,1.7214309936523438,-11.165359442138671,-0.816793893129771,0.5954198473282443,-1.2900763358778626
3896652287782,3.785873957,1,0.19632453613281248,1.715445489501953,-11.159373937988281,-0.8396946564885496,0.5343511450381679,-1.3206106870229009
3896659695907,3.793282082,1,0.21068974609375,1.7310078002929687,-11.197681164550781,-0.8244274809160306,0.5114503816793893,-1.3053435114503817
3896667280386,3.800866561,1,0.21308394775390624,1.7238251953125,-11.179724652099608,-0.8396946564885496,0.5419847328244275,-1.3358778625954197
3896674664918,3.808251093,1,0.21428104858398436,1.7262193969726563,-11.195286962890624,-0.8320610687022901,0.5725190839694656,-1.3053435114503817
3896682217418,3.815803593,1,0.22026655273437498,1.7214309936523438,-11.202469567871093,-0.7786259541984732,0.5801526717557252,-1.3511450381679388
3896689632678,3.823218853,1,0.2262520568847656,1.7513585144042967,-11.195286962890624,-0.8396946564885496,0.6030534351145038,-1.3282442748091603
3896697172782,3.830758957,1,0.24660277099609373,1.7381904052734374,-11.206060870361327,-0.7938931297709924,0.5038167938931297,-1.282442748091603
3896704545491,3.838131666,1,0.20470424194335937,1.7322049011230467,-11.190498559570312,-0.7709923664122137,0.5038167938931297,-1.3053435114503817
3896712087105,3.84567328,1,0.21068974609375,1.7405846069335937,-11.189301458740234,-0.7938931297709924,0.4961832061068702,-1.3435114503816794
3896719496168,3.853082343,1,0.2166752502441406,1.7322049011230467,-11.177330450439452,-0.8091603053435115,0.5267175572519084,-1.2748091603053435
3896727078720,3.860664895,1,0.21428104858398436,1.714248388671875,-11.195286962890624,-0.8091603053435115,0.5343511450381679,-1.2900763358778626
3896734509449,3.868095624,1,0.22385785522460935,1.7322049011230467,-11.200075366210937,-0.7557251908396947,0.5267175572519084,-1.2595419847328244
3896742037991,3.875624166,1,0.24660277099609373,1.7381904052734374,-11.162965240478515,-0.7557251908396947,0.4961832061068702,-1.3511450381679388
3896749459918,3.883046093,1,0.20949264526367187,1.7298106994628906,-11.174936248779296,-0.8320610687022901,0.5725190839694656,-1.3435114503816794
3896757079501,3.890665676,1,0.2454056701660156,1.734599102783203,-11.184513055419922,-0.7786259541984732,0.549618320610687,-1.3587786259541985
3896764487886,3.898074061,1,0.23343466186523437,1.7357962036132812,-11.194089862060546,-0.8091603053435115,0.5038167938931297,-1.2595419847328244
3896771837053,3.905423228,1,0.20949264526367187,1.7202338928222656,-11.177330450439452,-0.8778625954198473,0.5725190839694656,-1.282442748091603
3896779176949,3.912763124,1,0.21068974609375,1.7286135986328124,-11.183315954589844,-0.8244274809160306,0.5343511450381679,-1.282442748091603
3896786531584,3.920117759,1,0.2501940734863281,1.7094599853515624,-11.204863769531249,-0.8549618320610687,0.6183206106870229,-1.3129770992366412
3896793849918,3.927436093,1,0.239420166015625,1.7334020019531249,-11.196484063720703,-0.9007633587786259,0.6106870229007634,-1.2748091603053435
3896801161272,3.934747447,1,0.23343466186523437,1.7094599853515624,-11.164162341308593,-0.8625954198473282,0.5572519083969466,-1.3053435114503817
3896808514501,3.942100676,1,0.24660277099609373,1.715445489501953,-11.182118853759764,-0.8549618320610687,0.6259541984732825,-1.2748091603053435
3896815867782,3.949453957,1,0.2549824768066406,1.7298106994628906,-11.168950744628905,-0.8625954198473282,0.5954198473282443,-1.2595419847328244
3896823285334,3.956871509,1,0.21428104858398436,1.7286135986328124,-11.212046374511718,-0.8625954198473282,0.5648854961832062,-1.3282442748091603
3896831136116,3.964722291,1,0.23343466186523437,1.7357962036132812,-11.215637677001952,-0.816793893129771,0.5267175572519084,-1.2900763358778626
3896839547574,3.973133749,1,0.22744915771484372,1.7513585144042967,-11.220426080322264,-0.7862595419847328,0.5877862595419847,-1.3206106870229009
3896847871636,3.981457811,1,0.229843359375,1.7238251953125,-11.209652172851563,-0.8396946564885496,0.5801526717557252,-1.3282442748091603
3896856354241,3.989940416,1,0.23223756103515625,1.744175909423828,-11.182118853759764,-0.8473282442748091,0.5190839694656488,-1.3435114503816794
3896864759188,3.998345363,1,0.22266075439453123,1.7334020019531249,-11.177330450439452,-0.7480916030534351,0.5038167938931297,-1.3206106870229009
3896873085074,4.006671249,1,0.2214636535644531,1.7238251953125,-11.190498559570312,-0.8396946564885496,0.5572519083969466,-1.3358778625954197
3896881446793,4.015032968,1,0.22505495605468748,1.7417817077636717,-11.159373937988281,-0.816793893129771,0.5877862595419847,-1.2900763358778626
3896889732886,4.023319061,1,0.2346317626953125,1.7202338928222656,-11.166556542968749,-0.8702290076335878,0.648854961832061,-1.297709923664122
3896898104241,4.031690416,1,0.2549824768066406,1.7178396911621092,-11.182118853759764,-0.8473282442748091,0.6259541984732825,-1.3206106870229009
3896906425386,4.040011561,1,0.2059013427734375,1.7453730102539062,-11.182118853759764,-0.816793893129771,0.5648854961832062,-1.297709923664122
3896914771220,4.048357395,1,0.239420166015625,1.7190367919921874,-11.21683477783203,-0.7786259541984732,0.5114503816793893,-1.3129770992366412
3896923083928,4.056670103,1,0.21188684692382811,1.7573440185546874,-11.196484063720703,-0.816793893129771,0.5648854961832062,-1.2900763358778626
3896930986793,4.064572968,1,0.22026655273437498,1.7334020019531249,-11.189301458740234,-0.8625954198473282,0.5801526717557252,-1.3282442748091603
3896938353668,4.071939843,1,0.2262520568847656,1.7501614135742187,-11.152191333007812,-0.816793893129771,0.6717557251908397,-1.2900763358778626
3896945712522,4.079298697,1,0.24061726684570311,1.7202338928222656,-11.197681164550781,-0.7938931297709924,0.6412213740458015,-1.3129770992366412
3896953104657,4.086690832,1,0.22864625854492185,1.7453730102539062,-11.219228979492186,-0.816793893129771,0.5801526717557252,-1.3358778625954197
3896960534397,4.094120572,1,0.24181436767578124,1.7298106994628906,-11.195286962890624,-0.8015267175572519,0.5572519083969466,-1.3358778625954197
3896967888303,4.101474478,1,0.24779987182617186,1.7561469177246092,-11.19887826538086,-0.8396946564885496,0.5725190839694656,-1.2900763358778626
3896975231845,4.10881802,1,0.23822306518554687,1.734599102783203,-11.174936248779296,-0.8473282442748091,0.5572519083969466,-1.3206106870229009
3896982576949,4.116163124,1,0.201112939453125,1.7477672119140624,-11.213243475341796,-0.8091603053435115,0.549618320610687,-1.3358778625954197
3896989930543,4.123516718,1,0.22744915771484372,1.7465701110839842,-11.176133349609374,-0.8091603053435115,0.5419847328244275,-1.297709923664122
3896997273251,4.130859426,1,0.23702596435546874,1.7453730102539062,-11.196484063720703,-0.8473282442748091,0.6183206106870229,-1.3358778625954197
3897004572470,4.138158645,1,0.2346317626953125,1.7286135986328124,-11.219228979492186,-0.7862595419847328,0.48091603053435117,-1.3053435114503817
3897011889761,4.145475936,1,0.24181436767578124,1.7334020019531249,-11.209652172851563,-0.8473282442748091,0.5419847328244275,-1.3511450381679388
3897019286949,4.152873124,1,0.22744915771484372,1.7310078002929687,-11.207257971191405,-0.8778625954198473,0.549618320610687,-1.297709923664122
3897026669866,4.160256041,1,0.20829554443359374,1.734599102783203,-11.213243475341796,-0.8320610687022901,0.549618320610687,-1.2900763358778626
3897034030022,4.167616197,1,0.229843359375,1.7501614135742187,-11.202469567871093,-0.8778625954198473,0.5648854961832062,-1.3206106870229009
3897041433511,4.175019686,1,0.229843359375,1.7286135986328124,-11.171344946289063,-0.8778625954198473,0.5648854961832062,-1.3053435114503817
3897048781063,4.182367238,1,0.21188684692382811,1.7405846069335937,-11.161768139648437,-0.816793893129771,0.5419847328244275,-1.251908396946565
3897056101480,4.189687655,1,0.21068974609375,1.7585411193847655,-11.188104357910156,-0.8854961832061069,0.5572519083969466,-1.2671755725190839
3897063405074,4.196991249,1,0.23822306518554687,1.7369933044433592,-11.209652172851563,-0.8244274809160306,0.5572519083969466,-1.2900763358778626
3897070704501,4.204290676,1,0.24779987182617186,1.744175909423828,-11.17852755126953,-0.7862595419847328,0.5954198473282443,-1.2900763358778626
3897078048355,4.21163453,1,0.23582886352539062,1.7549498168945312,-11.137826123046874,-0.816793893129771,0.648854961832061,-1.3206106870229009
3897085376740,4.218962915,1,0.23822306518554687,1.7334020019531249,-11.171344946289063,-0.8396946564885496,0.5877862595419847,-1.3282442748091603
3897092711376,4.226297551,1,0.21308394775390624,1.7489643127441405,-11.19887826538086,-0.8396946564885496,0.5877862595419847,-1.297709923664122
3897100072418,4.233658593,1,0.23582886352539062,1.7298106994628906,-11.222820281982422,-0.8320610687022901,0.5572519083969466,-1.3282442748091603
3897107389657,4.240975832,1,0.2154781494140625,1.7190367919921874,-11.194089862060546,-0.7557251908396947,0.5267175572519084,-1.3206106870229009
3897114716636,4.248302811,1,0.2154781494140625,1.7226280944824217,-11.209652172851563,-0.8396946564885496,0.5267175572519084,-1.3282442748091603
3897122040230,4.255626405,1,0.2166752502441406,1.7465701110839842,-11.170147845458983,-0.8702290076335878,0.5725190839694656,-1.297709923664122
3897129349813,4.262935988,1,0.23822306518554687,1.7274164978027342,-11.174936248779296,-0.7862595419847328,0.5572519083969466,-1.2595419847328244
3897136714813,4.270300988,1,0.21428104858398436,1.7214309936523438,-11.197681164550781,-0.8015267175572519,0.549618320610687,-1.3282442748091603
3897144086168,4.277672343,1,0.25737667846679685,1.7262193969726563,-11.207257971191405,-0.8473282442748091,0.549618320610687,-1.3511450381679388
3897151347990,4.284934165,1,0.24061726684570311,1.7298106994628906,-11.215637677001952,-0.7633587786259542,0.5190839694656488,-1.3511450381679388
3897158698876,4.292285051,1,0.22864625854492185,1.7369933044433592,-11.194089862060546,-0.8625954198473282,0.5114503816793893,-1.3282442748091603
3897166024188,4.299610363,1,0.2537853759765625,1.7298106994628906,-11.150994232177734,-0.8625954198473282,0.549618320610687,-1.3282442748091603
3897173352834,4.306939009,1,0.24301146850585936,1.7106570861816406,-11.195286962890624,-0.8396946564885496,0.5801526717557252,-1.3282442748091603
3897180691011,4.314277186,1,0.23582886352539062,1.70467158203125,-11.142614526367186,-0.8320610687022901,0.5648854961832062,-1.2748091603053435
3897188079345,4.32166552,1,0.21906945190429686,1.7238251953125,-11.203666668701171,-0.816793893129771,0.6030534351145038,-1.3358778625954197
3897195399345,4.32898552,1,0.22744915771484372,1.7022773803710936,-11.19169566040039,-0.7938931297709924,0.5725190839694656,-1.3358778625954197
3897202714605,4.33630078,1,0.21787235107421873,1.7381904052734374,-11.183315954589844,-0.8396946564885496,0.5343511450381679,-1.366412213740458
3897210040543,4.343626718,1,0.22864625854492185,1.7501614135742187,-11.192892761230468,-0.7786259541984732,0.5801526717557252,-1.3282442748091603
3897217355699,4.350941874,1,0.24181436767578124,1.7645266235351562,-11.161768139648437,-0.8549618320610687,0.5801526717557252,-1.3358778625954197
3897224627938,4.358214113,1,0.21308394775390624,1.7190367919921874,-11.214440576171874,-0.816793893129771,0.5572519083969466,-1.3206106870229009
3897231957886,4.365544061,1,0.23104046020507812,1.7286135986328124,-11.158176837158203,-0.8015267175572519,0.5725190839694656,-1.3511450381679388
3897239457730,4.373043905,1,0.21428104858398436,1.7274164978027342,-11.17254204711914,-0.8396946564885496,0.549618320610687,-1.3053435114503817
3897246783043,4.380369218,1,0.22026655273437498,1.725022296142578,-11.173739147949219,-0.8091603053435115,0.549618320610687,-1.2900763358778626
3897254120907,4.387707082,1,0.20350714111328125,1.7274164978027342,-11.197681164550781,-0.7862595419847328,0.549618320610687,-1.3053435114503817
3897261464032,4.395050207,1,0.24301146850585936,1.7334020019531249,-11.190498559570312,-0.816793893129771,0.6412213740458015,-1.3282442748091603
3897268850647,4.402436822,1,0.23822306518554687,1.7417817077636717,-11.167753643798827,-0.8244274809160306,0.5801526717557252,-1.3206106870229009
3897276169397,4.409755572,1,0.21787235107421873,1.7334020019531249,-11.196484063720703,-0.8320610687022901,0.5954198473282443,-1.3435114503816794
3897283488147,4.417074322,1,0.201112939453125,1.7369933044433592,-11.206060870361327,-0.8549618320610687,0.5572519083969466,-1.3282442748091603
3897290793459,4.424379634,1,0.2166752502441406,1.7190367919921874,-11.188104357910156,-0.8396946564885496,0.48091603053435117,-1.2748091603053435
3897298103147,4.431689322,1,0.23822306518554687,1.7405846069335937,-11.186907257080078,-0.8320610687022901,0.5038167938931297,-1.3282442748091603
3897305456845,4.43904302,1,0.19991583862304688,1.7262193969726563,-11.192892761230468,-0.8244274809160306,0.5954198473282443,-1.3129770992366412
3897312778563,4.446364738,1,0.1867477294921875,1.7310078002929687,-11.190498559570312,-0.7480916030534351,0.48854961832061067,-1.3053435114503817
3897320125907,4.453712082,1,0.20470424194335937,1.7226280944824217,-11.177330450439452,-0.8244274809160306,0.5725190839694656,-1.282442748091603
3897327466897,4.461053072,1,0.22744915771484372,1.7118541870117185,-11.180921752929686,-0.8625954198473282,0.5954198473282443,-1.3511450381679388
3897334806740,4.468392915,1,0.22026655273437498,1.7178396911621092,-11.190498559570312,-0.8244274809160306,0.5954198473282443,-1.3893129770992367
3897342129449,4.475715624,1,0.23702596435546874,1.7130512878417967,-11.218031878662108,-0.8854961832061069,0.5954198473282443,-1.3129770992366412
3897349513824,4.483099999,1,0.24660277099609373,1.7226280944824217,-11.23718549194336,-0.8931297709923665,0.5114503816793893,-1.2671755725190839
3897356873355,4.49045953,1,0.23104046020507812,1.7226280944824217,-11.196484063720703,-0.8549618320610687,0.549618320610687,-1.2442748091603053
3897364223824,4.497809999,1,0.19393033447265623,1.715445489501953,-11.069591375732422,-0.8015267175572519,0.5648854961832062,-1.2595419847328244
3897371549136,4.505135311,1,0.20470424194335937,1.7405846069335937,-11.208455072021483,-0.7938931297709924,0.5648854961832062,-1.297709923664122
3897378886845,4.51247302,1,0.229843359375,1.7453730102539062,-11.219228979492186,-0.8625954198473282,0.6259541984732825,-1.3206106870229009
3897386229970,4.519816145,1,0.21068974609375,1.7501614135742187,-11.136629022216797,-0.8320610687022901,0.5801526717557252,-1.3358778625954197
3897393550855,4.52713703,1,0.19632453613281248,1.7489643127441405,-11.171344946289063,-0.7480916030534351,0.4961832061068702,-1.2900763358778626
3897400890751,4.534476926,1,0.21188684692382811,1.725022296142578,-11.207257971191405,-0.8244274809160306,0.5954198473282443,-1.2595419847328244
3897408248928,4.541835103,1,0.22505495605468748,1.6915034729003906,-11.165359442138671,-0.816793893129771,0.6259541984732825,-1.251908396946565
3897415604188,4.549190363,1,0.23343466186523437,1.6986860778808592,-11.188104357910156,-0.8091603053435115,0.6412213740458015,-1.2290076335877862
3897422891740,4.556477915,1,0.24301146850585936,1.715445489501953,-11.226411584472656,-0.816793893129771,0.6106870229007634,-1.3282442748091603
3897430226845,4.56381302,1,0.2454056701660156,1.7334020019531249,-11.168950744628905,-0.7938931297709924,0.5572519083969466,-1.297709923664122
3897437545386,4.571131561,1,0.25258827514648435,1.7262193969726563,-11.190498559570312,-0.8396946564885496,0.5419847328244275,-1.282442748091603
3897444884240,4.578470415,1,0.20709844360351562,1.7369933044433592,-11.204863769531249,-0.8778625954198473,0.5190839694656488,-1.3358778625954197
3897452300490,4.585886665,1,0.2346317626953125,1.7381904052734374,-11.186907257080078,-0.8396946564885496,0.5801526717557252,-1.2671755725190839
3897459649449,4.593235624,1,0.23104046020507812,1.7118541870117185,-11.174936248779296,-0.8625954198473282,0.5190839694656488,-1.3129770992366412
3897466981115,4.60056729,1,0.2537853759765625,1.7106570861816406,-11.179724652099608,-0.8702290076335878,0.5877862595419847,-1.2900763358778626
3897474257105,4.60784328,1,0.2501940734863281,1.7202338928222656,-11.192892761230468,-0.8473282442748091,0.5877862595419847,-1.3358778625954197
3897481618407,4.615204582,1,0.22744915771484372,1.7226280944824217,-11.189301458740234,-0.7709923664122137,0.5648854961832062,-1.2748091603053435
3897488965386,4.622551561,1,0.23104046020507812,1.7190367919921874,-11.195286962890624,-0.8702290076335878,0.5954198473282443,-1.3358778625954197
3897496310074,4.629896249,1,0.23702596435546874,1.7465701110839842,-11.155782635498046,-0.8854961832061069,0.5572519083969466,-1.3282442748091603
3897503653199,4.637239374,1,0.22026655273437498,1.7501614135742187,-11.197681164550781,-0.816793893129771,0.6564885496183206,-1.3282442748091603
3897510961115,4.64454729,1,0.20949264526367187,1.7238251953125,-11.329362255859374,-0.7938931297709924,0.5877862595419847,-1.2671755725190839
3897518346011,4.651932186,1,0.22385785522460935,1.7334020019531249,-11.192892761230468,-0.8244274809160306,0.6106870229007634,-1.3282442748091603
3897525723824,4.659309999,1,0.22744915771484372,1.7310078002929687,-11.182118853759764,-0.8473282442748091,0.6259541984732825,-1.3053435114503817
3897533080959,4.666667134,1,0.21308394775390624,1.7334020019531249,-11.209652172851563,-0.8244274809160306,0.6030534351145038,-1.3282442748091603
3897540461636,4.674047811,1,0.22266075439453123,1.7274164978027342,-11.194089862060546,-0.8320610687022901,0.5725190839694656,-1.3129770992366412
3897547776792,4.681362967,1,0.23822306518554687,1.7322049011230467,-11.161768139648437,-0.916030534351145,0.648854961832061,-1.4045801526717556
3897555104188,4.688690363,1,0.21787235107421873,1.7118541870117185,-11.188104357910156,-0.8854961832061069,0.5114503816793893,-1.3282442748091603
3897562451844,4.696038019,1,0.2501940734863281,1.734599102783203,-11.206060870361327,-0.8549618320610687,0.5190839694656488,-1.3053435114503817
3897569768407,4.703354582,1,0.229843359375,1.7190367919921874,-11.206060870361327,-0.8702290076335878,0.5267175572519084,-1.2748091603053435
3897577085074,4.710671249,1,0.20231004028320312,1.7166425903320313,-11.16057103881836,-0.8244274809160306,0.5343511450381679,-1.3206106870229009
3897584464032,4.718050207,1,0.22505495605468748,1.7525556152343749,-11.184513055419922,-0.8320610687022901,0.5572519083969466,-1.3053435114503817
3897591795334,4.725381509,1,0.22864625854492185,1.7417817077636717,-11.173739147949219,-0.7938931297709924,0.5877862595419847,-1.3587786259541985
3897599148876,4.732735051,1,0.2154781494140625,1.7310078002929687,-11.213243475341796,-0.7404580152671756,0.5190839694656488,-1.3511450381679388
3897606527105,4.74011328,1,0.20949264526367187,1.7417817077636717,-11.182118853759764,-0.8015267175572519,0.5877862595419847,-1.282442748091603
3897613831376,4.747417551,1,0.2154781494140625,1.7405846069335937,-11.161768139648437,-0.8244274809160306,0.5954198473282443,-1.3129770992366412
3897621171792,4.754757967,1,0.18315642700195311,1.7214309936523438,-11.207257971191405,-0.7862595419847328,0.5419847328244275,-1.282442748091603
3897628553667,4.762139842,1,0.20350714111328125,1.7178396911621092,-11.194089862060546,-0.8625954198473282,0.5343511450381679,-1.3206106870229009
3897635859188,4.769445363,1,0.2214636535644531,1.7405846069335937,-11.1474029296875,-0.8396946564885496,0.549618320610687,-1.3129770992366412
3897643217678,4.776803853,1,0.21068974609375,1.7310078002929687,-11.196484063720703,-0.8320610687022901,0.6030534351145038,-1.297709923664122
3897650537105,4.78412328,1,0.2059013427734375,1.734599102783203,-11.184513055419922,-0.8549618320610687,0.5954198473282443,-1.3053435114503817
3897657829397,4.791415572,1,0.24181436767578124,1.7262193969726563,-11.208455072021483,-0.7709923664122137,0.549618320610687,-1.297709923664122
3897665156324,4.798742499,1,0.22505495605468748,1.7513585144042967,-11.221623181152344,-0.7938931297709924,0.5572519083969466,-1.3129770992366412
3897672501740,4.806087915,1,0.21428104858398436,1.725022296142578,-11.212046374511718,-0.816793893129771,0.6183206106870229,-1.366412213740458
3897679837261,4.813423436,1,0.23702596435546874,1.7274164978027342,-11.201272467041015,-0.8320610687022901,0.6183206106870229,-1.3206106870229009
3897687171115,4.82075729,1,0.21308394775390624,1.7286135986328124,-11.219228979492186,-0.8931297709923665,0.5877862595419847,-1.3206106870229009
3897694490178,4.828076353,1,0.22385785522460935,1.715445489501953,-11.203666668701171,-0.8091603053435115,0.5801526717557252,-1.3206106870229009
3897701838094,4.835424269,1,0.21068974609375,1.7082628845214842,-11.170147845458983,-0.7862595419847328,0.5801526717557252,-1.3053435114503817
3897709153667,4.842739842,1,0.22744915771484372,1.7178396911621092,-11.203666668701171,-0.8549618320610687,0.5648854961832062,-1.3282442748091603
3897716477469,4.850063644,1,0.2454056701660156,1.7322049011230467,-11.190498559570312,-0.8702290076335878,0.5801526717557252,-1.3206106870229009
3897723792209,4.857378384,1,0.2442085693359375,1.7106570861816406,-11.18571015625,-0.8396946564885496,0.5877862595419847,-1.2595419847328244
3897731119553,4.864705728,1,0.20829554443359374,1.707065783691406,-11.221623181152344,-0.8473282442748091,0.6259541984732825,-1.3129770992366412
3897738489084,4.872075259,1,0.22385785522460935,1.7082628845214842,-11.190498559570312,-0.7633587786259542,0.5572519083969466,-1.2748091603053435
3897745838146,4.879424321,1,0.21906945190429686,1.7381904052734374,-11.154585534667968,-0.7786259541984732,0.5877862595419847,-1.297709923664122
3897753155126,4.886741301,1,0.2262520568847656,1.7453730102539062,-11.12226381225586,-0.8778625954198473,0.5343511450381679,-1.3587786259541985
3897760595074,4.894181249,1,0.22385785522460935,1.7369933044433592,-11.162965240478515,-0.816793893129771,0.6106870229007634,-1.3969465648854962
3897767928667,4.901514842,1,0.20231004028320312,1.7453730102539062,-11.162965240478515,-0.8396946564885496,0.5954198473282443,-1.3435114503816794
3897775305855,4.90889203,1,0.2454056701660156,1.7369933044433592,-11.141417425537108,-0.8244274809160306,0.5877862595419847,-1.3129770992366412
3897782705021,4.916291196,1,0.24779987182617186,1.7453730102539062,-11.17852755126953,-0.7862595419847328,0.5343511450381679,-1.3740458015267176
3897790021324,4.923607499,1,0.239420166015625,1.7453730102539062,-11.159373937988281,-0.7938931297709924,0.6183206106870229,-1.366412213740458
3897797357209,4.930943384,1,0.24660277099609373,1.725022296142578,-11.201272467041015,-0.816793893129771,0.5190839694656488,-1.3511450381679388
3897804705386,4.938291561,1,0.24779987182617186,1.7334020019531249,-11.064802972412108,-0.8015267175572519,0.5114503816793893,-1.2900763358778626
3897812060490,4.945646665,1,0.23343466186523437,1.7573440185546874,-11.184513055419922,-0.8244274809160306,0.5190839694656488,-1.2900763358778626
3897819369136,4.952955311,1,0.21068974609375,1.7178396911621092,-11.226411584472656,-0.7938931297709924,0.5648854961832062,-1.3282442748091603
3897826792417,4.960378592,1,0.2214636535644531,1.7429788085937499,-11.161768139648437,-0.9007633587786259,0.5725190839694656,-1.3206106870229009
3897834171636,4.967757811,1,0.2166752502441406,1.7214309936523438,-11.174936248779296,-0.8702290076335878,0.5190839694656488,-1.366412213740458
3897841478511,4.975064686,1,0.21787235107421873,1.7274164978027342,-11.179724652099608,-0.7633587786259542,0.5648854961832062,-1.3358778625954197
3897848852001,4.982438176,1,0.22385785522460935,1.7513585144042967,-11.207257971191405,-0.8091603053435115,0.5954198473282443,-1.2900763358778626
3897856284188,4.989870363,1,0.23223756103515625,1.7238251953125,-11.176133349609374,-0.8473282442748091,0.648854961832061,-1.381679389312977
3897863598199,4.997184374,1,0.20350714111328125,1.7310078002929687,-11.220426080322264,-0.7862595419847328,0.6183206106870229,-1.3740458015267176
3897870917469,5.004503644,1,0.2154781494140625,1.7286135986328124,-11.195286962890624,-0.8473282442748091,0.5648854961832062,-1.3053435114503817
3897878261896,5.011848071,1,0.23702596435546874,1.7274164978027342,-11.21683477783203,-0.7862595419847328,0.5725190839694656,-1.2595419847328244
3897885553146,5.019139321,1,0.23104046020507812,1.7274164978027342,-11.209652172851563,-0.7862595419847328,0.5267175572519084,-1.3282442748091603
3897892909969,5.026496144,1,0.21188684692382811,1.7130512878417967,-11.173739147949219,-0.8396946564885496,0.6335877862595419,-1.3435114503816794
3897900238876,5.033825051,1,0.21428104858398436,1.7082628845214842,-11.225214483642578,-0.816793893129771,0.5877862595419847,-1.2900763358778626
3897907557053,5.041143228,1,0.239420166015625,1.7166425903320313,-11.201272467041015,-0.8015267175572519,0.5572519083969466,-1.3282442748091603
3897914894344,5.048480519,1,0.24061726684570311,1.7190367919921874,-11.165359442138671,-0.8625954198473282,0.5954198473282443,-1.282442748091603
3897922224344,5.055810519,1,0.21188684692382811,1.7334020019531249,-11.17852755126953,-0.8778625954198473,0.6030534351145038,-1.2748091603053435
3897929538667,5.063124842,1,0.22385785522460935,1.7334020019531249,-11.209652172851563,-0.8396946564885496,0.549618320610687,-1.3053435114503817
3897936975073,5.070561248,1,0.24899697265624998,1.7477672119140624,-11.195286962890624,-0.9083969465648855,0.6030534351145038,-1.2900763358778626
3897944337469,5.077923644,1,0.21428104858398436,1.7238251953125,-11.174936248779296,-0.8320610687022901,0.5954198473282443,-1.3129770992366412
3897951668980,5.085255155,1,0.21308394775390624,1.7118541870117185,-11.190498559570312,-0.8625954198473282,0.6412213740458015,-1.3435114503816794
3897958941896,5.092528071,1,0.2346317626953125,1.7178396911621092,-11.173739147949219,-0.8244274809160306,0.6106870229007634,-1.3053435114503817
3897966277782,5.099863957,1,0.21308394775390624,1.695094775390625,-11.13423482055664,-0.7938931297709924,0.6183206106870229,-1.2900763358778626
3897973607105,5.10719328,1,0.20829554443359374,1.7202338928222656,-11.206060870361327,-0.8015267175572519,0.6106870229007634,-1.3053435114503817
3897980935698,5.114521873,1,0.24301146850585936,1.7357962036132812,-11.204863769531249,-0.7938931297709924,0.6106870229007634,-1.3358778625954197
3897988223459,5.121809634,1,0.22266075439453123,1.7405846069335937,-11.200075366210937,-0.8625954198473282,0.5343511450381679,-1.3282442748091603
3897995511480,5.129097655,1,0.2166752502441406,1.725022296142578,-11.23718549194336,-0.9007633587786259,0.6259541984732825,-1.3206106870229009
3898002875751,5.136461926,1,0.2262520568847656,1.7381904052734374,-11.159373937988281,-0.8091603053435115,0.6564885496183206,-1.3282442748091603
3898010936844,5.144523019,1,0.24660277099609373,1.7357962036132812,-11.215637677001952,-0.8091603053435115,0.5648854961832062,-1.366412213740458
3898018318615,5.15190479,1,0.21188684692382811,1.7334020019531249,-11.220426080322264,-0.8396946564885496,0.6259541984732825,-1.3206106870229009
3898025489240,5.159075415,1,0.23343466186523437,1.753752716064453,-11.204863769531249,-0.7938931297709924,0.6106870229007634,-1.3358778625954197
3898032872990,5.166459165,1,0.24660277099609373,1.7166425903320313,-11.176133349609374,-0.8320610687022901,0.6335877862595419,-1.3358778625954197
3898040155438,5.173741613,1,0.23343466186523437,1.7357962036132812,-11.183315954589844,-0.7786259541984732,0.5877862595419847,-1.3969465648854962
3898047474188,5.181060363,1,0.239420166015625,1.705868682861328,-11.189301458740234,-0.7404580152671756,0.6030534351145038,-1.3282442748091603
3898054746844,5.188333019,1,0.20949264526367187,1.744175909423828,-11.202469567871093,-0.8320610687022901,0.6030534351145038,-1.2900763358778626
3898062110959,5.195697134,1,0.20231004028320312,1.7657237243652342,-11.19169566040039,-0.8396946564885496,0.6412213740458015,-1.3206106870229009
3898069470594,5.203056769,1,0.21308394775390624,1.7310078002929687,-11.192892761230468,-0.7938931297709924,0.5954198473282443,-1.2900763358778626
3898076813303,5.210399478,1,0.2214636535644531,1.7334020019531249,-11.201272467041015,-0.8396946564885496,0.5725190839694656,-1.3358778625954197
3898084155386,5.217741561,1,0.2166752502441406,1.7190367919921874,-11.200075366210937,-0.8015267175572519,0.549618320610687,-1.3587786259541985
3898091476584,5.225062759,1,0.2166752502441406,1.714248388671875,-11.3389390625,-0.8854961832061069,0.6106870229007634,-1.3053435114503817
3898098721271,5.232307446,1,0.22744915771484372,1.7202338928222656,-11.183315954589844,-0.8778625954198473,0.5419847328244275,-1.3053435114503817
3898106042157,5.239628332,1,0.23104046020507812,1.7106570861816406,-11.196484063720703,-0.7633587786259542,0.5267175572519084,-1.297709923664122
3898113353771,5.246939946,1,0.229843359375,1.7034744812011717,-11.209652172851563,-0.8091603053435115,0.5801526717557252,-1.3435114503816794
3898120687157,5.254273332,1,0.22385785522460935,1.7178396911621092,-11.186907257080078,-0.8396946564885496,0.5343511450381679,-1.3282442748091603
3898128048771,5.261634946,1,0.21906945190429686,1.7286135986328124,-11.159373937988281,-0.8473282442748091,0.5267175572519084,-1.3358778625954197
3898135354657,5.268940832,1,0.23223756103515625,1.7262193969726563,-11.192892761230468,-0.8396946564885496,0.6106870229007634,-1.3053435114503817
3898142705803,5.276291978,1,0.21787235107421873,1.7274164978027342,-11.158176837158203,-0.8015267175572519,0.5419847328244275,-1.282442748091603
3898150030490,5.283616665,1,0.21787235107421873,1.7226280944824217,-11.16057103881836,-0.8091603053435115,0.5648854961832062,-1.3206106870229009
3898157358303,5.290944478,1,0.20350714111328125,1.7405846069335937,-11.184513055419922,-0.816793893129771,0.6259541984732825,-1.3587786259541985
3898164707261,5.298293436,1,0.22864625854492185,1.725022296142578,-11.177330450439452,-0.7786259541984732,0.6335877862595419,-1.3206106870229009
3898172470907,5.306057082,1,0.21787235107421873,1.7178396911621092,-11.166556542968749,-0.7862595419847328,0.5877862595419847,-1.2671755725190839
3898179898980,5.313485155,1,0.1975216369628906,1.7501614135742187,-11.186907257080078,-0.8473282442748091,0.5801526717557252,-1.2900763358778626
3898187278042,5.320864217,1,0.2561795776367187,1.7357962036132812,-11.201272467041015,-0.8396946564885496,0.6412213740458015,-1.3129770992366412
3898194598042,5.328184217,1,0.2501940734863281,1.7369933044433592,-11.19887826538086,-0.8015267175572519,0.5725190839694656,-1.3206106870229009
3898201877469,5.335463644,1,0.19153613281249998,1.7214309936523438,-11.197681164550781,-0.8778625954198473,0.6030534351145038,-1.3206106870229009
3898209249865,5.34283604,1,0.2166752502441406,1.7262193969726563,-11.218031878662108,-0.8320610687022901,0.5954198473282443,-1.3358778625954197
3898216483719,5.350069894,1,0.2346317626953125,1.7621324218749999,-11.202469567871093,-0.8473282442748091,0.6183206106870229,-1.3129770992366412
3898223837782,5.357423957,1,0.2454056701660156,1.7226280944824217,-11.200075366210937,-0.816793893129771,0.5572519083969466,-1.3129770992366412
3898231134240,5.364720415,1,0.22385785522460935,1.7477672119140624,-11.21084927368164,-0.8473282442748091,0.5572519083969466,-1.297709923664122
3898238557261,5.372143436,1,0.19632453613281248,1.725022296142578,-11.195286962890624,-0.8549618320610687,0.5801526717557252,-1.3282442748091603
3898245940855,5.37952703,1,0.2262520568847656,1.7417817077636717,-11.195286962890624,-0.7862595419847328,0.5572519083969466,-1.3206106870229009
3898253275282,5.386861457,1,0.22505495605468748,1.7202338928222656,-11.186907257080078,-0.7862595419847328,0.5877862595419847,-1.282442748091603
3898260700490,5.394286665,1,0.2262520568847656,1.7214309936523438,-11.212046374511718,-0.8396946564885496,0.5725190839694656,-1.3129770992366412
3898268075803,5.401661978,1,0.23343466186523437,1.7214309936523438,-11.21084927368164,-0.816793893129771,0.5038167938931297,-1.3206106870229009
3898275400542,5.408986717,1,0.23582886352539062,1.7357962036132812,-11.213243475341796,-0.8625954198473282,0.5648854961832062,-1.297709923664122
3898282752209,5.416338384,1,0.22385785522460935,1.7334020019531249,-11.168950744628905,-0.8625954198473282,0.5801526717557252,-1.297709923664122
3898290046271,5.423632446,1,0.22385785522460935,1.7429788085937499,-11.21084927368164,-0.7862595419847328,0.5190839694656488,-1.381679389312977
3898297296115,5.43088229,1,0.2154781494140625,1.7166425903320313,-11.171344946289063,-0.8091603053435115,0.5648854961832062,-1.282442748091603
3898304550698,5.438136873,1,0.1927332336425781,1.7549498168945312,-11.170147845458983,-0.8244274809160306,0.5877862595419847,-1.282442748091603
3898311863771,5.445449946,1,0.2166752502441406,1.7429788085937499,-11.212046374511718,-0.8549618320610687,0.5725190839694656,-1.3206106870229009
3898319191844,5.452778019,1,0.23822306518554687,1.707065783691406,-11.173739147949219,-0.8702290076335878,0.5954198473282443,-1.3740458015267176
3898326524605,5.46011078,1,0.25258827514648435,1.7094599853515624,-11.174936248779296,-0.8396946564885496,0.6259541984732825,-1.3511450381679388
3898333842521,5.467428696,1,0.19991583862304688,1.7381904052734374,-11.201272467041015,-0.8549618320610687,0.6106870229007634,-1.3053435114503817
3898341158563,5.474744738,1,0.23104046020507812,1.7477672119140624,-11.168950744628905,-0.8473282442748091,0.6259541984732825,-1.3129770992366412
3898348495438,5.482081613,1,0.2166752502441406,1.7334020019531249,-11.195286962890624,-0.8702290076335878,0.5725190839694656,-1.2671755725190839
3898355832938,5.489419113,1,0.2346317626953125,1.7417817077636717,-11.18571015625,-0.816793893129771,0.549618320610687,-1.297709923664122
3898363161688,5.496747863,1,0.229843359375,1.7310078002929687,-11.202469567871093,-0.8320610687022901,0.5801526717557252,-1.3053435114503817
3898370501948,5.504088123,1,0.258573779296875,1.7226280944824217,-11.183315954589844,-0.8320610687022901,0.5725190839694656,-1.3587786259541985
3898377766636,5.511352811,1,0.23582886352539062,1.7238251953125,-11.183315954589844,-0.8396946564885496,0.6335877862595419,-1.3587786259541985
3898385069813,5.518655988,1,0.21188684692382811,1.7190367919921874,-11.18571015625,-0.7633587786259542,0.5954198473282443,-1.3282442748091603
3898392424136,5.526010311,1,0.23702596435546874,1.7453730102539062,-11.171344946289063,-0.7862595419847328,0.5572519083969466,-1.2900763358778626
3898399739344,5.533325519,1,0.239420166015625,1.7381904052734374,-11.19887826538086,-0.8320610687022901,0.6564885496183206,-1.3129770992366412
3898407079292,5.540665467,1,0.22266075439453123,1.7178396911621092,-11.18571015625,-0.8854961832061069,0.6793893129770993,-1.3435114503816794
3898414399813,5.547985988,1,0.23702596435546874,1.7118541870117185,-11.188104357910156,-0.8244274809160306,0.5877862595419847,-1.2748091603053435
3898421710230,5.555296405,1,0.1867477294921875,1.7262193969726563,-11.207257971191405,-0.8931297709923665,0.6641221374045801,-1.2900763358778626
3898428932625,5.5625188,1,0.22505495605468748,1.7477672119140624,-11.196484063720703,-0.7709923664122137,0.5801526717557252,-1.297709923664122
3898436277157,5.569863332,1,0.22864625854492185,1.7094599853515624,-11.186907257080078,-0.7709923664122137,0.5190839694656488,-1.2748091603053435
3898443583094,5.577169269,1,0.20829554443359374,1.7202338928222656,-11.203666668701171,-0.8091603053435115,0.5648854961832062,-1.3282442748091603
3898450908146,5.584494321,1,0.23702596435546874,1.7130512878417967,-11.19887826538086,-0.8396946564885496,0.5877862595419847,-1.3435114503816794
3898458231063,5.591817238,1,0.2262520568847656,1.744175909423828,-11.189301458740234,-0.7862595419847328,0.5572519083969466,-1.3358778625954197
3898465485959,5.599072134,1,0.20829554443359374,1.7369933044433592,-11.168950744628905,-0.816793893129771,0.6030534351145038,-1.381679389312977
3898472855698,5.606441873,1,0.22744915771484372,1.7369933044433592,-11.203666668701171,-0.8396946564885496,0.5954198473282443,-1.297709923664122
3898480132105,5.61371828,1,0.24899697265624998,1.707065783691406,-11.192892761230468,-0.8320610687022901,0.5648854961832062,-1.2748091603053435
3898487470438,5.621056613,1,0.2166752502441406,1.7369933044433592,-11.202469567871093,-0.8320610687022901,0.5343511450381679,-1.3053435114503817
3898494761271,5.628347446,1,0.2346317626953125,1.7274164978027342,-11.253944903564452,-0.7786259541984732,0.5419847328244275,-1.3435114503816794
3898502097052,5.635683227,1,0.22505495605468748,1.7166425903320313,-11.167753643798827,-0.8625954198473282,0.5190839694656488,-1.297709923664122
3898509387677,5.642973852,1,0.239420166015625,1.7286135986328124,-11.173739147949219,-0.8625954198473282,0.6259541984732825,-1.282442748091603
3898516705021,5.650291196,1,0.22385785522460935,1.7465701110839842,-11.17254204711914,-0.7480916030534351,0.5877862595419847,-1.282442748091603
3898524080646,5.657666821,1,0.24660277099609373,1.7298106994628906,-11.168950744628905,-0.8015267175572519,0.5725190839694656,-1.2671755725190839
3898531386896,5.664973071,1,0.20470424194335937,1.7262193969726563,-11.197681164550781,-0.7938931297709924,0.6259541984732825,-1.2900763358778626
3898538729448,5.672315623,1,0.2346317626953125,1.7202338928222656,-11.196484063720703,-0.8396946564885496,0.5877862595419847,-1.3129770992366412
3898546064552,5.679650727,1,0.229843359375,1.7334020019531249,-11.203666668701171,-0.8549618320610687,0.5419847328244275,-1.3435114503816794
3898553385594,5.686971769,1,0.24899697265624998,1.725022296142578,-11.23000288696289,-0.7404580152671756,0.4961832061068702,-1.3053435114503817
3898560700594,5.694286769,1,0.21188684692382811,1.7274164978027342,-11.149797131347656,-0.8320610687022901,0.5954198473282443,-1.2748091603053435
3898568058511,5.701644686,1,0.19632453613281248,1.7226280944824217,-11.183315954589844,-0.816793893129771,0.5725190839694656,-1.3129770992366412
3898575361584,5.708947759,1,0.20231004028320312,1.715445489501953,-11.18571015625,-0.8625954198473282,0.5419847328244275,-1.3511450381679388
3898582737000,5.716323175,1,0.23104046020507812,1.715445489501953,-11.182118853759764,-0.8931297709923665,0.5801526717557252,-1.3358778625954197
3898590100698,5.723686873,1,0.22385785522460935,1.7298106994628906,-11.180921752929686,-0.8625954198473282,0.6564885496183206,-1.3129770992366412
3898597440073,5.731026248,1,0.2262520568847656,1.7106570861816406,-11.19169566040039,-0.7557251908396947,0.5801526717557252,-1.3129770992366412
3898604764032,5.738350207,1,0.2166752502441406,1.7010802795410156,-11.180921752929686,-0.8473282442748091,0.549618320610687,-1.3206106870229009
3898612094969,5.745681144,1,0.22864625854492185,1.7298106994628906,-11.180921752929686,-0.8015267175572519,0.5954198473282443,-1.3587786259541985
3898619408459,5.752994634,1,0.2346317626953125,1.705868682861328,-11.222820281982422,-0.7938931297709924,0.5267175572519084,-1.3435114503816794
3898626711636,5.760297811,1,0.22864625854492185,1.7501614135742187,-11.196484063720703,-0.8625954198473282,0.5114503816793893,-1.3740458015267176
3898634058823,5.767644998,1,0.22744915771484372,1.7357962036132812,-11.190498559570312,-0.8473282442748091,0.6030534351145038,-1.366412213740458
3898641326896,5.774913071,1,0.24779987182617186,1.7393875061035156,-11.226411584472656,-0.8091603053435115,0.5572519083969466,-1.3435114503816794
3898648677052,5.782263227,1,0.23702596435546874,1.763329522705078,-11.209652172851563,-0.8702290076335878,0.5648854961832062,-1.2671755725190839
3898655967157,5.789553332,1,0.21906945190429686,1.7334020019531249,-11.190498559570312,-0.7633587786259542,0.549618320610687,-1.297709923664122
3898663413979,5.797000154,1,0.23702596435546874,1.7298106994628906,-11.176133349609374,-0.8473282442748091,0.4961832061068702,-1.297709923664122
3898670749500,5.804335675,1,0.2214636535644531,1.7681179260253905,-11.17852755126953,-0.8702290076335878,0.549618320610687,-1.3129770992366412
3898678045282,5.811631457,1,0.23104046020507812,1.7238251953125,-11.197681164550781,-0.8091603053435115,0.5725190839694656,-1.2748091603053435
3898685286115,5.81887229,1,0.22864625854492185,1.7166425903320313,-11.18571015625,-0.8778625954198473,0.6183206106870229,-1.3129770992366412
3898692652677,5.826238852,1,0.23582886352539062,1.7489643127441405,-11.17852755126953,-0.7938931297709924,0.6106870229007634,-1.3206106870229009
3898699952417,5.833538592,1,0.2214636535644531,1.7453730102539062,-11.184513055419922,-0.8473282442748091,0.5954198473282443,-1.3282442748091603
3898707288250,5.840874425,1,0.2262520568847656,1.7274164978027342,-11.16057103881836,-0.9236641221374046,0.6259541984732825,-1.3435114503816794
3898714511948,5.848098123,1,0.22744915771484372,1.7274164978027342,-11.176133349609374,-0.8244274809160306,0.6183206106870229,-1.3282442748091603
3898721823459,5.855409634,1,0.229843359375,1.7190367919921874,-11.164162341308593,-0.8320610687022901,0.6335877862595419,-1.2671755725190839
3898729152886,5.862739061,1,0.2214636535644531,1.7381904052734374,-11.182118853759764,-0.8091603053435115,0.6335877862595419,-1.3129770992366412
3898736497729,5.870083904,1,0.22266075439453123,1.7178396911621092,-11.192892761230468,-0.7709923664122137,0.5572519083969466,-1.3129770992366412
3898743827625,5.8774138,1,0.21906945190429686,1.7369933044433592,-11.162965240478515,-0.816793893129771,0.6259541984732825,-1.3358778625954197
3898751171167,5.884757342,1,0.22026655273437498,1.7310078002929687,-11.164162341308593,-0.8778625954198473,0.6183206106870229,-1.3435114503816794
3898758505073,5.892091248,1,0.22026655273437498,1.7178396911621092,-11.167753643798827,-0.8091603053435115,0.5954198473282443,-1.3587786259541985
3898765810073,5.899396248,1,0.23104046020507812,1.7166425903320313,-11.179724652099608,-0.8396946564885496,0.6335877862595419,-1.3129770992366412
3898773164604,5.906750779,1,0.21068974609375,1.7118541870117185,-11.170147845458983,-0.8244274809160306,0.6183206106870229,-1.3511450381679388
3898780508302,5.914094477,1,0.201112939453125,1.7166425903320313,-11.165359442138671,-0.7938931297709924,0.5801526717557252,-1.3129770992366412
3898787835334,5.921421509,1,0.23223756103515625,1.7357962036132812,-11.179724652099608,-0.8702290076335878,0.5877862595419847,-1.2900763358778626
3898795162677,5.928748852,1,0.20949264526367187,1.7334020019531249,-11.167753643798827,-0.8473282442748091,0.5725190839694656,-1.3129770992366412
3898802497104,5.936083279,1,0.21906945190429686,1.7178396911621092,-11.209652172851563,-0.8320610687022901,0.5648854961832062,-1.3740458015267176
