timestamp_ns,t_s,sensor_id,ax,ay,az,gx,gy,gz
3893041231898,0.174818073,3,-0.21068974609375,-0.5398924743652344,-8.96987651977539,-4.396946564885496,-0.2900763358778626,-3.183206106870229
3893047607784,0.181193959,3,-0.21068974609375,-0.5398924743652344,-8.930372192382812,-4.3816793893129775,-0.366412213740458,-3.122137404580153
3893054303357,0.187889532,3,-0.2154781494140625,-0.5434837768554687,-8.930372192382812,-4.343511450381679,-0.32061068702290074,-3.1068702290076335
3893060920232,0.194506407,3,-0.21906945190429686,-0.5243301635742187,-8.910021478271483,-4.343511450381679,-0.3893129770992366,-3.1297709923664123
3893067580961,0.201167136,3,-0.21308394775390624,-0.5351040710449219,-8.896853369140624,-4.419847328244275,-0.3893129770992366,-3.1374045801526718
3893074224919,0.207811094,3,-0.23343466186523437,-0.5303156677246094,-8.975862023925782,-4.3816793893129775,-0.4198473282442748,-3.1374045801526718
3893080898773,0.214484948,3,-0.2154781494140625,-0.5147533569335937,-8.953117108154297,-4.450381679389313,-0.29770992366412213,-3.122137404580153
3893087578461,0.221164636,3,-0.22026655273437498,-0.5267243652343749,-8.953117108154297,-4.511450381679389,-0.31297709923664124,-3.145038167938931
3893094246846,0.227833021,3,-0.19991583862304688,-0.5279214660644531,-8.945934503173827,-4.3893129770992365,-0.2824427480916031,-3.122137404580153
3893100931638,0.234517813,3,-0.18076222534179687,-0.51714755859375,-8.9255837890625,-4.435114503816794,-0.2595419847328244,-3.1526717557251906
3893107577315,0.24116349,3,-0.19153613281249998,-0.5267243652343749,-8.957905511474609,-4.3893129770992365,-0.3282442748091603,-3.1603053435114505
3893114254763,0.247840938,3,-0.17956512451171874,-0.5626373901367188,-8.898050469970702,-4.3893129770992365,-0.2900763358778626,-3.198473282442748
3893120882054,0.254468229,3,-0.18315642700195311,-0.5614402893066406,-8.917204083251953,-4.442748091603053,-0.2900763358778626,-3.16793893129771
3893127612419,0.261198594,3,-0.18914193115234373,-0.5506663818359374,-8.927977990722656,-4.473282442748092,-0.3511450381679389,-3.16793893129771
3893134240179,0.267826354,3,-0.19991583862304688,-0.5458779785156249,-8.950722906494141,-4.519083969465649,-0.2900763358778626,-3.213740458015267
3893140908773,0.274494948,3,-0.21068974609375,-0.5542576843261718,-8.935160595703124,-4.458015267175573,-0.2900763358778626,-3.213740458015267
3893147576846,0.281163021,3,-0.22266075439453123,-0.5339069702148437,-8.939948999023438,-4.419847328244275,-0.3435114503816794,-3.1755725190839694
3893154226898,0.287813073,3,-0.22026655273437498,-0.5386953735351562,-8.892064965820312,-4.3816793893129775,-0.31297709923664124,-3.145038167938931
3893160979294,0.294565469,3,-0.19512743530273435,-0.5758054992675781,-8.883685260009765,-4.412213740458015,-0.32061068702290074,-3.16793893129771
3893167573252,0.301159427,3,-0.20829554443359374,-0.5853823059082031,-8.935160595703124,-4.396946564885496,-0.35877862595419846,-3.1908396946564888
3893174238304,0.307824479,3,-0.20949264526367187,-0.5542576843261718,-8.926780889892578,-4.3893129770992365,-0.2595419847328244,-3.16793893129771
3893180913304,0.314499479,3,-0.20949264526367187,-0.5662286926269531,-8.907627276611327,-4.396946564885496,-0.33587786259541985,-3.1526717557251906
3893187581586,0.321167761,3,-0.2059013427734375,-0.5662286926269531,-8.912415679931641,-4.396946564885496,-0.3435114503816794,-3.1908396946564888
3893194233096,0.327819271,3,-0.18076222534179687,-0.5386953735351562,-8.912415679931641,-4.419847328244275,-0.2824427480916031,-3.183206106870229
3893200905700,0.334491875,3,-0.20350714111328125,-0.5422866760253906,-8.939948999023438,-4.419847328244275,-0.3053435114503817,-3.1603053435114505
3893207570648,0.341156823,3,-0.23104046020507812,-0.5315127685546874,-8.916006982421875,-4.435114503816794,-0.3053435114503817,-3.183206106870229
3893214229711,0.347815886,3,-0.19991583862304688,-0.55545478515625,-8.97705912475586,-4.450381679389313,-0.29770992366412213,-3.183206106870229
3893220909607,0.354495782,3,-0.18914193115234373,-0.5291185668945312,-8.978256225585938,-4.435114503816794,-0.2824427480916031,-3.1908396946564888
3893227583044,0.361169219,3,-0.18076222534179687,-0.5339069702148437,-8.965088116455078,-4.458015267175573,-0.2824427480916031,-3.1297709923664123
3893234225909,0.367812084,3,-0.18435352783203124,-0.5063736511230469,-8.955511309814453,-4.442748091603053,-0.3053435114503817,-3.1603053435114505
3893240909607,0.374495782,3,-0.1771709228515625,-0.5374982727050781,-8.954314208984375,-4.5038167938931295,-0.2748091603053435,-3.1068702290076335
3893247570648,0.381156823,3,-0.1879448303222656,-0.5422866760253906,-8.945934503173827,-4.419847328244275,-0.35877862595419846,-3.0839694656488548
3893254203929,0.387790104,3,-0.21068974609375,-0.5303156677246094,-8.91840118408203,-4.419847328244275,-0.33587786259541985,-3.1374045801526718
3893260917836,0.394504011,3,-0.181959326171875,-0.5434837768554687,-8.95670841064453,-4.435114503816794,-0.29770992366412213,-3.1297709923664123
3893267579919,0.401166094,3,-0.20231004028320312,-0.5446808776855468,-8.942343200683593,-4.458015267175573,-0.366412213740458,-3.1297709923664123
3893274229919,0.407816094,3,-0.19991583862304688,-0.5434837768554687,-8.95670841064453,-4.427480916030534,-0.29770992366412213,-3.122137404580153
3893280937523,0.414523698,3,-0.24301146850585936,-0.5291185668945312,-8.910021478271483,-4.450381679389313,-0.20610687022900764,-3.1755725190839694
3893287572263,0.421158438,3,-0.21428104858398436,-0.5506663818359374,-8.908824377441405,-4.465648854961832,-0.3282442748091603,-3.2061068702290076
3893294235232,0.427821407,3,-0.201112939453125,-0.5315127685546874,-8.89924757080078,-4.458015267175573,-0.35877862595419846,-3.213740458015267
3893300910857,0.434497032,3,-0.19512743530273435,-0.5506663818359374,-8.939948999023438,-4.442748091603053,-0.31297709923664124,-3.16793893129771
3893307510700,0.441096875,3,-0.2154781494140625,-0.5410895751953124,-8.961496813964843,-4.473282442748092,-0.3511450381679389,-3.1297709923664123
3893314243565,0.44782974,3,-0.19153613281249998,-0.584185205078125,-8.999804040527343,-4.450381679389313,-0.3053435114503817,-3.1603053435114505
3893320907523,0.454493698,3,-0.19153613281249998,-0.5434837768554687,-8.947131604003905,-4.412213740458015,-0.32061068702290074,-3.122137404580153
3893327565075,0.46115125,3,-0.1927332336425781,-0.5434837768554687,-8.95670841064453,-4.404580152671755,-0.3282442748091603,-3.16793893129771
3893334246221,0.467832396,3,-0.2166752502441406,-0.5542576843261718,-8.95670841064453,-4.427480916030534,-0.2366412213740458,-3.099236641221374
3893340898096,0.474484271,3,-0.22505495605468748,-0.5434837768554687,-8.951920007324219,-4.427480916030534,-0.2366412213740458,-3.198473282442748
3893347589398,0.481175573,3,-0.22026655273437498,-0.5291185668945312,-8.959102612304687,-4.442748091603053,-0.2900763358778626,-3.198473282442748
3893354238929,0.487825104,3,-0.23104046020507812,-0.5434837768554687,-8.943540301513671,-4.419847328244275,-0.31297709923664124,-3.1297709923664123
3893360916169,0.494502344,3,-0.19871873779296872,-0.5506663818359374,-8.914809881591797,-4.3816793893129775,-0.32061068702290074,-3.1526717557251906
3893367568721,0.501154896,3,-0.2059013427734375,-0.5458779785156249,-8.973467822265624,-4.3893129770992365,-0.3893129770992366,-3.1603053435114505
3893374234815,0.50782099,3,-0.1927332336425781,-0.5374982727050781,-8.921992486572265,-4.374045801526718,-0.35877862595419846,-3.1374045801526718
3893380910544,0.514496719,3,-0.19871873779296872,-0.5530605834960938,-8.948328704833983,-4.435114503816794,-0.40458015267175573,-3.1068702290076335
3893387577419,0.521163594,3,-0.1975216369628906,-0.5363011718749999,-8.950722906494141,-4.473282442748092,-0.3282442748091603,-3.1374045801526718
3893394241013,0.527827188,3,-0.19632453613281248,-0.5446808776855468,-8.932766394042968,-4.404580152671755,-0.3893129770992366,-3.122137404580153
3893400895596,0.534481771,3,-0.19512743530273435,-0.5243301635742187,-8.93755479736328,-4.419847328244275,-0.3435114503816794,-3.145038167938931
3893407588356,0.541174531,3,-0.2059013427734375,-0.5506663818359374,-8.973467822265624,-4.480916030534351,-0.26717557251908397,-3.1068702290076335
3893414398669,0.547984844,3,-0.2154781494140625,-0.5434837768554687,-8.93755479736328,-4.488549618320611,-0.2900763358778626,-3.16793893129771
3893420927836,0.554514011,3,-0.19871873779296872,-0.5458779785156249,-8.975862023925782,-4.442748091603053,-0.2900763358778626,-3.145038167938931
3893427590961,0.561177136,3,-0.21068974609375,-0.5363011718749999,-8.963891015625,-4.3816793893129775,-0.26717557251908397,-3.198473282442748
3893434247888,0.567834063,3,-0.201112939453125,-0.5470750793457031,-8.966285217285156,-4.450381679389313,-0.2748091603053435,-3.198473282442748
3893440909346,0.574495521,3,-0.201112939453125,-0.5578489868164063,-8.93156929321289,-4.412213740458015,-0.2824427480916031,-3.145038167938931
3893447577159,0.581163334,3,-0.1975216369628906,-0.5542576843261718,-8.953117108154297,-4.358778625954199,-0.2824427480916031,-3.1603053435114505
3893454240804,0.587826979,3,-0.21787235107421873,-0.5781997009277343,-8.93755479736328,-4.3893129770992365,-0.31297709923664124,-3.145038167938931
3893460894815,0.59448099,3,-0.21787235107421873,-0.5482721801757812,-8.936357696533202,-4.412213740458015,-0.31297709923664124,-3.145038167938931
3893467572784,0.601158959,3,-0.20350714111328125,-0.5482721801757812,-8.942343200683593,-4.374045801526718,-0.3511450381679389,-3.1374045801526718
3893474231534,0.607817709,3,-0.19632453613281248,-0.5303156677246094,-8.942343200683593,-4.374045801526718,-0.31297709923664124,-3.122137404580153
3893480901534,0.614487709,3,-0.20470424194335937,-0.5327098693847656,-8.954314208984375,-4.412213740458015,-0.31297709923664124,-3.1068702290076335
3893487561221,0.621147396,3,-0.19393033447265623,-0.5518634826660156,-8.948328704833983,-4.374045801526718,-0.33587786259541985,-3.1068702290076335
3893494232419,0.627818594,3,-0.20709844360351562,-0.5243301635742187,-8.968679418945312,-4.3893129770992365,-0.3053435114503817,-3.1755725190839694
3893500876638,0.634462813,3,-0.19871873779296872,-0.5638344909667968,-8.94473740234375,-4.396946564885496,-0.2748091603053435,-3.145038167938931
3893507606898,0.641193073,3,-0.2262520568847656,-0.5686228942871093,-8.912415679931641,-4.450381679389313,-0.29770992366412213,-3.1908396946564888
3893514236586,0.647822761,3,-0.20709844360351562,-0.5482721801757812,-8.933963494873046,-4.404580152671755,-0.3053435114503817,-3.114503816793893
3893520917002,0.654503177,3,-0.1879448303222656,-0.5506663818359374,-8.932766394042968,-4.458015267175573,-0.2824427480916031,-3.183206106870229
3893527556377,0.661142552,3,-0.19393033447265623,-0.5291185668945312,-8.9255837890625,-4.435114503816794,-0.35877862595419846,-3.16793893129771
3893534239398,0.667825573,3,-0.17118541870117188,-0.5339069702148437,-8.945934503173827,-4.488549618320611,-0.2748091603053435,-3.2061068702290076
3893540916169,0.674502344,3,-0.1975216369628906,-0.5410895751953124,-8.93875189819336,-4.473282442748092,-0.2748091603053435,-3.183206106870229
3893547574294,0.681160469,3,-0.19153613281249998,-0.5566518859863281,-8.943540301513671,-4.450381679389313,-0.32061068702290074,-3.1526717557251906
3893554222836,0.687809011,3,-0.20350714111328125,-0.5506663818359374,-8.939948999023438,-4.450381679389313,-0.3282442748091603,-3.1526717557251906
3893560883773,0.694469948,3,-0.1975216369628906,-0.5578489868164063,-8.960299713134765,-4.404580152671755,-0.366412213740458,-3.1374045801526718
3893567570752,0.701156927,3,-0.20350714111328125,-0.5303156677246094,-8.926780889892578,-4.396946564885496,-0.37404580152671757,-3.1374045801526718
3893574242054,0.707828229,3,-0.19153613281249998,-0.5482721801757812,-8.90643017578125,-4.412213740458015,-0.29770992366412213,-3.099236641221374
3893580921794,0.714507969,3,-0.19991583862304688,-0.5482721801757812,-8.954314208984375,-4.458015267175573,-0.366412213740458,-3.16793893129771
3893587576586,0.721162761,3,-0.22026655273437498,-0.5327098693847656,-8.967482318115234,-4.419847328244275,-0.3282442748091603,-3.0839694656488548
3893594228148,0.727814323,3,-0.1975216369628906,-0.5207388610839844,-8.90643017578125,-4.442748091603053,-0.2748091603053435,-3.122137404580153
3893600911221,0.734497396,3,-0.1975216369628906,-0.5434837768554687,-8.929175091552734,-4.465648854961832,-0.2900763358778626,-3.1297709923664123
3893607558461,0.741144636,3,-0.22385785522460935,-0.5434837768554687,-8.929175091552734,-4.3893129770992365,-0.2824427480916031,-3.1526717557251906
3893614225908,0.747812083,3,-0.201112939453125,-0.5374982727050781,-8.930372192382812,-4.3893129770992365,-0.32061068702290074,-3.145038167938931
3893620899711,0.754485886,3,-0.20949264526367187,-0.5434837768554687,-8.943540301513671,-4.473282442748092,-0.32061068702290074,-3.0916030534351147
3893627574606,0.761160781,3,-0.18555062866210936,-0.5291185668945312,-8.913612780761719,-4.458015267175573,-0.40458015267175573,-3.0916030534351147
3893634254450,0.767840625,3,-0.201112939453125,-0.5374982727050781,-8.955511309814453,-4.465648854961832,-0.31297709923664124,-3.1374045801526718
3893640902158,0.774488333,3,-0.19871873779296872,-0.5231330627441406,-8.948328704833983,-4.427480916030534,-0.29770992366412213,-3.1297709923664123
3893647554867,0.781141042,3,-0.1975216369628906,-0.5374982727050781,-8.9255837890625,-4.442748091603053,-0.4198473282442748,-3.1374045801526718
3893654241846,0.787828021,3,-0.20709844360351562,-0.5410895751953124,-8.892064965820312,-4.450381679389313,-0.37404580152671757,-3.1526717557251906
3893660904554,0.794490729,3,-0.19033903198242186,-0.5363011718749999,-8.943540301513671,-4.458015267175573,-0.2900763358778626,-3.183206106870229
3893667568200,0.801154375,3,-0.1975216369628906,-0.5351040710449219,-8.966285217285156,-4.442748091603053,-0.3511450381679389,-3.213740458015267
3893674242263,0.807828438,3,-0.2059013427734375,-0.5279214660644531,-8.968679418945312,-4.3816793893129775,-0.25190839694656486,-3.2061068702290076
3893680921533,0.814507708,3,-0.20470424194335937,-0.5686228942871093,-8.954314208984375,-4.435114503816794,-0.29770992366412213,-3.1755725190839694
3893687565075,0.82115125,3,-0.19512743530273435,-0.5410895751953124,-8.94473740234375,-4.450381679389313,-0.3282442748091603,-3.0916030534351147
3893694227315,0.82781349,3,-0.19632453613281248,-0.5494692810058593,-8.93156929321289,-4.366412213740458,-0.22137404580152673,-3.183206106870229
3893700905648,0.834491823,3,-0.18914193115234373,-0.5207388610839844,-8.921992486572265,-4.351145038167939,-0.26717557251908397,-3.1526717557251906
3893707565804,0.841151979,3,-0.19991583862304688,-0.5243301635742187,-8.908824377441405,-4.419847328244275,-0.37404580152671757,-3.122137404580153
3893714231742,0.847817917,3,-0.20709844360351562,-0.5398924743652344,-8.920795385742187,-4.374045801526718,-0.33587786259541985,-3.1526717557251906
3893720901690,0.854487865,3,-0.21428104858398436,-0.5255272644042969,-8.933963494873046,-4.366412213740458,-0.3969465648854962,-3.145038167938931
3893727573617,0.861159792,3,-0.22266075439453123,-0.5219359619140624,-8.921992486572265,-4.374045801526718,-0.3893129770992366,-3.099236641221374
3893734237002,0.867823177,3,-0.22266075439453123,-0.5422866760253906,-8.894459167480468,-4.419847328244275,-0.32061068702290074,-3.0763358778625953
3893740904242,0.874490417,3,-0.18315642700195311,-0.5422866760253906,-8.901641772460938,-4.404580152671755,-0.40458015267175573,-3.0916030534351147
3893747566950,0.881153125,3,-0.21428104858398436,-0.5386953735351562,-8.901641772460938,-4.458015267175573,-0.3511450381679389,-3.145038167938931
3893754229294,0.887815469,3,-0.17118541870117188,-0.5303156677246094,-8.939948999023438,-4.458015267175573,-0.25190839694656486,-3.1908396946564888
3893760899606,0.894485781,3,-0.201112939453125,-0.5410895751953124,-8.96269391479492,-4.412213740458015,-0.25190839694656486,-3.2061068702290076
3893767573461,0.901159636,3,-0.19871873779296872,-0.5446808776855468,-8.920795385742187,-4.412213740458015,-0.42748091603053434,-3.2061068702290076
3893774228669,0.907814844,3,-0.21787235107421873,-0.5398924743652344,-8.93875189819336,-4.458015267175573,-0.2824427480916031,-3.1603053435114505
3893780982523,0.914568698,3,-0.2154781494140625,-0.5315127685546874,-8.9255837890625,-4.427480916030534,-0.21374045801526717,-3.114503816793893
3893787545752,0.921131927,3,-0.21308394775390624,-0.5470750793457031,-8.965088116455078,-4.435114503816794,-0.31297709923664124,-3.1603053435114505
3893794279085,0.92786526,3,-0.2214636535644531,-0.5506663818359374,-8.927977990722656,-4.435114503816794,-0.31297709923664124,-3.2290076335877864
3893800901533,0.934487708,3,-0.1975216369628906,-0.55545478515625,-8.920795385742187,-4.435114503816794,-0.2824427480916031,-3.2061068702290076
3893807590752,0.941176927,3,-0.17597382202148437,-0.5363011718749999,-8.961496813964843,-4.3816793893129775,-0.366412213740458,-3.198473282442748
3893814232783,0.947818958,3,-0.18914193115234373,-0.5267243652343749,-8.959102612304687,-4.404580152671755,-0.2824427480916031,-3.145038167938931
3893820903825,0.95449,3,-0.20709844360351562,-0.5363011718749999,-8.960299713134765,-4.404580152671755,-0.3282442748091603,-3.122137404580153
3893827574710,0.961160885,3,-0.19632453613281248,-0.5279214660644531,-8.953117108154297,-4.3893129770992365,-0.37404580152671757,-3.122137404580153
3893834240283,0.967826458,3,-0.19632453613281248,-0.5422866760253906,-8.955511309814453,-4.435114503816794,-0.3053435114503817,-3.16793893129771
3893840914919,0.974501094,3,-0.2059013427734375,-0.5291185668945312,-8.968679418945312,-4.419847328244275,-0.32061068702290074,-3.198473282442748
3893847569450,0.981155625,3,-0.20470424194335937,-0.51714755859375,-8.916006982421875,-4.419847328244275,-0.3435114503816794,-3.1603053435114505
3893854231846,0.987818021,3,-0.18555062866210936,-0.5602431884765625,-8.913612780761719,-4.458015267175573,-0.26717557251908397,-3.114503816793893
3893860910700,0.994496875,3,-0.19512743530273435,-0.5734112976074218,-8.923189587402343,-4.435114503816794,-0.31297709923664124,-3.145038167938931
3893867557940,1.001144115,3,-0.22385785522460935,-0.5530605834960938,-8.929175091552734,-4.412213740458015,-0.33587786259541985,-3.1526717557251906
3893874222367,1.007808542,3,-0.22385785522460935,-0.5315127685546874,-8.923189587402343,-4.3893129770992365,-0.22900763358778625,-3.1297709923664123
3893880902679,1.014488854,3,-0.2154781494140625,-0.5315127685546874,-8.949525805664061,-4.358778625954199,-0.3282442748091603,-3.1068702290076335
3893887598460,1.021184635,3,-0.18315642700195311,-0.5602431884765625,-8.949525805664061,-4.442748091603053,-0.2900763358778626,-3.114503816793893
3893894244919,1.027831094,3,-0.18315642700195311,-0.5446808776855468,-8.950722906494141,-4.442748091603053,-0.21374045801526717,-3.099236641221374
3893900911638,1.034497813,3,-0.18076222534179687,-0.51714755859375,-8.9255837890625,-4.480916030534351,-0.21374045801526717,-3.145038167938931
3893907567523,1.041153698,3,-0.20949264526367187,-0.5758054992675781,-8.968679418945312,-4.458015267175573,-0.3282442748091603,-3.145038167938931
3893914240231,1.047826406,3,-0.2059013427734375,-0.5434837768554687,-8.968679418945312,-4.465648854961832,-0.35877862595419846,-3.1526717557251906
3893920897523,1.054483698,3,-0.19153613281249998,-0.5410895751953124,-8.966285217285156,-4.442748091603053,-0.25190839694656486,-3.1603053435114505
3893927566429,1.061152604,3,-0.20949264526367187,-0.5279214660644531,-8.955511309814453,-4.412213740458015,-0.3511450381679389,-3.16793893129771
3893934225023,1.067811198,3,-0.16519991455078123,-0.5410895751953124,-8.96269391479492,-4.412213740458015,-0.2748091603053435,-3.1603053435114505
3893940892992,1.074479167,3,-0.20231004028320312,-0.5386953735351562,-8.939948999023438,-4.465648854961832,-0.2824427480916031,-3.1297709923664123
3893947575752,1.081161927,3,-0.20350714111328125,-0.5243301635742187,-8.943540301513671,-4.427480916030534,-0.3893129770992366,-3.16793893129771
3893954242471,1.087828646,3,-0.201112939453125,-0.5159504577636719,-8.957905511474609,-4.419847328244275,-0.24427480916030533,-3.122137404580153
3893960907263,1.094493438,3,-0.22026655273437498,-0.5315127685546874,-8.950722906494141,-4.419847328244275,-0.2595419847328244,-3.183206106870229
3893967567315,1.10115349,3,-0.21068974609375,-0.5195417602539062,-8.921992486572265,-4.412213740458015,-0.4122137404580153,-3.198473282442748
3893974235804,1.107821979,3,-0.2166752502441406,-0.5303156677246094,-8.950722906494141,-4.412213740458015,-0.2748091603053435,-3.1755725190839694
3893980914919,1.114501094,3,-0.2154781494140625,-0.5674257934570313,-8.927977990722656,-4.442748091603053,-0.2900763358778626,-3.145038167938931
3893987570908,1.121157083,3,-0.20350714111328125,-0.5291185668945312,-8.927977990722656,-4.396946564885496,-0.3511450381679389,-3.1603053435114505
3893994234085,1.12782026,3,-0.19632453613281248,-0.5267243652343749,-8.921992486572265,-4.480916030534351,-0.26717557251908397,-3.114503816793893
3894000897262,1.134483437,3,-0.19512743530273435,-0.5494692810058593,-8.954314208984375,-4.480916030534351,-0.26717557251908397,-3.068702290076336
3894007703304,1.141289479,3,-0.21428104858398436,-0.5159504577636719,-8.980650427246093,-4.419847328244275,-0.3969465648854962,-3.053435114503817
3894014154346,1.147740521,3,-0.21428104858398436,-0.5398924743652344,-8.955511309814453,-4.412213740458015,-0.32061068702290074,-3.0763358778625953
3894020857523,1.154443698,3,-0.2059013427734375,-0.5398924743652344,-8.935160595703124,-4.3816793893129775,-0.35877862595419846,-3.1526717557251906
3894027567575,1.16115375,3,-0.19632453613281248,-0.5303156677246094,-8.935160595703124,-4.450381679389313,-0.42748091603053434,-3.1526717557251906
3894034242887,1.167829062,3,-0.20470424194335937,-0.5327098693847656,-8.979453326416015,-4.450381679389313,-0.3282442748091603,-3.183206106870229
3894040913929,1.174500104,3,-0.20470424194335937,-0.5327098693847656,-8.966285217285156,-4.473282442748092,-0.3282442748091603,-3.1297709923664123
3894047574137,1.181160312,3,-0.20231004028320312,-0.5327098693847656,-9.016563452148437,-4.480916030534351,-0.3435114503816794,-3.1297709923664123
3894054247731,1.187833906,3,-0.2059013427734375,-0.5183446594238281,-8.90044467163086,-4.435114503816794,-0.33587786259541985,-3.1603053435114505
3894060906273,1.194492448,3,-0.16879121704101563,-0.5267243652343749,-8.910021478271483,-4.473282442748092,-0.29770992366412213,-3.2061068702290076
3894067573669,1.201159844,3,-0.21188684692382811,-0.5255272644042969,-8.945934503173827,-4.427480916030534,-0.35877862595419846,-3.1374045801526718
3894074205231,1.207791406,3,-0.20231004028320312,-0.5386953735351562,-8.971073620605468,-4.442748091603053,-0.37404580152671757,-3.1755725190839694
3894080912471,1.214498646,3,-0.19153613281249998,-0.5195417602539062,-8.95670841064453,-4.442748091603053,-0.2595419847328244,-3.145038167938931
3894087579398,1.221165573,3,-0.2166752502441406,-0.5231330627441406,-8.968679418945312,-4.412213740458015,-0.37404580152671757,-3.099236641221374
3894094239450,1.227825625,3,-0.17836802368164062,-0.5494692810058593,-8.972270721435546,-4.419847328244275,-0.35877862595419846,-3.099236641221374
3894100903044,1.234489219,3,-0.19512743530273435,-0.5267243652343749,-8.941146099853515,-4.458015267175573,-0.26717557251908397,-3.1603053435114505
3894107510387,1.241096562,3,-0.20709844360351562,-0.5363011718749999,-8.936357696533202,-4.3893129770992365,-0.366412213740458,-3.145038167938931
3894114250283,1.247836458,3,-0.2154781494140625,-0.5374982727050781,-8.92438668823242,-4.396946564885496,-0.32061068702290074,-3.198473282442748
3894120900700,1.254486875,3,-0.1879448303222656,-0.5279214660644531,-8.936357696533202,-4.458015267175573,-0.29770992366412213,-3.145038167938931
3894127574710,1.261160885,3,-0.21428104858398436,-0.5542576843261718,-8.971073620605468,-4.4961832061068705,-0.3816793893129771,-3.1068702290076335
3894134229815,1.26781599,3,-0.1879448303222656,-0.5422866760253906,-8.950722906494141,-4.488549618320611,-0.2900763358778626,-3.1068702290076335
3894140903929,1.274490104,3,-0.22026655273437498,-0.5207388610839844,-8.945934503173827,-4.427480916030534,-0.33587786259541985,-3.122137404580153
3894147637158,1.281223333,3,-0.20231004028320312,-0.5351040710449219,-8.92438668823242,-4.427480916030534,-0.3282442748091603,-3.1755725190839694
3894154240492,1.287826667,3,-0.20231004028320312,-0.5219359619140624,-8.987833032226561,-4.3816793893129775,-0.31297709923664124,-3.16793893129771
3894161001533,1.294587708,3,-0.17597382202148437,-0.5219359619140624,-8.949525805664061,-4.404580152671755,-0.32061068702290074,-3.1374045801526718
3894167589033,1.301175208,3,-0.16280571289062498,-0.5518634826660156,-8.949525805664061,-4.3816793893129775,-0.2900763358778626,-3.0839694656488548
3894174273565,1.30785974,3,-0.18914193115234373,-0.5267243652343749,-8.966285217285156,-4.3816793893129775,-0.2900763358778626,-3.183206106870229
3894180936012,1.314522187,3,-0.19991583862304688,-0.5614402893066406,-8.929175091552734,-4.480916030534351,-0.2900763358778626,-3.2213740458015265
3894187606950,1.321193125,3,-0.23104046020507812,-0.5351040710449219,-8.965088116455078,-4.465648854961832,-0.3511450381679389,-3.2213740458015265
3894194253929,1.327840104,3,-0.21787235107421873,-0.5626373901367188,-8.936357696533202,-4.450381679389313,-0.33587786259541985,-3.183206106870229
3894200888460,1.334474635,3,-0.20709844360351562,-0.5470750793457031,-8.935160595703124,-4.3893129770992365,-0.2595419847328244,-3.1297709923664123
3894207551950,1.341138125,3,-0.20829554443359374,-0.5446808776855468,-8.94473740234375,-4.358778625954199,-0.3511450381679389,-3.1755725190839694
3894214258512,1.347844687,3,-0.21428104858398436,-0.5602431884765625,-8.960299713134765,-4.3816793893129775,-0.3893129770992366,-3.198473282442748
3894220919137,1.354505312,3,-0.18315642700195311,-0.5099649536132812,-8.980650427246093,-4.396946564885496,-0.32061068702290074,-3.1755725190839694
3894227585492,1.361171667,3,-0.21787235107421873,-0.5458779785156249,-8.920795385742187,-4.396946564885496,-0.29770992366412213,-3.1603053435114505
3894234218825,1.367805,3,-0.17956512451171874,-0.5434837768554687,-8.948328704833983,-4.404580152671755,-0.2900763358778626,-3.145038167938931
3894240932054,1.374518229,3,-0.20709844360351562,-0.5578489868164063,-8.926780889892578,-4.465648854961832,-0.3053435114503817,-3.114503816793893
3894247522731,1.381108906,3,-0.21308394775390624,-0.5267243652343749,-8.974664923095702,-4.3893129770992365,-0.4198473282442748,-3.122137404580153
3894254257314,1.387843489,3,-0.1927332336425781,-0.5877765075683593,-8.912415679931641,-4.412213740458015,-0.3435114503816794,-3.1603053435114505
3894260890231,1.394476406,3,-0.19393033447265623,-0.5398924743652344,-8.916006982421875,-4.412213740458015,-0.3435114503816794,-3.198473282442748
3894267628669,1.401214844,3,-0.21068974609375,-0.5386953735351562,-8.939948999023438,-4.419847328244275,-0.366412213740458,-3.16793893129771
3894274258512,1.407844687,3,-0.1927332336425781,-0.5255272644042969,-8.98304462890625,-4.3816793893129775,-0.31297709923664124,-3.198473282442748
3894280927575,1.41451375,3,-0.20231004028320312,-0.5482721801757812,-8.933963494873046,-4.374045801526718,-0.3053435114503817,-3.1755725190839694
3894287586794,1.421172969,3,-0.21906945190429686,-0.5530605834960938,-8.971073620605468,-4.396946564885496,-0.3435114503816794,-3.2061068702290076
3894294251585,1.42783776,3,-0.21906945190429686,-0.5219359619140624,-8.947131604003905,-4.450381679389313,-0.2900763358778626,-3.198473282442748
3894300919137,1.434505312,3,-0.21068974609375,-0.5219359619140624,-8.943540301513671,-4.427480916030534,-0.29770992366412213,-3.1526717557251906
3894307595335,1.44118151,3,-0.1867477294921875,-0.5219359619140624,-8.943540301513671,-4.3893129770992365,-0.33587786259541985,-3.1603053435114505
3894314252731,1.447838906,3,-0.16041151123046873,-0.5339069702148437,-8.920795385742187,-4.3893129770992365,-0.31297709923664124,-3.1755725190839694
3894320924033,1.454510208,3,-0.21428104858398436,-0.5494692810058593,-8.90643017578125,-4.412213740458015,-0.31297709923664124,-3.213740458015267
3894327582419,1.461168594,3,-0.22026655273437498,-0.5530605834960938,-8.955511309814453,-4.473282442748092,-0.3053435114503817,-3.213740458015267
3894334222835,1.46780901,3,-0.24301146850585936,-0.5614402893066406,-8.914809881591797,-4.412213740458015,-0.3435114503816794,-3.1526717557251906
3894340927575,1.47451375,3,-0.20350714111328125,-0.5410895751953124,-8.905233074951171,-4.412213740458015,-0.26717557251908397,-3.1374045801526718
3894347590648,1.481176823,3,-0.22505495605468748,-0.5267243652343749,-8.914809881591797,-4.396946564885496,-0.32061068702290074,-3.1374045801526718
3894354220492,1.487806667,3,-0.19871873779296872,-0.5386953735351562,-8.930372192382812,-4.427480916030534,-0.35877862595419846,-3.183206106870229
3894360923460,1.494509635,3,-0.20470424194335937,-0.5578489868164063,-8.894459167480468,-4.3816793893129775,-0.3816793893129771,-3.198473282442748
3894367580231,1.501166406,3,-0.20470424194335937,-0.5590460876464843,-8.926780889892578,-4.435114503816794,-0.3511450381679389,-3.1297709923664123
3894374258773,1.507844948,3,-0.23104046020507812,-0.5374982727050781,-8.987833032226561,-4.412213740458015,-0.3435114503816794,-3.1068702290076335
3894380934085,1.51452026,3,-0.20231004028320312,-0.5386953735351562,-8.95670841064453,-4.458015267175573,-0.2748091603053435,-3.122137404580153
3894387590648,1.521176823,3,-0.1927332336425781,-0.5327098693847656,-8.951920007324219,-4.442748091603053,-0.40458015267175573,-3.1297709923664123
3894394243669,1.527829844,3,-0.19991583862304688,-0.55545478515625,-8.92438668823242,-4.396946564885496,-0.33587786259541985,-3.198473282442748
3894400924762,1.534510937,3,-0.19871873779296872,-0.5386953735351562,-8.960299713134765,-4.427480916030534,-0.3511450381679389,-3.1374045801526718
3894407583200,1.541169375,3,-0.22385785522460935,-0.5398924743652344,-8.939948999023438,-4.404580152671755,-0.3969465648854962,-3.1297709923664123
3894414252158,1.547838333,3,-0.1975216369628906,-0.5494692810058593,-8.933963494873046,-4.458015267175573,-0.32061068702290074,-3.145038167938931
3894420922627,1.554508802,3,-0.20231004028320312,-0.5494692810058593,-8.942343200683593,-4.480916030534351,-0.2748091603053435,-3.122137404580153
3894427591846,1.561178021,3,-0.20350714111328125,-0.5303156677246094,-8.914809881591797,-4.458015267175573,-0.2595419847328244,-3.0839694656488548
3894434262002,1.567848177,3,-0.20350714111328125,-0.5363011718749999,-8.955511309814453,-4.404580152671755,-0.29770992366412213,-3.068702290076336
3894440928200,1.574514375,3,-0.23822306518554687,-0.5363011718749999,-8.935160595703124,-4.488549618320611,-0.32061068702290074,-3.114503816793893
3894447553252,1.581139427,3,-0.1771709228515625,-0.55545478515625,-8.935160595703124,-4.465648854961832,-0.33587786259541985,-3.1297709923664123
3894454260700,1.587846875,3,-0.20350714111328125,-0.5291185668945312,-8.930372192382812,-4.465648854961832,-0.3282442748091603,-3.1374045801526718
3894460914189,1.594500364,3,-0.18914193115234373,-0.5410895751953124,-8.971073620605468,-4.480916030534351,-0.3282442748091603,-3.16793893129771
3894467587002,1.601173177,3,-0.2214636535644531,-0.5327098693847656,-8.950722906494141,-4.480916030534351,-0.3511450381679389,-3.16793893129771
3894474259241,1.607845416,3,-0.21068974609375,-0.5626373901367188,-8.94473740234375,-4.473282442748092,-0.33587786259541985,-3.1374045801526718
3894480929398,1.614515573,3,-0.2166752502441406,-0.5518634826660156,-8.963891015625,-4.412213740458015,-0.2824427480916031,-3.145038167938931
3894487582210,1.621168385,3,-0.22744915771484372,-0.5231330627441406,-8.94473740234375,-4.419847328244275,-0.3282442748091603,-3.1526717557251906
3894494218773,1.627804948,3,-0.2166752502441406,-0.5482721801757812,-8.926780889892578,-4.3893129770992365,-0.32061068702290074,-3.183206106870229
3894500931116,1.634517291,3,-0.1927332336425781,-0.5123591552734374,-8.948328704833983,-4.404580152671755,-0.35877862595419846,-3.0916030534351147
3894507582575,1.64116875,3,-0.20231004028320312,-0.5195417602539062,-8.955511309814453,-4.473282442748092,-0.4198473282442748,-3.114503816793893
3894514305127,1.647891302,3,-0.21428104858398436,-0.5458779785156249,-8.996212738037109,-4.442748091603053,-0.366412213740458,-3.122137404580153
3894520887106,1.654473281,3,-0.22505495605468748,-0.5434837768554687,-8.967482318115234,-4.450381679389313,-0.3282442748091603,-3.1755725190839694
3894527585335,1.66117151,3,-0.22266075439453123,-0.5339069702148437,-8.923189587402343,-4.458015267175573,-0.31297709923664124,-3.145038167938931
3894534304554,1.667890729,3,-0.2059013427734375,-0.5458779785156249,-8.93755479736328,-4.442748091603053,-0.3282442748091603,-3.183206106870229
3894540927054,1.674513229,3,-0.1975216369628906,-0.5410895751953124,-8.966285217285156,-4.396946564885496,-0.3816793893129771,-3.1297709923664123
3894547587939,1.681174114,3,-0.20949264526367187,-0.5434837768554687,-8.960299713134765,-4.33587786259542,-0.3893129770992366,-3.0916030534351147
3894554257939,1.687844114,3,-0.19991583862304688,-0.5494692810058593,-8.963891015625,-4.290076335877862,-0.3053435114503817,-3.183206106870229
3894560890335,1.69447651,3,-0.201112939453125,-0.5626373901367188,-8.936357696533202,-4.366412213740458,-0.3053435114503817,-3.1526717557251906
3894567606064,1.701192239,3,-0.21308394775390624,-0.5255272644042969,-8.93755479736328,-4.419847328244275,-0.35877862595419846,-3.1603053435114505
3894574260127,1.707846302,3,-0.21308394775390624,-0.5219359619140624,-8.990227233886719,-4.465648854961832,-0.2748091603053435,-3.16793893129771
3894580912627,1.714498802,3,-0.1927332336425781,-0.5219359619140624,-8.95670841064453,-4.427480916030534,-0.2900763358778626,-3.1374045801526718
3894587561533,1.721147708,3,-0.19153613281249998,-0.5374982727050781,-8.95670841064453,-4.427480916030534,-0.3053435114503817,-3.0916030534351147
3894594256377,1.727842552,3,-0.20231004028320312,-0.5470750793457031,-8.949525805664061,-4.427480916030534,-0.25190839694656486,-3.16793893129771
3894600919658,1.734505833,3,-0.18555062866210936,-0.5398924743652344,-8.914809881591797,-4.4961832061068705,-0.25190839694656486,-3.1603053435114505
3894607582575,1.74116875,3,-0.18315642700195311,-0.5303156677246094,-8.901641772460938,-4.442748091603053,-0.29770992366412213,-3.1603053435114505
3894614223929,1.747810104,3,-0.20829554443359374,-0.5291185668945312,-8.936357696533202,-4.450381679389313,-0.3282442748091603,-3.1068702290076335
3894620922471,1.754508646,3,-0.23223756103515625,-0.5363011718749999,-8.966285217285156,-4.419847328244275,-0.29770992366412213,-3.114503816793893
3894627593512,1.761179687,3,-0.2166752502441406,-0.5398924743652344,-8.965088116455078,-4.427480916030534,-0.29770992366412213,-3.1755725190839694
3894634265752,1.767851927,3,-0.20949264526367187,-0.5374982727050781,-8.99501563720703,-4.412213740458015,-0.25190839694656486,-3.213740458015267
3894640926064,1.774512239,3,-0.20949264526367187,-0.5494692810058593,-8.959102612304687,-4.412213740458015,-0.2900763358778626,-3.1068702290076335
3894647619450,1.781205625,3,-0.20231004028320312,-0.5195417602539062,-8.926780889892578,-4.3816793893129775,-0.32061068702290074,-3.0916030534351147
3894654256533,1.787842708,3,-0.22026655273437498,-0.5231330627441406,-8.921992486572265,-4.404580152671755,-0.2824427480916031,-3.1068702290076335
3894660919137,1.794505312,3,-0.20949264526367187,-0.5279214660644531,-8.9255837890625,-4.396946564885496,-0.2748091603053435,-3.1526717557251906
3894667559137,1.801145312,3,-0.2166752502441406,-0.5363011718749999,-8.894459167480468,-4.435114503816794,-0.31297709923664124,-3.122137404580153
3894674248929,1.807835104,3,-0.1879448303222656,-0.5494692810058593,-8.936357696533202,-4.419847328244275,-0.3282442748091603,-3.16793893129771
3894680928512,1.814514687,3,-0.20949264526367187,-0.5303156677246094,-8.921992486572265,-4.358778625954199,-0.35877862595419846,-3.1374045801526718
3894687580908,1.821167083,3,-0.22026655273437498,-0.5494692810058593,-8.941146099853515,-4.412213740458015,-0.37404580152671757,-3.0916030534351147
3894694262575,1.82784875,3,-0.20829554443359374,-0.5219359619140624,-8.939948999023438,-4.3816793893129775,-0.2824427480916031,-3.145038167938931
3894700917471,1.834503646,3,-0.19512743530273435,-0.5506663818359374,-8.955511309814453,-4.435114503816794,-0.2824427480916031,-3.16793893129771
3894707555283,1.841141458,3,-0.181959326171875,-0.5231330627441406,-8.942343200683593,-4.419847328244275,-0.37404580152671757,-3.16793893129771
3894714223512,1.847809687,3,-0.181959326171875,-0.5219359619140624,-8.904035974121093,-4.450381679389313,-0.2748091603053435,-3.1297709923664123
3894720893460,1.854479635,3,-0.19153613281249998,-0.5219359619140624,-8.971073620605468,-4.480916030534351,-0.3435114503816794,-3.1755725190839694
3894727555023,1.861141198,3,-0.20709844360351562,-0.5243301635742187,-8.971073620605468,-4.458015267175573,-0.3282442748091603,-3.198473282442748
3894734254814,1.867840989,3,-0.22266075439453123,-0.5446808776855468,-8.93755479736328,-4.458015267175573,-0.2824427480916031,-3.213740458015267
3894740871273,1.874457448,3,-0.18914193115234373,-0.55545478515625,-8.947131604003905,-4.435114503816794,-0.2824427480916031,-3.213740458015267
3894747590439,1.881176614,3,-0.22505495605468748,-0.5458779785156249,-8.95670841064453,-4.412213740458015,-0.3053435114503817,-3.114503816793893
3894754257418,1.887843593,3,-0.21188684692382811,-0.5494692810058593,-8.959102612304687,-4.442748091603053,-0.2900763358778626,-3.1755725190839694
3894760921273,1.894507448,3,-0.21188684692382811,-0.5518634826660156,-8.961496813964843,-4.511450381679389,-0.2748091603053435,-3.1908396946564888
3894767581793,1.901167968,3,-0.22505495605468748,-0.5219359619140624,-8.945934503173827,-4.480916030534351,-0.3282442748091603,-3.145038167938931
3894774254866,1.907841041,3,-0.20470424194335937,-0.5255272644042969,-8.913612780761719,-4.419847328244275,-0.31297709923664124,-3.122137404580153
3894780924293,1.914510468,3,-0.17357962036132812,-0.5410895751953124,-8.936357696533202,-4.419847328244275,-0.3435114503816794,-3.1297709923664123
3894787590960,1.921177135,3,-0.19871873779296872,-0.5590460876464843,-8.951920007324219,-4.366412213740458,-0.33587786259541985,-3.1374045801526718
3894794248096,1.927834271,3,-0.1927332336425781,-0.5446808776855468,-8.973467822265624,-4.396946564885496,-0.32061068702290074,-3.1526717557251906
3894800928148,1.934514323,3,-0.19991583862304688,-0.5494692810058593,-8.947131604003905,-4.358778625954199,-0.31297709923664124,-3.1297709923664123
3894807583616,1.941169791,3,-0.20949264526367187,-0.5542576843261718,-8.953117108154297,-4.412213740458015,-0.3893129770992366,-3.1374045801526718
3894814317158,1.947903333,3,-0.20350714111328125,-0.5470750793457031,-8.917204083251953,-4.412213740458015,-0.2748091603053435,-3.122137404580153
3894820892731,1.954478906,3,-0.19991583862304688,-0.5458779785156249,-8.90643017578125,-4.435114503816794,-0.3511450381679389,-3.1603053435114505
3894827583616,1.961169791,3,-0.18315642700195311,-0.5398924743652344,-8.973467822265624,-4.458015267175573,-0.35877862595419846,-3.198473282442748
3894834250648,1.967836823,3,-0.18914193115234373,-0.5590460876464843,-8.904035974121093,-4.412213740458015,-0.24427480916030533,-3.1526717557251906
3894840908877,1.974495052,3,-0.1927332336425781,-0.5626373901367188,-8.926780889892578,-4.404580152671755,-0.31297709923664124,-3.16793893129771
3894847609762,1.981195937,3,-0.20709844360351562,-0.5710170959472656,-8.93156929321289,-4.412213740458015,-0.4122137404580153,-3.1755725190839694
3894854268564,1.987854739,3,-0.20709844360351562,-0.5422866760253906,-8.954314208984375,-4.3893129770992365,-0.29770992366412213,-3.1603053435114505
3894860923981,1.994510156,3,-0.20949264526367187,-0.5422866760253906,-8.917204083251953,-4.374045801526718,-0.3435114503816794,-3.099236641221374
3894867583356,2.001169531,3,-0.19871873779296872,-0.5243301635742187,-8.917204083251953,-4.374045801526718,-0.32061068702290074,-3.145038167938931
3894874247835,2.00783401,3,-0.21188684692382811,-0.5159504577636719,-8.935160595703124,-4.435114503816794,-0.32061068702290074,-3.1603053435114505
3894880998460,2.014584635,3,-0.19871873779296872,-0.51714755859375,-8.92438668823242,-4.404580152671755,-0.29770992366412213,-3.1297709923664123
3894887603043,2.021189218,3,-0.21428104858398436,-0.5506663818359374,-8.936357696533202,-4.419847328244275,-0.35877862595419846,-3.1297709923664123
3894894227627,2.027813802,3,-0.19153613281249998,-0.5458779785156249,-8.965088116455078,-4.435114503816794,-0.3282442748091603,-3.068702290076336
3894900890804,2.034476979,3,-0.201112939453125,-0.5434837768554687,-8.949525805664061,-4.412213740458015,-0.31297709923664124,-3.1374045801526718
3894907635231,2.041221406,3,-0.19512743530273435,-0.5638344909667968,-8.953117108154297,-4.435114503816794,-0.3893129770992366,-3.099236641221374
3894914279241,2.047865416,3,-0.21308394775390624,-0.5578489868164063,-8.95670841064453,-4.412213740458015,-0.366412213740458,-3.1603053435114505
3894920935752,2.054521927,3,-0.17238251953125,-0.5470750793457031,-8.97705912475586,-4.396946564885496,-0.2900763358778626,-3.0916030534351147
3894927596116,2.061182291,3,-0.20470424194335937,-0.5482721801757812,-8.957905511474609,-4.450381679389313,-0.35877862595419846,-3.068702290076336
3894934261585,2.06784776,3,-0.2059013427734375,-0.5458779785156249,-8.948328704833983,-4.450381679389313,-0.3282442748091603,-3.145038167938931
3894940923981,2.074510156,3,-0.20829554443359374,-0.5566518859863281,-8.91840118408203,-4.442748091603053,-0.31297709923664124,-3.198473282442748
3894947605283,2.081191458,3,-0.21906945190429686,-0.5219359619140624,-8.949525805664061,-4.473282442748092,-0.3511450381679389,-3.1297709923664123
3894954261429,2.087847604,3,-0.2059013427734375,-0.5698199951171875,-8.942343200683593,-4.458015267175573,-0.33587786259541985,-3.1526717557251906
3894960928408,2.094514583,3,-0.20350714111328125,-0.5781997009277343,-8.967482318115234,-4.442748091603053,-0.35877862595419846,-3.1297709923664123
3894967592991,2.101179166,3,-0.19153613281249998,-0.5614402893066406,-8.975862023925782,-4.427480916030534,-0.3816793893129771,-3.1374045801526718
3894974256064,2.107842239,3,-0.19033903198242186,-0.5470750793457031,-8.950722906494141,-4.3893129770992365,-0.3053435114503817,-3.0839694656488548
3894980931533,2.114517708,3,-0.2166752502441406,-0.5482721801757812,-8.939948999023438,-4.404580152671755,-0.3053435114503817,-3.1374045801526718
3894987587418,2.121173593,3,-0.22266075439453123,-0.5303156677246094,-8.949525805664061,-4.419847328244275,-0.40458015267175573,-3.122137404580153
3894994254866,2.127841041,3,-0.22266075439453123,-0.5698199951171875,-8.959102612304687,-4.396946564885496,-0.3053435114503817,-3.1526717557251906
3895000918408,2.134504583,3,-0.1927332336425781,-0.5698199951171875,-8.959102612304687,-4.320610687022901,-0.3053435114503817,-3.1755725190839694
3895007588252,2.141174427,3,-0.239420166015625,-0.5374982727050781,-8.991424334716797,-4.320610687022901,-0.32061068702290074,-3.0916030534351147
3895014264554,2.147850729,3,-0.2214636535644531,-0.5494692810058593,-8.967482318115234,-4.404580152671755,-0.32061068702290074,-3.0839694656488548
3895020930960,2.154517135,3,-0.21906945190429686,-0.55545478515625,-8.972270721435546,-4.442748091603053,-0.2748091603053435,-3.0839694656488548
3895027620439,2.161206614,3,-0.21428104858398436,-0.5279214660644531,-8.951920007324219,-4.4961832061068705,-0.366412213740458,-3.0839694656488548
3895034312314,2.167898489,3,-0.18315642700195311,-0.5638344909667968,-8.930372192382812,-4.465648854961832,-0.32061068702290074,-3.099236641221374
3895040924293,2.174510468,3,-0.2166752502441406,-0.5279214660644531,-8.945934503173827,-4.419847328244275,-0.31297709923664124,-3.16793893129771
3895047587731,2.181173906,3,-0.19153613281249998,-0.5363011718749999,-8.93156929321289,-4.351145038167939,-0.3511450381679389,-3.1755725190839694
3895054251220,2.187837395,3,-0.21308394775390624,-0.5698199951171875,-8.935160595703124,-4.358778625954199,-0.32061068702290074,-3.1755725190839694
3895060917523,2.194503698,3,-0.2059013427734375,-0.5339069702148437,-8.933963494873046,-4.366412213740458,-0.29770992366412213,-3.053435114503817
3895067588304,2.201174479,3,-0.19991583862304688,-0.5446808776855468,-8.935160595703124,-4.3816793893129775,-0.366412213740458,-3.0916030534351147
3895074258200,2.207844375,3,-0.21068974609375,-0.5434837768554687,-8.96269391479492,-4.412213740458015,-0.35877862595419846,-3.114503816793893
3895080892887,2.214479062,3,-0.20350714111328125,-0.5614402893066406,-8.921992486572265,-4.396946564885496,-0.3282442748091603,-3.099236641221374
3895087588460,2.221174635,3,-0.22266075439453123,-0.5542576843261718,-8.935160595703124,-4.396946564885496,-0.40458015267175573,-3.1297709923664123
3895094251950,2.227838125,3,-0.18555062866210936,-0.5530605834960938,-8.941146099853515,-4.366412213740458,-0.2900763358778626,-3.16793893129771
3895100881585,2.23446776,3,-0.181959326171875,-0.5494692810058593,-8.945934503173827,-4.427480916030534,-0.2595419847328244,-3.1755725190839694
3895107590335,2.24117651,3,-0.20470424194335937,-0.5279214660644531,-8.948328704833983,-4.450381679389313,-0.3893129770992366,-3.1603053435114505
3895114255491,2.247841666,3,-0.2154781494140625,-0.5494692810058593,-8.932766394042968,-4.458015267175573,-0.2366412213740458,-3.099236641221374
3895120919970,2.254506145,3,-0.20949264526367187,-0.5243301635742187,-8.959102612304687,-4.480916030534351,-0.26717557251908397,-3.099236641221374
3895127588147,2.261174322,3,-0.20949264526367187,-0.5303156677246094,-8.954314208984375,-4.511450381679389,-0.4122137404580153,-3.145038167938931
3895134242262,2.267828437,3,-0.22026655273437498,-0.5303156677246094,-8.902838873291016,-4.458015267175573,-0.24427480916030533,-3.145038167938931
3895140924554,2.274510729,3,-0.20829554443359374,-0.5303156677246094,-8.902838873291016,-4.3816793893129775,-0.2595419847328244,-3.1603053435114505
3895147582939,2.281169114,3,-0.19393033447265623,-0.5470750793457031,-8.929175091552734,-4.3816793893129775,-0.35877862595419846,-3.114503816793893
3895154250283,2.287836458,3,-0.19033903198242186,-0.5446808776855468,-8.943540301513671,-4.427480916030534,-0.35877862595419846,-3.1374045801526718
3895160922158,2.294508333,3,-0.201112939453125,-0.5327098693847656,-8.930372192382812,-4.396946564885496,-0.32061068702290074,-3.1374045801526718
3895167591689,2.301177864,3,-0.21787235107421873,-0.5363011718749999,-8.942343200683593,-4.3816793893129775,-0.3969465648854962,-3.1068702290076335
3895174257522,2.307843697,3,-0.19033903198242186,-0.5470750793457031,-8.943540301513671,-4.374045801526718,-0.42748091603053434,-3.1068702290076335
3895180921845,2.31450802,3,-0.19393033447265623,-0.5530605834960938,-8.933963494873046,-4.3816793893129775,-0.29770992366412213,-3.236641221374046
3895187582835,2.32116901,3,-0.20709844360351562,-0.5614402893066406,-8.955511309814453,-4.404580152671755,-0.33587786259541985,-3.1603053435114505
3895194252522,2.327838697,3,-0.21308394775390624,-0.5351040710449219,-8.984241729736327,-4.404580152671755,-0.3282442748091603,-3.099236641221374
3895200925543,2.334511718,3,-0.17597382202148437,-0.5279214660644531,-8.948328704833983,-4.427480916030534,-0.22137404580152673,-3.2290076335877864
3895207589658,2.341175833,3,-0.20709844360351562,-0.5135562561035156,-8.941146099853515,-4.435114503816794,-0.29770992366412213,-3.1068702290076335
3895214251064,2.347837239,3,-0.2059013427734375,-0.5518634826660156,-8.942343200683593,-4.374045801526718,-0.32061068702290074,-3.1068702290076335
3895220922314,2.354508489,3,-0.16998831787109375,-0.5458779785156249,-8.90044467163086,-4.374045801526718,-0.31297709923664124,-3.114503816793893
3895227584918,2.361171093,3,-0.22266075439453123,-0.5470750793457031,-8.902838873291016,-4.366412213740458,-0.3969465648854962,-3.1908396946564888
3895234258720,2.367844895,3,-0.19871873779296872,-0.5255272644042969,-8.974664923095702,-4.358778625954199,-0.3511450381679389,-3.145038167938931
3895240927575,2.37451375,3,-0.20470424194335937,-0.5183446594238281,-8.911218579101561,-4.3893129770992365,-0.3435114503816794,-3.1068702290076335
3895247559814,2.381145989,3,-0.1927332336425781,-0.51714755859375,-8.948328704833983,-4.465648854961832,-0.31297709923664124,-3.1068702290076335
3895254254502,2.387840677,3,-0.19033903198242186,-0.5267243652343749,-8.941146099853515,-4.412213740458015,-0.26717557251908397,-3.099236641221374
3895260925804,2.394511979,3,-0.23223756103515625,-0.5578489868164063,-8.923189587402343,-4.450381679389313,-0.2824427480916031,-3.145038167938931
3895267588825,2.401175,3,-0.23223756103515625,-0.5410895751953124,-8.939948999023438,-4.450381679389313,-0.37404580152671757,-3.1297709923664123
3895274256950,2.407843125,3,-0.22744915771484372,-0.5410895751953124,-8.907627276611327,-4.473282442748092,-0.366412213740458,-3.1068702290076335
3895280921741,2.414507916,3,-0.20350714111328125,-0.5315127685546874,-8.907627276611327,-4.427480916030534,-0.3435114503816794,-3.1374045801526718
3895287587418,2.421173593,3,-0.18914193115234373,-0.5482721801757812,-8.93156929321289,-4.427480916030534,-0.32061068702290074,-3.1297709923664123
3895294250022,2.427836197,3,-0.19512743530273435,-0.5255272644042969,-8.94473740234375,-4.450381679389313,-0.32061068702290074,-3.0763358778625953
3895301014450,2.434600625,3,-0.201112939453125,-0.5494692810058593,-8.90643017578125,-4.396946564885496,-0.31297709923664124,-3.0763358778625953
3895307604866,2.441191041,3,-0.1867477294921875,-0.5267243652343749,-8.965088116455078,-4.435114503816794,-0.3511450381679389,-3.114503816793893
3895314264033,2.447850208,3,-0.20350714111328125,-0.5638344909667968,-8.968679418945312,-4.5038167938931295,-0.29770992366412213,-3.122137404580153
3895320915908,2.454502083,3,-0.181959326171875,-0.5494692810058593,-8.991424334716797,-4.458015267175573,-0.2595419847328244,-3.1297709923664123
3895327585960,2.461172135,3,-0.201112939453125,-0.5267243652343749,-8.932766394042968,-4.435114503816794,-0.3435114503816794,-3.183206106870229
3895334262262,2.467848437,3,-0.1879448303222656,-0.5518634826660156,-8.93755479736328,-4.450381679389313,-0.33587786259541985,-3.1526717557251906
3895340923668,2.474509843,3,-0.17836802368164062,-0.5363011718749999,-8.957905511474609,-4.465648854961832,-0.2824427480916031,-3.16793893129771
3895347585283,2.481171458,3,-0.19871873779296872,-0.5494692810058593,-8.941146099853515,-4.511450381679389,-0.32061068702290074,-3.1908396946564888
3895354224970,2.487811145,3,-0.20949264526367187,-0.5374982727050781,-8.963891015625,-4.442748091603053,-0.3282442748091603,-3.1526717557251906
3895360925752,2.494511927,3,-0.22026655273437498,-0.5518634826660156,-8.936357696533202,-4.412213740458015,-0.22900763358778625,-3.16793893129771
3895367612002,2.501198177,3,-0.2214636535644531,-0.5662286926269531,-8.92438668823242,-4.419847328244275,-0.26717557251908397,-3.1297709923664123
3895374252002,2.507838177,3,-0.2214636535644531,-0.5410895751953124,-8.96269391479492,-4.396946564885496,-0.2824427480916031,-3.1603053435114505
3895380921481,2.514507656,3,-0.18914193115234373,-0.5386953735351562,-8.961496813964843,-4.3816793893129775,-0.2366412213740458,-3.1755725190839694
3895387598252,2.521184427,3,-0.21787235107421873,-0.5674257934570313,-8.913612780761719,-4.3816793893129775,-0.3435114503816794,-3.1374045801526718
3895394256168,2.527842343,3,-0.19153613281249998,-0.5339069702148437,-8.93755479736328,-4.412213740458015,-0.24427480916030533,-3.122137404580153
3895400922887,2.534509062,3,-0.19033903198242186,-0.5231330627441406,-8.926780889892578,-4.419847328244275,-0.2748091603053435,-3.145038167938931
3895407653095,2.54123927,3,-0.19033903198242186,-0.5363011718749999,-8.943540301513671,-4.404580152671755,-0.3816793893129771,-3.122137404580153
3895414258720,2.547844895,3,-0.21428104858398436,-0.5363011718749999,-8.966285217285156,-4.419847328244275,-0.25190839694656486,-3.1755725190839694
3895420924710,2.554510885,3,-0.21068974609375,-0.5159504577636719,-8.966285217285156,-4.396946564885496,-0.31297709923664124,-3.1908396946564888
3895427589554,2.561175729,3,-0.18435352783203124,-0.5255272644042969,-8.949525805664061,-4.396946564885496,-0.3282442748091603,-3.2061068702290076
3895434230491,2.567816666,3,-0.20350714111328125,-0.5219359619140624,-8.965088116455078,-4.412213740458015,-0.3282442748091603,-3.2213740458015265
3895440922262,2.574508437,3,-0.2214636535644531,-0.5255272644042969,-8.957905511474609,-4.419847328244275,-0.31297709923664124,-3.2213740458015265
3895447590387,2.581176562,3,-0.21906945190429686,-0.5482721801757812,-8.92438668823242,-4.488549618320611,-0.3282442748091603,-3.2061068702290076
3895454221272,2.587807447,3,-0.20829554443359374,-0.5398924743652344,-8.959102612304687,-4.427480916030534,-0.3816793893129771,-3.1374045801526718
3895460921064,2.594507239,3,-0.19153613281249998,-0.5315127685546874,-8.965088116455078,-4.435114503816794,-0.29770992366412213,-3.1603053435114505
3895467553564,2.601139739,3,-0.18315642700195311,-0.5410895751953124,-8.963891015625,-4.366412213740458,-0.3053435114503817,-3.1603053435114505
3895474253616,2.607839791,3,-0.1927332336425781,-0.5099649536132812,-8.953117108154297,-4.3816793893129775,-0.33587786259541985,-3.1297709923664123
3895480927366,2.614513541,3,-0.229843359375,-0.5434837768554687,-8.917204083251953,-4.3893129770992365,-0.31297709923664124,-3.1603053435114505
3895487521064,2.621107239,3,-0.19153613281249998,-0.5374982727050781,-8.975862023925782,-4.3816793893129775,-0.3435114503816794,-3.1603053435114505
3895494262210,2.627848385,3,-0.1975216369628906,-0.5315127685546874,-8.943540301513671,-4.435114503816794,-0.35877862595419846,-3.198473282442748
3895500922106,2.634508281,3,-0.1927332336425781,-0.5363011718749999,-8.965088116455078,-4.450381679389313,-0.35877862595419846,-3.16793893129771
3895507577783,2.641163958,3,-0.2154781494140625,-0.5434837768554687,-8.953117108154297,-4.435114503816794,-0.3053435114503817,-3.1526717557251906
3895514253512,2.647839687,3,-0.19871873779296872,-0.5410895751953124,-8.910021478271483,-4.404580152671755,-0.3053435114503817,-3.1068702290076335
3895520926012,2.654512187,3,-0.20709844360351562,-0.5303156677246094,-8.888473663330078,-4.396946564885496,-0.26717557251908397,-3.1526717557251906
3895527590595,2.66117677,3,-0.18435352783203124,-0.5351040710449219,-8.959102612304687,-4.404580152671755,-0.31297709923664124,-3.1297709923664123
3895534261637,2.667847812,3,-0.19632453613281248,-0.5363011718749999,-8.96269391479492,-4.412213740458015,-0.2824427480916031,-3.1297709923664123
3895540919918,2.674506093,3,-0.22266075439453123,-0.5351040710449219,-8.945934503173827,-4.488549618320611,-0.35877862595419846,-3.1526717557251906
3895547586376,2.681172551,3,-0.22266075439453123,-0.5279214660644531,-8.951920007324219,-4.442748091603053,-0.3282442748091603,-3.0916030534351147
3895554257835,2.68784401,3,-0.2059013427734375,-0.5279214660644531,-8.978256225585938,-4.412213740458015,-0.29770992366412213,-3.1374045801526718
3895560925074,2.694511249,3,-0.1975216369628906,-0.5363011718749999,-8.978256225585938,-4.450381679389313,-0.2748091603053435,-3.183206106870229
3895567584866,2.701171041,3,-0.1975216369628906,-0.5386953735351562,-8.93875189819336,-4.450381679389313,-0.2366412213740458,-3.1755725190839694
3895574250439,2.707836614,3,-0.1927332336425781,-0.5303156677246094,-8.930372192382812,-4.427480916030534,-0.2366412213740458,-3.1908396946564888
3895580922626,2.714508801,3,-0.20350714111328125,-0.5315127685546874,-8.93755479736328,-4.412213740458015,-0.2748091603053435,-3.1908396946564888
3895587589345,2.72117552,3,-0.21428104858398436,-0.5530605834960938,-8.943540301513671,-4.450381679389313,-0.366412213740458,-3.145038167938931
3895594253720,2.727839895,3,-0.19871873779296872,-0.5291185668945312,-8.943540301513671,-4.3816793893129775,-0.32061068702290074,-3.1526717557251906
3895600928304,2.734514479,3,-0.21787235107421873,-0.5386953735351562,-8.953117108154297,-4.374045801526718,-0.3053435114503817,-3.1068702290076335
3895607586637,2.741172812,3,-0.1879448303222656,-0.5207388610839844,-8.949525805664061,-4.3893129770992365,-0.31297709923664124,-3.0839694656488548
3895614223981,2.747810156,3,-0.20829554443359374,-0.5279214660644531,-8.955511309814453,-4.419847328244275,-0.366412213740458,-3.122137404580153
3895620925856,2.754512031,3,-0.181959326171875,-0.5566518859863281,-8.980650427246093,-4.412213740458015,-0.3282442748091603,-3.145038167938931
3895627587574,2.761173749,3,-0.21188684692382811,-0.5530605834960938,-8.932766394042968,-4.435114503816794,-0.3511450381679389,-3.183206106870229
3895634260074,2.767846249,3,-0.1867477294921875,-0.5542576843261718,-8.957905511474609,-4.3816793893129775,-0.3969465648854962,-3.1908396946564888
3895640922991,2.774509166,3,-0.19632453613281248,-0.5638344909667968,-8.94473740234375,-4.3893129770992365,-0.2748091603053435,-3.0916030534351147
3895647590804,2.781176979,3,-0.22864625854492185,-0.5327098693847656,-8.96987651977539,-4.419847328244275,-0.3435114503816794,-3.0916030534351147
3895654266116,2.787852291,3,-0.19871873779296872,-0.5231330627441406,-8.93755479736328,-4.442748091603053,-0.3053435114503817,-3.068702290076336
3895660921793,2.794507968,3,-0.20709844360351562,-0.5410895751953124,-8.953117108154297,-4.480916030534351,-0.3435114503816794,-3.0916030534351147
3895667590491,2.801176666,3,-0.19632453613281248,-0.5398924743652344,-8.951920007324219,-4.442748091603053,-0.3435114503816794,-3.099236641221374
3895674294085,2.80788026,3,-0.1927332336425781,-0.5159504577636719,-8.945934503173827,-4.374045801526718,-0.25190839694656486,-3.16793893129771
3895680938304,2.814524479,3,-0.17597382202148437,-0.5518634826660156,-8.94473740234375,-4.396946564885496,-0.33587786259541985,-3.1603053435114505
3895687593356,2.821179531,3,-0.17597382202148437,-0.55545478515625,-8.987833032226561,-4.427480916030534,-0.3282442748091603,-3.1297709923664123
3895694254189,2.827840364,3,-0.19512743530273435,-0.55545478515625,-8.957905511474609,-4.465648854961832,-0.2366412213740458,-3.0916030534351147
3895700920439,2.834506614,3,-0.1867477294921875,-0.5602431884765625,-8.957905511474609,-4.458015267175573,-0.2748091603053435,-3.114503816793893
3895707596533,2.841182708,3,-0.2214636535644531,-0.55545478515625,-8.892064965820312,-4.458015267175573,-0.26717557251908397,-3.099236641221374
3895714255699,2.847841874,3,-0.201112939453125,-0.5518634826660156,-8.926780889892578,-4.3893129770992365,-0.26717557251908397,-3.145038167938931
3895720924345,2.85451052,3,-0.22026655273437498,-0.5518634826660156,-8.932766394042968,-4.442748091603053,-0.2900763358778626,-3.145038167938931
3895727583876,2.861170051,3,-0.201112939453125,-0.5267243652343749,-8.917204083251953,-4.3893129770992365,-0.32061068702290074,-3.1068702290076335
3895734219970,2.867806145,3,-0.20350714111328125,-0.5327098693847656,-8.904035974121093,-4.404580152671755,-0.32061068702290074,-3.1297709923664123
3895740926949,2.874513124,3,-0.18435352783203124,-0.5614402893066406,-8.916006982421875,-4.465648854961832,-0.2748091603053435,-3.1297709923664123
3895747611116,2.881197291,3,-0.19871873779296872,-0.5458779785156249,-8.948328704833983,-4.427480916030534,-0.3282442748091603,-3.122137404580153
3895754254033,2.887840208,3,-0.21308394775390624,-0.5291185668945312,-8.93875189819336,-4.480916030534351,-0.3282442748091603,-3.1526717557251906
3895760930856,2.894517031,3,-0.19871873779296872,-0.5446808776855468,-8.911218579101561,-4.488549618320611,-0.2748091603053435,-3.2061068702290076
3895767587158,2.901173333,3,-0.2059013427734375,-0.5279214660644531,-8.912415679931641,-4.473282442748092,-0.2900763358778626,-3.236641221374046
3895774316793,2.907902968,3,-0.20949264526367187,-0.5386953735351562,-8.93755479736328,-4.3893129770992365,-0.24427480916030533,-3.183206106870229
3895780926064,2.914512239,3,-0.20470424194335937,-0.565031591796875,-8.954314208984375,-4.3893129770992365,-0.32061068702290074,-3.1297709923664123
3895787624918,2.921211093,3,-0.23104046020507812,-0.5374982727050781,-8.912415679931641,-4.374045801526718,-0.3053435114503817,-3.1297709923664123
3895794254033,2.927840208,3,-0.1879448303222656,-0.5542576843261718,-8.974664923095702,-4.374045801526718,-0.3282442748091603,-3.145038167938931
3895800896324,2.934482499,3,-0.19871873779296872,-0.5303156677246094,-8.965088116455078,-4.374045801526718,-0.32061068702290074,-3.114503816793893
3895807583876,2.941170051,3,-0.20949264526367187,-0.5195417602539062,-8.955511309814453,-4.442748091603053,-0.29770992366412213,-3.1526717557251906
3895814262158,2.947848333,3,-0.20829554443359374,-0.5243301635742187,-8.910021478271483,-4.396946564885496,-0.22137404580152673,-3.183206106870229
3895820917314,2.954503489,3,-0.20350714111328125,-0.5183446594238281,-8.920795385742187,-4.473282442748092,-0.3893129770992366,-3.16793893129771
3895827581845,2.96116802,3,-0.20350714111328125,-0.5159504577636719,-8.947131604003905,-4.419847328244275,-0.37404580152671757,-3.1526717557251906
3895834211793,2.967797968,3,-0.20949264526367187,-0.5159504577636719,-8.93875189819336,-4.442748091603053,-0.29770992366412213,-3.114503816793893
3895840942626,2.974528801,3,-0.21428104858398436,-0.5578489868164063,-8.93875189819336,-4.450381679389313,-0.35877862595419846,-3.145038167938931
3895847582835,2.98116901,3,-0.19153613281249998,-0.5482721801757812,-8.951920007324219,-4.450381679389313,-0.2900763358778626,-3.1526717557251906
3895854258303,2.987844478,3,-0.18076222534179687,-0.5351040710449219,-8.967482318115234,-4.442748091603053,-0.2900763358778626,-3.114503816793893
3895860911324,2.994497499,3,-0.1927332336425781,-0.5243301635742187,-8.968679418945312,-4.435114503816794,-0.2366412213740458,-3.114503816793893
3895867561481,3.001147656,3,-0.17836802368164062,-0.5410895751953124,-8.989030133056641,-4.435114503816794,-0.2748091603053435,-3.1297709923664123
3895874275960,3.007862135,3,-0.19512743530273435,-0.5602431884765625,-8.960299713134765,-4.412213740458015,-0.31297709923664124,-3.16793893129771
3895880916116,3.014502291,3,-0.1975216369628906,-0.5339069702148437,-8.916006982421875,-4.435114503816794,-0.31297709923664124,-3.183206106870229
3895887596481,3.021182656,3,-0.21906945190429686,-0.5482721801757812,-8.949525805664061,-4.480916030534351,-0.3511450381679389,-3.114503816793893
3895894257158,3.027843333,3,-0.2059013427734375,-0.5351040710449219,-8.930372192382812,-4.458015267175573,-0.35877862595419846,-3.1603053435114505
3895900891168,3.034477343,3,-0.22026655273437498,-0.5446808776855468,-8.929175091552734,-4.396946564885496,-0.35877862595419846,-3.198473282442748
3895907594918,3.041181093,3,-0.21428104858398436,-0.5482721801757812,-8.949525805664061,-4.419847328244275,-0.42748091603053434,-3.1374045801526718
3895914252158,3.047838333,3,-0.20350714111328125,-0.5398924743652344,-8.949525805664061,-4.488549618320611,-0.3053435114503817,-3.1603053435114505
3895920931012,3.054517187,3,-0.21068974609375,-0.5315127685546874,-8.96269391479492,-4.450381679389313,-0.22900763358778625,-3.145038167938931
3895927588876,3.061175051,3,-0.22744915771484372,-0.5327098693847656,-8.971073620605468,-4.465648854961832,-0.32061068702290074,-3.1603053435114505
3895934265283,3.067851458,3,-0.19871873779296872,-0.5351040710449219,-8.96269391479492,-4.458015267175573,-0.26717557251908397,-3.1755725190839694
3895940912158,3.074498333,3,-0.20949264526367187,-0.5518634826660156,-8.916006982421875,-4.442748091603053,-0.2748091603053435,-3.1297709923664123
3895947591637,3.081177812,3,-0.20231004028320312,-0.5398924743652344,-8.943540301513671,-4.3893129770992365,-0.3282442748091603,-3.1068702290076335
3895954248095,3.08783427,3,-0.20709844360351562,-0.55545478515625,-8.9255837890625,-4.427480916030534,-0.24427480916030533,-3.0763358778625953
3895960926428,3.094512603,3,-0.19033903198242186,-0.5398924743652344,-8.92438668823242,-4.3893129770992365,-0.2900763358778626,-3.0763358778625953
3895967582418,3.101168593,3,-0.19033903198242186,-0.55545478515625,-8.950722906494141,-4.412213740458015,-0.3053435114503817,-3.1297709923664123
3895974257105,3.10784328,3,-0.17238251953125,-0.55545478515625,-8.919598284912109,-4.458015267175573,-0.21374045801526717,-3.0839694656488548
3895980903720,3.114489895,3,-0.1867477294921875,-0.5339069702148437,-8.919598284912109,-4.442748091603053,-0.35877862595419846,-3.1374045801526718
3895987601012,3.121187187,3,-0.20949264526367187,-0.5374982727050781,-8.9255837890625,-4.442748091603053,-0.35877862595419846,-3.1526717557251906
3895994224033,3.127810208,3,-0.1975216369628906,-0.5386953735351562,-8.986635931396483,-4.450381679389313,-0.35877862595419846,-3.145038167938931
3896000927939,3.134514114,3,-0.21068974609375,-0.5398924743652344,-8.981847528076171,-4.442748091603053,-0.26717557251908397,-3.145038167938931
3896007587991,3.141174166,3,-0.21188684692382811,-0.5494692810058593,-8.968679418945312,-4.404580152671755,-0.3282442748091603,-3.1603053435114505
3896014253876,3.147840051,3,-0.22385785522460935,-0.5363011718749999,-8.93156929321289,-4.3816793893129775,-0.29770992366412213,-3.16793893129771
3896020920595,3.15450677,3,-0.20350714111328125,-0.5590460876464843,-8.926780889892578,-4.450381679389313,-0.2748091603053435,-3.1908396946564888
3896027587626,3.161173801,3,-0.19512743530273435,-0.5243301635742187,-8.929175091552734,-4.465648854961832,-0.33587786259541985,-3.1374045801526718
3896034258772,3.167844947,3,-0.19393033447265623,-0.5578489868164063,-8.9255837890625,-4.419847328244275,-0.32061068702290074,-3.1297709923664123
3896040963199,3.174549374,3,-0.20350714111328125,-0.5422866760253906,-8.941146099853515,-4.458015267175573,-0.2824427480916031,-3.1374045801526718
3896049345283,3.182931458,3,-0.21787235107421873,-0.5518634826660156,-8.93875189819336,-4.450381679389313,-0.3282442748091603,-3.183206106870229
3896055410803,3.188996978,3,-0.20709844360351562,-0.5817910034179687,-8.930372192382812,-4.412213740458015,-0.3282442748091603,-3.236641221374046
3896061352783,3.194938958,3,-0.19393033447265623,-0.5231330627441406,-8.941146099853515,-4.351145038167939,-0.33587786259541985,-3.1755725190839694
3896067712001,3.201298176,3,-0.19991583862304688,-0.5267243652343749,-8.965088116455078,-4.419847328244275,-0.366412213740458,-3.1068702290076335
3896074288408,3.207874583,3,-0.21906945190429686,-0.5374982727050781,-8.948328704833983,-4.473282442748092,-0.26717557251908397,-3.1526717557251906
3896081096897,3.214683072,3,-0.19153613281249998,-0.5195417602539062,-8.93875189819336,-4.412213740458015,-0.3282442748091603,-3.1603053435114505
3896087637522,3.221223697,3,-0.20709844360351562,-0.5123591552734374,-8.975862023925782,-4.427480916030534,-0.3893129770992366,-3.1908396946564888
3896094303355,3.22788953,3,-0.2059013427734375,-0.5303156677246094,-8.930372192382812,-4.396946564885496,-0.33587786259541985,-3.2290076335877864
3896101004605,3.23459078,3,-0.21428104858398436,-0.5231330627441406,-8.967482318115234,-4.442748091603053,-0.32061068702290074,-3.183206106870229
3896107650855,3.24123703,3,-0.21428104858398436,-0.5219359619140624,-8.96987651977539,-4.5038167938931295,-0.31297709923664124,-3.145038167938931
3896114307158,3.247893333,3,-0.21787235107421873,-0.5219359619140624,-8.948328704833983,-4.396946564885496,-0.26717557251908397,-3.1526717557251906
3896120994605,3.25458078,3,-0.2059013427734375,-0.5602431884765625,-8.948328704833983,-4.465648854961832,-0.3053435114503817,-3.1603053435114505
3896127672366,3.261258541,3,-0.22026655273437498,-0.5494692810058593,-8.993818536376953,-4.465648854961832,-0.2595419847328244,-3.1755725190839694
3896134308043,3.267894218,3,-0.19991583862304688,-0.5506663818359374,-8.945934503173827,-4.473282442748092,-0.2595419847328244,-3.122137404580153
3896141032158,3.274618333,3,-0.1927332336425781,-0.5506663818359374,-8.913612780761719,-4.435114503816794,-0.19083969465648856,-3.122137404580153
3896147637158,3.281223333,3,-0.19033903198242186,-0.5231330627441406,-8.935160595703124,-4.442748091603053,-0.3053435114503817,-3.1297709923664123
3896154274241,3.287860416,3,-0.23582886352539062,-0.5590460876464843,-8.973467822265624,-4.412213740458015,-0.33587786259541985,-3.122137404580153
3896160990595,3.29457677,3,-0.19393033447265623,-0.5327098693847656,-8.967482318115234,-4.458015267175573,-0.3435114503816794,-3.1755725190839694
3896167643564,3.301229739,3,-0.2262520568847656,-0.5398924743652344,-8.932766394042968,-4.396946564885496,-0.3816793893129771,-3.1755725190839694
3896174302262,3.307888437,3,-0.17477672119140625,-0.5386953735351562,-8.9255837890625,-4.358778625954199,-0.32061068702290074,-3.1297709923664123
3896180990803,3.314576978,3,-0.1975216369628906,-0.5231330627441406,-8.89326206665039,-4.450381679389313,-0.2748091603053435,-3.114503816793893
3896187575960,3.321162135,3,-0.18435352783203124,-0.5422866760253906,-8.93755479736328,-4.480916030534351,-0.37404580152671757,-3.1374045801526718
3896194319710,3.327905885,3,-0.21308394775390624,-0.5434837768554687,-8.954314208984375,-4.404580152671755,-0.35877862595419846,-3.1297709923664123
3896201088668,3.334674843,3,-0.1867477294921875,-0.5363011718749999,-8.898050469970702,-4.412213740458015,-0.366412213740458,-3.1755725190839694
3896207638512,3.341224687,3,-0.21787235107421873,-0.5303156677246094,-8.960299713134765,-4.442748091603053,-0.3435114503816794,-3.16793893129771
3896214418095,3.34800427,3,-0.2059013427734375,-0.5303156677246094,-8.966285217285156,-4.435114503816794,-0.26717557251908397,-3.183206106870229
3896220998720,3.354584895,3,-0.19632453613281248,-0.5458779785156249,-8.939948999023438,-4.3816793893129775,-0.20610687022900764,-3.1603053435114505
3896227757782,3.361343957,3,-0.19991583862304688,-0.5506663818359374,-8.96269391479492,-4.366412213740458,-0.31297709923664124,-3.122137404580153
3896234322157,3.367908332,3,-0.22864625854492185,-0.5279214660644531,-8.88009395751953,-4.427480916030534,-0.2824427480916031,-3.1526717557251906
3896241084345,3.37467052,3,-0.21188684692382811,-0.5614402893066406,-8.917204083251953,-4.473282442748092,-0.31297709923664124,-3.114503816793893
3896247637991,3.381224166,3,-0.21188684692382811,-0.5410895751953124,-8.932766394042968,-4.427480916030534,-0.35877862595419846,-3.1374045801526718
3896254416272,3.388002447,3,-0.22266075439453123,-0.5410895751953124,-8.978256225585938,-4.435114503816794,-0.2900763358778626,-3.1603053435114505
3896261001897,3.394588072,3,-0.21188684692382811,-0.5303156677246094,-8.978256225585938,-4.435114503816794,-0.3282442748091603,-3.1526717557251906
3896267753095,3.40133927,3,-0.19512743530273435,-0.5446808776855468,-8.993818536376953,-4.435114503816794,-0.3816793893129771,-3.145038167938931
3896274297991,3.407884166,3,-0.1771709228515625,-0.5770026000976562,-8.941146099853515,-4.419847328244275,-0.3816793893129771,-3.145038167938931
3896281034345,3.41462052,3,-0.1975216369628906,-0.5458779785156249,-8.91840118408203,-4.427480916030534,-0.2900763358778626,-3.1908396946564888
3896287633512,3.421219687,3,-0.21308394775390624,-0.5374982727050781,-8.894459167480468,-4.3893129770992365,-0.3969465648854962,-3.1297709923664123
3896294426168,3.428012343,3,-0.21188684692382811,-0.5566518859863281,-8.920795385742187,-4.33587786259542,-0.3435114503816794,-3.1526717557251906
3896301000178,3.434586353,3,-0.201112939453125,-0.5410895751953124,-8.941146099853515,-4.366412213740458,-0.2824427480916031,-3.16793893129771
3896307777210,3.441363385,3,-0.21787235107421873,-0.5458779785156249,-8.94473740234375,-4.358778625954199,-0.32061068702290074,-3.122137404580153
3896314309918,3.447896093,3,-0.23104046020507812,-0.5446808776855468,-8.912415679931641,-4.358778625954199,-0.3435114503816794,-3.0763358778625953
3896321085803,3.454671978,3,-0.19512743530273435,-0.5351040710449219,-8.94473740234375,-4.412213740458015,-0.2824427480916031,-3.145038167938931
3896327637887,3.461224062,3,-0.1975216369628906,-0.5446808776855468,-8.978256225585938,-4.396946564885496,-0.40458015267175573,-3.1603053435114505
3896334414762,3.468000937,3,-0.20709844360351562,-0.5267243652343749,-8.921992486572265,-4.366412213740458,-0.3435114503816794,-3.1908396946564888
3896340992366,3.474578541,3,-0.19393033447265623,-0.5315127685546874,-8.948328704833983,-4.427480916030534,-0.31297709923664124,-3.1603053435114505
3896347689710,3.481275885,3,-0.1975216369628906,-0.5734112976074218,-8.981847528076171,-4.458015267175573,-0.3435114503816794,-3.1374045801526718
3896354300230,3.487886405,3,-0.181959326171875,-0.5422866760253906,-8.954314208984375,-4.396946564885496,-0.29770992366412213,-3.145038167938931
3896361080803,3.494666978,3,-0.20949264526367187,-0.5446808776855468,-8.961496813964843,-4.374045801526718,-0.26717557251908397,-3.1526717557251906
3896367633980,3.501220155,3,-0.22505495605468748,-0.5291185668945312,-8.920795385742187,-4.3816793893129775,-0.3893129770992366,-3.1526717557251906
3896374358564,3.507944739,3,-0.2154781494140625,-0.5015852478027344,-8.9255837890625,-4.435114503816794,-0.3511450381679389,-3.1526717557251906
3896380930803,3.514516978,3,-0.20709844360351562,-0.5255272644042969,-8.949525805664061,-4.442748091603053,-0.3816793893129771,-3.1297709923664123
3896387757001,3.521343176,3,-0.20709844360351562,-0.5674257934570313,-8.9255837890625,-4.473282442748092,-0.35877862595419846,-3.145038167938931
3896394300491,3.527886666,3,-0.1927332336425781,-0.5674257934570313,-8.901641772460938,-4.427480916030534,-0.21374045801526717,-3.0916030534351147
3896401092418,3.534678593,3,-0.19871873779296872,-0.5398924743652344,-8.901641772460938,-4.442748091603053,-0.2595419847328244,-3.1068702290076335
3896407633512,3.541219687,3,-0.19153613281249998,-0.5291185668945312,-8.91840118408203,-4.442748091603053,-0.2595419847328244,-3.16793893129771
3896414419397,3.548005572,3,-0.2262520568847656,-0.5207388610839844,-8.966285217285156,-4.442748091603053,-0.25190839694656486,-3.2061068702290076
3896421033668,3.554619843,3,-0.2166752502441406,-0.51714755859375,-8.917204083251953,-4.427480916030534,-0.183206106870229,-3.2061068702290076
3896428741220,3.562327395,3,-0.20470424194335937,-0.5291185668945312,-8.941146099853515,-4.4961832061068705,-0.37404580152671757,-3.1755725190839694
3896437302053,3.570888228,3,-0.19153613281249998,-0.5207388610839844,-8.945934503173827,-4.511450381679389,-0.26717557251908397,-3.1068702290076335
3896445749918,3.579336093,3,-0.19512743530273435,-0.5422866760253906,-8.950722906494141,-4.435114503816794,-0.35877862595419846,-3.1374045801526718
3896454320751,3.587906926,3,-0.19153613281249998,-0.5494692810058593,-8.935160595703124,-4.412213740458015,-0.2748091603053435,-3.145038167938931
3896462730595,3.59631677,3,-0.16879121704101563,-0.5374982727050781,-8.904035974121093,-4.412213740458015,-0.2595419847328244,-3.145038167938931
3896471317574,3.604903749,3,-0.21068974609375,-0.5398924743652344,-8.95670841064453,-4.473282442748092,-0.3053435114503817,-3.1297709923664123
3896479617418,3.613203593,3,-0.21906945190429686,-0.5315127685546874,-8.950722906494141,-4.412213740458015,-0.2824427480916031,-3.1374045801526718
3896488175751,3.621761926,3,-0.21068974609375,-0.5279214660644531,-8.966285217285156,-4.396946564885496,-0.3511450381679389,-3.1297709923664123
3896496550907,3.630137082,3,-0.20829554443359374,-0.5231330627441406,-8.919598284912109,-4.374045801526718,-0.4198473282442748,-3.1374045801526718
3896505081220,3.638667395,3,-0.201112939453125,-0.5566518859863281,-8.91840118408203,-4.396946564885496,-0.33587786259541985,-3.1374045801526718
3896513512522,3.647098697,3,-0.181959326171875,-0.5518634826660156,-8.90044467163086,-4.427480916030534,-0.2595419847328244,-3.1755725190839694
3896522088199,3.655674374,3,-0.2059013427734375,-0.5494692810058593,-8.916006982421875,-4.458015267175573,-0.2900763358778626,-3.1374045801526718
3896530128199,3.663714374,3,-0.1975216369628906,-0.5458779785156249,-8.939948999023438,-4.396946564885496,-0.35877862595419846,-3.16793893129771
3896537505439,3.671091614,3,-0.20949264526367187,-0.5494692810058593,-8.951920007324219,-4.3816793893129775,-0.29770992366412213,-3.1068702290076335
3896545071324,3.678657499,3,-0.2059013427734375,-0.5303156677246094,-8.919598284912109,-4.450381679389313,-0.33587786259541985,-3.16793893129771
3896552488720,3.686074895,3,-0.19991583862304688,-0.5386953735351562,-8.927977990722656,-4.450381679389313,-0.3893129770992366,-3.16793893129771
3896560074397,3.693660572,3,-0.201112939453125,-0.5351040710449219,-8.960299713134765,-4.435114503816794,-0.2900763358778626,-3.145038167938931
3896567413668,3.700999843,3,-0.21428104858398436,-0.5374982727050781,-8.96269391479492,-4.427480916030534,-0.366412213740458,-3.183206106870229
3896574967939,3.708554114,3,-0.20350714111328125,-0.5099649536132812,-8.936357696533202,-4.351145038167939,-0.31297709923664124,-3.1603053435114505
3896582418095,3.71600427,3,-0.19991583862304688,-0.5374982727050781,-8.902838873291016,-4.419847328244275,-0.32061068702290074,-3.1755725190839694
3896589978824,3.723564999,3,-0.201112939453125,-0.5494692810058593,-8.933963494873046,-4.435114503816794,-0.31297709923664124,-3.2290076335877864
3896597358303,3.730944478,3,-0.20231004028320312,-0.5434837768554687,-8.949525805664061,-4.480916030534351,-0.22900763358778625,-3.145038167938931
3896604900126,3.738486301,3,-0.181959326171875,-0.5602431884765625,-8.954314208984375,-4.427480916030534,-0.3053435114503817,-3.1374045801526718
3896612312314,3.745898489,3,-0.20829554443359374,-0.5482721801757812,-8.974664923095702,-4.366412213740458,-0.31297709923664124,-3.1603053435114505
3896619867834,3.753454009,3,-0.2154781494140625,-0.5219359619140624,-8.932766394042968,-4.3893129770992365,-0.2900763358778626,-3.1603053435114505
3896627317418,3.760903593,3,-0.20709844360351562,-0.5482721801757812,-8.93755479736328,-4.3893129770992365,-0.32061068702290074,-3.16793893129771
3896634789501,3.768375676,3,-0.20949264526367187,-0.5602431884765625,-8.975862023925782,-4.374045801526718,-0.32061068702290074,-3.1526717557251906
3896642252886,3.775839061,3,-0.17357962036132812,-0.5279214660644531,-8.93755479736328,-4.488549618320611,-0.3282442748091603,-3.183206106870229
3896649809605,3.78339578,3,-0.1879448303222656,-0.5530605834960938,-8.955511309814453,-4.465648854961832,-0.3053435114503817,-3.1526717557251906
3896657246532,3.790832707,3,-0.22266075439453123,-0.5542576843261718,-8.954314208984375,-4.435114503816794,-0.2824427480916031,-3.114503816793893
3896664831324,3.798417499,3,-0.1975216369628906,-0.5434837768554687,-8.95670841064453,-4.404580152671755,-0.2824427480916031,-3.2290076335877864
3896672215907,3.805802082,3,-0.2262520568847656,-0.5446808776855468,-8.942343200683593,-4.435114503816794,-0.31297709923664124,-3.1755725190839694
3896679736636,3.813322811,3,-0.20470424194335937,-0.5339069702148437,-8.95670841064453,-4.419847328244275,-0.2824427480916031,-3.145038167938931
3896687152522,3.820738697,3,-0.18435352783203124,-0.5506663818359374,-8.945934503173827,-4.435114503816794,-0.32061068702290074,-3.099236641221374
3896694729397,3.828315572,3,-0.21906945190429686,-0.5446808776855468,-8.93755479736328,-4.419847328244275,-0.2824427480916031,-3.145038167938931
3896702096428,3.835682603,3,-0.20470424194335937,-0.5578489868164063,-8.932766394042968,-4.442748091603053,-0.2900763358778626,-3.2442748091603053
3896709618824,3.843204999,3,-0.20709844360351562,-0.5494692810058593,-8.942343200683593,-4.404580152671755,-0.3435114503816794,-3.183206106870229
3896717050699,3.850636874,3,-0.19991583862304688,-0.5506663818359374,-8.932766394042968,-4.3816793893129775,-0.2595419847328244,-3.16793893129771
3896724622105,3.85820828,3,-0.1867477294921875,-0.5255272644042969,-8.942343200683593,-4.458015267175573,-0.32061068702290074,-3.1374045801526718
3896732057574,3.865643749,3,-0.201112939453125,-0.5602431884765625,-8.95670841064453,-4.465648854961832,-0.366412213740458,-3.145038167938931
3896739581532,3.873167707,3,-0.2059013427734375,-0.5518634826660156,-8.93875189819336,-4.3816793893129775,-0.32061068702290074,-3.1297709923664123
3896746976272,3.880562447,3,-0.21068974609375,-0.5327098693847656,-8.972270721435546,-4.343511450381679,-0.3893129770992366,-3.1297709923664123
3896754614136,3.888200311,3,-0.21068974609375,-0.5183446594238281,-8.947131604003905,-4.396946564885496,-0.32061068702290074,-3.122137404580153
3896762001636,3.895587811,3,-0.20350714111328125,-0.5458779785156249,-8.93755479736328,-4.3893129770992365,-0.3053435114503817,-3.16793893129771
3896769393668,3.902979843,3,-0.20949264526367187,-0.5363011718749999,-8.911218579101561,-4.435114503816794,-0.32061068702290074,-3.183206106870229
3896776746897,3.910333072,3,-0.23104046020507812,-0.5506663818359374,-8.975862023925782,-4.435114503816794,-0.31297709923664124,-3.1603053435114505
3896784081532,3.917667707,3,-0.19632453613281248,-0.5638344909667968,-8.941146099853515,-4.450381679389313,-0.24427480916030533,-3.1297709923664123
3896791402939,3.924989114,3,-0.23582886352539062,-0.5351040710449219,-8.927977990722656,-4.465648854961832,-0.3282442748091603,-3.0763358778625953
3896798723303,3.932309478,3,-0.1975216369628906,-0.5219359619140624,-8.953117108154297,-4.3816793893129775,-0.29770992366412213,-3.0763358778625953
3896806029814,3.939615989,3,-0.20350714111328125,-0.5267243652343749,-8.975862023925782,-4.320610687022901,-0.2595419847328244,-3.114503816793893
3896813418668,3.947004843,3,-0.20350714111328125,-0.5363011718749999,-8.967482318115234,-4.442748091603053,-0.29770992366412213,-3.145038167938931
3896820835803,3.954421978,3,-0.19871873779296872,-0.5422866760253906,-8.94473740234375,-4.3893129770992365,-0.31297709923664124,-3.1526717557251906
3896828354032,3.961940207,3,-0.18914193115234373,-0.5434837768554687,-8.898050469970702,-4.412213740458015,-0.3435114503816794,-3.1068702290076335
3896836781011,3.970367186,3,-0.1867477294921875,-0.5422866760253906,-8.919598284912109,-4.351145038167939,-0.2748091603053435,-3.122137404580153
3896845094918,3.978681093,3,-0.19393033447265623,-0.5530605834960938,-8.9255837890625,-4.427480916030534,-0.3053435114503817,-3.1297709923664123
3896853528928,3.987115103,3,-0.20829554443359374,-0.5374982727050781,-8.94473740234375,-4.458015267175573,-0.29770992366412213,-3.145038167938931
3896861939136,3.995525311,3,-0.19033903198242186,-0.5482721801757812,-8.950722906494141,-4.419847328244275,-0.32061068702290074,-3.145038167938931
3896870308303,4.003894478,3,-0.19632453613281248,-0.5542576843261718,-8.921992486572265,-4.412213740458015,-0.24427480916030533,-3.1526717557251906
3896878665855,4.01225203,3,-0.17118541870117188,-0.5458779785156249,-8.913612780761719,-4.374045801526718,-0.2748091603053435,-3.183206106870229
3896886986793,4.020572968,3,-0.19871873779296872,-0.5530605834960938,-8.916006982421875,-4.412213740458015,-0.35877862595419846,-3.1526717557251906
3896895319136,4.028905311,3,-0.20949264526367187,-0.5339069702148437,-8.936357696533202,-4.458015267175573,-0.3053435114503817,-3.1603053435114505
3896903647053,4.037233228,3,-0.1867477294921875,-0.5434837768554687,-8.926780889892578,-4.435114503816794,-0.26717557251908397,-3.1526717557251906
3896911964449,4.045550624,3,-0.19153613281249998,-0.5614402893066406,-8.939948999023438,-4.3816793893129775,-0.31297709923664124,-3.16793893129771
3896920307261,4.053893436,3,-0.201112939453125,-0.55545478515625,-8.97705912475586,-4.442748091603053,-0.3053435114503817,-3.1526717557251906
3896928520699,4.062106874,3,-0.18315642700195311,-0.5470750793457031,-8.984241729736327,-4.404580152671755,-0.366412213740458,-3.122137404580153
3896935866636,4.069452811,3,-0.19512743530273435,-0.5339069702148437,-8.950722906494141,-4.458015267175573,-0.3282442748091603,-3.1755725190839694
3896943261636,4.076847811,3,-0.1975216369628906,-0.5398924743652344,-8.92438668823242,-4.465648854961832,-0.3282442748091603,-3.068702290076336
3896950644605,4.08423078,3,-0.20231004028320312,-0.5351040710449219,-8.888473663330078,-4.3816793893129775,-0.3511450381679389,-3.1908396946564888
3896958037678,4.091623853,3,-0.1975216369628906,-0.5351040710449219,-8.954314208984375,-4.427480916030534,-0.3435114503816794,-3.1908396946564888
3896965439084,4.099025259,3,-0.2166752502441406,-0.51714755859375,-8.92438668823242,-4.442748091603053,-0.33587786259541985,-3.099236641221374
3896972829188,4.106415363,3,-0.21068974609375,-0.5434837768554687,-8.93875189819336,-4.412213740458015,-0.3511450381679389,-3.114503816793893
3896980113303,4.113699478,3,-0.1867477294921875,-0.5339069702148437,-8.9255837890625,-4.3893129770992365,-0.29770992366412213,-3.1603053435114505
3896987492886,4.121079061,3,-0.19871873779296872,-0.5494692810058593,-8.96269391479492,-4.412213740458015,-0.33587786259541985,-3.145038167938931
3896994803772,4.128389947,3,-0.20231004028320312,-0.5327098693847656,-8.939948999023438,-4.419847328244275,-0.32061068702290074,-3.1526717557251906
3897002165699,4.135751874,3,-0.19991583862304688,-0.5398924743652344,-8.908824377441405,-4.3893129770992365,-0.33587786259541985,-3.099236641221374
3897009451168,4.143037343,3,-0.21188684692382811,-0.5482721801757812,-8.953117108154297,-4.450381679389313,-0.33587786259541985,-3.1068702290076335
3897016833199,4.150419374,3,-0.20231004028320312,-0.5303156677246094,-8.996212738037109,-4.450381679389313,-0.2900763358778626,-3.16793893129771
3897024174449,4.157760624,3,-0.18555062866210936,-0.5315127685546874,-8.961496813964843,-4.435114503816794,-0.3435114503816794,-3.0839694656488548
3897031547053,4.165133228,3,-0.21428104858398436,-0.5339069702148437,-8.950722906494141,-4.473282442748092,-0.3282442748091603,-3.0839694656488548
3897038944918,4.172531093,3,-0.19033903198242186,-0.5327098693847656,-8.916006982421875,-4.519083969465649,-0.32061068702290074,-3.1603053435114505
3897046325282,4.179911457,3,-0.16160861206054686,-0.5422866760253906,-8.943540301513671,-4.3893129770992365,-0.42748091603053434,-3.114503816793893
3897053655074,4.187241249,3,-0.17836802368164062,-0.5243301635742187,-8.916006982421875,-4.358778625954199,-0.25190839694656486,-3.1068702290076335
3897060971793,4.194557968,3,-0.201112939453125,-0.5530605834960938,-8.943540301513671,-4.458015267175573,-0.2824427480916031,-3.114503816793893
3897068277574,4.201863749,3,-0.20350714111328125,-0.5506663818359374,-8.907627276611327,-4.427480916030534,-0.3053435114503817,-3.1068702290076335
3897075566584,4.209152759,3,-0.22744915771484372,-0.5279214660644531,-8.971073620605468,-4.5038167938931295,-0.26717557251908397,-3.1603053435114505
3897082932105,4.21651828,3,-0.2166752502441406,-0.5315127685546874,-8.941146099853515,-4.427480916030534,-0.2900763358778626,-3.1068702290076335
3897090265386,4.223851561,3,-0.1879448303222656,-0.5255272644042969,-8.929175091552734,-4.427480916030534,-0.31297709923664124,-3.145038167938931
3897097612418,4.231198593,3,-0.18315642700195311,-0.5195417602539062,-8.926780889892578,-4.427480916030534,-0.31297709923664124,-3.16793893129771
3897104953772,4.238539947,3,-0.21308394775390624,-0.5363011718749999,-8.95670841064453,-4.351145038167939,-0.2900763358778626,-3.1526717557251906
3897112282001,4.245868176,3,-0.2214636535644531,-0.5734112976074218,-8.908824377441405,-4.32824427480916,-0.22137404580152673,-3.1755725190839694
3897119593459,4.253179634,3,-0.1975216369628906,-0.5422866760253906,-8.913612780761719,-4.366412213740458,-0.26717557251908397,-3.1908396946564888
3897126903251,4.260489426,3,-0.19153613281249998,-0.5470750793457031,-8.913612780761719,-4.3816793893129775,-0.33587786259541985,-3.1297709923664123
3897134265334,4.267851509,3,-0.21068974609375,-0.5602431884765625,-8.905233074951171,-4.33587786259542,-0.2595419847328244,-3.1526717557251906
3897141624084,4.275210259,3,-0.23104046020507812,-0.5374982727050781,-8.957905511474609,-4.3816793893129775,-0.22900763358778625,-3.1526717557251906
3897148897886,4.282484061,3,-0.1771709228515625,-0.5434837768554687,-8.959102612304687,-4.396946564885496,-0.33587786259541985,-3.114503816793893
3897156261584,4.289847759,3,-0.16879121704101563,-0.5446808776855468,-8.912415679931641,-4.374045801526718,-0.32061068702290074,-3.1297709923664123
3897163575178,4.297161353,3,-0.18914193115234373,-0.5159504577636719,-8.955511309814453,-4.33587786259542,-0.33587786259541985,-3.1755725190839694
3897170903615,4.30448979,3,-0.20231004028320312,-0.5470750793457031,-8.965088116455078,-4.419847328244275,-0.2900763358778626,-3.2213740458015265
3897178205230,4.311791405,3,-0.21308394775390624,-0.5339069702148437,-8.932766394042968,-4.396946564885496,-0.3053435114503817,-3.1908396946564888
3897185598876,4.319185051,3,-0.1879448303222656,-0.5530605834960938,-8.93755479736328,-4.374045801526718,-0.3893129770992366,-3.16793893129771
3897192952418,4.326538593,3,-0.16998831787109375,-0.5315127685546874,-8.942343200683593,-4.450381679389313,-0.33587786259541985,-3.1374045801526718
3897200272626,4.333858801,3,-0.2166752502441406,-0.5458779785156249,-8.943540301513671,-4.404580152671755,-0.33587786259541985,-3.145038167938931
3897207592574,4.341178749,3,-0.21787235107421873,-0.5231330627441406,-8.947131604003905,-4.458015267175573,-0.2748091603053435,-3.1374045801526718
3897214905490,4.348491665,3,-0.22026655273437498,-0.5470750793457031,-8.957905511474609,-4.465648854961832,-0.3053435114503817,-3.122137404580153
3897222206011,4.355792186,3,-0.20470424194335937,-0.5351040710449219,-8.898050469970702,-4.435114503816794,-0.3053435114503817,-3.1374045801526718
3897229510126,4.363096301,3,-0.18435352783203124,-0.5219359619140624,-8.910021478271483,-4.419847328244275,-0.3282442748091603,-3.1526717557251906
3897237019918,4.370606093,3,-0.1879448303222656,-0.5339069702148437,-8.93755479736328,-4.458015267175573,-0.24427480916030533,-3.1374045801526718
3897244335803,4.377921978,3,-0.20350714111328125,-0.5111620544433594,-8.967482318115234,-4.458015267175573,-0.33587786259541985,-3.16793893129771
3897251670074,4.385256249,3,-0.22864625854492185,-0.5566518859863281,-8.943540301513671,-4.458015267175573,-0.33587786259541985,-3.1755725190839694
3897258984084,4.392570259,3,-0.21787235107421873,-0.5674257934570313,-8.961496813964843,-4.412213740458015,-0.2595419847328244,-3.198473282442748
3897266358095,4.39994427,3,-0.21308394775390624,-0.5434837768554687,-8.949525805664061,-4.366412213740458,-0.35877862595419846,-3.1297709923664123
3897273722365,4.40730854,3,-0.20470424194335937,-0.5374982727050781,-8.92438668823242,-4.412213740458015,-0.3511450381679389,-3.122137404580153
3897281040959,4.414627134,3,-0.21308394775390624,-0.5410895751953124,-8.984241729736327,-4.351145038167939,-0.29770992366412213,-3.145038167938931
3897288348042,4.421934217,3,-0.1867477294921875,-0.5662286926269531,-8.947131604003905,-4.3893129770992365,-0.3816793893129771,-3.145038167938931
3897295653928,4.429240103,3,-0.20231004028320312,-0.5470750793457031,-8.967482318115234,-4.435114503816794,-0.2900763358778626,-3.1068702290076335
3897302989136,4.436575311,3,-0.22266075439453123,-0.5470750793457031,-9.00100114135742,-4.3893129770992365,-0.32061068702290074,-3.1297709923664123
3897310321220,4.443907395,3,-0.21906945190429686,-0.5458779785156249,-8.96987651977539,-4.343511450381679,-0.4198473282442748,-3.1755725190839694
3897317650334,4.451236509,3,-0.17956512451171874,-0.5626373901367188,-8.948328704833983,-4.396946564885496,-0.24427480916030533,-3.183206106870229
3897325019501,4.458605676,3,-0.21428104858398436,-0.5279214660644531,-8.94473740234375,-4.404580152671755,-0.32061068702290074,-3.1603053435114505
3897332359709,4.465945884,3,-0.21308394775390624,-0.5339069702148437,-8.954314208984375,-4.366412213740458,-0.24427480916030533,-3.145038167938931
3897339678095,4.47326427,3,-0.20470424194335937,-0.5470750793457031,-8.967482318115234,-4.435114503816794,-0.25190839694656486,-3.1068702290076335
3897347052678,4.480638853,3,-0.2154781494140625,-0.5422866760253906,-8.972270721435546,-4.419847328244275,-0.32061068702290074,-3.114503816793893
3897354432417,4.488018592,3,-0.20350714111328125,-0.5291185668945312,-8.955511309814453,-4.458015267175573,-0.2366412213740458,-3.1297709923664123
3897361770438,4.495356613,3,-0.19393033447265623,-0.5638344909667968,-8.929175091552734,-4.442748091603053,-0.2595419847328244,-3.145038167938931
3897369105803,4.502691978,3,-0.20949264526367187,-0.5542576843261718,-8.93156929321289,-4.442748091603053,-0.31297709923664124,-3.122137404580153
3897376451845,4.51003802,3,-0.20350714111328125,-0.5542576843261718,-8.911218579101561,-4.412213740458015,-0.24427480916030533,-3.145038167938931
3897383750542,4.517336717,3,-0.1867477294921875,-0.5470750793457031,-8.984241729736327,-4.442748091603053,-0.29770992366412213,-3.1297709923664123
3897391100490,4.524686665,3,-0.2154781494140625,-0.5147533569335937,-8.935160595703124,-4.4961832061068705,-0.29770992366412213,-3.145038167938931
3897398452938,4.532039113,3,-0.17597382202148437,-0.5482721801757812,-8.972270721435546,-4.488549618320611,-0.22900763358778625,-3.16793893129771
3897405714553,4.539300728,3,-0.21428104858398436,-0.5542576843261718,-8.955511309814453,-4.435114503816794,-0.3053435114503817,-3.1297709923664123
3897413153980,4.546740155,3,-0.21068974609375,-0.5638344909667968,-8.966285217285156,-4.435114503816794,-0.3053435114503817,-3.122137404580153
3897420469970,4.554056145,3,-0.20470424194335937,-0.5087678527832031,-8.953117108154297,-4.419847328244275,-0.22900763358778625,-3.0916030534351147
3897427739292,4.561325467,3,-0.1867477294921875,-0.5482721801757812,-8.980650427246093,-4.412213740458015,-0.3282442748091603,-3.1297709923664123
3897435108355,4.56869453,3,-0.17477672119140625,-0.5374982727050781,-8.959102612304687,-4.351145038167939,-0.2748091603053435,-3.1603053435114505
3897442436220,4.576022395,3,-0.19033903198242186,-0.5374982727050781,-8.883685260009765,-4.3893129770992365,-0.21374045801526717,-3.0839694656488548
3897449804709,4.583390884,3,-0.19393033447265623,-0.5374982727050781,-8.941146099853515,-4.396946564885496,-0.3511450381679389,-3.099236641221374
3897457196428,4.590782603,3,-0.2059013427734375,-0.5099649536132812,-8.935160595703124,-4.404580152671755,-0.3053435114503817,-3.1297709923664123
3897464531063,4.598117238,3,-0.16879121704101563,-0.5351040710449219,-8.948328704833983,-4.419847328244275,-0.2900763358778626,-3.1374045801526718
3897471784501,4.605370676,3,-0.17836802368164062,-0.5351040710449219,-8.963891015625,-4.366412213740458,-0.366412213740458,-3.1755725190839694
3897479138095,4.61272427,3,-0.19393033447265623,-0.5518634826660156,-8.94473740234375,-4.427480916030534,-0.3435114503816794,-3.1297709923664123
3897486528928,4.620115103,3,-0.17357962036132812,-0.5255272644042969,-8.93875189819336,-4.366412213740458,-0.3816793893129771,-3.1526717557251906
3897493834969,4.627421144,3,-0.19632453613281248,-0.5734112976074218,-8.949525805664061,-4.404580152671755,-0.3282442748091603,-3.145038167938931
3897501209084,4.634795259,3,-0.201112939453125,-0.55545478515625,-8.967482318115234,-4.404580152671755,-0.3282442748091603,-3.145038167938931
3897508519344,4.642105519,3,-0.23104046020507812,-0.5243301635742187,-8.941146099853515,-4.442748091603053,-0.4122137404580153,-3.1603053435114505
3897515866480,4.649452655,3,-0.22385785522460935,-0.5363011718749999,-8.913612780761719,-4.358778625954199,-0.2900763358778626,-3.1374045801526718
3897523263407,4.656849582,3,-0.2166752502441406,-0.55545478515625,-8.895656268310546,-4.396946564885496,-0.32061068702290074,-3.1297709923664123
3897530588407,4.664174582,3,-0.19632453613281248,-0.5434837768554687,-8.95670841064453,-4.3816793893129775,-0.3435114503816794,-3.145038167938931
3897537986688,4.671572863,3,-0.19512743530273435,-0.5398924743652344,-8.95670841064453,-4.442748091603053,-0.2900763358778626,-3.0839694656488548
3897545334553,4.678920728,3,-0.20231004028320312,-0.5243301635742187,-8.93875189819336,-4.473282442748092,-0.3511450381679389,-3.16793893129771
3897552672001,4.686258176,3,-0.1975216369628906,-0.5422866760253906,-8.93755479736328,-4.4961832061068705,-0.35877862595419846,-3.1374045801526718
3897559979657,4.693565832,3,-0.19871873779296872,-0.5279214660644531,-8.947131604003905,-4.458015267175573,-0.24427480916030533,-3.1374045801526718
3897567334188,4.700920363,3,-0.21068974609375,-0.5363011718749999,-8.960299713134765,-4.3816793893129775,-0.33587786259541985,-3.183206106870229
3897574635594,4.708221769,3,-0.1975216369628906,-0.5482721801757812,-8.947131604003905,-4.366412213740458,-0.3053435114503817,-3.1374045801526718
3897581993876,4.715580051,3,-0.16519991455078123,-0.5506663818359374,-8.954314208984375,-4.419847328244275,-0.22137404580152673,-3.1526717557251906
3897589347105,4.72293328,3,-0.17836802368164062,-0.5339069702148437,-8.93755479736328,-4.5038167938931295,-0.3282442748091603,-3.068702290076336
3897596705438,4.730291613,3,-0.1879448303222656,-0.5566518859863281,-8.972270721435546,-4.488549618320611,-0.3282442748091603,-3.1068702290076335
3897604078094,4.737664269,3,-0.2154781494140625,-0.5578489868164063,-8.947131604003905,-4.404580152671755,-0.2595419847328244,-3.1068702290076335
3897611400542,4.744986717,3,-0.2154781494140625,-0.5434837768554687,-8.898050469970702,-4.465648854961832,-0.3053435114503817,-3.1374045801526718
3897618737313,4.752323488,3,-0.2154781494140625,-0.5351040710449219,-8.955511309814453,-4.442748091603053,-0.26717557251908397,-3.0916030534351147
3897626043251,4.759629426,3,-0.21428104858398436,-0.5530605834960938,-8.93755479736328,-4.412213740458015,-0.3053435114503817,-3.1297709923664123
3897633430022,4.767016197,3,-0.21308394775390624,-0.5434837768554687,-8.93156929321289,-4.419847328244275,-0.2366412213740458,-3.122137404580153
3897640772209,4.774358384,3,-0.2059013427734375,-0.5398924743652344,-8.929175091552734,-4.442748091603053,-0.25190839694656486,-3.183206106870229
3897648090490,4.781676665,3,-0.19871873779296872,-0.5530605834960938,-8.959102612304687,-4.465648854961832,-0.37404580152671757,-3.145038167938931
3897655415542,4.789001717,3,-0.18076222534179687,-0.5662286926269531,-8.926780889892578,-4.366412213740458,-0.3282442748091603,-3.1755725190839694
3897662700334,4.796286509,3,-0.19033903198242186,-0.5410895751953124,-8.932766394042968,-4.3816793893129775,-0.33587786259541985,-3.16793893129771
3897670022313,4.803608488,3,-0.2059013427734375,-0.5410895751953124,-8.950722906494141,-4.3893129770992365,-0.37404580152671757,-3.1068702290076335
3897677398355,4.81098453,3,-0.19153613281249998,-0.5386953735351562,-8.951920007324219,-4.412213740458015,-0.3282442748091603,-3.1526717557251906
3897684735647,4.818321822,3,-0.19393033447265623,-0.5363011718749999,-8.943540301513671,-4.427480916030534,-0.366412213740458,-3.068702290076336
3897692058355,4.82564453,3,-0.21787235107421873,-0.5315127685546874,-8.957905511474609,-4.435114503816794,-0.4580152671755725,-3.114503816793893
3897699365074,4.832951249,3,-0.20470424194335937,-0.5351040710449219,-8.8872765625,-4.442748091603053,-0.31297709923664124,-3.099236641221374
3897706706167,4.840292342,3,-0.21906945190429686,-0.5135562561035156,-8.935160595703124,-4.412213740458015,-0.3969465648854962,-3.114503816793893
3897714034553,4.847620728,3,-0.2059013427734375,-0.5410895751953124,-8.959102612304687,-4.435114503816794,-0.4122137404580153,-3.068702290076336
3897721354761,4.854940936,3,-0.19991583862304688,-0.5398924743652344,-8.932766394042968,-4.488549618320611,-0.3969465648854962,-3.145038167938931
3897728682417,4.862268592,3,-0.21906945190429686,-0.5351040710449219,-8.920795385742187,-4.473282442748092,-0.32061068702290074,-3.16793893129771
3897736051115,4.86963729,3,-0.1927332336425781,-0.5506663818359374,-8.980650427246093,-4.4961832061068705,-0.37404580152671757,-3.198473282442748
3897743354344,4.876940519,3,-0.19393033447265623,-0.5291185668945312,-8.939948999023438,-4.480916030534351,-0.3053435114503817,-3.2290076335877864
3897750716532,4.884302707,3,-0.2214636535644531,-0.5207388610839844,-8.960299713134765,-4.450381679389313,-0.3282442748091603,-3.122137404580153
3897758128928,4.891715103,3,-0.19632453613281248,-0.5267243652343749,-8.907627276611327,-4.458015267175573,-0.32061068702290074,-3.0839694656488548
3897765484449,4.899070624,3,-0.20949264526367187,-0.5374982727050781,-8.960299713134765,-4.3893129770992365,-0.2595419847328244,-3.0839694656488548
3897772861115,4.90644729,3,-0.2154781494140625,-0.5446808776855468,-8.967482318115234,-4.3893129770992365,-0.3282442748091603,-3.099236641221374
3897780255282,4.913841457,3,-0.21308394775390624,-0.5734112976074218,-8.953117108154297,-4.427480916030534,-0.26717557251908397,-3.1603053435114505
3897787577469,4.921163644,3,-0.1975216369628906,-0.5410895751953124,-8.951920007324219,-4.419847328244275,-0.3435114503816794,-3.114503816793893
3897794924813,4.928510988,3,-0.1927332336425781,-0.5398924743652344,-8.898050469970702,-4.412213740458015,-0.3282442748091603,-3.145038167938931
3897802257313,4.935843488,3,-0.21068974609375,-0.5506663818359374,-8.916006982421875,-4.427480916030534,-0.2900763358778626,-3.114503816793893
3897809591844,4.943178019,3,-0.18435352783203124,-0.5398924743652344,-8.945934503173827,-4.442748091603053,-0.29770992366412213,-3.122137404580153
3897816928199,4.950514374,3,-0.20949264526367187,-0.5614402893066406,-8.942343200683593,-4.419847328244275,-0.3053435114503817,-3.1526717557251906
3897824290230,4.957876405,3,-0.21787235107421873,-0.5638344909667968,-8.9255837890625,-4.442748091603053,-0.2748091603053435,-3.145038167938931
3897831707990,4.965294165,3,-0.1975216369628906,-0.5793968017578125,-8.936357696533202,-4.465648854961832,-0.366412213740458,-3.16793893129771
3897839047157,4.972633332,3,-0.17836802368164062,-0.55545478515625,-8.9255837890625,-4.458015267175573,-0.2900763358778626,-3.1603053435114505
3897846356636,4.979942811,3,-0.19153613281249998,-0.5410895751953124,-8.974664923095702,-4.458015267175573,-0.3282442748091603,-3.213740458015267
3897853803146,4.987389321,3,-0.19153613281249998,-0.5303156677246094,-8.998606939697265,-4.450381679389313,-0.3435114503816794,-3.2061068702290076
3897861161949,4.994748124,3,-0.2214636535644531,-0.5267243652343749,-8.945934503173827,-4.473282442748092,-0.3282442748091603,-3.099236641221374
3897868471844,5.002058019,3,-0.19033903198242186,-0.5470750793457031,-8.961496813964843,-4.488549618320611,-0.3816793893129771,-3.1068702290076335
3897875790542,5.009376717,3,-0.17118541870117188,-0.5267243652343749,-8.917204083251953,-4.435114503816794,-0.37404580152671757,-3.1374045801526718
3897883063511,5.016649686,3,-0.1975216369628906,-0.5363011718749999,-8.953117108154297,-4.427480916030534,-0.29770992366412213,-3.1297709923664123
3897890458563,5.024044738,3,-0.20231004028320312,-0.5231330627441406,-8.986635931396483,-4.435114503816794,-0.3435114503816794,-3.145038167938931
3897897805699,5.031391874,3,-0.21428104858398436,-0.5506663818359374,-8.948328704833983,-4.4961832061068705,-0.31297709923664124,-3.068702290076336
3897905116376,5.038702551,3,-0.21428104858398436,-0.5530605834960938,-8.971073620605468,-4.458015267175573,-0.3893129770992366,-3.099236641221374
3897912458667,5.046044842,3,-0.21188684692382811,-0.5494692810058593,-8.996212738037109,-4.442748091603053,-0.3969465648854962,-3.114503816793893
3897919759917,5.053346092,3,-0.19033903198242186,-0.5279214660644531,-8.926780889892578,-4.3893129770992365,-0.35877862595419846,-3.16793893129771
3897927095230,5.060681405,3,-0.18555062866210936,-0.5410895751953124,-8.945934503173827,-4.412213740458015,-0.32061068702290074,-3.16793893129771
3897934535751,5.068121926,3,-0.1879448303222656,-0.5351040710449219,-8.971073620605468,-4.435114503816794,-0.3053435114503817,-3.16793893129771
3897941848303,5.075434478,3,-0.18435352783203124,-0.5446808776855468,-8.955511309814453,-4.351145038167939,-0.29770992366412213,-3.1526717557251906
3897949225594,5.082811769,3,-0.20231004028320312,-0.5363011718749999,-8.95670841064453,-4.351145038167939,-0.26717557251908397,-3.1526717557251906
3897956509240,5.090095415,3,-0.18076222534179687,-0.5470750793457031,-8.955511309814453,-4.435114503816794,-0.26717557251908397,-3.145038167938931
3897963847730,5.097433905,3,-0.2214636535644531,-0.5351040710449219,-8.93875189819336,-4.404580152671755,-0.3053435114503817,-3.145038167938931
3897971139657,5.104725832,3,-0.2059013427734375,-0.5303156677246094,-8.939948999023438,-4.488549618320611,-0.2900763358778626,-3.198473282442748
3897978498094,5.112084269,3,-0.19512743530273435,-0.5339069702148437,-8.957905511474609,-4.442748091603053,-0.2900763358778626,-3.1603053435114505
3897985785490,5.119371665,3,-0.21308394775390624,-0.5446808776855468,-8.939948999023438,-4.442748091603053,-0.3893129770992366,-3.1068702290076335
3897993078146,5.126664321,3,-0.1975216369628906,-0.5602431884765625,-8.972270721435546,-4.442748091603053,-0.31297709923664124,-3.0839694656488548
3898000436271,5.134022446,3,-0.18914193115234373,-0.5374982727050781,-8.939948999023438,-4.442748091603053,-0.3053435114503817,-3.1297709923664123
3898007920594,5.141506769,3,-0.2154781494140625,-0.5434837768554687,-8.919598284912109,-4.3893129770992365,-0.3435114503816794,-3.16793893129771
3898015871271,5.149457446,3,-0.2166752502441406,-0.5398924743652344,-8.94473740234375,-4.442748091603053,-0.2595419847328244,-3.1526717557251906
3898023087313,5.156673488,3,-0.19512743530273435,-0.5386953735351562,-8.933963494873046,-4.427480916030534,-0.31297709923664124,-3.1755725190839694
3898030396011,5.163982186,3,-0.20350714111328125,-0.5410895751953124,-8.926780889892578,-4.427480916030534,-0.33587786259541985,-3.114503816793893
3898037746271,5.171332446,3,-0.18914193115234373,-0.5303156677246094,-8.93755479736328,-4.442748091603053,-0.2748091603053435,-3.1908396946564888
3898045040490,5.178626665,3,-0.181959326171875,-0.5494692810058593,-8.94473740234375,-4.419847328244275,-0.32061068702290074,-3.145038167938931
3898052306584,5.185892759,3,-0.21188684692382811,-0.507570751953125,-8.916006982421875,-4.458015267175573,-0.37404580152671757,-3.1526717557251906
3898059671219,5.193257394,3,-0.1927332336425781,-0.5339069702148437,-8.888473663330078,-4.419847328244275,-0.2748091603053435,-3.1603053435114505
3898066989032,5.200575207,3,-0.20829554443359374,-0.5566518859863281,-8.927977990722656,-4.374045801526718,-0.2748091603053435,-3.1068702290076335
3898074364448,5.207950623,3,-0.2154781494140625,-0.5626373901367188,-8.955511309814453,-4.374045801526718,-0.31297709923664124,-3.0916030534351147
3898081704605,5.21529078,3,-0.19153613281249998,-0.5542576843261718,-8.951920007324219,-4.3893129770992365,-0.3435114503816794,-3.1526717557251906
3898089034188,5.222620363,3,-0.1975216369628906,-0.5410895751953124,-8.947131604003905,-4.396946564885496,-0.31297709923664124,-3.1526717557251906
3898096277886,5.229864061,3,-0.22026655273437498,-0.5351040710449219,-8.945934503173827,-4.3893129770992365,-0.2748091603053435,-3.1755725190839694
3898103596376,5.237182551,3,-0.21308394775390624,-0.5279214660644531,-8.920795385742187,-4.404580152671755,-0.2900763358778626,-3.1068702290076335
3898110910594,5.244496769,3,-0.20709844360351562,-0.5147533569335937,-8.993818536376953,-4.458015267175573,-0.3282442748091603,-3.0916030534351147
3898118240646,5.251826821,3,-0.20829554443359374,-0.5398924743652344,-8.966285217285156,-4.419847328244275,-0.32061068702290074,-3.1526717557251906
3898125588094,5.259174269,3,-0.2154781494140625,-0.5494692810058593,-8.951920007324219,-4.435114503816794,-0.366412213740458,-3.1297709923664123
3898132917990,5.266504165,3,-0.201112939453125,-0.5339069702148437,-8.986635931396483,-4.427480916030534,-0.4122137404580153,-3.1526717557251906
3898140268615,5.27385479,3,-0.1975216369628906,-0.5183446594238281,-8.943540301513671,-4.404580152671755,-0.32061068702290074,-3.198473282442748
3898147585959,5.281172134,3,-0.20470424194335937,-0.5374982727050781,-8.974664923095702,-4.480916030534351,-0.26717557251908397,-3.2213740458015265
3898154908928,5.288495103,3,-0.2166752502441406,-0.5410895751953124,-8.943540301513671,-4.488549618320611,-0.31297709923664124,-3.1297709923664123
3898162267886,5.295854061,3,-0.1867477294921875,-0.5506663818359374,-8.904035974121093,-4.450381679389313,-0.33587786259541985,-3.1297709923664123
3898169875073,5.303461248,3,-0.19153613281249998,-0.5315127685546874,-8.950722906494141,-4.465648854961832,-0.31297709923664124,-3.122137404580153
3898177447782,5.311033957,3,-0.19871873779296872,-0.5434837768554687,-8.950722906494141,-4.473282442748092,-0.24427480916030533,-3.16793893129771
3898184828563,5.318414738,3,-0.20350714111328125,-0.5494692810058593,-8.967482318115234,-4.442748091603053,-0.31297709923664124,-3.1374045801526718
3898192148146,5.325734321,3,-0.201112939453125,-0.5422866760253906,-8.963891015625,-4.3893129770992365,-0.35877862595419846,-3.145038167938931
3898199467105,5.33305328,3,-0.22864625854492185,-0.5351040710449219,-8.950722906494141,-4.435114503816794,-0.3053435114503817,-3.1068702290076335
3898206770073,5.340356248,3,-0.2166752502441406,-0.5374982727050781,-8.933963494873046,-4.450381679389313,-0.3816793893129771,-3.183206106870229
3898214063250,5.347649425,3,-0.2059013427734375,-0.5363011718749999,-8.948328704833983,-4.396946564885496,-0.32061068702290074,-3.1374045801526718
3898221402261,5.354988436,3,-0.18914193115234373,-0.5123591552734374,-8.939948999023438,-4.450381679389313,-0.4122137404580153,-3.145038167938931
3898228728407,5.362314582,3,-0.19871873779296872,-0.5303156677246094,-8.972270721435546,-4.412213740458015,-0.40458015267175573,-3.1374045801526718
3898236118042,5.369704217,3,-0.19033903198242186,-0.5374982727050781,-8.926780889892578,-4.412213740458015,-0.2366412213740458,-3.1068702290076335
3898243448980,5.377035155,3,-0.1867477294921875,-0.5602431884765625,-8.954314208984375,-4.465648854961832,-0.21374045801526717,-3.122137404580153
3898250831011,5.384417186,3,-0.20470424194335937,-0.5207388610839844,-8.936357696533202,-4.458015267175573,-0.2900763358778626,-3.145038167938931
3898258215386,5.391801561,3,-0.19871873779296872,-0.5470750793457031,-8.96269391479492,-4.473282442748092,-0.20610687022900764,-3.1908396946564888
3898265607417,5.399193592,3,-0.201112939453125,-0.5530605834960938,-8.93755479736328,-4.473282442748092,-0.3282442748091603,-3.1526717557251906
3898272957678,5.406543853,3,-0.21428104858398436,-0.5351040710449219,-8.959102612304687,-4.427480916030534,-0.32061068702290074,-3.099236641221374
3898280313980,5.413900155,3,-0.19033903198242186,-0.5626373901367188,-8.951920007324219,-4.427480916030534,-0.3282442748091603,-3.1374045801526718
3898287642573,5.421228748,3,-0.22026655273437498,-0.5363011718749999,-9.003395343017578,-4.374045801526718,-0.3511450381679389,-3.068702290076336
3898294891115,5.42847729,3,-0.23223756103515625,-0.5374982727050781,-8.939948999023438,-4.442748091603053,-0.2900763358778626,-3.1526717557251906
3898302110073,5.435696248,3,-0.19632453613281248,-0.5494692810058593,-8.943540301513671,-4.450381679389313,-0.3511450381679389,-3.1908396946564888
3898309426063,5.443012238,3,-0.21906945190429686,-0.5398924743652344,-8.954314208984375,-4.480916030534351,-0.3893129770992366,-3.1297709923664123
3898316753407,5.450339582,3,-0.2262520568847656,-0.5374982727050781,-8.921992486572265,-4.435114503816794,-0.2595419847328244,-3.122137404580153
3898324082157,5.457668332,3,-0.20829554443359374,-0.5386953735351562,-8.93156929321289,-4.465648854961832,-0.29770992366412213,-3.16793893129771
3898331396375,5.46498255,3,-0.19871873779296872,-0.5518634826660156,-8.95670841064453,-4.465648854961832,-0.3282442748091603,-3.1755725190839694
3898338721219,5.472307394,3,-0.19393033447265623,-0.5255272644042969,-8.907627276611327,-4.396946564885496,-0.25190839694656486,-3.1068702290076335
3898346020021,5.479606196,3,-0.21188684692382811,-0.5578489868164063,-8.927977990722656,-4.435114503816794,-0.3053435114503817,-3.099236641221374
3898353393719,5.486979894,3,-0.19991583862304688,-0.5422866760253906,-8.975862023925782,-4.435114503816794,-0.3816793893129771,-3.0916030534351147
3898360723980,5.494310155,3,-0.2154781494140625,-0.5542576843261718,-8.951920007324219,-4.32824427480916,-0.2900763358778626,-3.122137404580153
3898368059500,5.501645675,3,-0.19871873779296872,-0.5506663818359374,-8.965088116455078,-4.343511450381679,-0.3816793893129771,-3.1374045801526718
3898375361427,5.508947602,3,-0.21787235107421873,-0.5458779785156249,-8.990227233886719,-4.442748091603053,-0.26717557251908397,-3.1908396946564888
3898382628719,5.516214894,3,-0.2262520568847656,-0.5159504577636719,-8.973467822265624,-4.3893129770992365,-0.31297709923664124,-3.122137404580153
3898389981480,5.523567655,3,-0.22385785522460935,-0.5315127685546874,-8.96269391479492,-4.458015267175573,-0.3816793893129771,-3.1374045801526718
3898397303615,5.53088979,3,-0.19512743530273435,-0.5363011718749999,-8.917204083251953,-4.419847328244275,-0.26717557251908397,-3.16793893129771
3898404640490,5.538226665,3,-0.1927332336425781,-0.5542576843261718,-8.93875189819336,-4.427480916030534,-0.3511450381679389,-3.1603053435114505
3898411927313,5.545513488,3,-0.19512743530273435,-0.5542576843261718,-8.920795385742187,-4.366412213740458,-0.32061068702290074,-3.145038167938931
3898419269448,5.552855623,3,-0.18914193115234373,-0.5434837768554687,-8.943540301513671,-4.374045801526718,-0.2900763358778626,-3.1526717557251906
3898426520959,5.560107134,3,-0.19153613281249998,-0.5446808776855468,-8.979453326416015,-4.351145038167939,-0.32061068702290074,-3.198473282442748
3898433803771,5.567389946,3,-0.22744915771484372,-0.5363011718749999,-8.942343200683593,-4.412213740458015,-0.26717557251908397,-3.1603053435114505
3898441145907,5.574732082,3,-0.19393033447265623,-0.5351040710449219,-8.932766394042968,-4.404580152671755,-0.3053435114503817,-3.1755725190839694
3898448469084,5.582055259,3,-0.21906945190429686,-0.5135562561035156,-8.955511309814453,-4.412213740458015,-0.4122137404580153,-3.2213740458015265
3898455763719,5.589349894,3,-0.20709844360351562,-0.5279214660644531,-8.979453326416015,-4.419847328244275,-0.2595419847328244,-3.1374045801526718
3898463041688,5.596627863,3,-0.21906945190429686,-0.5494692810058593,-8.939948999023438,-4.458015267175573,-0.29770992366412213,-3.099236641221374
3898470383198,5.603969373,3,-0.20709844360351562,-0.5279214660644531,-8.941146099853515,-4.419847328244275,-0.33587786259541985,-3.0916030534351147
3898477694709,5.611280884,3,-0.2154781494140625,-0.5458779785156249,-8.91840118408203,-4.404580152671755,-0.2595419847328244,-3.114503816793893
3898485033823,5.618619998,3,-0.20709844360351562,-0.5315127685546874,-8.948328704833983,-4.396946564885496,-0.2748091603053435,-3.16793893129771
3898492325698,5.625911873,3,-0.21428104858398436,-0.5386953735351562,-8.963891015625,-4.442748091603053,-0.3893129770992366,-3.1297709923664123
3898499660073,5.633246248,3,-0.22266075439453123,-0.5374982727050781,-8.96269391479492,-4.442748091603053,-0.31297709923664124,-3.1603053435114505
3898506947000,5.640533175,3,-0.1975216369628906,-0.5398924743652344,-8.945934503173827,-4.3816793893129775,-0.3511450381679389,-3.1755725190839694
3898514264136,5.647850311,3,-0.18435352783203124,-0.5590460876464843,-8.920795385742187,-4.396946564885496,-0.3969465648854962,-3.1068702290076335
3898521605907,5.655192082,3,-0.18555062866210936,-0.5566518859863281,-8.923189587402343,-4.366412213740458,-0.22137404580152673,-3.1297709923664123
3898528949865,5.66253604,3,-0.201112939453125,-0.5339069702148437,-8.961496813964843,-4.404580152671755,-0.33587786259541985,-3.1374045801526718
3898536292105,5.66987828,3,-0.2154781494140625,-0.5470750793457031,-9.012972149658202,-4.396946564885496,-0.3053435114503817,-3.198473282442748
3898543622000,5.677208175,3,-0.20350714111328125,-0.5303156677246094,-8.953117108154297,-4.450381679389313,-0.40458015267175573,-3.114503816793893
3898550943511,5.684529686,3,-0.201112939453125,-0.5374982727050781,-8.921992486572265,-4.419847328244275,-0.3282442748091603,-3.099236641221374
3898558263615,5.69184979,3,-0.20231004028320312,-0.5482721801757812,-8.90044467163086,-4.488549618320611,-0.24427480916030533,-3.068702290076336
3898565593719,5.699179894,3,-0.30526071166992186,-0.5327098693847656,-8.957905511474609,-4.419847328244275,-0.3816793893129771,-3.0763358778625953
3898572928459,5.706514634,3,-0.19033903198242186,-0.5434837768554687,-8.926780889892578,-4.419847328244275,-0.3053435114503817,-3.122137404580153
3898580282990,5.713869165,3,-0.19033903198242186,-0.5303156677246094,-8.93156929321289,-4.458015267175573,-0.2748091603053435,-3.1068702290076335
3898587660854,5.721247029,3,-0.2059013427734375,-0.5398924743652344,-8.971073620605468,-4.404580152671755,-0.366412213740458,-3.1374045801526718
3898594961063,5.728547238,3,-0.19991583862304688,-0.5482721801757812,-8.955511309814453,-4.465648854961832,-0.3053435114503817,-3.1908396946564888
3898602324657,5.735910832,3,-0.19393033447265623,-0.5410895751953124,-8.933963494873046,-4.427480916030534,-0.2900763358778626,-3.1603053435114505
3898609617417,5.743203592,3,-0.19393033447265623,-0.5686228942871093,-8.93875189819336,-4.450381679389313,-0.4122137404580153,-3.1374045801526718
3898616970646,5.750556821,3,-0.1867477294921875,-0.5386953735351562,-8.945934503173827,-4.465648854961832,-0.21374045801526717,-3.114503816793893
3898624273979,5.757860154,3,-0.20231004028320312,-0.5566518859863281,-8.957905511474609,-4.465648854961832,-0.3053435114503817,-3.1297709923664123
3898631568354,5.765154529,3,-0.24301146850585936,-0.5255272644042969,-8.973467822265624,-4.488549618320611,-0.37404580152671757,-3.1374045801526718
3898638922938,5.772509113,3,-0.1975216369628906,-0.5267243652343749,-8.990227233886719,-4.480916030534351,-0.22900763358778625,-3.1297709923664123
3898646233146,5.779819321,3,-0.20949264526367187,-0.5482721801757812,-8.947131604003905,-4.3816793893129775,-0.2900763358778626,-3.1908396946564888
3898653531636,5.787117811,3,-0.22266075439453123,-0.5363011718749999,-8.93755479736328,-4.473282442748092,-0.44274809160305345,-3.1603053435114505
3898660934865,5.79452104,3,-0.22864625854492185,-0.5482721801757812,-8.90044467163086,-4.442748091603053,-0.32061068702290074,-3.16793893129771
3898668306323,5.801892498,3,-0.20829554443359374,-0.5195417602539062,-8.921992486572265,-4.427480916030534,-0.2824427480916031,-3.145038167938931
3898675577469,5.809163644,3,-0.21308394775390624,-0.5374982727050781,-8.966285217285156,-4.366412213740458,-0.32061068702290074,-3.099236641221374
3898682873407,5.816459582,3,-0.18914193115234373,-0.5422866760253906,-8.926780889892578,-4.396946564885496,-0.21374045801526717,-3.1297709923664123
3898690183042,5.823769217,3,-0.2166752502441406,-0.5339069702148437,-8.927977990722656,-4.396946564885496,-0.2748091603053435,-3.145038167938931
3898697511271,5.831097446,3,-0.2166752502441406,-0.5398924743652344,-8.993818536376953,-4.351145038167939,-0.22900763358778625,-3.1297709923664123
3898704848354,5.838434529,3,-0.20709844360351562,-0.5374982727050781,-8.948328704833983,-4.351145038167939,-0.2900763358778626,-3.1603053435114505
3898712097625,5.8456838,3,-0.19393033447265623,-0.5494692810058593,-8.971073620605468,-4.358778625954199,-0.3435114503816794,-3.1526717557251906
3898719383563,5.852969738,3,-0.20829554443359374,-0.5458779785156249,-8.973467822265624,-4.343511450381679,-0.3053435114503817,-3.1068702290076335
3898726713146,5.860299321,3,-0.21188684692382811,-0.5422866760253906,-8.939948999023438,-4.396946564885496,-0.4198473282442748,-3.1068702290076335
3898734056323,5.867642498,3,-0.17956512451171874,-0.5698199951171875,-8.979453326416015,-4.396946564885496,-0.3282442748091603,-3.1526717557251906
3898741389709,5.874975884,3,-0.21428104858398436,-0.5518634826660156,-8.951920007324219,-4.358778625954199,-0.2824427480916031,-3.1908396946564888
