timestamp_ns,t_s,sensor_id,ax,ay,az
5924288379353,0.058793959,1,-2.9759926635742184,7.656656909179687,3.475183709716797
5924292339301,0.062753907,1,-3.0645781249999997,7.809885815429687,3.651157531738281
5924296338467,0.066753073,1,-3.1184476623535153,7.995436444091796,3.7816415222167965
5924300345134,0.07075974,1,-3.1974563171386716,8.14627114868164,3.9887399658203124
5924304337269,0.074751875,1,-3.446453289794922,8.429984045410155,3.976768957519531
5924308336228,0.078750834,1,-3.6236242126464844,8.546102825927735,4.177881896972656
5924312337478,0.082752084,1,-3.787627026367187,8.640673791503906,4.191050006103516
5924316337478,0.086752084,1,-3.9719805541992184,8.54849702758789,4.3263223999023435
5924320337478,0.090752084,1,-4.034229797363281,8.595183959960938,4.57771357421875
5924324337165,0.094751771,1,-4.061763116455078,8.51018980102539,4.680664245605469
5924328335030,0.098749636,1,-3.890577697753906,8.525752111816406,4.667496136474609
5924332335655,0.102750261,1,-3.7924154296875,8.467094171142577,4.754884497070313
5924336335446,0.106750052,1,-3.5290532470703124,8.283937744140625,4.732139581298828
5924340335134,0.11074974,1,-3.379415643310547,8.111555224609374,4.554968658447265
5924344335446,0.114750052,1,-3.3782185424804685,7.8338278320312495,4.320336895751953
5924348335967,0.118750573,1,-3.343502618408203,7.493851196289062,4.16231958618164
5924352335759,0.122750365,1,-3.4249054748535155,7.1586629638671875,3.9839515624999997
5924356335655,0.126750261,1,-3.4452561889648434,6.8031240173339835,3.815160345458984
5924360335655,0.130750261,1,-3.3638533325195312,6.618770489501952,3.6332010192871094
5924364335446,0.134750052,1,-3.2620997619628906,6.349422802734375,3.6379894226074216
5924368335759,0.138750365,1,-3.096899847412109,6.172251879882812,3.4632127014160154
5924372334821,0.142749427,1,-2.8886043029785156,5.972336041259766,3.3075895935058592
5924376333311,0.146747917,1,-2.7269956909179687,5.910086798095703,3.171120098876953
5924380333832,0.150748438,1,-2.6563667419433594,5.772420202636718,3.0897172424316404
5924384335707,0.154750313,1,-2.5905261962890624,5.728127471923828,2.922123126220703
5924388334821,0.158749427,1,-2.4911668273925778,5.667075329589843,2.664746447753906
5924392335186,0.162749792,1,-2.530671154785156,5.600037683105469,2.5438392639160154
5924396335030,0.166749636,1,-2.488772625732422,5.617994195556641,2.4384943908691405
5924400334509,0.170749115,1,-2.431311785888672,5.614402893066406,2.4516625
5924404335446,0.174750052,1,-2.3726538452148436,5.682637640380859,2.3367408203125
5924408334457,0.178749063,1,-2.3151930053710936,5.813121630859374,2.2828712829589843
5924412333936,0.182748542,1,-2.3977929626464842,5.966350537109375,2.1811177124023438
5924416335446,0.186750052,1,-2.3044190979003907,6.197390997314453,2.1416133850097654
5924420335446,0.190750052,1,-2.062604730224609,6.515819818115234,2.31758720703125
5924424334873,0.194749479,1,-2.0446482177734375,6.546944439697265,2.389413256835937
5924428335394,0.19875,1,-2.0374656127929685,6.663063220214843,2.3163901062011716
5924432335030,0.202749636,1,-2.031480108642578,6.95874712524414,2.3127988037109373
5924436335134,0.20674974,1,-2.1894974182128903,7.096413720703125,2.3487118286132813
5924440334561,0.210749167,1,-2.299630694580078,7.167042669677734,2.2194249389648437
5924444335655,0.214750261,1,-2.3738509460449215,7.196970190429687,2.379836450195312
5924448335186,0.218749792,1,-2.481590020751953,7.109581829833984,2.4959552307128905
5924452334873,0.222749479,1,-2.607285607910156,7.212532501220703,2.5007436340332028
5924456334769,0.226749375,1,-2.6599580444335937,7.40526573486328,2.7521348083496093
5924460335603,0.230750209,1,-2.6707319519042967,7.486668591308593,2.942473840332031
5924464335655,0.234750261,1,-2.7078420776367187,7.414842541503906,3.039439007568359
5924468334978,0.238749584,1,-2.7940333374023436,7.607575775146484,3.2824504760742186
5924472334717,0.242749323,1,-2.8658593872070313,7.660248211669922,3.494337322998047
5924476335655,0.246750261,1,-2.987963671875,7.617152581787109,3.763685009765625
5924480335030,0.250749636,1,-2.987963671875,7.62912359008789,3.967192150878906
5924484335446,0.254750052,1,-3.1399954772949217,7.574056951904296,4.18147319946289
5924488335342,0.258749948,1,-3.2692823669433593,7.675810522460937,4.598064288330078
5924492334509,0.262749115,1,-3.362656231689453,7.7787611938476555,4.859032269287109
5924496335082,0.266749688,1,-3.3782185424804685,7.583633758544922,5.064933612060546
5924500334457,0.270749063,1,-3.383006945800781,7.8912886718749995,5.1702784851074215
5924504334717,0.274749323,1,-3.450044592285156,7.961917620849609,5.355829113769531
5924508334821,0.278749427,1,-3.5865140869140624,7.785943798828124,5.462371087646484
5924512334457,0.282749063,1,-3.6583401367187496,7.79552060546875,5.641936212158202
5924516335082,0.286749688,1,-3.7804444213867185,7.765593084716796,5.821501336669922
5924520335134,0.29074974,1,-3.873818286132812,7.698555438232422,5.91846650390625
5924524335498,0.294750104,1,-3.890577697753906,7.943961108398437,6.106411334228516
5924528335082,0.298749688,1,-4.049792108154296,7.879317663574218,6.1818286865234375
5924532335082,0.302749688,1,-4.187458703613281,8.037334973144532,6.424840155029297
5924536334248,0.306748854,1,-4.197035510253906,8.17141026611328,6.5026517089843745
5924540335967,0.310750573,1,-4.243722442626953,8.329427575683594,6.749254479980468
5924544333467,0.314748073,1,-4.317942694091797,8.507795599365235,6.828263134765624
5924548334925,0.318749531,1,-4.387374542236328,8.620323077392577,6.910863092041015
5924552334977,0.322749583,1,-4.529829541015625,8.864531646728516,6.982689141845703
5924556335655,0.326750261,1,-4.504690423583984,8.8872765625,7.015010864257812
5924560334092,0.330748698,1,-4.271255761718749,8.959102612304687,6.993463049316406
5924564335446,0.334750052,1,-4.10485874633789,8.85495484008789,7.068880401611327
5924568334873,0.338749479,1,-4.158728283691406,8.767566479492187,6.8569935546875
5924572335030,0.342749636,1,-4.170699291992188,8.641870892333984,6.591237170410156
5924576334925,0.346749531,1,-4.224568829345703,8.402450726318358,6.368576416015625
5924580334561,0.350749167,1,-4.201823913574218,8.17141026611328,6.086060620117187
5924584335290,0.354749896,1,-4.211400720214844,8.051700183105469,5.888538983154296
5924588335134,0.35874974,1,-4.025850091552734,8.010998754882811,5.761646295166015
5924592334405,0.362749011,1,-3.938461730957031,7.869740856933594,5.635950708007812
5924596334405,0.366749011,1,-3.746925598144531,7.808688714599609,5.567715960693359
5924600333988,0.370748594,1,-3.5517981628417967,7.649474304199218,5.291185668945312
5924604335238,0.374749844,1,-3.3028011901855465,7.5333555236816405,5.142745166015625
5924608334405,0.378749011,1,-3.1184476623535153,7.574056951904296,4.856638067626953
5924612334925,0.382749531,1,-3.123236065673828,7.4028715332031245,4.630386010742187
5924616333936,0.386748542,1,-3.096899847412109,7.187393383789062,4.46279189453125
5924620334509,0.390749115,1,-3.0442274108886718,7.1035963256835934,4.2509050476074215
5924624333155,0.394747761,1,-3.071760729980469,6.886921075439453,4.035426898193359
5924628335394,0.39875,1,-3.096899847412109,6.815095025634765,3.883395092773437
5924632335186,0.402749792,1,-3.065775225830078,6.730100866699218,3.716998077392578
5924636335446,0.406750052,1,-2.881421697998047,6.787561706542968,3.6451720275878903
5924640335915,0.410750521,1,-2.7653029174804686,6.701370446777343,3.460818499755859
5924644335134,0.41474974,1,-2.615665313720703,6.573280657958984,3.2118215270996093
5924648334092,0.418748698,1,-2.464830609130859,6.5014546081542965,3.1447838806152344
5924652334665,0.422749271,1,-2.452859600830078,6.458358978271484,2.943670941162109
5924656334873,0.426749479,1,-2.43250888671875,6.327874987792969,2.7569232116699216
5924660334977,0.430749583,1,-2.501940734863281,6.276399652099609,2.6503812377929687
5924664334509,0.434749115,1,-2.511517541503906,6.241683728027343,2.507926239013672
5924668333155,0.438747761,1,-2.4588451049804685,6.290764862060547,2.4444798950195312
5924672335602,0.442750208,1,-2.4349030883789062,6.348225701904297,2.4576480041503905
5924676342373,0.446756979,1,-2.366668341064453,6.400898138427734,2.4289175842285156
5924680336540,0.450751146,1,-2.308010400390625,6.476315490722656,2.346317626953125
5924684335394,0.45475,1,-2.2744915771484373,6.489483599853515,2.2361843505859373
5924688334977,0.458749583,1,-2.3056161987304686,6.457161877441406,2.252943762207031
5924692335186,0.462749792,1,-2.3032219970703123,6.463147381591797,2.142810485839844
5924696335030,0.466749636,1,-2.404975567626953,6.491877801513671,2.185906115722656
5924700333259,0.470747865,1,-2.5629928771972654,6.440402465820312,2.1966800231933594
5924704335550,0.474750156,1,-2.6013001037597654,6.618770489501952,1.9788076721191405
5924708335290,0.478749896,1,-2.3870190551757813,6.584054565429687,1.9728221679687499
5924712334561,0.482749167,1,-2.299630694580078,6.4092778442382805,2.0458453186035155
5924716335342,0.486749948,1,-2.3618799377441406,6.518214019775391,1.9093758239746093
5924720334977,0.490749583,1,-2.2110452331542967,6.5397618347167965,1.8770541015625
5924724333936,0.494748542,1,-2.1691467041015624,6.438008264160156,1.8052280517578123
5924728335446,0.498750052,1,-2.3642741394042965,6.411672045898437,1.6927005737304686
5924732334821,0.502749427,1,-2.4109610717773435,6.4834980957031245,1.619677423095703
5924736335446,0.506750052,1,-2.3211785095214843,6.469132885742187,1.5981296081542968
5924740334873,0.510749479,1,-2.395398760986328,6.635529901123046,1.7310078002929687
5924744334769,0.514749375,1,-2.290053887939453,6.742071875,1.8710685974121093
5924748334717,0.518749323,1,-2.104503259277344,6.76721099243164,1.93451494140625
5924752334665,0.522749271,1,-2.0159177978515626,6.828263134765624,1.974019268798828
5924756334925,0.526749531,1,-2.043451116943359,6.871358764648437,2.039859814453125
5924760334196,0.530748802,1,-2.139219183349609,6.846219647216796,2.100911956787109
5924764335342,0.534749948,1,-2.100911956787109,6.845022546386718,2.129642376708984
5924768335134,0.53874974,1,-2.3427263244628906,6.402095239257812,2.3427263244628906
5924772335550,0.542750156,1,-2.8718448913574215,6.525396624755859,2.376245147705078
5924776334561,0.546749167,1,-2.807201446533203,6.787561706542968,2.730586993408203
5924780335863,0.550750469,1,-2.612074011230469,6.853402252197265,3.1747114013671873
5924784335602,0.554750208,1,-2.578555187988281,7.066486199951171,3.3411084167480465
5924788334821,0.558749427,1,-2.4109610717773435,7.205349896240234,3.494337322998047
5924792334873,0.562749479,1,-2.5378537597656248,7.250839727783203,3.7193922790527343
5924796335811,0.566750417,1,-2.8311434631347656,7.362170104980469,3.764882110595703
5924800335186,0.570749792,1,-3.355473626708984,7.568071447753906,3.825934252929687
5924804335498,0.574750104,1,-3.6391865234374996,7.7799582946777335,4.025850091552734
5924808334457,0.578749063,1,-3.7110125732421873,7.960720520019531,4.37300933227539
5924812334873,0.582749479,1,-3.9695863525390624,8.273163836669921,4.641159918212891
5924816334352,0.586748958,1,-3.7612908081054686,8.431181146240235,5.080495922851562
5924820335186,0.590749792,1,-3.859453076171875,8.568847741699217,5.468356591796875
5924824334092,0.594748698,1,-3.958812445068359,8.752004168701172,5.578489868164062
5924828335029,0.598749635,1,-3.9755718566894527,8.84777223510742,5.730521673583984
5924832335342,0.602749948,1,-4.291606475830078,8.898050469970702,5.798756420898437
5924836334821,0.606749427,1,-4.448426684570312,9.024943157958983,6.013037469482422
5924840334977,0.610749583,1,-4.6064439941406246,9.050082275390624,6.0884548217773435
5924844334873,0.614749479,1,-4.65432802734375,9.139864837646483,6.189011291503906
5924848335186,0.618749792,1,-4.707000463867187,9.255983618164063,6.3901242309570305
5924852334404,0.62274901,1,-4.689043951416015,9.370905297851563,6.566098052978515
5924856334248,0.626748854,1,-4.684255548095702,9.489418280029296,6.7839704040527335
5924860334404,0.63074901,1,-4.774038110351563,9.484629876708984,6.994660150146484
5924864335290,0.634749896,1,-4.84586416015625,9.568426934814452,7.156268762207031
5924868334613,0.638749219,1,-4.921281512451172,9.491812481689452,7.20774409790039
5924872333154,0.64274776,1,-4.862623571777344,9.423577734375,7.359775903320312
5924876335550,0.646750156,1,-4.651933825683593,9.361328491210937,7.451952667236328
5924880334144,0.65074875,1,-4.477157104492187,9.242815509033203,7.630320690917968
5924884334873,0.654749479,1,-4.454412188720703,9.167398156738281,7.687781530761718
5924888335082,0.658749688,1,-4.485536810302734,9.017760552978515,7.644685900878906
5924892335238,0.662749844,1,-4.537012145996093,8.790311395263672,7.784746697998046
5924896334977,0.666749583,1,-4.522646936035156,8.544905725097657,7.674613421630859
5924900334509,0.670749115,1,-4.502296221923828,8.297105853271484,7.547720733642578
5924904334509,0.674749115,1,-4.350264416503906,8.030152368164062,7.3849150207519525
5924908334717,0.678749323,1,-4.170699291992188,7.900865478515625,7.28435855102539
5924912335238,0.682749844,1,-4.033032696533203,7.906850982666016,7.018602166748046
5924916334457,0.686749063,1,-3.7708676147460936,7.613561279296874,6.721721160888672
5924920334092,0.690748698,1,-3.6679169433593746,7.335833886718749,6.5014546081542965
5924924333832,0.694748438,1,-3.5996821960449217,7.128735443115234,6.072892510986327
5924928336332,0.698750938,1,-3.459621398925781,6.829460235595703,5.664681127929687
5924932334769,0.702749375,1,-3.3351229125976563,6.500257507324219,5.390545037841797
5924936334665,0.706749271,1,-3.189076611328125,6.241683728027343,4.9823336547851556
5924940334873,0.710749479,1,-3.027467999267578,6.059724401855468,4.542997650146484
5924944334821,0.714749427,1,-2.906560815429687,5.874173773193359,4.167107989501953
5924948334457,0.718749063,1,-2.779668127441406,5.764040496826172,3.6739024475097652
5924952334977,0.722749583,1,-2.6527754394531247,5.586869573974609,3.3171664001464842
5924956334821,0.726749427,1,-2.555810272216797,5.512649322509765,3.010708587646484
5924960334613,0.730749219,1,-2.501940734863281,5.485116003417969,2.6420015319824217
5924964334561,0.734749167,1,-2.398990063476562,5.374982727050781,2.24097275390625
5924968334404,0.73874901,1,-2.337937921142578,5.288791467285156,1.9991583862304687
5924972334821,0.742749427,1,-2.2206220397949217,5.286397265624999,1.8662801940917968
5924976334613,0.746749219,1,-2.0829554443359375,5.318718988037109,1.600523809814453
5924980335029,0.750749635,1,-2.0374656127929685,5.346252307128906,1.2665326782226562
5924984334352,0.754748958,1,-2.01112939453125,5.412092852783203,1.0211270080566406
5924988335134,0.75874974,1,-2.068590234375,5.469553692626953,0.7948749511718749
5924992335342,0.762749948,1,-2.2086510314941403,5.5844753723144525,0.6572083557128906
5924996334977,0.766749583,1,-2.4492682983398435,5.720944866943359,0.5686228942871093
5925000335186,0.770749792,1,-2.3032219970703123,6.129156249999999,0.3555389465332031
5925004335029,0.774749635,1,-2.269703173828125,6.215347509765625,0.4333505004882812
5925008334300,0.778748906,1,-2.1152771667480468,6.353014105224609,0.5231330627441406
5925012334613,0.782749219,1,-2.0757728393554684,6.692990740966796,0.45489831542968745
5925016335186,0.786749792,1,-2.1607669982910154,6.931213806152344,0.35673604736328124
5925020334561,0.790749167,1,-2.2589292663574216,7.043741284179687,0.46806642456054687
5925024335342,0.794749948,1,-2.375048046875,7.186196282958984,0.5195417602539062
5925028334665,0.798749271,1,-2.4911668273925778,7.390900524902343,0.4381389038085937
5925032334665,0.802749271,1,-2.5665841796874997,7.429207751464843,0.6141127258300781
5925036334665,0.806749271,1,-2.6719290527343746,7.635109094238281,0.7038952880859375
5925040334196,0.810748802,1,-2.645592834472656,7.788338000488281,0.9217676391601562
5925044334613,0.814749219,1,-2.6982652709960937,7.991845141601562,1.0773907470703123
5925048334561,0.818749167,1,-2.5821464904785154,8.055291485595703,1.2413935607910156
5925052335394,0.82275,1,-2.527079852294922,8.058882788085937,1.4604630126953124
5925056334769,0.826749375,1,-2.6096798095703124,8.13310303955078,1.6771382629394531
5925060340915,0.830755521,1,-2.6791116577148437,8.119934930419921,1.897404815673828
5925064336800,0.834751406,1,-2.7162217834472653,7.8553756469726554,2.2266075439453124
5925068335186,0.838749792,1,-2.770091320800781,7.740453967285156,2.365471240234375
5925072334769,0.842749375,1,-2.858676782226562,7.617152581787109,2.454056701660156
5925076334717,0.846749323,1,-3.025073797607422,7.499836700439452,2.6384102294921874
5925080335081,0.850749687,1,-3.0921114440917967,7.41244833984375,3.0035259826660154
5925084334561,0.854749167,1,-3.0921114440917967,7.471106280517578,3.1842882080078123
5925088334665,0.858749271,1,-3.124433166503906,7.524975817871093,3.4955344238281247
5925092334248,0.862748854,1,-3.0933085449218747,7.581239556884765,3.907337109375
5925096334821,0.866749427,1,-3.0262708984374997,7.621940985107422,4.264073156738281
5925100334665,0.870749271,1,-3.025073797607422,7.678204724121093,4.547786053466797
5925104334509,0.874749115,1,-3.1292215698242187,7.639897497558593,4.8326960510253905
5925108335134,0.87874974,1,-3.1495722839355467,7.593210565185546,5.10084663696289
5925112333519,0.882748125,1,-3.286041778564453,7.569268548583984,5.173869787597656
5925116334769,0.886749375,1,-3.535038751220703,7.417236743164062,5.240907434082031
5925120332738,0.890747344,1,-3.5206735412597654,7.517793212890624,5.4013189453125
5925124335811,0.894750417,1,-3.432088079833984,7.338228088378906,5.663484027099609
5925128334873,0.898749479,1,-3.2309751403808593,7.204152795410156,5.801150622558594
5925132335081,0.902749687,1,-3.114856359863281,7.1023992248535155,5.930437512207031
5925136334404,0.90674901,1,-3.029862200927734,6.884526873779296,5.88015927734375
5925140335029,0.910749635,1,-3.0166940917968748,6.812700823974609,5.9376201171875
5925144334404,0.91474901,1,-3.0885201416015624,6.602011077880859,5.862202764892578
5925148334248,0.918748854,1,-3.2070331237792966,6.479906793212891,5.839457849121094
5925152335654,0.92275026,1,-3.238157745361328,6.343437298583984,5.8083332275390624
5925156334769,0.926749375,1,-3.5230677429199218,6.321889483642578,5.680243438720702
5925160334613,0.930749219,1,-3.787627026367187,6.36498511352539,5.5844753723144525
5925164334665,0.934749271,1,-3.8941690002441405,6.56968935546875,5.705382556152343
5925168334769,0.938749375,1,-4.090493536376953,6.70975015258789,5.935225915527344
5925172334561,0.942749167,1,-4.237736938476562,7.128735443115234,6.137535955810547
5925176333936,0.946748542,1,-4.314351391601562,7.593210565185546,6.357802508544921
5925180333311,0.950747917,1,-4.39216294555664,7.95473501586914,6.561309649658202
5925184335186,0.954749792,1,-4.553771557617187,8.427589843749999,6.846219647216796
5925188334613,0.958749219,1,-4.689043951416015,8.801085302734375,6.940790612792968
5925192334300,0.962748906,1,-4.715380169677734,9.080009796142578,7.161057165527343
5925196333988,0.966748594,1,-4.7572786987304685,9.317035760498046,7.277175946044921
5925200334717,0.970749323,1,-4.704606262207031,9.542090716552734,7.467514978027343
5925204334717,0.974749323,1,-4.5693338684082025,9.724050042724608,7.433996154785156
5925208334144,0.97874875,1,-4.341884710693359,9.836577520751952,7.483077288818359
5925212335238,0.982749844,1,-4.351461517333984,9.769539874267577,7.3657614074707025
5925216334665,0.986749271,1,-4.394557147216797,9.702502227783203,7.129932543945312
5925220334404,0.99074901,1,-4.410119458007812,9.3852705078125,6.8402341430664055
5925224333883,0.994748489,1,-4.541800549316406,9.077615594482422,6.628347296142578
5925228334925,0.998749531,1,-4.604049792480469,8.86812294921875,6.380547424316406
5925232334821,1.002749427,1,-4.593275885009765,8.59278975830078,6.1830257873535155
5925236335029,1.006749635,1,-4.349067315673828,8.312668164062499,6.008249066162109
5925240334404,1.01074901,1,-4.216189123535156,8.10796392211914,5.805939025878906
5925244336019,1.014750625,1,-3.9228994201660154,7.8721350585937495,5.4887073059082025
5925248333988,1.018748594,1,-3.641580725097656,7.630320690917968,5.313930584716797
5925252334821,1.022749427,1,-3.535038751220703,7.551312036132812,5.032611889648437
5925256334613,1.026749219,1,-3.465606903076172,7.286752752685547,4.7884033203125
5925260334508,1.030749114,1,-3.507505432128906,7.006631158447266,4.428075970458984
5925264334456,1.034749062,1,-3.5146880371093747,6.771999395751953,4.1563340820312495
5925268334925,1.038749531,1,-3.5984850952148437,6.544550238037109,3.9528269409179684
5925272334196,1.042748802,1,-3.4871547180175777,6.252457635498047,3.7409400939941406
5925276335029,1.046749635,1,-3.3111808959960936,6.227318518066406,3.5134909362792968
5925280335133,1.050749739,1,-3.1866824096679687,6.113593939208984,3.3327287109375
5925284334665,1.054749271,1,-3.037044805908203,6.072892510986327,3.180696905517578
5925288334821,1.058749427,1,-2.9472622436523435,6.0154316711425775,3.0322564025878904
5925292334769,1.062749375,1,-2.817975354003906,5.998672259521484,2.874239093017578
5925296333988,1.066748594,1,-2.722207287597656,6.013037469482422,2.6408044311523438
5925300334717,1.070749323,1,-2.6036943054199218,5.929240411376953,2.527079852294922
5925304335186,1.074749792,1,-2.5258827514648434,5.925649108886718,2.290053887939453
5925308335081,1.078749687,1,-2.4971523315429685,5.953182427978516,2.1212626708984375
5925312335186,1.082749792,1,-2.5043349365234375,5.97592734375,1.9728221679687499
5925316334769,1.086749375,1,-2.5055320373535155,5.9974751586914055,1.85790048828125
5925320335446,1.090750052,1,-2.455253802490234,6.047753393554687,1.830367169189453
5925324334925,1.094749531,1,-2.462436407470703,6.194996795654297,1.6244658264160154
5925328334404,1.09874901,1,-2.445676995849609,6.2392895263671875,1.5203180541992187
5925332334092,1.102748698,1,-2.3642741394042965,6.284779357910156,1.3563152404785155
5925336334613,1.106749219,1,-2.47081611328125,6.329072088623047,1.3335703247070312
5925340336019,1.110750625,1,-2.481590020751953,6.476315490722656,1.2282254516601563
5925344335394,1.11475,1,-2.4672248107910155,6.600813977050781,1.1982979309082031
5925348335811,1.118750417,1,-2.4480711975097655,6.719326959228515,1.189918225097656
5925352334769,1.122749375,1,-2.375048046875,6.918045697021484,1.2832920898437499
5925356334508,1.126749114,1,-2.318784307861328,7.03536157836914,1.2808978881835937
5925360334456,1.130749062,1,-2.3295582153320313,7.155071661376953,1.3156138122558594
5925364334456,1.134749062,1,-2.393004559326172,7.242460021972656,1.523909356689453
5925368333102,1.138747708,1,-2.492363928222656,7.340622290039062,1.7010802795410156
5925372335863,1.142750469,1,-2.492363928222656,7.528567120361328,1.8183961608886718
5925376334977,1.146749583,1,-2.5103204406738278,7.528567120361328,2.024297503662109
5925380334404,1.15074901,1,-2.521094348144531,7.564480145263672,2.2266075439453124
5925384334456,1.154749062,1,-2.5522189697265625,7.563283044433593,2.426523382568359
5925388334665,1.158749271,1,-2.612074011230469,7.6231380859375,2.5713725830078125
5925392334352,1.162748958,1,-2.682702960205078,7.654262707519531,2.8036101440429686
5925396334769,1.166749375,1,-2.8095956481933593,7.633911993408202,3.0334535034179684
5925400334092,1.170748698,1,-2.9269115295410155,7.569268548583984,3.1842882080078123
5925404333623,1.174748229,1,-3.010708587646484,7.5525091369628905,3.4536358947753905
5925408335133,1.178749739,1,-3.1124621582031247,7.5465236328125,3.6727053466796873
5925412334977,1.182749583,1,-3.1938650146484373,7.492654095458984,4.0066964782714845
5925416334508,1.186749114,1,-3.1579519897460937,7.587225061035156,4.21978042602539
5925420334769,1.190749375,1,-3.0897172424316404,7.637503295898437,4.412513659667969
5925424334196,1.194748802,1,-3.0502129150390624,7.615955480957031,4.650736724853515
5925428334665,1.198749271,1,-3.220201232910156,7.6279264892578125,4.857835168457031
5925432334925,1.202749531,1,-3.3327287109375,7.433996154785156,5.045779998779296
5925436333050,1.206747656,1,-3.3446997192382812,7.242460021972656,5.236119030761718
5925440334977,1.210749583,1,-3.4763808105468748,7.37414111328125,5.286397265624999
5925444334873,1.214749479,1,-3.475183709716797,7.359775903320312,5.494692810058593
5925448339977,1.218754583,1,-3.441664886474609,7.271190441894531,5.704185455322265
5925452337008,1.222751614,1,-3.39018955078125,7.39928023071289,5.791573815917968
5925456335602,1.226750208,1,-3.336320013427734,7.368155609130859,5.907692596435546
5925460334977,1.230749583,1,-3.4249054748535155,7.30351216430664,5.991489654541016
5925464336227,1.234750833,1,-3.5290532470703124,7.296329559326171,5.98191284790039
5925468335029,1.238749635,1,-3.632003918457031,7.302315063476562,6.0884548217773435
5925472334352,1.242748958,1,-3.7229835815429686,7.258022332763671,6.072892510986327
5925476334821,1.246749427,1,-3.822342950439453,7.358578802490234,6.121973645019531
5925480334821,1.250749427,1,-3.968389251708984,7.453149768066406,6.178237384033203
5925484335029,1.254749635,1,-4.192247106933594,7.558494641113281,6.283582257080078
5925488335029,1.258749635,1,-4.253299249267578,7.669825018310546,6.394912634277343
5925492334873,1.262749479,1,-4.278438366699218,7.767987286376953,6.499060406494141
5925496335081,1.266749687,1,-4.2317514343261715,7.861361151123046,6.552929943847656
5925500335185,1.270749791,1,-4.121618157958984,7.960720520019531,6.675034228515624
5925504335498,1.274750104,1,-4.00310517578125,8.104372619628906,6.715735656738281
5925508333727,1.278748333,1,-3.873818286132812,8.123526232910155,6.756437084960937
5925512334925,1.282749531,1,-3.825934252929687,8.078036401367187,6.5409589355468745
5925516334248,1.286748854,1,-3.7672763122558592,7.9643118225097655,6.335057592773437
5925520334456,1.290749062,1,-3.8391023620605464,7.78235249633789,6.124367846679687
5925524334613,1.294749219,1,-3.8007951354980465,7.60398447265625,5.748478186035156
5925528334248,1.298748854,1,-3.8043864379882812,7.398083129882812,5.501875415039062
5925532334560,1.302749166,1,-3.7098154724121093,7.24605132446289,5.268440753173828
5925536335029,1.306749635,1,-3.544615557861328,7.117961535644531,4.96677134399414
5925540334873,1.310749479,1,-3.4524387939453125,7.043741284179687,4.878185882568359
5925544334092,1.314748698,1,-3.3111808959960936,7.013813763427734,4.751293194580078
5925548335394,1.31875,1,-3.142389678955078,6.9168485961914055,4.553771557617187
5925552334665,1.322749271,1,-2.986766571044922,6.891709478759765,4.338293408203125
5925556335185,1.326749791,1,-2.9269115295410155,6.861781958007812,4.059368914794922
5925560335550,1.330750156,1,-2.876633294677734,6.787561706542968,3.831919757080078
5925564335185,1.334749791,1,-2.8622680847167965,6.760028387451172,3.7098154724121093
5925568334873,1.338749479,1,-2.798821740722656,6.72890376586914,3.5194764404296874
5925572335133,1.342749739,1,-2.81558115234375,6.691793640136718,3.3770214416503905
5925576334769,1.346749375,1,-2.786850732421875,6.771999395751953,3.284844677734375
5925580334977,1.350749583,1,-2.7425580017089843,6.78636460571289,3.2070331237792966
5925584334717,1.354749323,1,-2.6707319519042967,6.842628344726562,3.2537200561523436
5925588335602,1.358750208,1,-2.5354595581054684,6.92043989868164,3.220201232910156
5925592334977,1.362749583,1,-2.5474305664062498,6.926425402832031,3.161543292236328
5925596335342,1.366749948,1,-2.427720483398437,6.9719152343749995,3.1926679138183593
5925600335498,1.370750104,1,-2.360682836914062,7.029376074218749,3.1735143005371094
5925604335342,1.374749948,1,-2.3582886352539063,6.95874712524414,3.1292215698242187
5925608334300,1.378748906,1,-2.480392919921875,6.97790073852539,3.1675287963867187
5925612335237,1.382749843,1,-2.529474053955078,6.956352923583984,3.142389678955078
5925616333362,1.386747968,1,-2.6216508178710938,6.938396411132812,3.1411925781249996
5925620335446,1.390750052,1,-2.7186159851074216,6.9144543945312495,3.1747114013671873
5925624334508,1.394749114,1,-2.7916391357421872,6.8976949829101555,3.366247534179687
5925628335081,1.398749687,1,-2.8730419921875,6.957550024414062,3.4332851806640625
5925632334821,1.402749427,1,-2.910152117919922,6.9144543945312495,3.5613749694824217
5925636334612,1.406749218,1,-3.020285394287109,6.92043989868164,3.6571430358886716
5925640334404,1.41074901,1,-3.096899847412109,6.902483386230468,3.737348791503906
5925644334925,1.414749531,1,-3.21780703125,6.874950067138672,3.7205893798828122
5925648335446,1.418750052,1,-3.314772198486328,6.868964562988281,3.8941690002441405
5925652335133,1.422749739,1,-3.4859576171874997,6.847416748046874,3.83072265625
5925656334196,1.426748802,1,-3.582922784423828,6.800729815673828,3.9324762268066404
5925660334612,1.430749218,1,-3.5996821960449217,6.845022546386718,3.890577697753906
5925664335498,1.434750104,1,-3.6523546325683593,6.829460235595703,4.084508032226562
5925668335290,1.438749896,1,-3.6930560607910152,6.912060192871094,4.096479040527344
5925672334352,1.442748958,1,-3.7098154724121093,6.872555865478515,4.216189123535156
5925676335394,1.44675,1,-3.8187516479492185,6.9898717468261715,4.23893403930664
5925680334925,1.450749531,1,-3.9636008483886718,7.037755780029296,4.241328240966797
5925684334456,1.454749062,1,-4.149151477050781,7.149086157226562,4.145560174560547
5925688334821,1.458749427,1,-4.253299249267578,7.167042669677734,4.106055847167968
5925692332842,1.462747448,1,-4.39216294555664,7.280767248535156,4.04739790649414
5925696335862,1.466750468,1,-4.4819455078125,7.370549810791015,3.9935283691406247
5925700335550,1.470750156,1,-4.61602080078125,7.4699091796875,3.939658831787109
5925704335029,1.474749635,1,-4.704606262207031,7.568071447753906,3.870226983642578
5925708335185,1.478749791,1,-4.8135424377441405,7.72489165649414,3.725377783203125
5925712336123,1.482750729,1,-4.988319158935546,7.882908966064453,3.699041564941406
5925716335602,1.486750208,1,-5.0014872680664055,8.06367119140625,3.5889082885742187
5925720334665,1.490749271,1,-4.92846411743164,8.237250811767577,3.6056677001953124
5925724334248,1.494748854,1,-4.853046765136718,8.435969549560546,3.5206735412597654
5925728336331,1.498750937,1,-4.823119244384765,8.668207110595702,3.5003228271484375
5925732335185,1.502749791,1,-4.6818613464355465,8.836998327636719,3.4296938781738278
5925736335290,1.506749896,1,-4.582501977539062,8.984241729736327,3.5506010620117183
5925740334300,1.510748906,1,-4.593275885009765,9.039308367919922,3.5098996337890624
5925744334508,1.514749114,1,-4.548983154296875,9.04649097290039,3.4057518615722655
5925748335081,1.518749687,1,-4.499902020263671,9.052476477050782,3.3399113159179685
5925752334769,1.522749375,1,-4.623203405761719,8.979453326416015,3.3075895935058592
5925756335029,1.526749635,1,-4.576516473388671,8.83580122680664,3.1974563171386716
5925760335185,1.530749791,1,-4.633977313232422,8.731653454589843,3.1292215698242187
5925764334456,1.534749062,1,-4.656722229003906,8.620323077392577,3.010708587646484
5925768334300,1.538748906,1,-4.693832354736328,8.392873919677735,3.005920184326172
5925772335342,1.542749948,1,-4.7022120605468745,8.249221820068358,2.8622680847167965
5925776334769,1.546749375,1,-4.592078784179687,8.07683930053711,2.8526912780761715
5925780334560,1.550749166,1,-4.546588952636719,8.034940771484374,2.7653029174804686
5925784334144,1.55474875,1,-4.408922357177734,7.886500268554687,2.868253588867187
5925788334977,1.558749583,1,-4.317942694091797,7.770381488037109,2.8275521606445313
5925792334352,1.562748958,1,-4.129997863769531,7.723694555664062,2.935291235351562
5925796334873,1.566749479,1,-4.037821099853516,7.674613421630859,3.0825346374511717
5925800335081,1.570749687,1,-3.8474820678710935,7.690175732421874,3.1771056030273437
5925804334248,1.574748854,1,-3.766079211425781,7.611167077636718,3.3590649291992185
5925808333987,1.578748593,1,-3.687070556640625,7.599196069335937,3.4057518615722655
5925812334769,1.582749375,1,-3.6391865234374996,7.6231380859375,3.593696691894531
5925816334717,1.586749323,1,-3.5601778686523438,7.636306195068359,3.782838623046875
5925820335394,1.59075,1,-3.5122938354492184,7.583633758544922,3.860650177001953
5925824335654,1.59475026,1,-3.4153286682128905,7.563283044433593,3.9228994201660154
5925828334612,1.598749218,1,-3.4823663146972654,7.563283044433593,4.134786267089844
5925832334508,1.602749114,1,-3.337517114257812,7.547720733642578,4.279635467529297
5925836340654,1.60675526,1,-3.24294614868164,7.530961322021484,4.455609289550781
5925840337008,1.610751614,1,-3.1028853515624997,7.513004809570312,4.6255976074218745
5925844335237,1.614749843,1,-2.9987375793457027,7.526172918701171,4.703409161376952
5925848334977,1.618749583,1,-2.900575311279297,7.490259893798828,4.835090252685546
5925852513362,1.622927968,1,-2.741360900878906,7.4232222473144525,4.90931050415039
5925856345498,1.626760104,1,-2.5617957763671875,7.2915411560058585,5.011064074707031
5925860344612,1.630759218,1,-2.6096798095703124,7.132326745605468,4.979939453125
5925864338727,1.634753333,1,-2.5055320373535155,6.928819604492187,4.944026428222656
5925868337737,1.638752343,1,-2.4253262817382812,6.740874774169922,5.017049578857422
5925872335810,1.642750416,1,-2.2481553588867187,6.5206082214355465,4.958391638183594
5925876335446,1.646750052,1,-2.105700360107422,6.339845996093749,4.8877626892089845
5925880335446,1.650750052,1,-2.041056915283203,6.1842228881835934,4.8889597900390624
5925884335654,1.65475026,1,-1.8818425048828125,6.0896519226074215,4.87100327758789
5925888336227,1.658750833,1,-1.7669208251953124,5.971138940429687,4.939238024902344
5925892335081,1.662749687,1,-1.6304513305664061,5.906495495605468,4.994304663085937
5925896334612,1.666749218,1,-1.484405029296875,5.904101293945312,5.080495922851562
5925900335810,1.670750416,1,-1.3251906188964844,5.8226984375,5.183446594238281
5925904334717,1.674749323,1,-1.1192892761230469,5.865794067382812,5.2456958374023435
5925908334977,1.678749583,1,-1.035492218017578,5.835866546630859,5.389347937011719
5925912334404,1.68274901,1,-0.9540893615722655,5.795165118408203,5.4899044067382805
5925916334977,1.686749583,1,-0.9792284790039062,5.7329158752441405,5.550956549072265
5925920335550,1.690750156,1,-0.9074024291992187,5.805939025878906,5.7700260009765625
5925924335342,1.694749948,1,-0.9732429748535155,5.869385369873046,5.805939025878906
5925928334769,1.698749375,1,-0.9696516723632812,5.948394024658203,5.948394024658203
5925932334977,1.702749583,1,-0.9062053283691406,6.0321910827636716,6.138733056640625
5925936334925,1.706749531,1,-0.9995791931152344,6.050147595214844,6.1818286865234375
5925940334612,1.710749218,1,-1.092953057861328,6.100425830078125,6.353014105224609
5925944335654,1.71475026,1,-1.2126631408691406,6.0525417968749995,6.405686541748047
5925948334196,1.718748802,1,-1.150413897705078,6.093243225097656,6.511031414794921
5925952336175,1.722750781,1,-1.1228805786132812,6.132747552490234,6.526593725585937
5925956334977,1.726749583,1,-1.3970166687011718,6.1279591491699215,6.593631372070312
5925960334821,1.730749427,1,-1.571793389892578,6.066907006835937,6.511031414794921
5925964335914,1.73475052,1,-1.7082628845214842,6.016628771972656,6.478709692382812
5925968334612,1.738749218,1,-1.7944541442871094,5.998672259521484,6.406883642578125
5925972334560,1.742749166,1,-1.9309236389160156,6.023811376953125,6.404489440917969
5925976335289,1.746749895,1,-1.9967641845703124,6.029796881103516,6.404489440917969
5925980335914,1.75075052,1,-2.003946789550781,6.111199737548827,6.297947467041015
5925984335706,1.754750312,1,-2.090138049316406,6.191405493164062,6.247669232177734
5925988335706,1.758750312,1,-2.1487959899902345,6.210559106445312,6.175843182373047
5925992335550,1.762750156,1,-2.1452046874999997,6.222530114746093,6.105214233398437
5925996334821,1.766749427,1,-2.157175695800781,6.263231542968749,6.042964990234375
5926000334196,1.770748802,1,-2.086546746826172,6.344634399414062,5.904101293945312
5926004350185,1.774764791,1,-2.085349645996094,6.512228515625,5.743689782714843
5926008349977,1.778764583,1,-2.060210528564453,6.574477758789062,5.588066674804687
5926012337112,1.782751718,1,-2.0781670410156248,6.604405279541015,5.475539196777343
5926016333519,1.786748125,1,-2.152387292480469,6.653486413574218,5.260061047363281
5926020333258,1.790747864,1,-2.2206220397949217,6.692990740966796,5.15830747680664
5926024336956,1.794751562,1,-2.1894974182128903,6.731297967529296,4.995501763916016
5926028334977,1.798749583,1,-2.194285821533203,6.758831286621094,4.9260699157714845
5926032335394,1.80275,1,-2.2469582580566403,6.774393597412109,4.716577270507813
5926036334664,1.80674927,1,-2.365471240234375,6.733692169189453,4.502296221923828
5926040337789,1.810752395,1,-2.5737667846679684,6.685808135986328,4.314351391601562
5926044335862,1.814750468,1,-2.8119898498535156,6.737283471679687,4.025850091552734
5926048335341,1.818749947,1,-2.9951462768554684,6.756437084960937,3.803189337158203
5926052332685,1.822747291,1,-3.1938650146484373,6.867767462158203,3.5290532470703124
5926056331800,1.826746406,1,-3.31357509765625,6.921636999511718,3.430890979003906
5926060335237,1.830749843,1,-3.3698388366699215,6.999448553466796,3.2728736694335936
5926064334821,1.834749427,1,-3.496731524658203,7.137115148925781,3.2537200561523436
5926068334769,1.838749375,1,-3.507505432128906,7.248445526123047,3.2321722412109373
5926072334456,1.842749062,1,-3.679887951660156,7.3837179199218745,3.1304186706542967
5926076336748,1.846751354,1,-3.816357446289062,7.463923675537109,3.0526071166992184
5926080335706,1.850750312,1,-4.050989208984375,7.507019305419921,2.9795839660644527
5926084334925,1.854749531,1,-4.279635467529297,7.569268548583984,2.912546319580078
5926088335706,1.858750312,1,-4.43047017211914,7.635109094238281,2.8730419921875
5926092335029,1.862749635,1,-4.544194750976562,7.772775689697265,2.925714428710937
5926096335758,1.866750364,1,-4.593275885009765,7.866149554443359,3.0023288818359375
5926100335862,1.870750468,1,-4.618415002441406,8.015787158203125,3.027467999267578
5926104334769,1.874749375,1,-4.656722229003906,8.25520732421875,3.246537451171875
5926108336175,1.878750781,1,-4.763264202880859,8.315062365722655,3.27526787109375
5926112333623,1.882748229,1,-4.84586416015625,8.461108666992187,3.381809844970703
5926116335185,1.886749791,1,-4.866214874267578,8.615534674072265,3.4572271972656248
5926120334560,1.890749166,1,-4.987122058105468,8.695740429687499,3.4620156005859375
5926124335654,1.89475026,1,-5.046977099609375,8.79749400024414,3.5027170288085934
5926128335341,1.898749947,1,-5.176263989257812,8.86094034423828,3.585316986083984
5926132334612,1.902749218,1,-5.270834954833984,8.905233074951171,3.484760516357422
5926136335446,1.906750052,1,-5.413289953613281,8.828618621826172,3.5793314819335937
5926140336019,1.910750625,1,-5.400121844482421,8.959102612304687,3.375824340820312
5926144335550,1.914750156,1,-5.425260961914062,8.8872765625,3.2501287536621093
5926148334404,1.91874901,1,-5.531802935791015,8.833407025146483,3.2261867370605466
5926152334196,1.922748802,1,-5.479130499267578,8.888473663330078,2.9975404785156248
5926156334664,1.92674927,1,-5.3390697021484375,8.975862023925782,2.8526912780761715
5926160335237,1.930749843,1,-5.324704492187499,8.716091143798828,2.9448680419921875
5926164336123,1.934750729,1,-5.187037896728516,8.735244757080078,2.8945898071289062
5926168335862,1.938750468,1,-5.082890124511718,8.789114294433594,2.7736826232910157
5926172335185,1.942749791,1,-4.929661218261718,8.705317236328124,2.8754361938476563
5926176335341,1.946749947,1,-4.721365673828124,8.651447698974609,2.89219560546875
5926180335185,1.950749791,1,-4.454412188720703,8.652644799804687,2.932897033691406
5926184334352,1.954748958,1,-4.31554849243164,8.602366564941406,2.978386865234375
5926188334508,1.958749114,1,-4.205415216064453,8.497021691894531,2.9664158569335934
5926192334039,1.962748645,1,-3.9743747558593747,8.368931903076172,2.9975404785156248
5926196335133,1.966749739,1,-3.8857892944335934,8.19176098022461,3.0226795959472654
5926200335081,1.970749687,1,-3.7804444213867185,8.01818135986328,3.0705636291503904
5926204333623,1.974748229,1,-3.5781343811035153,7.867346655273437,3.1292215698242187
5926208335394,1.97875,1,-3.470395306396484,7.712920648193359,3.2321722412109373
5926212335394,1.98275,1,-3.427299676513672,7.589619262695312,3.220201232910156
5926216334144,1.98674875,1,-3.27526787109375,7.351396197509765,3.299209887695312
5926220335133,1.990749739,1,-3.1699229980468746,7.1395093505859375,3.393780853271484
5926224341748,1.994756354,1,-3.1495722839355467,7.062894897460937,3.518279339599609
5926228336487,1.998751093,1,-3.1495722839355467,6.949170318603516,3.5901053894042967
5926232334769,2.002749375,1,-3.143586779785156,6.774393597412109,3.81156904296875
5926236335810,2.006750416,1,-3.1783027038574216,6.704961749267578,3.815160345458984
5926240335237,2.010749843,1,-3.0741549316406247,6.672640026855468,3.939658831787109
5926244334769,2.014749375,1,-2.8718448913574215,6.637924102783202,4.11802685546875
5926248331644,2.01874625,1,-2.7653029174804686,6.692990740966796,4.295197778320312
5926252336696,2.022751302,1,-2.612074011230469,6.694187841796874,4.357447021484375
5926256335289,2.026749895,1,-2.5067291381835934,6.7839704040527335,4.493916516113281
5926260334560,2.030749166,1,-2.512714642333984,6.806715319824218,4.7560815979003905
5926264334873,2.034749479,1,-2.4013842651367185,6.791153009033203,4.915296008300781
5926268335810,2.038750416,1,-2.440888592529297,6.776787799072265,4.96677134399414
5926272335550,2.042750156,1,-2.427720483398437,6.858190655517578,5.157110375976562
5926276334925,2.046749531,1,-2.2948422912597657,6.865373260498046,5.412092852783203
5926280334873,2.050749479,1,-2.2972364929199216,6.92043989868164,5.500678314208984
5926284334664,2.05474927,1,-2.1631611999511717,6.927622503662109,5.716156463623046
5926288337112,2.058751718,1,-2.072181536865234,6.9731123352050774,5.802347723388672
5926292336331,2.062750937,1,-2.0171148986816405,7.0090253601074215,5.883750579833984
5926296334821,2.066749427,1,-1.9871873779296874,6.969521032714844,5.9400143188476555
5926300333935,2.070748541,1,-1.9333178405761717,6.9168485961914055,5.9950809570312495
5926304335758,2.074750364,1,-1.9572598571777342,6.894103680419922,6.040570788574218
5926308335966,2.078750572,1,-1.9500772521972656,6.78636460571289,6.092046124267577
5926312335289,2.082749895,1,-1.879448303222656,6.739677673339843,6.035782385253906
5926316335758,2.086750364,1,-1.8519149841308593,6.659471917724609,6.09683452758789
5926320335498,2.090750104,1,-1.7609353210449217,6.586448767089843,6.1267620483398435
5926324335289,2.094749895,1,-1.6795324645996093,6.5038488098144525,6.166266375732421
5926328334612,2.098749218,1,-1.5897499023437498,6.411672045898437,6.120776544189453
5926332335237,2.102749843,1,-1.4975731384277342,6.331466290283203,6.099228729248047
5926336335237,2.106749843,1,-1.4125789794921875,6.210559106445312,6.093243225097656
5926340335550,2.110750156,1,-1.3527239379882812,6.177040283203125,6.159083770751953
5926344335914,2.11475052,1,-1.303642803955078,6.065709906005859,6.0884548217773435
5926348334664,2.11874927,1,-1.2294225524902342,5.998672259521484,6.057330200195312
5926352334821,2.122749427,1,-1.2473790649414063,5.855020159912109,5.900509991455078
5926356335498,2.126750104,1,-1.3563152404785155,5.7520694885253905,5.796362219238281
5926360333571,2.130748177,1,-1.370680450439453,5.719747766113281,5.831078143310546
5926364335758,2.134750364,1,-1.3407529296874998,5.6946086486816405,5.719747766113281
5926368335185,2.138749791,1,-1.350329736328125,5.655104321289063,5.655104321289063
5926372334925,2.142749531,1,-1.332373223876953,5.661089825439452,5.693411547851563
5926376335446,2.146750052,1,-1.4030021728515625,5.663484027099609,5.580884069824219
5926380335341,2.150749947,1,-1.4053963745117186,5.7137622619628905,5.560533355712891
5926384335185,2.154749791,1,-1.533486163330078,5.795165118408203,5.4899044067382805
5926388334716,2.158749322,1,-1.6795324645996093,5.855020159912109,5.378574029541015
5926392335810,2.162750416,1,-1.8148048583984373,5.931634613037109,5.268440753173828
5926396335966,2.166750572,1,-2.0171148986816405,6.0142345703124995,5.178658190917968
5926400335185,2.170749791,1,-2.120065570068359,6.074089611816406,5.04338579711914
5926404334196,2.174748802,1,-2.309207501220703,6.2021794006347655,4.9416322265625
5926408334508,2.178749114,1,-2.422932080078125,6.393715533447265,4.863820672607422
5926412334612,2.182749218,1,-2.5809493896484375,6.488286499023437,4.726154077148437
5926416334352,2.186748958,1,-2.7365724975585937,6.624755993652343,4.540603448486328
5926420335654,2.19075026,1,-2.934094134521484,6.785167504882812,4.44962378540039
5926424335289,2.194749895,1,-3.1495722839355467,6.902483386230468,4.358644122314453
5926428333675,2.198748281,1,-3.2716765686035156,7.0461354858398435,4.164713787841797
5926432336956,2.202751562,1,-3.4093431640625,7.212532501220703,4.177881896972656
5926436335029,2.206749635,1,-3.575740179443359,7.4232222473144525,3.9839515624999997
5926440334664,2.21074927,1,-3.640383624267578,7.490259893798828,3.906140008544922
5926444335237,2.214749843,1,-3.853467572021484,7.6470801025390625,3.8570588745117185
5926448335029,2.218749635,1,-3.9791631591796874,7.806294512939453,3.6619314392089843
5926452335237,2.222749843,1,-4.116829754638672,7.884106066894531,3.594893792724609
5926456335654,2.22675026,1,-4.170699291992188,8.051700183105469,3.4261025756835934
5926460333831,2.230748437,1,-4.271255761718749,8.10796392211914,3.3674446350097655
5926464337321,2.234751927,1,-4.320336895751953,8.208520391845703,3.265691064453125
5926468335341,2.238749947,1,-4.317942694091797,8.341398583984375,3.1495722839355467
5926472335185,2.242749791,1,-4.364629626464843,8.483853582763672,3.1316157714843746
5926476334821,2.246749427,1,-4.390965844726562,8.578424548339843,3.1016882507324217
5926480334977,2.250749583,1,-4.5693338684082025,8.628702783203124,3.0071172851562498
5926484335393,2.254749999,1,-4.796783026123046,8.604760766601562,2.931699932861328
5926488335602,2.258750208,1,-4.599261389160156,8.769960681152343,2.8036101440429686
5926492556331,2.262970937,1,-4.5884874816894525,8.646659295654297,2.9975404785156248
5926496374091,2.266788697,1,-4.407725256347656,8.821436016845702,3.0071172851562498
5926500340289,2.270754895,1,-4.420893365478515,8.93156929321289,3.0430303100585934
5926504334768,2.274749374,1,-4.578910675048828,8.84178673095703,2.9077579162597655
5926508332945,2.278747551,1,-4.733336682128906,8.820238916015624,2.849099975585937
5926512333623,2.282748229,1,-4.659116430664063,8.761580975341797,2.7353753967285153
5926516331070,2.286745676,1,-4.653130926513672,8.738836059570312,2.703053674316406
5926520333623,2.290748229,1,-4.483142608642578,8.705317236328124,2.6671406494140624
5926524333883,2.294748489,1,-4.483142608642578,8.696937530517578,2.7066449768066403
5926528336383,2.298750989,1,-4.2688615600585935,8.622717279052734,2.588131994628906
5926532335445,2.302750051,1,-4.16231958618164,8.580818749999999,2.6958710693359373
5926536334612,2.306749218,1,-4.101267443847656,8.420407238769531,2.7066449768066403
5926540333362,2.310747968,1,-3.987542864990234,8.378508709716796,2.6503812377929687
5926544335810,2.314750416,1,-3.915716815185547,8.262389929199218,2.7174188842773437
5926548335029,2.318749635,1,-3.825934252929687,8.097190014648437,2.7198130859375
5926552335498,2.322750104,1,-3.8139632446289062,7.969100225830077,2.722207287597656
5926556335133,2.326749739,1,-3.736151690673828,7.885303167724609,2.7365724975585937
5926560335602,2.330750208,1,-3.6260184143066403,7.7608046813964835,2.96881005859375
5926564335237,2.334749843,1,-3.507505432128906,7.688978631591796,3.047818713378906
5926568334820,2.338749426,1,-3.365050433349609,7.641094598388672,3.208230224609375
5926572335237,2.342749843,1,-3.24294614868164,7.542932330322265,3.39018955078125
5926576335445,2.346750051,1,-3.1280244689941403,7.551312036132812,3.585316986083984
5926580335862,2.350750468,1,-3.068169427490234,7.551312036132812,3.863044378662109
5926584334820,2.354749426,1,-2.93050283203125,7.454346868896484,3.9516298400878904
5926588334456,2.358749062,1,-2.8514941772460936,7.358578802490234,4.106055847167968
5926592335654,2.36275026,1,-2.7736826232910157,7.323862878417969,4.31554849243164
5926596335498,2.366750104,1,-2.7353753967285153,7.242460021972656,4.475960003662109
5926600335185,2.370749791,1,-2.602497204589844,7.219715106201171,4.707000463867187
5926604335341,2.374749947,1,-2.6192566162109374,7.133523846435547,4.867411975097656
5926608332893,2.378747499,1,-2.5474305664062498,7.129932543945312,5.007472772216796
5926612335862,2.382750468,1,-2.4492682983398435,7.0844427124023435,5.146336468505859
5926616335133,2.386749739,1,-2.437297290039062,7.079654309082031,5.329492895507812
5926620335029,2.390749635,1,-2.3451205261230466,7.074865905761718,5.513846423339843
5926624335341,2.394749947,1,-2.310404602050781,7.085639813232421,5.66946953125
5926628335914,2.39875052,1,-2.2182278381347653,7.086836914062499,5.796362219238281
5926632336383,2.402750989,1,-2.050633721923828,7.030573175048827,5.951985327148437
5926636335654,2.40675026,1,-1.9728221679687499,7.012616662597656,6.07768091430664
5926640335133,2.410749739,1,-1.8926164123535154,6.974309436035155,6.263231542968749
5926644335029,2.414749635,1,-1.838746875,6.811503723144531,6.25006343383789
5926648334560,2.418749166,1,-1.7118541870117185,6.787561706542968,6.242880828857421
5926652335133,2.422749739,1,-1.5550339782714844,6.609193682861328,6.236895324707031
5926656335341,2.426749947,1,-1.4640543151855467,6.472724188232421,6.283582257080078
5926660335862,2.430750468,1,-1.4006079711914061,6.355408306884765,6.210559106445312
5926664334508,2.434749114,1,-1.2952630981445312,6.178237384033203,6.210559106445312
5926668335029,2.438749635,1,-1.284489190673828,6.0321910827636716,6.204573602294921
5926672334873,2.442749479,1,-1.16837041015625,5.934028814697265,6.155492468261718
5926676339977,2.446754583,1,-1.1552023010253905,5.838260748291015,6.161477972412109
5926680337268,2.450751874,1,-1.083376251220703,5.686228942871093,6.1626750732421876
5926684334977,2.454749583,1,-1.0666168395996094,5.517437725830078,6.047753393554687
5926688336435,2.458751041,1,-1.159990704345703,5.42645806274414,5.979518646240234
5926692335445,2.462750051,1,-1.2593500732421874,5.31153638305664,5.813121630859374
5926696335341,2.466749947,1,-1.361103643798828,5.200206005859375,5.761646295166015
5926700335810,2.470750416,1,-1.5107412475585937,5.153519073486327,5.662286926269531
5926704335393,2.474749999,1,-1.5538368774414062,5.201403106689453,5.596446380615234
5926708335654,2.47875026,1,-1.6208745239257811,5.2816088623046875,5.5832782714843745
5926712335237,2.482749843,1,-1.7106570861816406,5.377376928710937,5.529408734130859
5926716334091,2.486748697,1,-1.7609353210449217,5.524620330810547,5.463568188476562
5926720336227,2.490750833,1,-1.8423381774902343,5.700594152832031,5.44561167602539
5926724335237,2.494749843,1,-2.2553379638671873,5.773617303466796,5.469553692626953
5926728334872,2.498749478,1,-2.023100402832031,6.190208392333984,5.2433016357421875
5926732335393,2.502749999,1,-2.1679496032714844,6.254851837158203,5.285200164794921
5926736335289,2.506749895,1,-2.2948422912597657,6.321889483642578,5.1140147460937495
5926740335237,2.510749843,1,-2.47081611328125,6.509834313964843,4.862623571777344
5926744334977,2.514749583,1,-2.750937707519531,6.642712506103515,4.6351744140625
5926748332841,2.518747447,1,-2.943670941162109,6.776787799072265,4.505887524414062
5926752335810,2.522750416,1,-3.151966485595703,6.880935571289062,4.346673114013671
5926756335497,2.526750103,1,-3.296815686035156,7.1203557373046875,4.229357232666016
5926760334612,2.530749218,1,-3.3111808959960936,7.329848382568359,4.090493536376953
5926764335237,2.534749843,1,-3.393780853271484,7.540538128662109,4.023455889892578
5926768335289,2.538749895,1,-3.489548919677734,7.727285858154296,3.8474820678710935
5926772335497,2.542750103,1,-3.5865140869140624,7.89727417602539,3.749319799804687
5926776335133,2.546749739,1,-3.7517140014648436,8.117540728759765,3.5817256835937497
5926780334925,2.550749531,1,-3.816357446289062,8.259995727539062,3.535038751220703
5926784335393,2.554749999,1,-3.9276878234863277,8.435969549560546,3.4668040039062498
5926788335654,2.55875026,1,-3.9995138732910154,8.505401397705077,3.3877953491210935
5926792335289,2.562749895,1,-4.076128326416016,8.623914379882812,3.3195606018066406
5926796336435,2.566751041,1,-4.088099334716796,8.728062152099609,3.2549171569824216
5926800335602,2.570750208,1,-4.173093493652344,8.789114294433594,3.1364041748046874
5926804335445,2.574750051,1,-4.224568829345703,8.811859210205078,3.1639374938964844
5926808335341,2.578749947,1,-4.255693450927734,8.798691101074219,3.1076737548828124
5926812335810,2.582750416,1,-4.272452862548828,8.828618621826172,3.019088293457031
5926816336018,2.586750624,1,-4.374206433105469,8.756792572021483,3.001131781005859
5926820335706,2.590750312,1,-4.368220928955078,8.653841900634765,2.9652187561035155
5926824334977,2.594749583,1,-4.420893365478515,8.623914379882812,2.9460651428222655
5926828335341,2.598749947,1,-4.413710760498047,8.461108666992187,2.887407202148437
5926832334612,2.602749218,1,-4.461594793701171,8.298302954101562,2.8119898498535156
5926836335029,2.606749635,1,-4.516661431884765,8.19176098022461,2.6815058593749996
5926840336070,2.610750676,1,-4.574122271728515,8.122329132080077,2.6755203552246094
5926844335081,2.614749687,1,-4.612429498291015,8.044517578125,2.712630480957031
5926848335602,2.618750208,1,-4.593275885009765,7.990648040771484,2.627636322021484
5926852335185,2.622749791,1,-4.672284539794922,7.9858596374511714,2.6886884643554687
5926856334612,2.626749218,1,-4.727351177978515,7.976282830810546,2.7353753967285153
5926860337789,2.630752395,1,-4.594472985839843,8.091204510498047,2.8012159423828122
5926864336070,2.634750676,1,-4.529829541015625,8.154650854492187,3.0621839233398433
5926868335602,2.638750208,1,-4.428075970458984,8.24802471923828,3.189076611328125
5926872335445,2.642750051,1,-4.412513659667969,8.298302954101562,3.2525229553222657
5926876335341,2.646749947,1,-4.435258575439453,8.355763793945313,3.343502618408203
5926880335758,2.650750364,1,-4.320336895751953,8.368931903076172,3.3494881225585935
5926884335706,2.654750312,1,-4.355052819824219,8.346186987304687,3.432088079833984
5926888334925,2.658749531,1,-4.340687609863281,8.348581188964843,3.418919970703125
5926892335393,2.662749999,1,-4.21978042602539,8.335413079833984,3.489548919677734
5926896334716,2.666749322,1,-4.074931225585937,8.300697155761718,3.5613749694824217
5926900335497,2.670750103,1,-4.07971962890625,8.254010223388672,3.593696691894531
5926904335393,2.674749999,1,-3.8989574035644528,8.190563879394531,3.594893792724609
5926908336383,2.678750989,1,-3.784035723876953,8.086416107177733,3.5003228271484375
5926912335550,2.682750156,1,-3.725377783203125,7.9858596374511714,3.5434184570312497
5926916335550,2.686750156,1,-3.6619314392089843,7.848193041992187,3.6727053466796873
5926920335185,2.690749791,1,-3.6571430358886716,7.78235249633789,3.622427111816406
5926924335237,2.694749843,1,-3.5697546752929687,7.704540942382812,3.6008792968749996
5926928335654,2.69875026,1,-3.4249054748535155,7.5716627502441405,3.6547488342285153
5926932335393,2.702749999,1,-3.3578678283691406,7.554903338623046,3.7014357666015623
5926936334560,2.706749166,1,-3.1747114013671873,7.544129431152343,3.8391023620605464
5926940334560,2.710749166,1,-3.009511486816406,7.480683087158202,3.9336733276367184
5926944335185,2.714749791,1,-2.922123126220703,7.444770062255859,4.061763116455078
5926948335602,2.718750208,1,-2.81558115234375,7.41244833984375,4.222174627685547
5926952335445,2.722750051,1,-2.7365724975585937,7.301117962646484,4.33470210571289
5926956336227,2.726750833,1,-2.653972540283203,7.206546997070312,4.519055633544921
5926960334768,2.730749374,1,-2.578555187988281,7.098807922363281,4.5693338684082025
5926964335445,2.734750051,1,-2.450465399169922,7.079654309082031,4.689043951416015
5926968335602,2.738750208,1,-2.299630694580078,7.105990527343749,4.819527941894531
5926972333102,2.742747708,1,-2.1583727966308595,7.058106494140625,4.938040924072265
5926976336018,2.746750624,1,-2.0925322509765625,7.018602166748046,5.098452435302734
5926980335654,2.75075026,1,-1.887828009033203,7.043741284179687,5.285200164794921
5926984336018,2.754750624,1,-1.782483135986328,6.9898717468261715,5.414487054443359
5926988334872,2.758749478,1,-1.5801730957031248,6.9527616210937495,5.540182641601562
5926992335237,2.762749843,1,-1.4305354919433593,6.922834100341796,5.705382556152343
5926996334612,2.766749218,1,-1.3730746520996093,6.800729815673828,5.821501336669922
5927000334872,2.770749478,1,-1.3168109130859373,6.713341455078124,5.835866546630859
5927004334716,2.774749322,1,-1.22583125,6.5589154479980465,5.883750579833984
5927008335341,2.778749947,1,-1.2054805358886718,6.399701037597656,5.9950809570312495
5927012335497,2.782750103,1,-1.209071838378906,6.229712719726562,5.969941839599609
5927016335237,2.786749843,1,-1.159990704345703,6.113593939208984,6.028599780273437
5927020334924,2.79074953,1,-1.045069024658203,6.02022007446289,6.112396838378906
5927024335862,2.794750468,1,-0.9504980590820312,5.890933184814453,6.0716954101562495
5927028335966,2.798750572,1,-0.9301473449707031,5.834669445800781,6.1267620483398435
5927032335029,2.802749635,1,-0.9193734375,5.7317187744140625,6.185419989013671
5927036335081,2.806749687,1,-0.9516951599121093,5.617994195556641,6.217741711425781
5927040335393,2.810749999,1,-0.949300958251953,5.560533355712891,6.25006343383789
5927044335393,2.814749999,1,-1.0103531005859374,5.574898565673828,6.257246038818359
5927048335081,2.818749687,1,-1.0462661254882812,5.5449710449218745,6.295553265380859
5927052335289,2.822749895,1,-1.0223241088867188,5.578489868164062,6.287173559570312
5927056334977,2.826749583,1,-1.01514150390625,5.591657977294922,6.420051751708984
5927060339299,2.830753905,1,-1.0295067138671874,5.616797094726562,6.499060406494141
5927064337945,2.834752551,1,-1.1180921752929687,5.662286926269531,6.518214019775391
5927068335445,2.838750051,1,-1.1695675109863282,5.681440539550781,6.300341668701171
5927072335081,2.842749687,1,-1.3168109130859373,5.627571002197265,6.337451794433593
5927076334872,2.846749478,1,-1.5011644409179687,5.590460876464843,6.26921704711914
5927080335549,2.850750155,1,-1.6543933471679686,5.622782598876952,5.966350537109375
5927084335237,2.854749843,1,-1.7573440185546874,5.652710119628906,5.857414361572265
5927088335862,2.858750468,1,-1.8926164123535154,5.738901379394531,5.674257934570313
5927092334924,2.86274953,1,-1.9847931762695312,5.846640454101562,5.6754550354003905
5927096335445,2.866750051,1,-2.043451116943359,6.028599780273437,5.540182641601562
5927100335654,2.87075026,1,-2.0733786376953125,6.240486627197265,5.403713146972656
5927104333466,2.874748072,1,-2.184709014892578,6.368576416015625,5.352237811279297
5927108336591,2.878751197,1,-2.242169854736328,6.518214019775391,5.149927770996094
5927112334508,2.882749114,1,-2.3223756103515623,6.698976245117187,4.945223529052734
5927116335497,2.886750103,1,-2.4444798950195312,6.886921075439453,4.882974285888672
5927120334820,2.890749426,1,-2.501940734863281,7.0269818725585935,4.6651019348144525
5927124334247,2.894748853,1,-2.5809493896484375,7.114370233154297,4.474762902832031
5927128335185,2.898749791,1,-2.5725696838378904,7.285555651855469,4.406528155517578
5927132335445,2.902750051,1,-2.6683377502441403,7.4591352722167965,4.316745593261719
5927136335393,2.906749999,1,-2.7281927917480466,7.568071447753906,4.217386224365234
5927140335601,2.910750207,1,-2.855085479736328,7.669825018310546,4.033032696533203
5927144334508,2.914749114,1,-2.8981811096191405,7.693767034912109,3.891774798583984
5927148335810,2.918750416,1,-3.0597897216796874,7.726088757324218,3.707421270751953
5927152335029,2.922749635,1,-3.2237925354003902,7.809885815429687,3.632003918457031
5927156334820,2.926749426,1,-3.4488474914550777,7.787140899658203,3.469198205566406
5927160335393,2.930749999,1,-3.5027170288085934,7.886500268554687,3.3710359375
5927164335445,2.934750051,1,-3.778050219726562,7.95473501586914,3.246537451171875
5927168335914,2.93875052,1,-3.7984009338378906,8.016984259033203,3.1495722839355467
5927172335654,2.94275026,1,-3.9312791259765625,8.057685687255859,3.190273712158203
5927176335237,2.946749843,1,-4.035426898193359,8.020575561523437,3.104082452392578
5927180335341,2.950749947,1,-4.131194964599609,8.169016064453125,3.1926679138183593
5927184335029,2.954749635,1,-4.1946413085937495,8.252813122558594,3.1639374938964844
5927188334612,2.958749218,1,-4.2137949218749995,8.270769635009765,3.1100679565429687
5927192334612,2.962749218,1,-4.35385571899414,8.300697155761718,3.1591490905761717
5927196335081,2.966749687,1,-4.396951348876953,8.365340600585936,3.210624426269531
5927200334456,2.970749062,1,-4.6459483215332025,8.339004382324218,3.124433166503906
5927204335445,2.974750051,1,-4.712985968017578,8.390479718017577,3.076549133300781
5927208335029,2.978749635,1,-4.976348150634766,8.360552197265624,3.0980969482421874
5927212335081,2.982749687,1,-5.110423443603516,8.336610180664062,3.0609868225097654
5927216335185,2.986749791,1,-5.194220501708984,8.359355096435547,3.027467999267578
5927220335341,2.990749947,1,-5.309142181396484,8.361749298095702,2.9951462768554684
5927224335237,2.994749843,1,-5.335478399658203,8.406042028808594,2.913743420410156
5927228333258,2.998747864,1,-5.479130499267578,8.441955053710936,2.89219560546875
5927232335966,3.002750572,1,-5.499481213378906,8.398859423828124,2.8012159423828122
5927236335549,3.006750155,1,-5.687426043701172,8.379705810546875,2.7545290100097652
5927240335081,3.010749687,1,-5.793968017578124,8.40843623046875,2.6671406494140624
5927244335758,3.014750364,1,-5.801150622558594,8.437166650390624,2.608482708740234
5927248334612,3.018749218,1,-5.65031591796875,8.615534674072265,2.596511700439453
5927252334924,3.02274953,1,-5.450400079345703,8.736441857910156,2.634818927001953
5927256334456,3.026749062,1,-5.181052392578125,8.999804040527343,2.701856573486328
5927260336435,3.030751041,1,-4.818330841064453,9.13627353515625,2.8000188415527343
5927264335601,3.034750207,1,-4.525041137695312,9.284714038085937,2.8239608581542965
5927268335133,3.038749739,1,-4.1946413085937495,9.381679205322266,2.9364883361816405
5927272334820,3.042749426,1,-3.954024041748047,9.446322650146485,2.9364883361816405
5927276335237,3.046749843,1,-3.7912183288574215,9.363722692871093,2.967612957763672
5927280335341,3.050749947,1,-3.6715082458496093,9.305064752197264,2.906560815429687
5927284335497,3.054750103,1,-3.6379894226074216,9.150638745117186,2.89219560546875
5927288335758,3.058750364,1,-3.4632127014160154,8.840589630126953,2.8526912780761715
5927292335497,3.062750103,1,-3.303998291015625,8.728062152099609,2.825157958984375
5927296335601,3.066750207,1,-3.046621612548828,8.535328918457031,2.9987375793457027
5927300335601,3.070750207,1,-2.882618798828125,8.388085516357421,3.1663316955566403
5927304335914,3.07475052,1,-2.7928362365722657,8.188169677734374,3.295618585205078
5927308335914,3.07875052,1,-2.655169641113281,7.912836486816405,3.479972113037109
5927312335341,3.082749947,1,-2.6144682128906247,7.706935144042968,3.7146038757324216
5927316334976,3.086749582,1,-2.522291448974609,7.445967163085937,3.8857892944335934
5927320335133,3.090749739,1,-2.3726538452148436,7.230489013671875,4.179078997802734
5927324334872,3.094749478,1,-2.291250988769531,7.1023992248535155,4.387374542236328
5927328334612,3.098749218,1,-2.100911956787109,6.9144543945312495,4.6459483215332025
5927332336279,3.102750885,1,-1.9859902770996092,6.714538555908203,4.876988781738281
5927336334924,3.10674953,1,-1.898601916503906,6.625953094482422,5.085284326171875
5927340334508,3.110749114,1,-1.7980454467773437,6.517016918945312,5.425260961914062
5927344334456,3.114749062,1,-1.6077064147949218,6.366182214355469,5.5258174316406246
5927348334872,3.118749478,1,-1.4520833068847656,6.217741711425781,5.777208605957031
5927352333466,3.122748072,1,-1.294065997314453,6.1088055358886715,5.857414361572265
5927356336226,3.126750832,1,-0.9995791931152344,6.008249066162109,6.054935998535156
5927360335862,3.130750468,1,-0.8571241943359375,5.965153436279296,6.312312677001953
5927364335601,3.134750207,1,-0.679953271484375,5.798756420898437,6.467935784912109
5927368334560,3.138749166,1,-0.5758054992675781,5.65031591796875,6.649895111083984
5927372335185,3.142749791,1,-0.5183446594238281,5.579686968994141,6.846219647216796
5927376334768,3.146749374,1,-0.47285482788085936,5.480327600097656,6.9156514953613275
5927380334820,3.150749426,1,-0.5279214660644531,5.343858105468749,7.012616662597656
5927384334872,3.154749478,1,-0.5339069702148437,5.288791467285156,7.096413720703125
5927388334351,3.158748957,1,-0.5734112976074218,5.21576831665039,7.186196282958984
5927392335758,3.162750364,1,-0.584185205078125,5.1894320983886715,7.279570147705078
5927396335341,3.166749947,1,-0.7266402038574218,5.185840795898438,7.4028715332031245
5927400335497,3.170750103,1,-0.7038952880859375,5.209782812499999,7.414842541503906
5927404334508,3.174749114,1,-0.5805939025878906,5.166687182617188,7.50821640625
5927408334560,3.178749166,1,-0.63206923828125,5.116408947753906,7.624335186767578
5927412335133,3.182749739,1,-0.7529764221191406,5.136759661865234,7.535749725341796
5927416336331,3.186750937,1,-0.8200140686035156,5.121197351074218,7.487865692138671
5927420335549,3.190750155,1,-0.8918401184082031,5.069722015380859,7.42441934814453
5927424335549,3.194750155,1,-1.0785878479003905,5.052962603759766,7.277175946044921
5927428335393,3.198749999,1,-1.2880804931640624,5.072116217041016,7.088034014892577
5927432335133,3.202749739,1,-1.4736311218261717,5.067327813720703,6.926425402832031
5927436335601,3.206750207,1,-1.6304513305664061,5.185840795898438,6.743268975830078
5927440335185,3.210749791,1,-1.8327613708496093,5.275623358154297,6.519411120605469
5927444340185,3.214754791,1,-1.917755529785156,5.422866760253906,6.482300994873047
5927448337268,3.218751874,1,-2.0554221252441405,5.572504364013671,6.204573602294921
5927452334456,3.222749062,1,-2.1487959899902345,5.754463690185546,6.011840368652344
5927456335966,3.226750572,1,-2.2756886779785157,5.949591125488281,5.759252093505859
5927460334976,3.230749582,1,-2.4289175842285156,6.121973645019531,5.585672473144531
5927464334976,3.234749582,1,-2.4061726684570313,6.283582257080078,5.354632012939453
5927468335237,3.238749843,1,-2.517503045654297,6.517016918945312,5.092466931152344
5927472335810,3.242750416,1,-2.6479870361328124,6.746860278320312,4.820725042724609
5927476334508,3.246749114,1,-2.8191724548339843,6.904877587890625,4.537012145996093
5927480334768,3.250749374,1,-3.029862200927734,7.01620796508789,4.1575311828613275
5927484331956,3.254746562,1,-3.2345664428710936,7.151480358886718,3.835511059570312
5927488335758,3.258750364,1,-3.4057518615722655,7.296329559326171,3.585316986083984
5927492334716,3.262749322,1,-3.6343981201171873,7.418433843994141,3.381809844970703
5927496335706,3.266750312,1,-3.843890765380859,7.437587457275391,3.1280244689941403
5927500334976,3.270749582,1,-4.107252947998047,7.662642413330078,2.9089550170898435
5927504335028,3.274749634,1,-4.151545678710937,7.899668377685546,2.7150246826171873
5927508334768,3.278749374,1,-4.401739752197265,7.936778503417968,2.655169641113281
5927512334299,3.282748905,1,-4.537012145996093,8.022969763183593,2.464830609130859
5927516334508,3.286749114,1,-4.710591766357422,8.196549383544921,2.242169854736328
5927520336174,3.29075078,1,-4.87100327758789,8.409633331298828,2.099714855957031
5927524335289,3.294749895,1,-5.017049578857422,8.465897070312499,1.9788076721191405
5927528335081,3.298749687,1,-5.116408947753906,8.59278975830078,1.8950106140136718
5927532335549,3.302750155,1,-5.236119030761718,8.763975177001953,1.8806454040527343
5927536335497,3.306750103,1,-5.309142181396484,8.872911352539061,1.7956512451171873
5927540335081,3.310749687,1,-5.367800122070312,9.048885174560546,1.7681179260253905
5927544334195,3.314748801,1,-5.402516046142578,9.191340173339842,1.8076222534179687
5927548335497,3.318750103,1,-5.363011718749999,9.396044415283203,1.8555062866210936
5927552334716,3.322749322,1,-5.482721801757812,9.475053070068359,1.8231845642089843
5927556335185,3.326749791,1,-5.456385583496093,9.706093530273437,2.002749688720703
5927560334299,3.330748905,1,-5.482721801757812,9.85692823486328,2.002749688720703
5927564335341,3.334749947,1,-5.528211633300781,10.079588989257813,2.1906945190429687
5927568334820,3.338749426,1,-5.493495709228515,10.21486138305664,2.251746661376953
5927572334976,3.342749582,1,-5.483918902587891,10.357316381835936,2.384624853515625
5927576335810,3.346750416,1,-5.295974072265625,10.415974322509765,2.522291448974609
5927580335445,3.350750051,1,-5.142745166015625,10.475829364013672,2.5761609863281247
5927584335497,3.354750103,1,-4.917690209960937,10.453084448242187,2.7928362365722657
5927588336226,3.358750832,1,-4.73094248046875,10.377667095947265,2.8730419921875
5927592334351,3.362748957,1,-4.522646936035156,10.174159954833984,2.8886043029785156
5927596335341,3.366749947,1,-4.3454760131835934,9.951499200439452,2.940079638671875
5927600333935,3.370748541,1,-4.146757275390625,9.611522564697266,3.0071172851562498
5927604336122,3.374750728,1,-3.915716815185547,9.31464155883789,3.0406361083984375
5927608335445,3.378750051,1,-3.758896606445312,8.989030133056641,3.0550013183593747
5927612334768,3.382749374,1,-3.547009759521484,8.670601312255858,3.1507693847656246
5927616334768,3.386749374,1,-3.3590649291992185,8.360552197265624,3.2070331237792966
5927620335080,3.390749686,1,-3.1591490905761717,8.005013250732421,3.4715924072265625
5927624334508,3.394749114,1,-2.893392706298828,7.696161236572265,3.6164416076660153
5927628335341,3.398749947,1,-2.5737667846679684,7.410054138183593,3.88818349609375
5927632334872,3.402749478,1,-2.3343466186523436,7.179013677978515,4.04141240234375
5927636334455,3.406749061,1,-2.1260510742187497,6.892906579589844,4.364629626464843
5927640334820,3.410749426,1,-1.9668366638183592,6.694187841796874,4.6459483215332025
5927644334560,3.414749166,1,-1.7908628417968748,6.471527087402343,4.803965631103515
5927648334976,3.418749582,1,-1.6364368347167968,6.23090982055664,5.013458276367187
5927652335237,3.422749843,1,-1.4999673400878906,6.023811376953125,5.2253451232910155
5927656335445,3.426750051,1,-1.4449007019042968,5.834669445800781,5.431246466064453
5927660334976,3.430749582,1,-1.3204022155761719,5.68862314453125,5.700594152832031
5927664334976,3.434749582,1,-1.1923124267578125,5.610811590576172,5.969941839599609
5927668334976,3.438749582,1,-1.0235212097167967,5.475539196777343,6.1650692749023435
5927672335289,3.442749895,1,-0.8714894042968749,5.402516046142578,6.303932971191406
5927676335341,3.446749947,1,-0.7038952880859375,5.327098693847656,6.544550238037109
5927680335393,3.450749999,1,-0.622492431640625,5.240907434082031,6.721721160888672
5927684335549,3.454750155,1,-0.5087678527832031,5.092466931152344,6.781576202392578
5927688335341,3.458749947,1,-0.5494692810058593,4.991910461425781,6.873752966308594
5927692334716,3.462749322,1,-0.6296750366210937,4.8494554626464845,6.90128628540039
5927696334612,3.466749218,1,-0.7649474304199219,4.787206219482422,6.925228302001953
5927700334872,3.470749478,1,-0.8607154968261719,4.680664245605469,7.030573175048827
5927704334612,3.474749218,1,-1.0378864196777342,4.65432802734375,6.950367419433594
5927708335341,3.478749947,1,-1.0414777221679687,4.655525128173828,7.196970190429687
5927712335653,3.482750259,1,-1.218648645019531,4.695029455566406,7.168239770507812
5927716335133,3.486749739,1,-1.3156138122558594,4.748898992919922,7.170633972167968
5927720335393,3.490749999,1,-1.4041992736816404,4.898536596679687,7.105990527343749
5927724335445,3.494750051,1,-1.5610194824218748,4.942829327392578,7.0640919982910155
5927728334195,3.498748801,1,-1.7657237243652342,5.031414788818359,7.182604980468749
5927732334664,3.50274927,1,-1.9656395629882812,5.130774157714844,6.7839704040527335
5927736334768,3.506749374,1,-2.2170307373046874,5.316324786376953,6.642712506103515
5927740333518,3.510748124,1,-2.3247698120117186,5.501875415039062,6.5385647338867185
5927744335497,3.514750103,1,-2.558204473876953,5.588066674804687,6.196193896484375
5927748334299,3.518748905,1,-2.674323254394531,5.718550665283203,6.022614276123046
5927752334924,3.52274953,1,-2.863465185546875,5.935225915527344,5.749675286865234
5927756334612,3.526749218,1,-3.086125939941406,6.081272216796875,5.510255120849609
5927760334820,3.530749426,1,-3.219004132080078,6.25006343383789,5.0182466796875
5927764334924,3.53474953,1,-3.496731524658203,6.499060406494141,4.696226556396484
5927768334508,3.538749114,1,-3.7158009765625,6.718129858398437,4.357447021484375
5927772332528,3.542747134,1,-3.9169139160156248,6.849810949707031,4.094084838867187
5927776336278,3.546750884,1,-4.071339923095703,7.082048510742187,3.726574884033203
5927780335705,3.550750311,1,-4.192247106933594,7.3669585083007805,3.478775012207031
5927784335966,3.554750572,1,-4.41131655883789,7.653065606689452,3.1184476623535153
5927788335237,3.558749843,1,-4.552574456787109,7.8721350585937495,3.049015814208984
5927792334508,3.562749114,1,-4.752490295410156,8.148665350341796,2.7545290100097652
5927796335132,3.566749738,1,-4.94761773071289,8.404844927978516,2.3044190979003907
5927800335289,3.570749895,1,-5.078101721191406,8.607154968261717,2.3810335510253906
5927804335028,3.574749634,1,-5.342661004638671,8.748412866210938,2.1727380065917967
5927808335028,3.578749634,1,-5.306747979736328,9.088389501953124,1.9979612854003905
5927812335341,3.582749947,1,-5.343858105468749,9.313444458007812,2.0278888061523435
5927816334664,3.58674927,1,-5.42047255859375,9.431957440185545,1.9237410339355467
5927820334976,3.590749582,1,-5.4887073059082025,9.676166009521484,1.7764976318359373
5927824410132,3.594824738,1,-5.561730456542969,9.883264453125,1.6268600280761718
5927828359820,3.598774426,1,-5.647921716308593,10.047267266845703,1.7202338928222656
5927832352320,3.602766926,1,-5.708973858642578,10.155006341552733,1.6148890197753905
5927836349612,3.606764218,1,-5.798756420898437,10.290278735351562,1.687912170410156
5927840349820,3.610764426,1,-5.786785412597656,10.50216558227539,1.6508020446777343
5927844349091,3.614763697,1,-5.711368060302734,10.461464154052734,1.715445489501953
5927848348257,3.618762863,1,-5.6203883972167965,10.710461126708983,1.772906329345703
5927852351747,3.622766353,1,-5.485116003417969,10.711658227539061,1.8710685974121093
5927856348466,3.626763072,1,-5.2456958374023435,10.71285532836914,1.908178723144531
5927860348830,3.630763436,1,-5.003881469726562,10.663774194335938,2.0745757385253905
5927864348726,3.634763332,1,-4.752490295410156,10.679336505126953,2.2002713256835937
5927868349299,3.638763905,1,-4.4376527770996095,10.445901843261717,2.3487118286132813
5927872349872,3.642764478,1,-4.2317514343261715,10.366893188476562,2.462436407470703
5927876349664,3.64676427,1,-3.9695863525390624,10.040084661865233,2.529474053955078
5927880348101,3.650762707,1,-3.805583538818359,9.698910925292969,2.586934893798828
5927884348935,3.654763541,1,-3.5134909362792968,9.471461767578125,2.7341782958984373
5927888347893,3.658762499,1,-3.295618585205078,9.02135185546875,2.77727392578125
5927892348362,3.662762968,1,-3.049015814208984,8.470685473632813,2.9185318237304685
5927896350028,3.666764634,1,-2.940079638671875,8.262389929199218,3.1639374938964844
5927900346851,3.670761457,1,-2.7653029174804686,7.783549597167968,3.4739866088867184
5927904350862,3.674765468,1,-2.578555187988281,7.48906279296875,3.7038299682617186
5927908348882,3.678763488,1,-2.3810335510253906,7.157465863037109,4.11802685546875
5927912349507,3.682764113,1,-2.105700360107422,6.871358764648437,4.386177441406249
5927916349351,3.686763957,1,-1.889025109863281,6.5780690612792965,4.752490295410156
5927920348518,3.690763124,1,-1.6843208679199217,6.325480786132812,4.995501763916016
5927924389664,3.69480427,1,-1.5406687683105469,6.227318518066406,5.353434912109375
5927928349976,3.698764582,1,-1.5167267517089842,6.118382342529297,5.755660791015624
5927932348726,3.702763332,1,-1.4065934753417968,5.755660791015624,5.951985327148437
5927936348778,3.706763384,1,-1.3634978454589843,5.579686968994141,6.198588098144531
5927940348935,3.710763541,1,-1.3168109130859373,5.45877978515625,6.509834313964843
5927944349299,3.714763905,1,-1.2102689392089843,5.2816088623046875,6.811503723144531
5927948348205,3.718762811,1,-1.0474632263183594,5.161898779296875,7.013813763427734
5927952348049,3.722762655,1,-0.9576806640625,4.978742352294922,7.301117962646484
5927956348674,3.72676328,1,-0.7793126403808593,4.930858319091796,7.3861121215820305
5927960347841,3.730762447,1,-0.7254431030273437,4.764461303710937,7.545326531982422
5927964348674,3.73476328,1,-0.8068459594726562,4.893748193359374,7.557297540283202
5927968348882,3.738763488,1,-0.8858546142578124,4.517858532714843,7.535749725341796
5927972348310,3.742762916,1,-0.9002198242187499,4.508281726074219,7.694964135742187
5927976348570,3.746763176,1,-0.9145850341796874,4.522646936035156,7.710526446533203
5927980349455,3.750764061,1,-0.8858546142578124,4.477157104492187,7.841010437011718
5927984348674,3.75476328,1,-0.8487444885253905,4.479551306152343,7.812280017089844
5927988349299,3.758763905,1,-0.9157821350097656,4.492719415283203,7.681796026611328
5927992348987,3.762763593,1,-1.045069024658203,4.521449835205078,7.702146740722656
5927996345341,3.766759947,1,-1.197100830078125,4.521449835205078,7.594407666015624
5928000349247,3.770763853,1,-1.4496891052246093,4.661510632324219,7.5142019104003905
5928004349143,3.774763749,1,-1.619677423095703,4.835090252685546,7.301117962646484
5928008348726,3.778763332,1,-1.8543091857910154,4.948814831542968,7.107187628173827
5928012348934,3.78276354,1,-1.9823989746093749,5.130774157714844,6.962338427734375
5928016347893,3.786762499,1,-2.184709014892578,5.365405920410156,6.683413934326172
5928020348570,3.790763176,1,-2.2685060729980466,5.647921716308593,6.526593725585937
5928024387164,3.79480177,1,-2.318784307861328,5.84185205078125,6.1279591491699215
5928028350809,3.798765415,1,-2.4133552734375,6.138733056640625,5.9208607055664055
5928032349455,3.802764061,1,-2.469619012451172,6.320692382812499,5.628768103027343
5928036348257,3.806762863,1,-2.6587609436035153,6.543353137207031,5.3761798278808595
5928040347789,3.810762395,1,-2.6467899353027344,6.806715319824218,5.015852478027344
5928044348987,3.814763593,1,-2.8335376647949215,7.098807922363281,4.8326960510253905
5928048348466,3.818763072,1,-2.9544448486328125,7.287949853515625,4.396951348876953
5928052348882,3.822763488,1,-3.1292215698242187,7.4699091796875,4.179078997802734
5928056348257,3.826762863,1,-3.2501287536621093,7.727285858154296,3.878606689453125
5928060348362,3.830762968,1,-3.3291374084472656,7.967903124999999,3.73495458984375
5928064349195,3.834763801,1,-3.4296938781738278,8.060079888916015,3.421314172363281
5928068349559,3.838764165,1,-3.5685575744628903,8.172607366943359,3.2513258544921873
5928072349351,3.842763957,1,-3.6463691284179687,8.251616021728514,3.2070331237792966
5928076348309,3.846762915,1,-4.005499377441406,8.386888415527343,2.7581203125
5928080348726,3.850763332,1,-4.061763116455078,8.385691314697265,2.634818927001953
5928084348205,3.854762811,1,-4.188655804443359,8.389282617187499,2.4564509033203126
5928088348205,3.858762811,1,-4.285620971679688,8.500612994384765,2.233790148925781
5928092348778,3.862763384,1,-4.452017987060547,8.626308581542968,2.039859814453125
5928096346955,3.866761561,1,-4.529829541015625,8.668207110595702,1.9943699829101562
5928100349664,3.87076427,1,-4.647145422363281,8.704120135498046,1.8926164123535154
5928104348362,3.874762968,1,-4.7369279846191406,8.724470849609375,1.8459294799804686
5928108348778,3.878763384,1,-4.848258361816406,8.819041815185546,1.878251202392578
5928112348882,3.882763488,1,-4.859032269287109,8.908824377441405,1.8435352783203125
5928116348414,3.88676302,1,-4.933252520751953,8.999804040527343,1.8040309509277344
5928120347841,3.890762447,1,-4.917690209960937,9.07163009033203,1.878251202392578
5928124385862,3.894800468,1,-5.054159704589844,9.101557611083983,1.9859902770996092
5928128350445,3.898765051,1,-5.046977099609375,9.13627353515625,1.9895815795898437
5928132348674,3.90276328,1,-5.066130712890625,9.18056626586914,2.0458453186035155
5928136348778,3.906763384,1,-5.127182855224609,9.246406811523437,1.9967641845703124
5928140348987,3.910763593,1,-5.200206005859375,9.31464155883789,2.157175695800781
5928144349091,3.914763697,1,-5.287594366455078,9.28351693725586,2.221819140625
5928148349195,3.918763801,1,-5.354632012939453,9.305064752197264,2.2493524597167966
5928152348414,3.92276302,1,-5.322310290527343,9.313444458007812,2.360682836914062
5928156349299,3.926763905,1,-5.353434912109375,9.25718071899414,2.473210314941406
5928160348934,3.93076354,1,-5.256469744873047,9.272743029785156,2.618059515380859
5928164348153,3.934762759,1,-5.194220501708984,9.277531433105468,2.7234043884277344
5928168348362,3.938762968,1,-5.04338579711914,9.149441644287108,2.825157958984375
5928172348309,3.942762915,1,-4.847061260986328,9.068038787841797,2.8886043029785156
5928176348205,3.946762811,1,-4.717774371337891,8.965088116455078,2.9747955627441405
5928180350184,3.95076479,1,-4.458003491210937,8.86812294921875,3.065775225830078
5928184348674,3.95476328,1,-4.3263223999023435,8.708908538818358,3.1495722839355467
5928188347580,3.958762186,1,-4.206612316894531,8.570044842529297,3.3195606018066406
5928192349716,3.962764322,1,-3.8462849670410155,8.341398583984375,3.372233038330078
5928196348257,3.966762863,1,-3.6858734558105466,8.161833459472655,3.4165257690429685
5928200348205,3.970762811,1,-3.554192364501953,7.97388862915039,3.4823663146972654
5928204348570,3.974763176,1,-3.314772198486328,7.740453967285156,3.6727053466796873
5928208348101,3.978762707,1,-3.1926679138183593,7.578845355224609,3.8666356811523435
5928212354716,3.982769322,1,-3.0310593017578125,7.392097625732421,3.891774798583984
5928216352945,3.986767551,1,-2.8850130004882812,7.254431030273437,4.121618157958984
5928220350393,3.990764999,1,-2.7377695983886716,7.034164477539062,4.2497079467773435
5928224349247,3.994763853,1,-2.5139117431640625,6.9719152343749995,4.4184991638183595
5928228349612,3.998764218,1,-2.3678654418945313,6.807912420654296,4.586093280029297
5928232348570,4.002763176,1,-2.2074539306640624,6.681019732666015,4.876988781738281
5928236348518,4.006763124,1,-2.033874310302734,6.609193682861328,4.932055419921875
5928240349247,4.010763853,1,-1.8758570007324218,6.513425616455078,5.2085857116699215
5928244348934,4.01476354,1,-1.7908628417968748,6.388927130126953,5.459976885986328
5928248347893,4.018762499,1,-1.5418658691406248,6.247669232177734,5.494692810058593
5928252346434,4.02276104,1,-1.5933412048339843,6.1830257873535155,5.629965203857422
5928256349351,4.026763957,1,-1.5322890624999999,6.076483813476562,5.913678100585937
5928260348414,4.03076302,1,-1.3778630554199218,5.916072302246094,5.998672259521484
5928264343882,4.034758488,1,-1.1611878051757811,5.862202764892578,6.112396838378906
5928268350653,4.038765259,1,-1.1911153259277343,5.6958057495117185,6.285976458740234
5928272348570,4.042763176,1,-0.9804255798339843,5.6586956237792965,6.410474945068359
5928276348518,4.046763124,1,-1.0390835205078124,5.523423229980469,6.441599566650391
5928280349299,4.050763905,1,-0.9732429748535155,5.456385583496093,6.617573388671874
5928284348986,4.054763592,1,-1.0103531005859374,5.397727642822265,6.68461103515625
5928288352320,4.058766926,1,-0.9504980590820312,5.361814617919921,6.725312463378906
5928292349716,4.062764322,1,-1.1635820068359375,5.250484240722656,6.846219647216796
5928296347945,4.066762551,1,-1.1420341918945311,5.289988568115234,6.830657336425781
5928300349403,4.070764009,1,-1.1097124694824219,5.270834954833984,6.969521032714844
5928304348986,4.074763592,1,-1.0881646545410155,5.289988568115234,7.034164477539062
5928308348830,4.078763436,1,-1.370680450439453,5.353434912109375,7.050923889160156
5928312348622,4.082763228,1,-1.3527239379882812,5.433640667724609,6.955155822753905
5928316347164,4.08676177,1,-1.4018050720214843,5.432443566894531,6.965929730224609
5928320349611,4.090764217,1,-1.7381904052734374,5.491101507568359,6.921636999511718
5928324348934,4.09476354,1,-1.897404815673828,5.6586956237792965,6.720524060058593
5928328350341,4.098764947,1,-2.005143890380859,5.738901379394531,6.749254479980468
5928332349559,4.102764165,1,-2.2445640563964844,5.968744738769531,6.667851623535156
5928336348414,4.10676302,1,-2.270900274658203,6.0716954101562495,6.5505357421875
5928340349091,4.110763697,1,-2.3714567443847656,6.193799694824218,6.381744525146484
5928344346278,4.114760884,1,-2.5905261962890624,6.361393811035156,6.1279591491699215
5928348350809,4.118765415,1,-2.6300305236816404,6.376956121826171,5.91846650390625
5928352350861,4.122765467,1,-2.8036101440429686,6.4667386840820305,5.616797094726562
5928356350445,4.126765051,1,-3.1471780822753903,6.6139820861816405,5.328295794677734
5928360348830,4.130763436,1,-3.247734552001953,6.762422589111328,4.990713360595703
5928364349507,4.134764113,1,-3.4715924072265625,6.873752966308594,4.686649749755859
5928368348674,4.13876328,1,-3.494337322998047,6.947973217773437,4.320336895751953
5928372349507,4.142764113,1,-3.6080619018554687,7.03536157836914,3.9839515624999997
5928376348778,4.146763384,1,-3.755305303955078,7.020996368408203,3.7193922790527343
5928380348622,4.150763228,1,-3.881000891113281,7.146691955566406,3.366247534179687
5928384349559,4.154764165,1,-3.9911341674804683,7.278373046874999,3.1112650573730467
5928388348414,4.15876302,1,-4.040215301513672,7.411251239013671,2.855085479736328
5928392348466,4.162763072,1,-4.165910888671875,7.5537062377929685,2.6396073303222654
5928396348674,4.16676328,1,-4.309562988281249,7.655459808349609,2.424129180908203
5928400347945,4.170762551,1,-4.453215087890625,7.807491613769531,2.2924480895996093
5928404348726,4.174763332,1,-4.672284539794922,7.785943798828124,2.1607669982910154
5928408349507,4.178764113,1,-4.723759875488281,8.095992913818359,1.7980454467773437
5928412348049,4.182762655,1,-4.981136553955078,8.258798626708984,1.8375497741699218
5928416350080,4.186764686,1,-5.0769046203613275,8.354566693115235,1.7705121276855467
5928420349403,4.190764009,1,-5.1319712585449215,8.453926062011718,1.68551796875
5928424348674,4.19476328,1,-5.222950921630859,8.754398370361328,1.5203180541992187
5928428350393,4.198764999,1,-5.306747979736328,8.898050469970702,1.4784195251464842
5928432349611,4.202764217,1,-5.238513232421875,9.09198080444336,1.4808137268066406
5928436350028,4.206764634,1,-5.249287139892578,9.288305340576171,1.6436194396972654
5928440348674,4.21076328,1,-5.165490081787109,9.510966094970703,1.5322890624999999
5928444348622,4.214763228,1,-5.069722015380859,9.686939916992188,1.608903515625
5928448349351,4.218763957,1,-5.014655377197266,9.865307940673828,1.7381904052734374
5928452348466,4.222763072,1,-4.903325,9.967061511230469,1.8088193542480469
5928456348205,4.226762811,1,-4.817133740234374,10.084377392578125,1.9512743530273435
5928460348205,4.230762811,1,-4.727351177978515,10.13824692993164,1.9584569580078124
5928464349403,4.234764009,1,-4.6651019348144525,10.095151300048828,2.1021090576171875
5928468347788,4.238762394,1,-4.487931011962891,10.110713610839843,2.2493524597167966
5928472348413,4.242763019,1,-4.350264416503906,10.135852728271484,2.3738509460449215
5928476346799,4.246761405,1,-4.37300933227539,9.919177478027343,2.583343591308594
5928480350966,4.250765572,1,-4.090493536376953,9.777919580078125,2.6874913635253903
5928484350080,4.254764686,1,-3.944447235107422,9.624690673828125,2.901772412109375
5928488349247,4.258763853,1,-3.749319799804687,9.379285003662108,3.0526071166992184
5928492349143,4.262763749,1,-3.6727053466796873,9.141061938476563,3.3171664001464842
5928496348257,4.266762863,1,-3.465606903076172,8.888473663330078,3.4632127014160154
5928500349351,4.270763957,1,-3.4069489624023435,8.60595786743164,3.6379894226074216
5928504349247,4.274763853,1,-3.3123779968261715,8.2743609375,3.9145197143554684
5928508345132,4.278759738,1,-3.1783027038574216,7.951143713378905,4.122815258789062
5928512350080,4.282764686,1,-3.0142998901367184,7.682993127441406,4.383783239746093
5928516348986,4.286763592,1,-2.858676782226562,7.511807708740234,4.560954162597656
5928520348882,4.290763488,1,-2.618059515380859,7.285555651855469,4.917690209960937
5928524348205,4.294762811,1,-2.370259643554687,7.067683300781249,5.232527728271484
5928528349455,4.298764061,1,-2.24097275390625,6.829460235595703,5.476736297607421
5928532350288,4.302764894,1,-2.0171148986816405,6.582857464599609,5.655104321289063
5928536348309,4.306762915,1,-1.839943975830078,6.400898138427734,5.864596966552734
5928540348570,4.310763176,1,-1.638831036376953,6.121973645019531,6.1626750732421876
5928544349403,4.314764009,1,-1.4820108276367188,5.923254907226562,6.216544610595703
5928548348101,4.318762707,1,-1.35990654296875,5.766434698486328,6.351817004394531
5928552348830,4.322763436,1,-1.149216796875,5.548562347412109,6.549338641357421
5928556348882,4.326763488,1,-1.1444283935546875,5.321113189697265,6.732495068359374
5928560348518,4.330763124,1,-1.0726023437499999,5.0960582336425775,6.798335614013672
5928564348361,4.334762967,1,-0.9696516723632812,5.035006091308594,6.925228302001953
5928568348309,4.338762915,1,-0.8966285217285156,4.905719201660156,7.0640919982910155
5928572349038,4.342763644,1,-0.9636661682128905,4.751293194580078,7.20774409790039
5928576349091,4.346763697,1,-0.86191259765625,4.605246893310547,7.259219433593749
5928580348257,4.350762863,1,-0.9050082275390624,4.574122271728515,7.308300567626953
5928584349247,4.354763853,1,-0.9624690673828125,4.521449835205078,7.3657614074707025
5928588348882,4.358763488,1,-1.1516109985351561,4.492719415283203,7.325059979248047
5928592346851,4.362761457,1,-1.1851298217773436,4.484339709472656,7.255628131103515
5928596349924,4.36676453,1,-1.2952630981445312,4.440046978759765,7.206546997070312
5928600349091,4.370763697,1,-1.3383587280273437,4.537012145996093,7.204152795410156
5928604348518,4.374763124,1,-1.4233528869628906,4.6459483215332025,7.176619476318359
5928608348986,4.378763592,1,-1.456871710205078,4.746504791259765,7.006631158447266
5928612348257,4.382762863,1,-1.5849614990234373,4.843469958496094,6.956352923583984
5928616348986,4.386763592,1,-1.8004396484374998,4.996698864746094,6.773196496582031
5928620348570,4.390763176,1,-1.8734627990722654,5.248090039062499,6.551732843017578
5928624347684,4.39476229,1,-2.009932293701172,5.38815083618164,6.336254693603515
5928628348674,4.39876328,1,-2.1631611999511717,5.590460876464843,6.2009822998046875
5928632349820,4.402764426,1,-2.3451205261230466,5.767631799316406,5.870582470703124
5928636349351,4.406763957,1,-2.4875755249023435,5.968744738769531,5.698199951171874
5928640350132,4.410764738,1,-2.674323254394531,6.226121417236328,5.365405920410156
5928644349247,4.414763853,1,-2.940079638671875,6.476315490722656,5.136759661865234
5928648347841,4.418762447,1,-3.1292215698242187,6.6343328002929685,4.829104748535156
5928652349455,4.422764061,1,-3.2980127868652342,6.884526873779296,4.534617944335937
5928656350028,4.426764634,1,-3.4488474914550777,7.078457208251953,4.2521021484374995
5928660348882,4.430763488,1,-3.5996821960449217,7.319074475097656,4.00909067993164
5928664348049,4.434762655,1,-3.766079211425781,7.538143927001952,3.845087866210937
5928668345236,4.438759842,1,-3.7792473205566406,7.736862664794922,3.527856146240234
5928672350288,4.442764894,1,-3.9181110168457027,7.915230688476562,3.326743206787109
5928676357788,4.446772394,1,-4.132392065429687,8.039729174804688,3.1100679565429687
5928680351486,4.450766092,1,-4.2509050476074215,8.18457837524414,2.789244934082031
5928684348830,4.454763436,1,-4.485536810302734,8.295908752441406,2.7234043884277344
5928688349247,4.458763853,1,-4.782417816162109,8.264784130859374,2.602497204589844
5928692349403,4.462764009,1,-4.811148236083984,8.566453540039062,2.27927998046875
5928696348726,4.466763332,1,-4.92247861328125,8.670601312255858,2.2457611572265623
5928700348830,4.470763436,1,-5.0014872680664055,8.716091143798828,2.1715409057617188
5928704349351,4.474763957,1,-5.1128176452636716,8.881291058349609,2.088940948486328
5928708349820,4.478764426,1,-5.146336468505859,9.069235888671875,1.9800047729492187
5928712348413,4.482763019,1,-5.209782812499999,9.045293872070312,1.887828009033203
5928716349715,4.486764321,1,-5.315127685546875,9.212887988281249,1.8231845642089843
5928720349143,4.490763749,1,-5.365405920410156,9.249998114013671,1.7286135986328124
5928724348726,4.494763332,1,-5.412092852783203,9.358934289550781,1.705868682861328
5928728389976,4.498804582,1,-5.42645806274414,9.419986431884766,1.715445489501953
5928732349768,4.502764374,1,-5.434837768554687,9.51814869995117,1.6615759521484375
5928736348518,4.506763124,1,-5.416881256103515,9.587580548095703,1.7238251953125
5928740348153,4.510762759,1,-5.331887097167969,9.62109937133789,1.7788918334960937
5928744349455,4.514764061,1,-5.280411761474609,9.6917283203125,1.8255787658691405
5928748349403,4.518764009,1,-5.163095880126953,9.719261639404296,1.7956512451171873
5928752349351,4.522763957,1,-5.141548065185547,9.680954412841796,1.898601916503906
5928756348570,4.526763176,1,-4.977545251464844,9.739612353515625,2.000355487060547
5928760349455,4.530764061,1,-4.84586416015625,9.67137760620117,2.069787335205078
5928764346226,4.534760832,1,-4.617217901611328,9.585186346435547,2.2673089721679687
5928768350236,4.538764842,1,-4.4568063903808595,9.514557397460937,2.445676995849609
5928772349038,4.542763644,1,-4.267664459228516,9.431957440185545,2.5809493896484375
5928776349195,4.546763801,1,-4.052186309814453,9.330203869628905,2.730586993408203
5928780348934,4.55076354,1,-3.801992236328125,9.108740216064453,2.8526912780761715
5928784349090,4.554763696,1,-3.6284126159667967,8.904035974121093,3.0131027893066404
5928788348101,4.558762707,1,-3.4763808105468748,8.614337573242187,3.151966485595703
5928792348257,4.562762863,1,-3.294421484375,8.316259466552735,3.1555577880859373
5928796347736,4.566762342,1,-3.1280244689941403,8.057685687255859,3.4201170715332028
5928800351018,4.570765624,1,-2.996343377685547,7.7416510681152335,3.4835634155273434
5928804348986,4.574763592,1,-2.7629087158203123,7.45075556640625,3.6272155151367187
5928808348882,4.578763488,1,-2.549824768066406,7.24605132446289,3.8474820678710935
5928812348309,4.582762915,1,-2.375048046875,7.004236956787109,4.2521021484374995
5928816348153,4.586762759,1,-2.252943762207031,6.764816790771484,4.37300933227539
5928820348570,4.590763176,1,-2.0925322509765625,6.580463262939452,4.680664245605469
5928824348986,4.594763592,1,-1.9524714538574217,6.439205364990234,4.946420629882812
5928828349351,4.598763957,1,-1.7992425476074219,6.263231542968749,5.204994409179688
5928832350080,4.602764686,1,-1.7202338928222656,6.137535955810547,5.462371087646484
5928836348726,4.606763332,1,-1.5789759948730469,6.008249066162109,5.623979699707031
5928840347059,4.610761665,1,-1.438915197753906,5.820304235839844,5.871779571533203
5928844349247,4.614763853,1,-1.3862427612304686,5.743689782714843,6.011840368652344
5928848348309,4.618762915,1,-1.3192051147460937,5.6407391113281244,6.268019946289062
5928852348726,4.622763332,1,-1.2102689392089843,5.572504364013671,6.445190869140625
5928856348830,4.626763436,1,-1.1240776794433593,5.505466717529297,6.593631372070312
5928860349559,4.630764165,1,-1.092953057861328,5.386953735351562,6.823474731445312
5928864349976,4.634764582,1,-1.1288660827636718,5.315127685546875,6.965929730224609
5928868349247,4.638763853,1,-1.1288660827636718,5.272032055664062,7.138312249755859
5928872349038,4.642763644,1,-1.1276689819335937,5.219359619140625,7.220912207031249
5928876349038,4.646763644,1,-1.1695675109863282,5.135562561035156,7.281964349365234
5928880348257,4.650762863,1,-1.24498486328125,5.123591552734375,7.395688928222656
5928884348726,4.654763332,1,-1.4233528869628906,5.046977099609375,7.445967163085937
5928888349976,4.658764582,1,-1.4053963745117186,5.019443780517578,7.432799053955078
5928892349455,4.662764061,1,-1.6124948181152343,5.036203192138672,7.45075556640625
5928896349455,4.666764061,1,-1.7477672119140624,5.0757075195312495,7.392097625732421
5928900349872,4.670764478,1,-1.8926164123535154,5.10084663696289,7.41244833984375
5928904349299,4.674763905,1,-1.93451494140625,5.191826300048827,7.313088970947265
5928908349038,4.678763644,1,-2.086546746826172,5.3390697021484375,7.213729602050781
5928912349403,4.682764009,1,-2.2361843505859373,5.425260961914062,7.170633972167968
5928916348517,4.686763123,1,-2.389413256835937,5.614402893066406,6.938396411132812
5928920348726,4.690763332,1,-2.6300305236816404,5.728127471923828,6.7085530517578125
5928924346955,4.694761561,1,-2.6683377502441403,5.945999822998046,6.570886456298828
5928928352059,4.698766665,1,-2.8479028747558592,6.120776544189453,6.206967803955078
5928932351538,4.702766144,1,-2.940079638671875,6.295553265380859,5.972336041259766
5928936348778,4.706763384,1,-3.0645781249999997,6.4356140625,5.747281085205078
5928940348726,4.710763332,1,-3.1352070739746094,6.654683514404296,5.424063861083984
5928944348465,4.714763071,1,-3.2501287536621093,6.819883428955078,5.1690813842773435
5928948348726,4.718763332,1,-3.4165257690429685,7.060500695800781,4.817133740234374
5928952347684,4.72276229,1,-3.4955344238281247,7.174225274658203,4.526238238525391
5928956348361,4.726762967,1,-3.6523546325683593,7.305906365966797,4.174290594482422
5928960349455,4.730764061,1,-3.8235400512695312,7.377732415771484,3.843890765380859
5928964348257,4.734762863,1,-3.9755718566894527,7.451952667236328,3.412934466552734
5928968348101,4.738762707,1,-4.108450048828125,7.5525091369628905,3.208230224609375
5928972348413,4.742763019,1,-4.27724126586914,7.669825018310546,2.8898014038085935
5928976349507,4.746764113,1,-4.340687609863281,7.752424975585937,2.596511700439453
5928980350080,4.750764686,1,-4.466383197021484,7.85896694946289,2.290053887939453
5928984348674,4.75476328,1,-4.479551306152343,7.875726361083984,2.250549560546875
5928988349351,4.758763957,1,-4.638765716552734,8.05648858642578,2.0733786376953125
5928992349767,4.762764373,1,-4.624400506591797,8.256404425048828,1.7465701110839842
5928996350132,4.766764738,1,-4.741716387939453,8.373720306396484,1.619677423095703
5929000349351,4.770763957,1,-4.774038110351563,8.463502868652343,1.4879963317871092
5929004349715,4.774764321,1,-4.859032269287109,8.640673791503906,1.438915197753906
5929008348465,4.778763071,1,-4.829104748535156,8.846575134277343,1.419761584472656
5929012348465,4.782763071,1,-4.817133740234374,9.076418493652342,1.3347674255371094
5929016347892,4.786762498,1,-4.723759875488281,9.252392315673827,1.4688427185058592
5929020346070,4.790760676,1,-4.697423657226563,9.433154541015625,1.495178936767578
5929024350601,4.794765207,1,-4.533420843505859,9.592368951416015,1.4377180969238281
5929028349767,4.798764373,1,-4.572925170898437,9.708487731933593,1.5035586425781249
5929032350028,4.802764634,1,-4.565742565917969,9.811438403320311,1.6998831787109374
5929036349924,4.80676453,1,-4.484339709472656,9.872490545654296,1.7022773803710936
5929040348622,4.810763228,1,-4.50109912109375,9.90122096557617,1.848323681640625
5929044349715,4.814764321,1,-4.428075970458984,9.885658654785155,1.945288848876953
5929048348726,4.818763332,1,-4.308365887451171,9.843760125732421,2.166752502441406
5929052348101,4.822762707,1,-4.2305543334960936,9.746794958496093,2.3068132995605466
5929056349663,4.826764269,1,-4.153939880371094,9.6151138671875,2.4851813232421875
5929060348361,4.830762967,1,-4.037821099853516,9.367313995361327,2.618059515380859
5929064357788,4.834772394,1,-3.8893805969238278,9.248801013183593,2.839523168945312
5929068350861,4.838765467,1,-3.7397429931640622,9.04649097290039,3.0119056884765625
5929072348778,4.842763384,1,-3.649960430908203,8.872911352539061,3.2728736694335936
5929076348778,4.846763384,1,-3.526659045410156,8.59997236328125,3.4332851806640625
5929080350392,4.850764998,1,-3.4356793823242184,8.289923248291014,3.612850305175781
5929084348882,4.854763488,1,-3.3291374084472656,7.9475524108886715,3.872621185302734
5929088345757,4.858760363,1,-3.161543292236328,7.7979148071289055,4.072537023925781
5929092350497,4.862765103,1,-3.068169427490234,7.5345526245117185,4.276044165039062
5929096348778,4.866763384,1,-2.817975354003906,7.295132458496093,4.552574456787109
5929100348778,4.870763384,1,-2.6970681701660153,7.037755780029296,4.8314989501953125
5929104349142,4.874763748,1,-2.567781280517578,6.8785413696289055,5.031414788818359
5929108349090,4.878763696,1,-2.440888592529297,6.64630380859375,5.310339282226562
5929112347892,4.882762498,1,-2.3235727111816407,6.3901242309570305,5.436034869384765
5929116348465,4.886763071,1,-2.214636535644531,6.259640240478515,5.687426043701172
5929120349090,4.890763696,1,-2.070984436035156,6.102820031738281,5.84783755493164
5929124348413,4.894763019,1,-1.9680337646484374,5.925649108886718,5.938817218017578
5929128348882,4.898763488,1,-1.8375497741699218,5.79037671508789,6.100425830078125
5929132353361,4.902767967,1,-1.687912170410156,5.686228942871093,6.252457635498047
5929136352476,4.906767082,1,-1.5885528015136718,5.570110162353515,6.386532928466797
5929140351903,4.910766509,1,-1.5215151550292967,5.463568188476562,6.495469104003906
5929144351122,4.914765728,1,-1.5071499450683592,5.323507391357421,6.580463262939452
5929148352007,4.918766613,1,-1.5885528015136718,5.260061047363281,6.649895111083984
5929152351851,4.922766457,1,-1.6448165405273436,5.155913275146484,6.636727001953124
5929156352632,4.926767238,1,-1.7286135986328124,5.111620544433594,6.573280657958984
5929160350653,4.930765259,1,-1.7381904052734374,5.140350964355468,6.732495068359374
5929164351694,4.9347663,1,-1.7573440185546874,5.154716174316406,6.72890376586914
5929168352215,4.938766821,1,-1.7322049011230467,5.233724829101562,6.768408093261718
5929172352059,4.942766665,1,-1.878251202392578,5.246892938232421,6.781576202392578
5929176350965,4.946765571,1,-1.8638859924316404,5.383362432861328,6.750451580810546
5929180351434,4.95076604,1,-1.9943699829101562,5.444414575195312,6.713341455078124
5929184351694,4.9547663,1,-2.1320365783691404,5.57370146484375,6.637924102783202
5929188351851,4.958766457,1,-2.2601263671875,5.691017346191406,6.487089398193359
5929192351382,4.962765988,1,-2.412158172607422,5.853823059082031,6.303932971191406
5929196352163,4.966766769,1,-2.536656658935547,5.991489654541016,6.167463476562499
5929200351278,4.970765884,1,-2.6898855651855467,6.177040283203125,5.989095452880859
5929204351851,4.974766457,1,-2.8131869506835936,6.417657550048828,5.801150622558594
5929208351278,4.978765884,1,-2.9185318237304685,6.5960255737304685,5.6574985229492185
5929212352372,4.982766978,1,-2.990357873535156,6.7839704040527335,5.384559533691406
5929216352319,4.986766925,1,-3.0933085449218747,6.930016705322266,5.178658190917968
5929220352372,4.990766978,1,-3.142389678955078,7.0640919982910155,4.857835168457031
5929224351434,4.99476604,1,-3.229778039550781,7.206546997070312,4.752490295410156
5929228351486,4.998766092,1,-3.3446997192382812,7.433996154785156,4.4568063903808595
5929232351330,5.002765936,1,-3.506308331298828,7.498639599609374,4.308365887451171
5929236351694,5.0067663,1,-3.6391865234374996,7.613561279296874,4.00310517578125
5929240351382,5.010765988,1,-3.8079777404785156,7.660248211669922,3.72178648071289
5929244351486,5.014766092,1,-3.9133226135253905,7.794323504638672,3.4907460205078125
5929248351486,5.018766092,1,-3.925293621826172,7.799111907958984,3.2704794677734372
5929252351538,5.022766144,1,-4.001908074951172,7.89727417602539,3.0262708984374997
5929256351538,5.026766144,1,-4.1383775695800775,7.908048083496094,2.8191724548339843
5929260352007,5.030766613,1,-4.090493536376953,7.948749511718749,2.5761609863281247
5929264351694,5.0347663,1,-4.242525341796875,7.995436444091796,2.385821954345703
5929268351486,5.038766092,1,-4.247313745117188,8.019378460693359,2.1799206115722654
5929272342997,5.042757603,1,-4.386177441406249,8.0828248046875,2.041056915283203
5929276348309,5.046762915,1,-4.528632440185547,8.0828248046875,1.9871873779296874
5929280352424,5.05076703,1,-4.50109912109375,8.200140686035155,1.8662801940917968
5929284351903,5.054766509,1,-4.431667272949219,8.360552197265624,1.886630908203125
5929288351538,5.058766144,1,-4.376600634765625,8.450334759521484,1.820790362548828
5929292351903,5.062766509,1,-4.364629626464843,8.51018980102539,1.7501614135742187
5929296351642,5.066766248,1,-4.364629626464843,8.610746270751953,1.8076222534179687
5929300352319,5.070766925,1,-4.442441180419921,8.72087954711914,1.7657237243652342
5929304351486,5.074766092,1,-4.412513659667969,8.77115778198242,1.7788918334960937
5929308352059,5.078766665,1,-4.359841223144531,8.833407025146483,1.8614917907714843
5929312352684,5.08276729,1,-4.3622354248046875,8.923189587402343,1.8722656982421875
5929316351955,5.086766561,1,-4.322731097412109,8.993818536376953,1.9381062438964842
5929320352059,5.090766665,1,-4.266467358398438,8.987833032226561,2.1320365783691404
5929324350965,5.094765571,1,-4.14316597290039,8.974664923095702,2.2182278381347653
5929328350184,5.09876479,1,-4.116829754638672,8.93755479736328,2.3044190979003907
5929332367736,5.102782342,1,-4.013879083251953,8.905233074951171,2.5139117431640625
5929336346226,5.106760832,1,-3.9839515624999997,8.845378033447265,2.6048914062499997
5929340352267,5.110766873,1,-3.9360675292968748,8.728062152099609,2.6467899353027344
5929344351694,5.1147663,1,-3.822342950439453,8.583212951660157,2.7712884216308593
5929348351955,5.118766561,1,-3.755305303955078,8.500612994384765,2.978386865234375
5929352350757,5.122765363,1,-3.7289690856933593,8.364143499755858,3.208230224609375
5929356351955,5.126766561,1,-3.621230010986328,8.20971749267578,3.408146063232422
5929360351017,5.130765623,1,-3.484760516357422,8.109161022949218,3.6463691284179687
5929364351226,5.134765832,1,-3.3973721557617185,8.013392956542969,3.867832781982422
5929368351903,5.138766509,1,-3.2249896362304686,7.879317663574218,4.185064501953125
5929372352163,5.142766769,1,-3.1447838806152344,7.728482958984374,4.3071687866210935
5929376352371,5.146766977,1,-3.142389678955078,7.560888842773437,4.509478826904297
5929380352736,5.150767342,1,-3.095702746582031,7.456741070556641,4.69263525390625
5929384351903,5.154766509,1,-3.0801404357910154,7.250839727783203,4.848258361816406
5929388348726,5.158763332,1,-2.931699932861328,7.13112964477539,5.04338579711914
5929392351746,5.162766352,1,-2.9376854370117185,7.022193469238281,5.204994409179688
5929396353049,5.166767655,1,-2.788047833251953,6.922834100341796,5.354632012939453
5929400351851,5.170766457,1,-2.6755203552246094,6.870161663818359,5.4887073059082025
5929404351382,5.174765988,1,-2.503137835693359,6.750451580810546,5.644330413818359
5929408351017,5.178765623,1,-2.3642741394042965,6.713341455078124,5.894524487304687
5929412351746,5.182766352,1,-2.2541408630371094,6.580463262939452,5.9974751586914055
5929416351278,5.186765884,1,-2.0937293518066404,6.518214019775391,6.177040283203125
5929420351746,5.190766352,1,-1.9141642272949217,6.4739212890625,6.119579443359375
5929424351278,5.194765884,1,-1.8004396484374998,6.312312677001953,6.247669232177734
5929428351851,5.198766457,1,-1.7776947326660155,6.214150408935547,6.25006343383789
5929432351174,5.20276578,1,-1.695094775390625,6.074089611816406,6.349422802734375
5929436353153,5.206767759,1,-1.637633935546875,6.0321910827636716,6.385335827636719
5929440351382,5.210765988,1,-1.533486163330078,5.966350537109375,6.551732843017578
5929444351799,5.214766405,1,-1.455674609375,5.887341882324218,6.586448767089843
5929448351486,5.218766092,1,-1.4329296936035156,5.894524487304687,6.628347296142578
5929452368257,5.222782863,1,-1.4317325927734375,5.88015927734375,6.701370446777343
5929456365601,5.226780207,1,-1.4832079284667967,5.91846650390625,6.724115362548828
5929460354038,5.230768644,1,-1.350329736328125,5.917269403076172,6.724115362548828
5929464351017,5.234765623,1,-1.369483349609375,5.904101293945312,6.764816790771484
5929468350132,5.238764738,1,-1.5634136840820312,5.816712933349609,6.737283471679687
5929472349871,5.242764477,1,-1.5646107849121094,5.858611462402344,6.56968935546875
5929476348986,5.246763592,1,-1.610100616455078,5.8083332275390624,6.552929943847656
5929480349819,5.250764425,1,-1.6424223388671875,5.747281085205078,6.479906793212891
5929484349090,5.254763696,1,-1.6819266662597656,5.768828900146484,6.436811163330078
5929488348778,5.258763384,1,-1.6771382629394531,5.80953032836914,6.299144567871093
5929492349455,5.262764061,1,-1.7118541870117185,5.792770916748046,6.193799694824218
5929496348465,5.266763071,1,-1.8375497741699218,5.817910034179687,6.081272216796875
5929500344871,5.270759477,1,-1.8411410766601561,5.895721588134765,6.007051965332031
5929504351226,5.274765832,1,-1.916558428955078,5.936423016357422,5.810727429199218
5929508347840,5.278762446,1,-1.9512743530273435,5.989095452880859,5.683834741210937
5929512349507,5.282764113,1,-2.0087351928710935,6.068104107666016,5.4779333984375
5929516348517,5.286763123,1,-2.0362685119628905,6.124367846679687,5.285200164794921
5929520349507,5.290764113,1,-2.032677209472656,6.227318518066406,5.218162518310547
5929524348569,5.294763175,1,-2.0446482177734375,6.278793853759765,5.042188696289062
5929528348465,5.298763071,1,-2.100911956787109,6.4272343566894525,4.900930798339844
5929532344767,5.302759373,1,-2.24097275390625,6.5972226745605465,4.766855505371093
5929536352319,5.306766925,1,-2.4564509033203126,6.639121203613281,4.619612103271484
5929540348674,5.31076328,1,-2.6623522460937497,6.685808135986328,4.448426684570312
5929544348569,5.314763175,1,-2.9568390502929685,6.766013891601562,4.294000677490234
5929548348726,5.318763332,1,-3.2022447204589843,6.823474731445312,4.224568829345703
5929552348621,5.322763227,1,-3.42849677734375,6.8569935546875,3.9803602600097654
5929556348465,5.326763071,1,-3.5996821960449217,6.903680487060546,3.8558617736816405
5929560348361,5.330762967,1,-3.8187516479492185,7.030573175048827,3.6619314392089843
5929564349038,5.334763644,1,-4.025850091552734,7.080851409912109,3.4680011047363277
5929568350236,5.338764842,1,-4.246116644287109,7.163451367187499,3.228580938720703
5929572349298,5.342763904,1,-4.384980340576171,7.222109307861328,3.1100679565429687
5929576349351,5.346763957,1,-4.53940634765625,7.332242584228515,2.9700071594238278
5929580350080,5.350764686,1,-4.65432802734375,7.4794859863281244,2.89219560546875
5929584347371,5.354761977,1,-4.726154077148437,7.68658442993164,2.8335376647949215
5929588350132,5.358764738,1,-4.6351744140625,7.862558251953125,2.7198130859375
5929592349351,5.362763957,1,-4.772841009521484,8.058882788085937,2.674323254394531
5929596348517,5.366763123,1,-4.8314989501953125,8.2743609375,2.8215666564941406
5929600350080,5.370764686,1,-4.712985968017578,8.633491186523438,2.7269956909179687
5929604349246,5.374763852,1,-4.740519287109374,8.78552299194336,2.789244934082031
5929608348830,5.378763436,1,-4.7560815979003905,8.877699755859375,2.8203695556640622
5929612349351,5.382763957,1,-4.693832354736328,9.139864837646483,2.7078420776367187
5929616349559,5.386764165,1,-4.631583111572265,9.267954626464844,2.6767174560546874
5929620350184,5.39076479,1,-4.685452648925781,9.345766180419922,2.683900061035156
5929624349090,5.394763696,1,-4.656722229003906,9.397241516113281,2.626439221191406
5929628348778,5.398763384,1,-4.671087438964843,9.319429962158203,2.558204473876953
5929632349923,5.402764529,1,-4.722562774658203,9.28351693725586,2.4193407775878906
5929636350236,5.406764842,1,-4.856638067626953,9.113528619384764,2.2493524597167966
5929640349663,5.410764269,1,-4.929661218261718,9.03332286376953,2.2445640563964844
5929644350444,5.41476505,1,-4.973953948974609,8.916006982421875,2.1128829650878904
5929648349819,5.418764425,1,-4.981136553955078,8.78432589111328,2.1224597717285154
5929652349246,5.422763852,1,-4.900930798339844,8.763975177001953,2.091335150146484
5929656348413,5.426763019,1,-4.809951135253906,8.702923034667968,2.1990742248535153
5929660349351,5.430763957,1,-4.7010149597167965,8.752004168701172,2.2924480895996093
5929664349767,5.434764373,1,-4.461594793701171,8.736441857910156,2.4875755249023435
5929668348205,5.438762811,1,-4.285620971679688,8.647856396484375,2.588131994628906
5929672348778,5.442763384,1,-4.06655151977539,8.609549169921875,2.6563667419433594
5929676349246,5.446763852,1,-3.948038537597656,8.486247784423828,2.8191724548339843
5929680348830,5.450763436,1,-3.7612908081054686,8.39526812133789,2.9735984619140625
5929684349715,5.454764321,1,-3.689464758300781,8.258798626708984,3.238157745361328
5929688349559,5.458764165,1,-3.5386300537109374,8.055291485595703,3.398569256591797
5929692348569,5.462763175,1,-3.4739866088867184,7.945158209228516,3.5913024902343746
5929696350548,5.466765154,1,-3.4680011047363277,7.735665563964844,3.749319799804687
5929700349142,5.470763748,1,-3.379415643310547,7.544129431152343,3.8558617736816405
5929704349351,5.474763957,1,-3.361459130859375,7.3466077941894525,4.025850091552734
5929708348726,5.478763332,1,-3.324349005126953,7.15028325805664,4.140771771240234
5929712347684,5.48276229,1,-3.265691064453125,6.941987713623046,4.191050006103516
5929716350288,5.486764894,1,-3.239354846191406,6.817489227294922,4.37300933227539
5929720348726,5.490763332,1,-3.189076611328125,6.694187841796874,4.50109912109375
5929724349351,5.494763957,1,-3.2249896362304686,6.5756748596191406,4.57771357421875
5929728350028,5.498764634,1,-3.2130186279296873,6.499060406494141,4.657919329833984
5929732348621,5.502763227,1,-3.172317199707031,6.3973068359375,4.786009118652344
5929736385757,5.506800363,1,-3.2058360229492187,6.3901242309570305,4.905719201660156
5929740350340,5.510764946,1,-3.1794998046874996,6.37815322265625,4.988319158935546
5929744348309,5.514762915,1,-3.1124621582031247,6.3901242309570305,5.124788653564453
5929748350236,5.518764842,1,-3.151966485595703,6.380547424316406,5.25407554321289
5929752349923,5.522764529,1,-3.132812872314453,6.430825659179687,5.310339282226562
5929756348621,5.526763227,1,-3.068169427490234,6.478709692382812,5.346252307128906
5929760349767,5.530764373,1,-3.0597897216796874,6.532579229736328,5.329492895507812
5929764348986,5.534763592,1,-3.068169427490234,6.555324145507812,5.364208819580078
5929768349194,5.5387638,1,-3.0430303100585934,6.6271501953125,5.383362432861328
5929772349038,5.542763644,1,-2.9951462768554684,6.643909606933593,5.374982727050781
5929776349142,5.546763748,1,-2.9472622436523435,6.795941412353515,5.360617517089843
5929780349194,5.5507638,1,-2.901772412109375,6.813897924804687,5.313930584716797
5929784348986,5.554763592,1,-2.855085479736328,6.937199310302734,5.287594366455078
5929788346642,5.558761248,1,-2.7257985900878903,7.038952880859375,5.216965417480468
5929792350548,5.562765154,1,-2.70065947265625,7.086836914062499,5.1882349975585935
5929796349923,5.566764529,1,-2.6970681701660153,7.1586629638671875,5.061342309570312
5929800349090,5.570763696,1,-2.6719290527343746,7.196970190429687,5.015852478027344
5929804349194,5.5747638,1,-2.618059515380859,7.261613635253906,4.885368487548828
5929808348725,5.578763331,1,-2.518700146484375,7.323862878417969,4.891353991699218
5929812348778,5.582763384,1,-2.393004559326172,7.431601953125,4.808754034423828
5929816348517,5.586763123,1,-2.318784307861328,7.390900524902343,4.802768530273437
5929820346955,5.590761561,1,-2.147598889160156,7.351396197509765,4.708197564697265
5929824351017,5.594765623,1,-2.060210528564453,7.378929516601562,4.6255976074218745
5929828349611,5.598764217,1,-2.031480108642578,7.320271575927734,4.604049792480469
5929832347840,5.602762446,1,-1.9572598571777342,7.259219433593749,4.568136767578125
5929836387736,5.606802342,1,-1.8040309509277344,7.163451367187499,4.509478826904297
5929840359090,5.610773696,1,-1.6819266662597656,7.07366880493164,4.538209246826171
5929844351278,5.614765884,1,-1.4772224243164063,7.025784771728516,4.529829541015625
5929848349455,5.618764061,1,-1.39821376953125,6.941987713623046,4.563348364257812
5929852348465,5.622763071,1,-1.1719617126464843,6.8569935546875,4.7010149597167965
5929856349715,5.626764321,1,-1.1168950744628905,6.757634185791015,4.642357019042969
5929860349194,5.6307638,1,-1.0797849487304687,6.602011077880859,4.841075756835937
5929864349507,5.634764113,1,-1.1647791076660157,6.49307490234375,4.873397479248046
5929868348725,5.638763331,1,-1.1791443176269532,6.323086584472656,4.967968444824218
5929872349871,5.642764477,1,-1.1875240234375,6.275202551269531,5.051765502929687
5929876349194,5.6467638,1,-1.3587094421386718,6.100425830078125,5.238513232421875
5929880349455,5.650764061,1,-1.446097802734375,6.106411334228516,5.297171173095703
5929884348725,5.654763331,1,-1.5131354492187499,6.064512805175781,5.475539196777343
5929888349350,5.658763956,1,-1.5873557006835937,6.029796881103516,5.561730456542969
5929892349455,5.662764061,1,-1.7477672119140624,6.0321910827636716,5.699397052001952
5929896349038,5.666763644,1,-1.898601916503906,6.099228729248047,5.737704278564453
5929900350028,5.670764634,1,-2.1344307800292968,5.97592734375,5.819107135009765
5929904348882,5.674763488,1,-2.3259669128417966,5.947196923828125,5.907692596435546
5929908349403,5.678764009,1,-2.440888592529297,5.989095452880859,5.864596966552734
5929912348778,5.682763384,1,-2.567781280517578,5.941211419677734,5.869385369873046
5929916349142,5.686763748,1,-2.636016027832031,5.971138940429687,5.819107135009765
5929920350548,5.690765154,1,-2.7269956909179687,5.984307049560546,5.829881042480468
5929924348830,5.694763436,1,-2.855085479736328,5.955576629638672,5.720944866943359
5929928348569,5.698763175,1,-3.125630267333984,5.907692596435546,5.594052178955078
5929932349403,5.702764009,1,-3.3590649291992185,5.923254907226562,5.374982727050781
5929936349975,5.706764581,1,-3.5721488769531247,5.954379528808594,5.172672686767577
5929940350965,5.710765571,1,-3.7576995056152342,6.030993981933594,4.936843823242187
5929944348986,5.714763592,1,-3.994725469970703,6.1279591491699215,4.710591766357422
5929948345392,5.718759998,1,-4.185064501953125,6.362590911865234,4.4819455078125
5929952350340,5.722764946,1,-4.39216294555664,6.533776330566406,4.234145635986328
5929956348778,5.726763384,1,-4.574122271728515,6.718129858398437,4.004302276611328
5929960348465,5.730763071,1,-4.710591766357422,6.988674645996094,3.7385458923339843
5929964348830,5.734763436,1,-4.7764323120117185,7.256825231933593,3.5098996337890624
5929968349507,5.738764113,1,-4.842272857666015,7.495048297119141,3.2549171569824216
5929972349663,5.742764269,1,-5.014655377197266,7.688978631591796,3.094505645751953
5929976348257,5.746762863,1,-5.088875628662109,7.959523419189453,2.901772412109375
5929980349350,5.750763956,1,-5.193023400878906,8.239645013427733,2.7269956909179687
5929984349871,5.754764477,1,-5.294776971435547,8.499415893554687,2.540247961425781
5929988348882,5.758763488,1,-5.321113189697265,8.761580975341797,2.4157494750976563
5929992349194,5.7627638,1,-5.402516046142578,9.020154754638671,2.3499089294433593
5929996349507,5.766764113,1,-5.4707507934570305,9.30147344970703,2.1918916198730467
5930000349038,5.770763644,1,-5.480327600097656,9.534908111572266,2.1487959899902345
5930004350184,5.77476479,1,-5.586869573974609,9.70369932861328,2.0661960327148434
5930008349038,5.778763644,1,-5.6395420104980465,9.922768780517577,2.0362685119628905
5930012347996,5.782762602,1,-5.547365246582031,10.095151300048828,1.8854338073730468
5930016344507,5.786759113,1,-5.456385583496093,10.229226593017577,1.9333178405761717
5930020346277,5.790760883,1,-5.280411761474609,10.34893667602539,1.9488801513671874
5930024349611,5.794764217,1,-5.0960582336425775,10.437522137451172,1.983596075439453
5930028348725,5.798763331,1,-4.9069163024902345,10.467449658203124,1.9704279663085937
5930032349350,5.802763956,1,-4.605246893310547,10.415974322509765,2.081758343505859
