timestamp_ns,t_s,sensor_id,ax,ay,az
4909413908646,0.059813333,1,0.23822306518554687,1.7334020019531249,-11.17852755126953
4909418867552,0.064772239,1,0.22744915771484372,1.7369933044433592,-11.164162341308593
4909423868802,0.069773489,1,0.2537853759765625,1.7286135986328124,-11.109095703125
4909428872604,0.074777291,1,0.22505495605468748,1.707065783691406,-11.240776794433593
4909433865938,0.079770625,1,0.23702596435546874,1.70467158203125,-11.21683477783203
4909438864792,0.084769479,1,0.20709844360351562,1.7381904052734374,-11.207257971191405
4909443865104,0.089769791,1,0.2501940734863281,1.7334020019531249,-11.220426080322264
4909448865365,0.094770052,1,0.239420166015625,1.7812860351562498,-11.232397088623046
4909453865104,0.099769791,1,0.2920926025390625,1.7393875061035156,-11.152191333007812
4909458863958,0.104768645,1,0.17597382202148437,1.7429788085937499,-11.206060870361327
4909463864271,0.109768958,1,0.26815058593749996,1.7393875061035156,-11.203666668701171
4909468863490,0.114768177,1,0.26216508178710934,1.715445489501953,-11.174936248779296
4909473863542,0.119768229,1,0.23104046020507812,1.7489643127441405,-11.21683477783203
4909478863229,0.124767916,1,0.23343466186523437,1.7178396911621092,-11.190498559570312
4909483863906,0.129768593,1,0.1879448303222656,1.707065783691406,-11.154585534667968
4909488863021,0.134767708,1,0.201112939453125,1.7106570861816406,-11.195286962890624
4909493863698,0.139768385,1,0.22266075439453123,1.7334020019531249,-11.188104357910156
4909498863229,0.144767916,1,0.29927520751953124,1.697488977050781,-11.131840618896483
4909503862656,0.149767343,1,0.21428104858398436,1.7202338928222656,-11.196484063720703
4909508863333,0.15476802,1,0.1975216369628906,1.7417817077636717,-11.213243475341796
4909513862969,0.159767656,1,0.2501940734863281,1.7573440185546874,-11.146205828857422
4909518863281,0.164767968,1,0.22266075439453123,1.7286135986328124,-11.150994232177734
4909523863750,0.169768437,1,0.23223756103515625,1.7812860351562498,-11.148600030517578
4909528863177,0.174767864,1,0.2537853759765625,1.7393875061035156,-11.226411584472656
4909533863229,0.179767916,1,0.22744915771484372,1.7298106994628906,-11.130643518066405
4909538862969,0.184767656,1,0.23343466186523437,1.7693150268554687,-11.212046374511718
4909543863177,0.189767864,1,0.2154781494140625,1.7573440185546874,-11.200075366210937
4909548863594,0.194768281,1,0.1975216369628906,1.7238251953125,-11.18571015625
4909553863281,0.199767968,1,0.2501940734863281,1.7573440185546874,-11.137826123046874
4909558863542,0.204768229,1,0.23104046020507812,1.7465701110839842,-11.244368096923827
4909563861458,0.209766145,1,0.24899697265624998,1.725022296142578,-11.173739147949219
4909568863750,0.214768437,1,0.239420166015625,1.744175909423828,-11.136629022216797
4909573863594,0.219768281,1,0.2154781494140625,1.7166425903320313,-11.173739147949219
4909578863594,0.224768281,1,0.20470424194335937,1.6998831787109374,-11.146205828857422
4909583863490,0.229768177,1,0.239420166015625,1.7118541870117185,-11.259930407714844
4909588863594,0.234768281,1,0.24301146850585936,1.7178396911621092,-11.204863769531249
4909593863698,0.239768385,1,0.20949264526367187,1.7369933044433592,-11.156979736328124
4909598862865,0.244767552,1,0.2214636535644531,1.7106570861816406,-11.213243475341796
4909603864479,0.249769166,1,0.22266075439453123,1.7381904052734374,-11.222820281982422
4909608864010,0.254768697,1,0.24301146850585936,1.7310078002929687,-11.164162341308593
4909613863542,0.259768229,1,0.22864625854492185,1.7010802795410156,-11.197681164550781
4909618863125,0.264767812,1,0.2645592834472656,1.7310078002929687,-11.14022032470703
4909623862865,0.269767552,1,0.24779987182617186,1.7322049011230467,-11.152191333007812
4909628860938,0.274765625,1,0.239420166015625,1.7501614135742187,-11.1474029296875
4909633863750,0.279768437,1,0.24899697265624998,1.6843208679199217,-11.164162341308593
4909638863698,0.284768385,1,0.2442085693359375,1.7705121276855467,-11.194089862060546
4909643863958,0.289768645,1,0.20709844360351562,1.7393875061035156,-11.184513055419922
4909648863438,0.294768125,1,0.16160861206054686,1.7453730102539062,-11.141417425537108
4909653864219,0.299768906,1,0.20949264526367187,1.7130512878417967,-11.159373937988281
4909658863333,0.30476802,1,0.22864625854492185,1.7717092285156248,-11.15338843383789
4909663862760,0.309767447,1,0.23822306518554687,1.7166425903320313,-11.16057103881836
4909668863385,0.314768072,1,0.20470424194335937,1.7465701110839842,-11.21084927368164
4909673862917,0.319767604,1,0.2262520568847656,1.7932570434570312,-11.244368096923827
4909678862500,0.324767187,1,0.2059013427734375,1.7369933044433592,-11.241973895263671
4909683863281,0.329767968,1,0.24061726684570311,1.7094599853515624,-11.182118853759764
4909688862969,0.334767656,1,0.2537853759765625,1.7477672119140624,-11.19887826538086
4909693863229,0.339767916,1,0.19512743530273435,1.7597382202148437,-11.171344946289063
4909698863854,0.344768541,1,0.2501940734863281,1.6927005737304686,-11.189301458740234
4909703864219,0.349768906,1,0.24660277099609373,1.7238251953125,-11.152191333007812
4909708863385,0.354768072,1,0.229843359375,1.7501614135742187,-11.123460913085937
4909713863646,0.359768333,1,0.17956512451171874,1.7681179260253905,-11.214440576171874
4909718863646,0.364768333,1,0.20829554443359374,1.7262193969726563,-11.212046374511718
4909723863333,0.36976802,1,0.2645592834472656,1.7717092285156248,-11.176133349609374
4909728863438,0.374768125,1,0.19991583862304688,1.744175909423828,-11.195286962890624
4909733863490,0.379768177,1,0.2154781494140625,1.7645266235351562,-11.209652172851563
4909738863073,0.38476776,1,0.23582886352539062,1.7130512878417967,-11.235988391113281
4909743862344,0.389767031,1,0.24061726684570311,1.7501614135742187,-11.176133349609374
4909748862708,0.394767395,1,0.19991583862304688,1.7417817077636717,-11.197681164550781
4909753862604,0.399767291,1,0.22266075439453123,1.697488977050781,-11.189301458740234
4909758862865,0.404767552,1,0.23822306518554687,1.7477672119140624,-11.173739147949219
4909763862656,0.409767343,1,0.1640028137207031,1.7214309936523438,-11.241973895263671
4909768860885,0.414765572,1,0.19153613281249998,1.7525556152343749,-11.177330450439452
4909773863177,0.419767864,1,0.229843359375,1.7334020019531249,-11.133037719726563
4909778863594,0.424768281,1,0.1771709228515625,1.7286135986328124,-11.21683477783203
4909783863281,0.429767968,1,0.21308394775390624,1.7094599853515624,-11.246762298583985
4909788862292,0.434766979,1,0.2454056701660156,1.7489643127441405,-11.135431921386719
4909793862969,0.439767656,1,0.3016694091796875,1.7178396911621092,-11.189301458740234
4909798863906,0.444768593,1,0.2059013427734375,1.7082628845214842,-11.173739147949219
4909803863177,0.449767864,1,0.19632453613281248,1.7417817077636717,-11.161768139648437
4909808860104,0.454764791,1,0.2346317626953125,1.734599102783203,-11.234791290283203
4909813862760,0.459767447,1,0.19393033447265623,1.7178396911621092,-11.192892761230468
4909818862812,0.464767499,1,0.17477672119140625,1.7082628845214842,-11.19169566040039
4909823862448,0.469767135,1,0.23822306518554687,1.7513585144042967,-11.192892761230468
4909828862552,0.474767239,1,0.23822306518554687,1.7202338928222656,-11.173739147949219
4909833863906,0.479768593,1,0.27293898925781246,1.7429788085937499,-11.197681164550781
4909838862760,0.484767447,1,0.2262520568847656,1.7357962036132812,-11.274295617675781
4909843863750,0.489768437,1,0.24061726684570311,1.687912170410156,-11.173739147949219
4909848863646,0.494768333,1,0.17477672119140625,1.697488977050781,-11.137826123046874
4909853863125,0.499767812,1,0.2442085693359375,1.6927005737304686,-11.190498559570312
4909858862760,0.504767447,1,0.24061726684570311,1.7262193969726563,-11.130643518066405
4909863862500,0.509767187,1,0.2262520568847656,1.7202338928222656,-11.161768139648437
4909868863125,0.514767812,1,0.20829554443359374,1.6915034729003906,-11.119869610595703
4909873862500,0.519767187,1,0.258573779296875,1.7310078002929687,-11.137826123046874
4909878863021,0.524767708,1,0.22385785522460935,1.7393875061035156,-11.270704315185545
4909883866979,0.529771666,1,0.17477672119140625,1.734599102783203,-11.190498559570312
4909888865885,0.534770572,1,0.21308394775390624,1.7238251953125,-11.204863769531249
4909893863229,0.539767916,1,0.2442085693359375,1.7669208251953124,-11.208455072021483
4909898863125,0.544767812,1,0.2262520568847656,1.6986860778808592,-11.13423482055664
4909903863229,0.549767916,1,0.2693476867675781,1.7417817077636717,-11.192892761230468
4909908863437,0.554768124,1,0.18914193115234373,1.725022296142578,-11.17852755126953
4909913863021,0.559767708,1,0.1927332336425781,1.7118541870117185,-11.251550701904296
4909918861562,0.564766249,1,0.23822306518554687,1.7214309936523438,-11.159373937988281
4909923863281,0.569767968,1,0.21308394775390624,1.7166425903320313,-11.17852755126953
4909928864219,0.574768906,1,0.22744915771484372,1.6675614562988281,-11.246762298583985
4909933863073,0.57976776,1,0.24899697265624998,1.7489643127441405,-11.221623181152344
4909938863385,0.584768072,1,0.23702596435546874,1.7381904052734374,-11.17852755126953
4909943863125,0.589767812,1,0.24779987182617186,1.734599102783203,-11.156979736328124
4909948862917,0.594767604,1,0.23582886352539062,1.7836802368164062,-11.23718549194336
4909953863802,0.599768489,1,0.29089550170898437,1.7477672119140624,-11.148600030517578
4909958863750,0.604768437,1,0.1927332336425781,1.763329522705078,-11.226411584472656
4909963859479,0.609764166,1,0.20709844360351562,1.7597382202148437,-11.238382592773437
4909968863385,0.614768072,1,0.24061726684570311,1.686715069580078,-11.136629022216797
4909973863958,0.619768645,1,0.21787235107421873,1.7369933044433592,-11.117475408935546
4909978863385,0.624768072,1,0.23343466186523437,1.7166425903320313,-11.159373937988281
4909983862917,0.629767604,1,0.19393033447265623,1.7238251953125,-11.136629022216797
4909988863177,0.634767864,1,0.2154781494140625,1.7525556152343749,-11.189301458740234
4909993863177,0.639767864,1,0.25139117431640623,1.7477672119140624,-11.189301458740234
4909998863229,0.644767916,1,0.2549824768066406,1.7453730102539062,-11.15338843383789
4910003863021,0.649767708,1,0.21308394775390624,1.7477672119140624,-11.119869610595703
4910008864375,0.654769062,1,0.25139117431640623,1.6986860778808592,-11.220426080322264
4910013860156,0.659764843,1,0.28371289672851563,1.7669208251953124,-11.179724652099608
4910018861875,0.664766562,1,0.20231004028320312,1.7357962036132812,-11.189301458740234
4910023861458,0.669766145,1,0.1771709228515625,1.7082628845214842,-11.195286962890624
4910028863750,0.674768437,1,0.23582886352539062,1.70467158203125,-11.18571015625
4910033862656,0.679767343,1,0.23343466186523437,1.7417817077636717,-11.128249316406249
4910038861979,0.684766666,1,0.27174188842773433,1.707065783691406,-11.156979736328124
4910043862083,0.68976677,1,0.21787235107421873,1.7489643127441405,-11.219228979492186
4910048863542,0.694768229,1,0.2609679809570312,1.753752716064453,-11.142614526367186
4910053862344,0.699767031,1,0.19871873779296872,1.7286135986328124,-11.19169566040039
4910058861614,0.704766301,1,0.21308394775390624,1.7597382202148437,-11.155782635498046
4910063862292,0.709766979,1,0.2561795776367187,1.7334020019531249,-11.2240173828125
4910068862396,0.714767083,1,0.22026655273437498,1.7549498168945312,-11.17254204711914
4910073862864,0.719767551,1,0.2537853759765625,1.7082628845214842,-11.207257971191405
4910078862500,0.724767187,1,0.23822306518554687,1.7238251953125,-11.166556542968749
4910083862656,0.729767343,1,0.2154781494140625,1.7573440185546874,-11.180921752929686
4910088863594,0.734768281,1,0.19393033447265623,1.744175909423828,-11.142614526367186
4910093862917,0.739767604,1,0.22266075439453123,1.7226280944824217,-11.131840618896483
4910098862917,0.744767604,1,0.24301146850585936,1.7274164978027342,-11.189301458740234
4910103862344,0.749767031,1,0.2537853759765625,1.744175909423828,-11.234791290283203
4910108862604,0.754767291,1,0.2442085693359375,1.70467158203125,-11.190498559570312
4910113861562,0.759766249,1,0.19871873779296872,1.763329522705078,-11.220426080322264
4910118863646,0.764768333,1,0.21188684692382811,1.7214309936523438,-11.186907257080078
4910123862448,0.769767135,1,0.23104046020507812,1.7286135986328124,-11.182118853759764
4910128862969,0.774767656,1,0.24181436767578124,1.7393875061035156,-11.201272467041015
4910133862812,0.779767499,1,0.2166752502441406,1.714248388671875,-11.130643518066405
4910138863437,0.784768124,1,0.19512743530273435,1.7238251953125,-11.164162341308593
4910143861302,0.789765989,1,0.22505495605468748,1.7022773803710936,-11.173739147949219
4910148863958,0.794768645,1,0.2059013427734375,1.7405846069335937,-11.156979736328124
4910153863437,0.799768124,1,0.2346317626953125,1.7022773803710936,-11.200075366210937
4910158863646,0.804768333,1,0.23702596435546874,1.7453730102539062,-11.209652172851563
4910163861667,0.809766354,1,0.239420166015625,1.6938976745605467,-11.186907257080078
4910168862500,0.814767187,1,0.2154781494140625,1.7860744384765623,-11.221623181152344
4910173862969,0.819767656,1,0.18914193115234373,1.734599102783203,-11.165359442138671
4910178864271,0.824768958,1,0.2346317626953125,1.7226280944824217,-11.142614526367186
4910183862969,0.829767656,1,0.239420166015625,1.7465701110839842,-11.200075366210937
4910188863125,0.834767812,1,0.22385785522460935,1.7214309936523438,-11.164162341308593
4910193863489,0.839768176,1,0.22744915771484372,1.7705121276855467,-11.155782635498046
4910198862812,0.844767499,1,0.22385785522460935,1.7585411193847655,-11.150994232177734
4910203861979,0.849766666,1,0.2765302917480469,1.7034744812011717,-11.168950744628905
4910208863073,0.85476776,1,0.23582886352539062,1.7573440185546874,-11.189301458740234
4910213863125,0.859767812,1,0.22864625854492185,1.7393875061035156,-11.235988391113281
4910218862448,0.864767135,1,0.24061726684570311,1.7561469177246092,-11.176133349609374
4910223863021,0.869767708,1,0.25737667846679685,1.6615759521484375,-11.125855114746093
4910228863073,0.87476776,1,0.2214636535644531,1.7609353210449217,-11.128249316406249
4910233862604,0.879767291,1,0.23822306518554687,1.7226280944824217,-11.164162341308593
4910238863021,0.884767708,1,0.20470424194335937,1.7741034301757812,-11.219228979492186
4910243864219,0.889768906,1,0.21308394775390624,1.7597382202148437,-11.148600030517578
4910248863281,0.894767968,1,0.26695348510742184,1.7190367919921874,-11.149797131347656
4910253863750,0.899768437,1,0.2825157958984375,1.7381904052734374,-11.17254204711914
4910258863281,0.904767968,1,0.21787235107421873,1.7525556152343749,-11.156979736328124
4910263862864,0.909767551,1,0.23343466186523437,1.686715069580078,-11.219228979492186
4910268862291,0.914766978,1,0.21188684692382811,1.678335363769531,-11.192892761230468
4910273863177,0.919767864,1,0.201112939453125,1.7274164978027342,-11.204863769531249
4910278863177,0.924767864,1,0.3064578125,1.7369933044433592,-11.213243475341796
4910283862760,0.929767447,1,0.23582886352539062,1.714248388671875,-11.202469567871093
4910288862187,0.934766874,1,0.23822306518554687,1.7286135986328124,-11.227608685302734
4910293862239,0.939766926,1,0.18555062866210936,1.7381904052734374,-11.18571015625
4910298863073,0.94476776,1,0.2753331909179687,1.6903063720703124,-11.159373937988281
4910303862864,0.949767551,1,0.26216508178710934,1.7274164978027342,-11.209652172851563
4910308864687,0.954769374,1,0.239420166015625,1.725022296142578,-11.231199987792968
4910313863958,0.959768645,1,0.24899697265624998,1.7010802795410156,-11.188104357910156
4910318863125,0.964767812,1,0.258573779296875,1.705868682861328,-11.167753643798827
4910323862656,0.969767343,1,0.23343466186523437,1.6627730529785156,-11.161768139648437
4910328862552,0.974767239,1,0.22385785522460935,1.7286135986328124,-11.18571015625
4910333863333,0.97976802,1,0.25737667846679685,1.7106570861816406,-11.196484063720703
4910338863906,0.984768593,1,0.20470424194335937,1.7501614135742187,-11.197681164550781
4910343862916,0.989767603,1,0.2501940734863281,1.707065783691406,-11.194089862060546
4910348863489,0.994768176,1,0.21787235107421873,1.792059942626953,-11.184513055419922
4910353869062,0.999773749,1,0.23104046020507812,1.7657237243652342,-11.167753643798827
4910358864583,1.00476927,1,0.21428104858398436,1.7118541870117185,-11.162965240478515
4910363863489,1.009768176,1,0.21906945190429686,1.7477672119140624,-11.173739147949219
4910368862239,1.014766926,1,0.2753331909179687,1.7357962036132812,-11.1474029296875
4910373863802,1.019768489,1,0.25737667846679685,1.6819266662597656,-11.197681164550781
4910378863177,1.024767864,1,0.23223756103515625,1.7405846069335937,-11.170147845458983
4910383863281,1.029767968,1,0.25258827514648435,1.6675614562988281,-11.2240173828125
4910388863385,1.034768072,1,0.23582886352539062,1.7334020019531249,-11.232397088623046
4910393863854,1.039768541,1,0.19991583862304688,1.7334020019531249,-11.162965240478515
4910398862135,1.044766822,1,0.20949264526367187,1.714248388671875,-11.164162341308593
4910403864427,1.049769114,1,0.25258827514648435,1.734599102783203,-11.150994232177734
4910408863906,1.054768593,1,0.23343466186523437,1.7322049011230467,-11.166556542968749
4910413863073,1.05976776,1,0.181959326171875,1.7417817077636717,-11.183315954589844
4910418862812,1.064767499,1,0.21428104858398436,1.7405846069335937,-11.176133349609374
4910423862604,1.069767291,1,0.24301146850585936,1.707065783691406,-11.161768139648437
4910428862708,1.074767395,1,0.2154781494140625,1.7322049011230467,-11.25514200439453
4910433863437,1.079768124,1,0.22026655273437498,1.734599102783203,-11.17852755126953
4910438862969,1.084767656,1,0.20949264526367187,1.7405846069335937,-11.156979736328124
4910443862656,1.089767343,1,0.25139117431640623,1.7357962036132812,-11.225214483642578
4910448864010,1.094768697,1,0.24779987182617186,1.7178396911621092,-11.238382592773437
4910453863906,1.099768593,1,0.22266075439453123,1.7800889343261719,-11.154585534667968
4910458863698,1.104768385,1,0.22505495605468748,1.7118541870117185,-11.13423482055664
4910463863177,1.109767864,1,0.20709844360351562,1.7812860351562498,-11.124658013916015
4910468863646,1.114768333,1,0.2214636535644531,1.7202338928222656,-11.196484063720703
4910473864062,1.119768749,1,0.26216508178710934,1.7393875061035156,-11.212046374511718
4910478863021,1.124767708,1,0.20350714111328125,1.7166425903320313,-11.21683477783203
4910483862812,1.129767499,1,0.2059013427734375,1.7381904052734374,-11.150994232177734
4910488863333,1.13476802,1,0.2454056701660156,1.7669208251953124,-11.117475408935546
4910493862604,1.139767291,1,0.21308394775390624,1.707065783691406,-11.143811627197264
4910498863489,1.144768176,1,0.28490999755859375,1.7549498168945312,-11.246762298583985
4910503863698,1.149768385,1,0.15562310791015624,1.6938976745605467,-11.201272467041015
4910508862604,1.154767291,1,0.22505495605468748,1.7166425903320313,-11.215637677001952
4910513862343,1.15976703,1,0.22266075439453123,1.7369933044433592,-11.274295617675781
4910518863125,1.164767812,1,0.24181436767578124,1.7621324218749999,-11.208455072021483
4910523863437,1.169768124,1,0.20350714111328125,1.7549498168945312,-11.170147845458983
4910528863489,1.174768176,1,0.22864625854492185,1.7369933044433592,-11.2240173828125
4910533863802,1.179768489,1,0.1879448303222656,1.7130512878417967,-11.18571015625
4910538863333,1.18476802,1,0.20949264526367187,1.7561469177246092,-11.186907257080078
4910543862448,1.189767135,1,0.21906945190429686,1.715445489501953,-11.184513055419922
4910548862708,1.194767395,1,0.19512743530273435,1.705868682861328,-11.13423482055664
4910553860364,1.199765051,1,0.22266075439453123,1.715445489501953,-11.231199987792968
4910558863854,1.204768541,1,0.22026655273437498,1.7202338928222656,-11.177330450439452
4910563863281,1.209767968,1,0.23822306518554687,1.7369933044433592,-11.123460913085937
4910568863854,1.214768541,1,0.24301146850585936,1.7094599853515624,-11.183315954589844
4910573863489,1.219768176,1,0.22385785522460935,1.7561469177246092,-11.14022032470703
4910578863021,1.224767708,1,0.2561795776367187,1.7393875061035156,-11.246762298583985
4910583862760,1.229767447,1,0.18076222534179687,1.7190367919921874,-11.161768139648437
4910588863281,1.234767968,1,0.2262520568847656,1.7501614135742187,-11.174936248779296
4910593863073,1.23976776,1,0.23702596435546874,1.7812860351562498,-11.180921752929686
4910598864531,1.244769218,1,0.21188684692382811,1.7429788085937499,-11.206060870361327
4910603863489,1.249768176,1,0.22505495605468748,1.7334020019531249,-11.165359442138671
4910608863489,1.254768176,1,0.23343466186523437,1.7645266235351562,-11.190498559570312
4910613863125,1.259767812,1,0.1975216369628906,1.734599102783203,-11.131840618896483
4910618862812,1.264767499,1,0.23702596435546874,1.7465701110839842,-11.196484063720703
4910623861979,1.269766666,1,0.2154781494140625,1.7238251953125,-11.186907257080078
4910628864271,1.274768958,1,0.19033903198242186,1.6915034729003906,-11.204863769531249
4910633863125,1.279767812,1,0.28371289672851563,1.7322049011230467,-11.240776794433593
4910638863229,1.284767916,1,0.20949264526367187,1.687912170410156,-11.17254204711914
4910643863177,1.289767864,1,0.19632453613281248,1.7477672119140624,-11.173739147949219
4910648863698,1.294768385,1,0.22864625854492185,1.7669208251953124,-11.168950744628905
4910653862656,1.299767343,1,0.23702596435546874,1.6938976745605467,-11.214440576171874
4910658864791,1.304769478,1,0.21787235107421873,1.7130512878417967,-11.189301458740234
4910663863958,1.309768645,1,0.20231004028320312,1.7238251953125,-11.215637677001952
4910668863125,1.314767812,1,0.20829554443359374,1.7322049011230467,-11.177330450439452
4910673862864,1.319767551,1,0.27174188842773433,1.7310078002929687,-11.195286962890624
4910678863489,1.324768176,1,0.24061726684570311,1.7561469177246092,-11.174936248779296
4910683863437,1.329768124,1,0.20470424194335937,1.7238251953125,-11.227608685302734
4910688863281,1.334767968,1,0.19153613281249998,1.705868682861328,-11.156979736328124
4910693864062,1.339768749,1,0.26336218261718747,1.715445489501953,-11.183315954589844
4910698863541,1.344768228,1,0.229843359375,1.696291876220703,-11.1474029296875
4910703864010,1.349768697,1,0.24779987182617186,1.7334020019531249,-11.192892761230468
4910708862916,1.354767603,1,0.2609679809570312,1.725022296142578,-11.149797131347656
4910713862864,1.359767551,1,0.21308394775390624,1.7717092285156248,-11.203666668701171
4910718862135,1.364766822,1,0.21068974609375,1.725022296142578,-11.200075366210937
4910723863333,1.36976802,1,0.23343466186523437,1.7106570861816406,-11.116278308105468
4910728864427,1.374769114,1,0.19632453613281248,1.7202338928222656,-11.128249316406249
4910733863125,1.379767812,1,0.1927332336425781,1.7381904052734374,-11.233594189453123
4910738863437,1.384768124,1,0.23702596435546874,1.7465701110839842,-11.145008728027342
4910743863020,1.389767707,1,0.23343466186523437,1.7322049011230467,-11.273098516845703
4910748863698,1.394768385,1,0.239420166015625,1.7753005310058592,-11.168950744628905
4910753863229,1.399767916,1,0.2549824768066406,1.7082628845214842,-11.15338843383789
4910758863020,1.404767707,1,0.23343466186523437,1.7597382202148437,-11.16057103881836
4910763862604,1.409767291,1,0.2214636535644531,1.7609353210449217,-11.19887826538086
4910768859062,1.414763749,1,0.26695348510742184,1.7513585144042967,-11.103110198974608
4910773862968,1.419767655,1,0.22864625854492185,1.734599102783203,-11.23000288696289
4910778860781,1.424765468,1,0.21068974609375,1.7417817077636717,-11.146205828857422
4910783863541,1.429768228,1,0.21787235107421873,1.7226280944824217,-11.21084927368164
4910788862812,1.434767499,1,0.2549824768066406,1.7286135986328124,-11.162965240478515
4910793863489,1.439768176,1,0.24301146850585936,1.7226280944824217,-11.190498559570312
4910798863645,1.444768332,1,0.24181436767578124,1.7681179260253905,-11.21084927368164
4910803860781,1.449765468,1,0.18435352783203124,1.7908628417968748,-11.209652172851563
4910808863489,1.454768176,1,0.24061726684570311,1.7405846069335937,-11.167753643798827
4910813864166,1.459768853,1,0.21068974609375,1.7166425903320313,-11.159373937988281
4910818859583,1.46476427,1,0.22864625854492185,1.7274164978027342,-11.220426080322264
4910823867291,1.469771978,1,0.22744915771484372,1.7645266235351562,-11.208455072021483
4910828865260,1.474769947,1,0.1975216369628906,1.7513585144042967,-11.156979736328124
4910833862916,1.479767603,1,0.22026655273437498,1.7166425903320313,-11.197681164550781
4910838862760,1.484767447,1,0.25139117431640623,1.7274164978027342,-11.164162341308593
4910843863489,1.489768176,1,0.19153613281249998,1.678335363769531,-11.167753643798827
4910848863593,1.49476828,1,0.19033903198242186,1.7094599853515624,-11.113884106445312
4910853863281,1.499767968,1,0.24181436767578124,1.715445489501953,-11.161768139648437
4910858863125,1.504767812,1,0.24660277099609373,1.7753005310058592,-11.17852755126953
4910863863645,1.509768332,1,0.23582886352539062,1.7274164978027342,-11.137826123046874
4910868861823,1.51476651,1,0.2262520568847656,1.7310078002929687,-11.186907257080078
4910873863125,1.519767812,1,0.24779987182617186,1.6819266662597656,-11.186907257080078
4910878864323,1.52476901,1,0.21068974609375,1.7166425903320313,-11.194089862060546
4910883863489,1.529768176,1,0.258573779296875,1.7393875061035156,-11.209652172851563
4910888863645,1.534768332,1,0.21906945190429686,1.7334020019531249,-11.207257971191405
4910893863385,1.539768072,1,0.22505495605468748,1.763329522705078,-11.232397088623046
4910898863177,1.544767864,1,0.17956512451171874,1.695094775390625,-11.143811627197264
4910903863489,1.549768176,1,0.26815058593749996,1.7334020019531249,-11.19887826538086
4910908862916,1.554767603,1,0.22505495605468748,1.7094599853515624,-11.280281121826171
4910913864895,1.559769582,1,0.23822306518554687,1.7334020019531249,-11.221623181152344
4910918863854,1.564768541,1,0.20829554443359374,1.7262193969726563,-11.203666668701171
4910923862864,1.569767551,1,0.2501940734863281,1.7453730102539062,-11.173739147949219
4910928863958,1.574768645,1,0.24779987182617186,1.7585411193847655,-11.168950744628905
4910933862864,1.579767551,1,0.26815058593749996,1.7453730102539062,-11.220426080322264
4910938862083,1.58476677,1,0.23343466186523437,1.7022773803710936,-11.234791290283203
4910943861614,1.589766301,1,0.1879448303222656,1.7118541870117185,-11.196484063720703
4910948865052,1.594769739,1,0.21188684692382811,1.7274164978027342,-11.220426080322264
4910953863489,1.599768176,1,0.24779987182617186,1.7286135986328124,-11.310208642578125
4910958863020,1.604767707,1,0.19393033447265623,1.7094599853515624,-11.109095703125
4910963862968,1.609767655,1,0.2932897033691406,1.7800889343261719,-11.03846675415039
4910968863072,1.614767759,1,0.296881005859375,1.7262193969726563,-11.188104357910156
4910973863437,1.619768124,1,0.2609679809570312,1.7549498168945312,-11.282675323486327
4910978861250,1.624765937,1,0.201112939453125,1.7645266235351562,-11.033678350830078
4910983864583,1.62976927,1,0.21428104858398436,1.7573440185546874,-11.319785449218749
4910988862916,1.634767603,1,0.229843359375,1.7202338928222656,-11.039663854980468
4910993862968,1.639767655,1,0.21906945190429686,1.715445489501953,-11.318588348388671
4910998863333,1.64476802,1,0.18914193115234373,1.7262193969726563,-11.17852755126953
4911003863541,1.649768228,1,0.22266075439453123,1.734599102783203,-11.081562384033202
4911008864947,1.654769634,1,0.17836802368164062,1.7369933044433592,-11.219228979492186
4911013863958,1.659768645,1,0.20949264526367187,1.715445489501953,-11.304223138427734
4911018863072,1.664767759,1,0.22744915771484372,1.6915034729003906,-11.184513055419922
4911023862656,1.669767343,1,0.201112939453125,1.7310078002929687,-11.168950744628905
4911028863437,1.674768124,1,0.23343466186523437,1.7669208251953124,-11.152191333007812
4911033863385,1.679768072,1,0.18555062866210936,1.7836802368164062,-11.158176837158203
4911038863437,1.684768124,1,0.20709844360351562,1.753752716064453,-11.1474029296875
4911043863333,1.68976802,1,0.258573779296875,1.744175909423828,-11.075576879882812
4911048860729,1.694765416,1,0.25258827514648435,1.7561469177246092,-11.270704315185545
4911053863177,1.699767864,1,0.2214636535644531,1.7298106994628906,-11.062408770751953
4911058863125,1.704767812,1,0.2549824768066406,1.7645266235351562,-11.219228979492186
4911063862968,1.709767655,1,0.277727392578125,1.714248388671875,-11.188104357910156
4911068862916,1.714767603,1,0.22385785522460935,1.7286135986328124,-11.336544860839844
4911073863593,1.71976828,1,0.23702596435546874,1.7525556152343749,-11.183315954589844
4911078863593,1.72476828,1,0.2154781494140625,1.7166425903320313,-11.189301458740234
4911083862968,1.729767655,1,0.19153613281249998,1.7585411193847655,-11.221623181152344
4911088862812,1.734767499,1,0.24899697265624998,1.792059942626953,-11.227608685302734
4911093862812,1.739767499,1,0.3064578125,1.7202338928222656,-11.179724652099608
4911098862760,1.744767447,1,0.22744915771484372,1.7322049011230467,-11.179724652099608
4911103863489,1.749768176,1,0.229843359375,1.7465701110839842,-11.174936248779296
4911108863229,1.754767916,1,0.23104046020507812,1.7657237243652342,-11.168950744628905
4911113863906,1.759768593,1,0.22026655273437498,1.659181750488281,-11.123460913085937
4911118863124,1.764767811,1,0.23822306518554687,1.7106570861816406,-11.131840618896483
4911123863072,1.769767759,1,0.22385785522460935,1.7657237243652342,-11.167753643798827
4911128863385,1.774768072,1,0.23702596435546874,1.7872715393066405,-11.225214483642578
4911133862239,1.779766926,1,0.1927332336425781,1.7417817077636717,-11.08395658569336
4911138864687,1.784769374,1,0.258573779296875,1.715445489501953,-11.256339105224608
4911143864270,1.789768957,1,0.21308394775390624,1.7657237243652342,-11.189301458740234
4911148863020,1.794767707,1,0.20709844360351562,1.753752716064453,-11.09592759399414
4911153863072,1.799767759,1,0.26815058593749996,1.7405846069335937,-11.167753643798827
4911158863541,1.804768228,1,0.2214636535644531,1.6891092712402342,-11.164162341308593
4911163862499,1.809767186,1,0.23702596435546874,1.7298106994628906,-11.212046374511718
4911168864635,1.814769322,1,0.21428104858398436,1.7022773803710936,-11.222820281982422
4911173863802,1.819768489,1,0.2454056701660156,1.7381904052734374,-11.235988391113281
4911178863333,1.82476802,1,0.23822306518554687,1.7298106994628906,-11.156979736328124
4911183862656,1.829767343,1,0.21068974609375,1.7034744812011717,-11.200075366210937
4911188863645,1.834768332,1,0.24061726684570311,1.7130512878417967,-11.180921752929686
4911193863437,1.839768124,1,0.2442085693359375,1.6927005737304686,-11.183315954589844
4911198863802,1.844768489,1,0.2442085693359375,1.7381904052734374,-11.204863769531249
4911203863541,1.849768228,1,0.2154781494140625,1.7334020019531249,-11.142614526367186
4911208863854,1.854768541,1,0.23223756103515625,1.7238251953125,-11.182118853759764
4911213862968,1.859767655,1,0.22266075439453123,1.734599102783203,-11.203666668701171
4911218862916,1.864767603,1,0.258573779296875,1.7549498168945312,-11.158176837158203
4911223862499,1.869767186,1,0.20231004028320312,1.7597382202148437,-11.155782635498046
4911228863229,1.874767916,1,0.2442085693359375,1.6891092712402342,-11.166556542968749
4911233863281,1.879767968,1,0.1771709228515625,1.7393875061035156,-11.201272467041015
4911238864270,1.884768957,1,0.22744915771484372,1.6938976745605467,-11.189301458740234
4911243863177,1.889767864,1,0.239420166015625,1.707065783691406,-11.204863769531249
4911248863124,1.894767811,1,0.24779987182617186,1.725022296142578,-11.206060870361327
4911253863333,1.89976802,1,0.22026655273437498,1.7405846069335937,-11.232397088623046
4911258862552,1.904767239,1,0.23223756103515625,1.7310078002929687,-11.195286962890624
4911263863333,1.90976802,1,0.23343466186523437,1.7190367919921874,-11.131840618896483
4911268864791,1.914769478,1,0.24181436767578124,1.7549498168945312,-11.235988391113281
4911273863854,1.919768541,1,0.26695348510742184,1.7334020019531249,-11.19887826538086
4911278863854,1.924768541,1,0.1927332336425781,1.7477672119140624,-11.171344946289063
4911283863281,1.929767968,1,0.24899697265624998,1.7405846069335937,-11.200075366210937
4911288864322,1.934769009,1,0.16041151123046873,1.8160019592285155,-11.201272467041015
4911293869479,1.939774166,1,0.29927520751953124,1.5921441040039062,-11.222820281982422
4911298862552,1.944767239,1,0.22026655273437498,1.7681179260253905,-11.286266625976562
4911303864791,1.949769478,1,0.22385785522460935,1.753752716064453,-11.142614526367186
4911308863697,1.954768384,1,0.2501940734863281,1.7513585144042967,-11.139023223876952
4911313863749,1.959768436,1,0.22266075439453123,1.7238251953125,-11.17254204711914
4911318863697,1.964768384,1,0.17956512451171874,1.7357962036132812,-11.165359442138671
4911323863229,1.969767916,1,0.2597708801269531,1.696291876220703,-11.17852755126953
4911328863177,1.974767864,1,0.258573779296875,1.7477672119140624,-11.12226381225586
4911333863385,1.979768072,1,0.277727392578125,1.7585411193847655,-11.184513055419922
4911338863385,1.984768072,1,0.2166752502441406,1.695094775390625,-11.186907257080078
4911343862968,1.989767655,1,0.2454056701660156,1.7214309936523438,-11.188104357910156
4911348862968,1.994767655,1,0.2166752502441406,1.7178396911621092,-11.094730493164063
4911353863437,1.999768124,1,0.239420166015625,1.6998831787109374,-11.221623181152344
4911358863385,2.004768072,1,0.21787235107421873,1.7178396911621092,-11.176133349609374
4911363862551,2.009767238,1,0.20829554443359374,1.7238251953125,-11.197681164550781
4911368863124,2.014767811,1,0.19033903198242186,1.7489643127441405,-11.154585534667968
4911373860520,2.019765207,1,0.24779987182617186,1.7286135986328124,-11.161768139648437
4911378862656,2.024767343,1,0.24660277099609373,1.7094599853515624,-11.145008728027342
4911383864374,2.029769061,1,0.2454056701660156,1.7621324218749999,-11.207257971191405
4911388863176,2.034767863,1,0.239420166015625,1.7561469177246092,-11.200075366210937
4911393863229,2.039767916,1,0.18914193115234373,1.725022296142578,-11.214440576171874
4911398863437,2.044768124,1,0.23223756103515625,1.7357962036132812,-11.182118853759764
4911403863176,2.049767863,1,0.2166752502441406,1.6819266662597656,-11.228805786132812
4911408863437,2.054768124,1,0.24779987182617186,1.7178396911621092,-11.139023223876952
4911413865989,2.059770676,1,0.22864625854492185,1.7465701110839842,-11.182118853759764
4911418865416,2.064770103,1,0.22385785522460935,1.7214309936523438,-11.17254204711914
4911423859739,2.069764426,1,0.2154781494140625,1.7214309936523438,-11.154585534667968
4911428864062,2.074768749,1,0.23582886352539062,1.7405846069335937,-11.225214483642578
4911433863437,2.079768124,1,0.22864625854492185,1.7357962036132812,-11.219228979492186
4911438863229,2.084767916,1,0.19512743530273435,1.7645266235351562,-11.189301458740234
4911443863854,2.089768541,1,0.26216508178710934,1.6747440612792968,-11.202469567871093
4911448863749,2.094768436,1,0.201112939453125,1.744175909423828,-11.110292803955078
4911453863072,2.099767759,1,0.18315642700195311,1.7705121276855467,-11.21084927368164
4911458863020,2.104767707,1,0.18914193115234373,1.7453730102539062,-11.173739147949219
4911463864479,2.109769166,1,0.2537853759765625,1.7561469177246092,-11.142614526367186
4911468863020,2.114767707,1,0.16998831787109375,1.7178396911621092,-11.165359442138671
4911473861926,2.119766613,1,0.22864625854492185,1.7034744812011717,-11.253944903564452
4911478864062,2.124768749,1,0.2741360900878906,1.7334020019531249,-11.17852755126953
4911483863541,2.129768228,1,0.229843359375,1.7501614135742187,-11.186907257080078
4911488864270,2.134768957,1,0.22266075439453123,1.687912170410156,-11.270704315185545
4911493862812,2.139767499,1,0.22864625854492185,1.7190367919921874,-11.239579693603515
4911498863385,2.144768072,1,0.22864625854492185,1.7310078002929687,-11.180921752929686
4911503862239,2.149766926,1,0.20350714111328125,1.7357962036132812,-11.207257971191405
4911508862447,2.154767134,1,0.24779987182617186,1.7214309936523438,-11.194089862060546
4911513862604,2.159767291,1,0.23223756103515625,1.7202338928222656,-11.304223138427734
4911518863541,2.164768228,1,0.22864625854492185,1.7836802368164062,-11.17254204711914
4911523861562,2.169766249,1,0.239420166015625,1.7405846069335937,-11.18571015625
4911528864322,2.174769009,1,0.26336218261718747,1.7166425903320313,-11.164162341308593
4911533863645,2.179768332,1,0.23223756103515625,1.7573440185546874,-11.18571015625
4911538863541,2.184768228,1,0.2442085693359375,1.7118541870117185,-11.200075366210937
4911543863593,2.18976828,1,0.21428104858398436,1.7465701110839842,-11.145008728027342
4911548865051,2.194769738,1,0.23582886352539062,1.715445489501953,-11.196484063720703
4911553863281,2.199767968,1,0.2537853759765625,1.7872715393066405,-11.100715997314452
4911558863489,2.204768176,1,0.19871873779296872,1.7417817077636717,-11.213243475341796
4911563862864,2.209767551,1,0.22026655273437498,1.7298106994628906,-11.118672509765624
4911568862812,2.214767499,1,0.22385785522460935,1.725022296142578,-11.141417425537108
4911573863437,2.219768124,1,0.20231004028320312,1.7513585144042967,-11.213243475341796
4911578862968,2.224767655,1,0.24061726684570311,1.7465701110839842,-11.1474029296875
4911583863020,2.229767707,1,0.258573779296875,1.7130512878417967,-11.212046374511718
4911588862864,2.234767551,1,0.22744915771484372,1.7310078002929687,-11.165359442138671
4911593864270,2.239768957,1,0.20470424194335937,1.7645266235351562,-11.133037719726563
4911598863697,2.244768384,1,0.17956512451171874,1.725022296142578,-11.201272467041015
4911603863645,2.249768332,1,0.21188684692382811,1.7310078002929687,-11.136629022216797
4911608863020,2.254767707,1,0.21068974609375,1.6986860778808592,-11.152191333007812
4911613863645,2.259768332,1,0.19991583862304688,1.7190367919921874,-11.225214483642578
4911618863958,2.264768645,1,0.2442085693359375,1.7106570861816406,-11.215637677001952
4911623862760,2.269767447,1,0.24899697265624998,1.7609353210449217,-11.218031878662108
4911628862916,2.274767603,1,0.24660277099609373,1.7561469177246092,-11.170147845458983
4911633863853,2.27976854,1,0.22864625854492185,1.7573440185546874,-11.207257971191405
4911638863385,2.284768072,1,0.2154781494140625,1.725022296142578,-11.168950744628905
4911643863281,2.289767968,1,0.24181436767578124,1.7525556152343749,-11.15338843383789
4911648865728,2.294770415,1,0.2454056701660156,1.725022296142578,-11.174936248779296
4911653863437,2.299768124,1,0.24061726684570311,1.6891092712402342,-11.18571015625
4911658863489,2.304768176,1,0.22385785522460935,1.7417817077636717,-11.176133349609374
4911663863020,2.309767707,1,0.16639701538085935,1.7334020019531249,-11.234791290283203
4911668863697,2.314768384,1,0.23582886352539062,1.7010802795410156,-11.075576879882812
4911673863749,2.319768436,1,0.20949264526367187,1.7022773803710936,-11.166556542968749
4911678861926,2.324766613,1,0.23822306518554687,1.696291876220703,-11.139023223876952
4911683864583,2.32976927,1,0.24061726684570311,1.7764976318359373,-11.201272467041015
4911688863697,2.334768384,1,0.2454056701660156,1.659181750488281,-11.139023223876952
4911693862864,2.339767551,1,0.20709844360351562,1.7214309936523438,-11.159373937988281
4911698863853,2.34476854,1,0.239420166015625,1.7549498168945312,-11.170147845458983
4911703863437,2.349768124,1,0.18315642700195311,1.649604943847656,-11.127052215576171
4911708862708,2.354767395,1,0.16041151123046873,1.7190367919921874,-11.150994232177734
4911713863437,2.359768124,1,0.22505495605468748,1.7489643127441405,-11.150994232177734
4911718863906,2.364768593,1,0.21068974609375,1.725022296142578,-11.200075366210937
4911723863593,2.36976828,1,0.25139117431640623,1.715445489501953,-11.154585534667968
4911728863020,2.374767707,1,0.23104046020507812,1.7429788085937499,-11.136629022216797
4911733863124,2.379767811,1,0.23582886352539062,1.7262193969726563,-11.152191333007812
4911738863541,2.384768228,1,0.22385785522460935,1.763329522705078,-11.261127508544922
4911743863801,2.389768488,1,0.23343466186523437,1.7202338928222656,-11.15338843383789
4911748863489,2.394768176,1,0.20829554443359374,1.734599102783203,-11.171344946289063
4911753863697,2.399768384,1,0.22385785522460935,1.7082628845214842,-11.215637677001952
4911758862812,2.404767499,1,0.2657563842773437,1.7393875061035156,-11.154585534667968
4911763864010,2.409768697,1,0.201112939453125,1.7286135986328124,-11.146205828857422
4911768863489,2.414768176,1,0.22026655273437498,1.7489643127441405,-11.238382592773437
4911773863385,2.419768072,1,0.20470424194335937,1.7262193969726563,-11.127052215576171
4911778863020,2.424767707,1,0.23223756103515625,1.715445489501953,-11.206060870361327
4911783862968,2.429767655,1,0.19153613281249998,1.7705121276855467,-11.301828936767578
4911788861874,2.434766561,1,0.22026655273437498,1.7298106994628906,-11.109095703125
4911793860364,2.439765051,1,0.2154781494140625,1.7130512878417967,-11.150994232177734
4911798863176,2.444767863,1,0.22505495605468748,1.705868682861328,-11.17254204711914
4911803863801,2.449768488,1,0.20949264526367187,1.7417817077636717,-11.202469567871093
4911808863280,2.454767967,1,0.22385785522460935,1.7190367919921874,-11.161768139648437
4911813863801,2.459768488,1,0.19393033447265623,1.725022296142578,-11.206060870361327
4911818863489,2.464768176,1,0.1771709228515625,1.7525556152343749,-11.196484063720703
4911823863645,2.469768332,1,0.19512743530273435,1.7202338928222656,-11.16057103881836
4911828863645,2.474768332,1,0.20350714111328125,1.7166425903320313,-11.18571015625
4911833863072,2.479767759,1,0.23223756103515625,1.6998831787109374,-11.21084927368164
4911838863176,2.484767863,1,0.21787235107421873,1.7681179260253905,-11.118672509765624
4911843863280,2.489767967,1,0.23343466186523437,1.7166425903320313,-11.214440576171874
4911848863280,2.494767967,1,0.20709844360351562,1.7034744812011717,-11.154585534667968
4911853862655,2.499767342,1,0.2059013427734375,1.7609353210449217,-11.19169566040039
4911858862864,2.504767551,1,0.22385785522460935,1.7226280944824217,-11.17852755126953
4911863862708,2.509767395,1,0.2561795776367187,1.705868682861328,-11.176133349609374
4911868863228,2.514767915,1,0.2645592834472656,1.6831237670898436,-11.195286962890624
4911873863020,2.519767707,1,0.24899697265624998,1.695094775390625,-11.171344946289063
4911878863541,2.524768228,1,0.2597708801269531,1.714248388671875,-11.18571015625
4911883863333,2.52976802,1,0.20949264526367187,1.7202338928222656,-11.158176837158203
4911888867499,2.534772186,1,0.24899697265624998,1.734599102783203,-11.113884106445312
4911893865155,2.539769842,1,0.19871873779296872,1.7034744812011717,-11.111489904785156
4911898863749,2.544768436,1,0.24899697265624998,1.792059942626953,-11.179724652099608
4911903863593,2.54976828,1,0.23702596435546874,1.7286135986328124,-11.159373937988281
4911908863489,2.554768176,1,0.20829554443359374,1.7657237243652342,-11.168950744628905
4911913863593,2.55976828,1,0.2501940734863281,1.7118541870117185,-11.173739147949219
4911918863020,2.564767707,1,0.2166752502441406,1.714248388671875,-11.189301458740234
4911923862760,2.569767447,1,0.20949264526367187,1.6723498596191406,-11.202469567871093
4911928862864,2.574767551,1,0.2645592834472656,1.7693150268554687,-11.206060870361327
4911933865208,2.579769895,1,0.19991583862304688,1.7298106994628906,-11.19887826538086
4911938865885,2.584770572,1,0.18315642700195311,1.7334020019531249,-11.152191333007812
4911943863333,2.58976802,1,0.25139117431640623,1.705868682861328,-11.173739147949219
4911948863437,2.594768124,1,0.2346317626953125,1.7357962036132812,-11.194089862060546
4911953863801,2.599768488,1,0.2753331909179687,1.7369933044433592,-11.123460913085937
4911958863333,2.60476802,1,0.2166752502441406,1.7226280944824217,-11.189301458740234
4911963864010,2.609768697,1,0.22744915771484372,1.753752716064453,-11.189301458740234
4911968866041,2.614770728,1,0.2166752502441406,1.7848773376464844,-11.231199987792968
4911973864166,2.619768853,1,0.22864625854492185,1.7393875061035156,-11.276689819335937
4911978862395,2.624767082,1,0.16160861206054686,1.7429788085937499,-11.192892761230468
4911983862655,2.629767342,1,0.22864625854492185,1.7764976318359373,-11.16057103881836
4911988863489,2.634768176,1,0.22744915771484372,1.7393875061035156,-11.192892761230468
4911993863124,2.639767811,1,0.23343466186523437,1.7812860351562498,-11.141417425537108
4911998863385,2.644768072,1,0.2262520568847656,1.753752716064453,-11.188104357910156
4912003864687,2.649769374,1,0.27293898925781246,1.7082628845214842,-11.177330450439452
4912008885051,2.654789738,1,0.21428104858398436,1.7190367919921874,-11.270704315185545
4912013870416,2.659775103,1,0.22385785522460935,1.7322049011230467,-11.221623181152344
4912018864895,2.664769582,1,0.21787235107421873,1.7010802795410156,-11.196484063720703
4912023862187,2.669766874,1,0.25139117431640623,1.705868682861328,-11.150994232177734
4912028863541,2.674768228,1,0.21308394775390624,1.714248388671875,-11.220426080322264
4912033863280,2.679767967,1,0.2549824768066406,1.7357962036132812,-11.203666668701171
4912038862603,2.68476729,1,0.2765302917480469,1.6807295654296874,-11.19169566040039
4912043862655,2.689767342,1,0.19991583862304688,1.7764976318359373,-11.197681164550781
4912048863437,2.694768124,1,0.15562310791015624,1.7094599853515624,-11.225214483642578
4912053864010,2.699768697,1,0.23702596435546874,1.7357962036132812,-11.183315954589844
4912058863280,2.704767967,1,0.21308394775390624,1.734599102783203,-11.171344946289063
4912063863489,2.709768176,1,0.2214636535644531,1.7010802795410156,-11.15338843383789
4912068863280,2.714767967,1,0.23104046020507812,1.705868682861328,-11.204863769531249
4912073863020,2.719767707,1,0.2442085693359375,1.7322049011230467,-11.174936248779296
4912078859843,2.72476453,1,0.23702596435546874,1.7202338928222656,-11.213243475341796
4912083863489,2.729768176,1,0.2154781494140625,1.7286135986328124,-11.139023223876952
4912088864166,2.734768853,1,0.20231004028320312,1.7106570861816406,-11.176133349609374
4912093862603,2.73976729,1,0.23702596435546874,1.7585411193847655,-11.23000288696289
4912098864010,2.744768697,1,0.20470424194335937,1.7513585144042967,-11.171344946289063
4912103862187,2.749766874,1,0.229843359375,1.6711527587890624,-11.202469567871093
4912108863437,2.754768124,1,0.21906945190429686,1.7561469177246092,-11.17852755126953
4912113862916,2.759767603,1,0.2154781494140625,1.7310078002929687,-11.11508120727539
4912118862707,2.764767394,1,0.20949264526367187,1.7334020019531249,-11.21084927368164
4912123862447,2.769767134,1,0.18315642700195311,1.7393875061035156,-11.16057103881836
4912128860051,2.774764738,1,0.2059013427734375,1.7597382202148437,-11.190498559570312
4912133862187,2.779766874,1,0.2442085693359375,1.744175909423828,-11.173739147949219
4912138862551,2.784767238,1,0.2262520568847656,1.7393875061035156,-11.15338843383789
4912143863697,2.789768384,1,0.20949264526367187,1.7226280944824217,-11.177330450439452
4912148863905,2.794768592,1,0.22864625854492185,1.7178396911621092,-11.203666668701171
4912153863489,2.799768176,1,0.22385785522460935,1.7034744812011717,-11.212046374511718
4912158863280,2.804767967,1,0.21068974609375,1.7549498168945312,-11.197681164550781
4912163864270,2.809768957,1,0.239420166015625,1.7369933044433592,-11.177330450439452
4912168863541,2.814768228,1,0.21787235107421873,1.7585411193847655,-11.213243475341796
4912173863280,2.819767967,1,0.21068974609375,1.715445489501953,-11.118672509765624
4912178861614,2.824766301,1,0.2059013427734375,1.7453730102539062,-11.150994232177734
4912183863280,2.829767967,1,0.20949264526367187,1.70467158203125,-11.209652172851563
4912188861770,2.834766457,1,0.26336218261718747,1.6998831787109374,-11.125855114746093
4912193864791,2.839769478,1,0.27174188842773433,1.7465701110839842,-11.232397088623046
4912198863280,2.844767967,1,0.19393033447265623,1.7166425903320313,-11.14022032470703
4912203863385,2.849768072,1,0.2346317626953125,1.7429788085937499,-11.196484063720703
4912208863176,2.854767863,1,0.1975216369628906,1.7405846069335937,-11.15338843383789
4912213863437,2.859768124,1,0.23702596435546874,1.7417817077636717,-11.194089862060546
4912218863541,2.864768228,1,0.19871873779296872,1.7393875061035156,-11.171344946289063
4912223862707,2.869767394,1,0.19632453613281248,1.66636435546875,-11.209652172851563
4912228861770,2.874766457,1,0.23343466186523437,1.7106570861816406,-11.162965240478515
4912233863280,2.879767967,1,0.19871873779296872,1.7322049011230467,-11.12226381225586
4912238863489,2.884768176,1,0.26216508178710934,1.7417817077636717,-11.195286962890624
4912243863541,2.889768228,1,0.22026655273437498,1.7429788085937499,-11.150994232177734
4912248862864,2.894767551,1,0.2537853759765625,1.6927005737304686,-11.170147845458983
4912253862916,2.899767603,1,0.24660277099609373,1.705868682861328,-11.19169566040039
4912258865103,2.90476979,1,0.2501940734863281,1.744175909423828,-11.192892761230468
4912263863801,2.909768488,1,0.25258827514648435,1.7621324218749999,-11.21683477783203
4912268863332,2.914768019,1,0.26695348510742184,1.7405846069335937,-11.152191333007812
4912273863176,2.919767863,1,0.2561795776367187,1.714248388671875,-11.165359442138671
4912278862864,2.924767551,1,0.21906945190429686,1.7501614135742187,-11.180921752929686
4912283863176,2.929767863,1,0.2442085693359375,1.7226280944824217,-11.190498559570312
4912288862030,2.934766717,1,0.25737667846679685,1.707065783691406,-11.195286962890624
4912293864582,2.939769269,1,0.17477672119140625,1.70467158203125,-11.139023223876952
4912298862655,2.944767342,1,0.25737667846679685,1.7525556152343749,-11.154585534667968
4912303863280,2.949767967,1,0.21428104858398436,1.7465701110839842,-11.220426080322264
4912308863593,2.95476828,1,0.2501940734863281,1.7214309936523438,-11.208455072021483
4912313862968,2.959767655,1,0.2346317626953125,1.7453730102539062,-11.162965240478515
4912318862759,2.964767446,1,0.2501940734863281,1.715445489501953,-11.165359442138671
4912323862968,2.969767655,1,0.23702596435546874,1.7369933044433592,-11.196484063720703
4912328863853,2.97476854,1,0.21428104858398436,1.7501614135742187,-11.228805786132812
4912333862447,2.979767134,1,0.23822306518554687,1.7513585144042967,-11.215637677001952
4912338863124,2.984767811,1,0.19991583862304688,1.753752716064453,-11.123460913085937
4912343862603,2.98976729,1,0.2214636535644531,1.7561469177246092,-11.176133349609374
4912348862812,2.994767499,1,0.20350714111328125,1.7190367919921874,-11.173739147949219
4912353863332,2.999768019,1,0.23822306518554687,1.734599102783203,-11.184513055419922
4912358870520,3.004775207,1,0.21787235107421873,1.7944541442871094,-11.139023223876952
4912363865312,3.009769999,1,0.26216508178710934,1.70467158203125,-11.197681164550781
4912368863541,3.014768228,1,0.21308394775390624,1.7226280944824217,-11.200075366210937
4912373863697,3.019768384,1,0.23822306518554687,1.7190367919921874,-11.106701501464842
4912378863749,3.024768436,1,0.2454056701660156,1.7405846069335937,-11.24915650024414
4912383862082,3.029766769,1,0.20470424194335937,1.7393875061035156,-11.184513055419922
4912388861145,3.034765832,1,0.22026655273437498,1.6998831787109374,-11.2240173828125
4912393864582,3.039769269,1,0.24301146850585936,1.7693150268554687,-11.154585534667968
4912398864374,3.044769061,1,0.21906945190429686,1.725022296142578,-11.162965240478515
4912403864114,3.049768801,1,0.2609679809570312,1.7621324218749999,-11.240776794433593
4912408863437,3.054768124,1,0.2154781494140625,1.744175909423828,-11.091139190673827
4912413863020,3.059767707,1,0.20829554443359374,1.6675614562988281,-11.228805786132812
4912418862968,3.064767655,1,0.23702596435546874,1.7657237243652342,-11.107898602294922
4912423864061,3.069768748,1,0.22864625854492185,1.7573440185546874,-11.219228979492186
4912428864009,3.074768696,1,0.17836802368164062,1.7381904052734374,-11.263521710205078
4912433862864,3.079767551,1,0.23343466186523437,1.7609353210449217,-11.156979736328124
4912438863957,3.084768644,1,0.19033903198242186,1.7812860351562498,-11.2240173828125
4912443862395,3.089767082,1,0.26695348510742184,1.7118541870117185,-11.201272467041015
4912448864426,3.094769113,1,0.21308394775390624,1.7393875061035156,-11.257536206054686
4912453864270,3.099768957,1,0.2214636535644531,1.7118541870117185,-11.177330450439452
4912458863280,3.104767967,1,0.2262520568847656,1.7357962036132812,-11.166556542968749
4912463864114,3.109768801,1,0.27174188842773433,1.7226280944824217,-11.17852755126953
4912468863697,3.114768384,1,0.24779987182617186,1.7501614135742187,-11.200075366210937
4912473862864,3.119767551,1,0.21068974609375,1.7788918334960937,-11.222820281982422
4912478862707,3.124767394,1,0.24061726684570311,1.7226280944824217,-11.106701501464842
4912483864166,3.129768853,1,0.21308394775390624,1.7178396911621092,-11.146205828857422
4912488862811,3.134767498,1,0.2214636535644531,1.7202338928222656,-11.171344946289063
4912493862811,3.139767498,1,0.23223756103515625,1.7286135986328124,-11.136629022216797
4912498864009,3.144768696,1,0.20949264526367187,1.7681179260253905,-11.156979736328124
4912503863332,3.149768019,1,0.22744915771484372,1.7429788085937499,-11.136629022216797
4912508863176,3.154767863,1,0.21787235107421873,1.714248388671875,-11.127052215576171
4912513863176,3.159767863,1,0.2214636535644531,1.7657237243652342,-11.21084927368164
4912518863280,3.164767967,1,0.20709844360351562,1.714248388671875,-11.155782635498046
4912523862655,3.169767342,1,0.23223756103515625,1.725022296142578,-11.225214483642578
4912528863436,3.174768123,1,0.2346317626953125,1.7597382202148437,-11.164162341308593
4912533862499,3.179767186,1,0.17477672119140625,1.7286135986328124,-11.244368096923827
4912538860207,3.184764894,1,0.20829554443359374,1.7848773376464844,-11.190498559570312
4912543863228,3.189767915,1,0.24899697265624998,1.7609353210449217,-11.188104357910156
4912548863020,3.194767707,1,0.24779987182617186,1.7238251953125,-11.109095703125
4912553863645,3.199768332,1,0.1975216369628906,1.7405846069335937,-11.214440576171874
4912558862707,3.204767394,1,0.23822306518554687,1.7010802795410156,-11.158176837158203
4912563863801,3.209768488,1,0.2561795776367187,1.7106570861816406,-11.137826123046874
4912568864061,3.214768748,1,0.23343466186523437,1.7202338928222656,-11.119869610595703
4912573862864,3.219767551,1,0.21787235107421873,1.696291876220703,-11.149797131347656
4912578863228,3.224767915,1,0.2549824768066406,1.7597382202148437,-11.190498559570312
4912583862864,3.229767551,1,0.2154781494140625,1.6903063720703124,-11.150994232177734
4912588863905,3.234768592,1,0.24301146850585936,1.7369933044433592,-11.189301458740234
4912593862655,3.239767342,1,0.20949264526367187,1.7489643127441405,-11.214440576171874
4912598862864,3.244767551,1,0.22266075439453123,1.7489643127441405,-11.197681164550781
4912603863124,3.249767811,1,0.2442085693359375,1.7262193969726563,-11.221623181152344
4912608863124,3.254767811,1,0.19033903198242186,1.7238251953125,-11.246762298583985
4912613863228,3.259767915,1,0.2645592834472656,1.7393875061035156,-11.16057103881836
4912618863124,3.264767811,1,0.2561795776367187,1.6986860778808592,-11.128249316406249
4912623863176,3.269767863,1,0.26216508178710934,1.6651672546386718,-11.212046374511718
4912628862916,3.274767603,1,0.21787235107421873,1.7190367919921874,-11.197681164550781
4912633863072,3.279767759,1,0.17118541870117188,1.7693150268554687,-11.177330450439452
4912638863020,3.284767707,1,0.2597708801269531,1.7453730102539062,-11.161768139648437
4912643862655,3.289767342,1,0.21428104858398436,1.7106570861816406,-11.182118853759764
4912648863593,3.29476828,1,0.24181436767578124,1.7190367919921874,-11.202469567871093
4912653863436,3.299768123,1,0.22744915771484372,1.7417817077636717,-11.156979736328124
4912658863124,3.304767811,1,0.20231004028320312,1.7453730102539062,-11.156979736328124
4912663863176,3.309767863,1,0.2346317626953125,1.705868682861328,-11.208455072021483
4912668862343,3.31476703,1,0.2442085693359375,1.7621324218749999,-11.14022032470703
4912673865103,3.31976979,1,0.24779987182617186,1.7513585144042967,-11.165359442138671
4912678863332,3.324768019,1,0.20709844360351562,1.753752716064453,-11.179724652099608
4912683863332,3.329768019,1,0.1580173095703125,1.7609353210449217,-11.207257971191405
4912688863228,3.334767915,1,0.2537853759765625,1.6998831787109374,-11.149797131347656
4912693863436,3.339768123,1,0.21787235107421873,1.7597382202148437,-11.196484063720703
4912698863905,3.344768592,1,0.19033903198242186,1.7178396911621092,-11.225214483642578
4912703861613,3.3497663,1,0.21787235107421873,1.7501614135742187,-11.135431921386719
4912708863749,3.354768436,1,0.2537853759765625,1.6771382629394531,-11.227608685302734
4912713864061,3.359768748,1,0.24301146850585936,1.734599102783203,-11.121066711425781
4912718863488,3.364768175,1,0.16160861206054686,1.7286135986328124,-11.204863769531249
4912723862551,3.369767238,1,0.28490999755859375,1.695094775390625,-11.139023223876952
4912728862968,3.374767655,1,0.23343466186523437,1.714248388671875,-11.180921752929686
4912733861822,3.379766509,1,0.23702596435546874,1.725022296142578,-11.174936248779296
4912738880103,3.38478479,1,0.22385785522460935,1.7501614135742187,-11.212046374511718
4912743875155,3.389779842,1,0.17836802368164062,1.7034744812011717,-11.225214483642578
4912748876770,3.394781457,1,0.28490999755859375,1.7465701110839842,-11.214440576171874
4912753878488,3.399783175,1,0.22505495605468748,1.7477672119140624,-11.170147845458983
4912758877916,3.404782603,1,0.24301146850585936,1.753752716064453,-11.146205828857422
4912763874061,3.409778748,1,0.18914193115234373,1.772906329345703,-11.159373937988281
4912768878488,3.414783175,1,0.239420166015625,1.6891092712402342,-11.209652172851563
4912773878541,3.419783228,1,0.20470424194335937,1.696291876220703,-11.17254204711914
4912778877238,3.424781925,1,0.16041151123046873,1.734599102783203,-11.247959399414063
4912783870207,3.429774894,1,0.21906945190429686,1.763329522705078,-11.180921752929686
4912788877863,3.43478255,1,0.21308394775390624,1.7381904052734374,-11.168950744628905
4912793877238,3.439781925,1,0.24061726684570311,1.7274164978027342,-11.179724652099608
4912798874061,3.444778748,1,0.30047230834960936,1.7214309936523438,-11.170147845458983
4912803875520,3.449780207,1,0.239420166015625,1.7106570861816406,-11.189301458740234
4912808877603,3.45478229,1,0.19393033447265623,1.70467158203125,-11.213243475341796
4912813877603,3.45978229,1,0.19871873779296872,1.7453730102539062,-11.133037719726563
4912818877082,3.464781769,1,0.24061726684570311,1.7489643127441405,-11.109095703125
4912823874999,3.469779686,1,0.22505495605468748,1.7381904052734374,-11.184513055419922
4912828885728,3.474790415,1,0.20350714111328125,1.7525556152343749,-11.173739147949219
4912833921822,3.479826509,1,0.1388636962890625,1.7214309936523438,-11.259930407714844
4912838879061,3.484783748,1,0.22864625854492185,1.734599102783203,-11.244368096923827
4912843874426,3.489779113,1,0.2346317626953125,1.7848773376464844,-11.194089862060546
4912848877291,3.494781978,1,0.22744915771484372,1.7357962036132812,-11.165359442138671
4912853877343,3.49978203,1,0.2262520568847656,1.7178396911621092,-11.227608685302734
4912858877447,3.504782134,1,0.21188684692382811,1.7166425903320313,-11.155782635498046
4912863879738,3.509784425,1,0.20829554443359374,1.7310078002929687,-11.17254204711914
4912868879061,3.514783748,1,0.17597382202148437,1.7214309936523438,-11.215637677001952
4912873877030,3.519781717,1,0.24779987182617186,1.6915034729003906,-11.167753643798827
4912878876822,3.524781509,1,0.20829554443359374,1.7465701110839842,-11.141417425537108
4912883875051,3.529779738,1,0.24779987182617186,1.7812860351562498,-11.215637677001952
4912888877915,3.534782602,1,0.22505495605468748,1.7214309936523438,-11.154585534667968
4912893877447,3.539782134,1,0.2166752502441406,1.7286135986328124,-11.176133349609374
4912898878280,3.544782967,1,0.26815058593749996,1.7262193969726563,-11.15338843383789
4912903874634,3.549779321,1,0.23223756103515625,1.7657237243652342,-11.164162341308593
4912908878332,3.554783019,1,0.25737667846679685,1.6819266662597656,-11.105504400634764
4912913877759,3.559782446,1,0.1975216369628906,1.7226280944824217,-11.194089862060546
4912918877863,3.56478255,1,0.23343466186523437,1.7166425903320313,-11.18571015625
4912923874738,3.569779425,1,0.23343466186523437,1.7274164978027342,-11.206060870361327
4912928879218,3.574783905,1,0.19871873779296872,1.7573440185546874,-11.079168182373046
4912933877968,3.579782655,1,0.20470424194335937,1.7369933044433592,-11.208455072021483
4912938877395,3.584782082,1,0.20949264526367187,1.7489643127441405,-11.227608685302734
4912943873540,3.589778227,1,0.19393033447265623,1.7597382202148437,-11.184513055419922
4912948879426,3.594784113,1,0.21906945190429686,1.7357962036132812,-11.150994232177734
4912953877863,3.59978255,1,0.23582886352539062,1.8076222534179687,-11.245565197753905
4912958875520,3.604780207,1,0.2825157958984375,1.7621324218749999,-11.179724652099608
4912963875624,3.609780311,1,0.19991583862304688,1.7238251953125,-11.156979736328124
4912968877290,3.614781977,1,0.21308394775390624,1.7274164978027342,-11.16057103881836
4912973877655,3.619782342,1,0.19393033447265623,1.7525556152343749,-11.19169566040039
4912978877759,3.624782446,1,0.1975216369628906,1.7501614135742187,-11.208455072021483
4912983873593,3.62977828,1,0.23223756103515625,1.7238251953125,-11.206060870361327
4912988874426,3.634779113,1,0.24301146850585936,1.7657237243652342,-11.212046374511718
4912993878853,3.63978354,1,0.25737667846679685,1.7310078002929687,-11.1474029296875
4912998877707,3.644782394,1,0.24660277099609373,1.7130512878417967,-11.183315954589844
4913003874582,3.649779269,1,0.18914193115234373,1.7286135986328124,-11.162965240478515
4913008878801,3.654783488,1,0.20949264526367187,1.7465701110839842,-11.156979736328124
4913013877811,3.659782498,1,0.23343466186523437,1.7405846069335937,-11.128249316406249
4913018878020,3.664782707,1,0.17836802368164062,1.7381904052734374,-11.137826123046874
4913023873853,3.66977854,1,0.23343466186523437,1.7561469177246092,-11.148600030517578
4913028877915,3.674782602,1,0.22266075439453123,1.7393875061035156,-11.202469567871093
4913033873593,3.67977828,1,0.21188684692382811,1.6927005737304686,-11.11508120727539
4913038878593,3.68478328,1,0.16519991455078123,1.7214309936523438,-11.123460913085937
4913043874738,3.689779425,1,0.19393033447265623,1.6927005737304686,-11.189301458740234
4913048877655,3.694782342,1,0.2693476867675781,1.734599102783203,-11.152191333007812
4913053877551,3.699782238,1,0.22026655273437498,1.7585411193847655,-11.128249316406249
4913058878645,3.704783332,1,0.16879121704101563,1.7322049011230467,-11.24915650024414
4913063874634,3.709779321,1,0.2262520568847656,1.7262193969726563,-11.170147845458983
4913068877551,3.714782238,1,0.20709844360351562,1.6508020446777343,-11.221623181152344
4913073877707,3.719782394,1,0.23582886352539062,1.763329522705078,-11.1474029296875
4913078878072,3.724782759,1,0.22266075439453123,1.7322049011230467,-11.112687005615234
4913083875832,3.729780519,1,0.2214636535644531,1.7094599853515624,-11.139023223876952
4913088878749,3.734783436,1,0.25139117431640623,1.705868682861328,-11.150994232177734
4913093877447,3.739782134,1,0.2154781494140625,1.7860744384765623,-11.213243475341796
4913098876822,3.744781509,1,0.1927332336425781,1.7106570861816406,-11.21084927368164
4913103873801,3.749778488,1,0.2657563842773437,1.7178396911621092,-11.127052215576171
4913108878124,3.754782811,1,0.24181436767578124,1.7405846069335937,-11.167753643798827
4913113878540,3.759783227,1,0.2657563842773437,1.7369933044433592,-11.165359442138671
4913118876197,3.764780884,1,0.23343466186523437,1.7561469177246092,-11.194089862060546
4913123875780,3.769780467,1,0.30047230834960936,1.7896657409667969,-11.168950744628905
4913128879738,3.774784425,1,0.3028665100097656,1.7453730102539062,-11.227608685302734
4913133877082,3.779781769,1,0.24779987182617186,1.7417817077636717,-11.13423482055664
4913138880155,3.784784842,1,0.27293898925781246,1.7094599853515624,-11.174936248779296
4913143874999,3.789779686,1,0.25139117431640623,1.7094599853515624,-11.204863769531249
4913148877707,3.794782394,1,0.23223756103515625,1.7082628845214842,-11.137826123046874
4913153877342,3.799782029,1,0.2059013427734375,1.7130512878417967,-11.23718549194336
4913158877551,3.804782238,1,0.26695348510742184,1.696291876220703,-11.228805786132812
4913163873645,3.809778332,1,0.21787235107421873,1.7334020019531249,-11.189301458740234
4913168877082,3.814781769,1,0.23223756103515625,1.697488977050781,-11.273098516845703
4913173877342,3.819782029,1,0.258573779296875,1.7094599853515624,-11.18571015625
4913178877915,3.824782602,1,0.22864625854492185,1.7417817077636717,-11.186907257080078
4913183874165,3.829778852,1,0.21787235107421873,1.7465701110839842,-11.164162341308593
4913188878228,3.834782915,1,0.2166752502441406,1.7429788085937499,-11.159373937988281
4913193877238,3.839781925,1,0.16519991455078123,1.695094775390625,-11.19887826538086
4913198877863,3.84478255,1,0.16519991455078123,1.7405846069335937,-11.124658013916015
4913203874895,3.849779582,1,0.2442085693359375,1.7118541870117185,-11.17852755126953
4913208879061,3.854783748,1,0.239420166015625,1.696291876220703,-11.19887826538086
4913213875363,3.85978005,1,0.2454056701660156,1.6903063720703124,-11.247959399414063
4913218879165,3.864783852,1,0.22385785522460935,1.7429788085937499,-11.231199987792968
4913223873957,3.869778644,1,0.2765302917480469,1.7477672119140624,-11.110292803955078
4913228877967,3.874782654,1,0.20350714111328125,1.7645266235351562,-11.118672509765624
4913233878749,3.879783436,1,0.2657563842773437,1.7094599853515624,-11.177330450439452
4913238874426,3.884779113,1,0.23104046020507812,1.7489643127441405,-11.19887826538086
4913243875624,3.889780311,1,0.19153613281249998,1.7369933044433592,-11.149797131347656
4913248879270,3.894783957,1,0.1879448303222656,1.6735469604492186,-11.15338843383789
4913253876509,3.899781196,1,0.2154781494140625,1.7190367919921874,-11.201272467041015
4913258877030,3.904781717,1,0.22266075439453123,1.734599102783203,-11.139023223876952
4913263875051,3.909779738,1,0.1975216369628906,1.7429788085937499,-11.186907257080078
4913268877863,3.91478255,1,0.22266075439453123,1.7022773803710936,-11.245565197753905
4913273878072,3.919782759,1,0.21428104858398436,1.744175909423828,-11.194089862060546
4913278878592,3.924783279,1,0.1879448303222656,1.7214309936523438,-11.213243475341796
4913283875259,3.929779946,1,0.26695348510742184,1.7130512878417967,-11.212046374511718
4913288878697,3.934783384,1,0.23104046020507812,1.6938976745605467,-11.225214483642578
4913293877186,3.939781873,1,0.21308394775390624,1.705868682861328,-11.201272467041015
4913298887447,3.944792134,1,0.22505495605468748,1.7369933044433592,-11.206060870361327
4913303877655,3.949782342,1,0.23822306518554687,1.7166425903320313,-11.168950744628905
4913308879113,3.9547838,1,0.21906945190429686,1.715445489501953,-11.158176837158203
4913313877707,3.959782394,1,0.2154781494140625,1.7106570861816406,-11.19887826538086
4913318878801,3.964783488,1,0.23343466186523437,1.7393875061035156,-11.206060870361327
4913323874582,3.969779269,1,0.22744915771484372,1.7202338928222656,-11.197681164550781
4913328876926,3.974781613,1,0.2154781494140625,1.7082628845214842,-11.149797131347656
4913333878019,3.979782706,1,0.2609679809570312,1.7381904052734374,-11.233594189453123
4913338878905,3.984783592,1,0.20231004028320312,1.7130512878417967,-11.145008728027342
4913343874947,3.989779634,1,0.21787235107421873,1.7298106994628906,-11.188104357910156
4913348878228,3.994782915,1,0.2442085693359375,1.744175909423828,-11.161768139648437
4913353877030,3.999781717,1,0.24779987182617186,1.7417817077636717,-11.225214483642578
4913358877915,4.004782602,1,0.24779987182617186,1.7369933044433592,-11.245565197753905
4913363875519,4.009780206,1,0.21906945190429686,1.686715069580078,-11.174936248779296
4913368878072,4.014782759,1,0.21906945190429686,1.7369933044433592,-11.161768139648437
4913373877603,4.01978229,1,0.24779987182617186,1.7369933044433592,-11.117475408935546
4913378878801,4.024783488,1,0.2501940734863281,1.7621324218749999,-11.218031878662108
4913383874634,4.029779321,1,0.22266075439453123,1.7178396911621092,-11.12226381225586
4913388875207,4.034779894,1,0.2214636535644531,1.7298106994628906,-11.225214483642578
4913393878801,4.039783488,1,0.20231004028320312,1.7118541870117185,-11.179724652099608
4913398874790,4.044779477,1,0.22385785522460935,1.6915034729003906,-11.195286962890624
4913403875519,4.049780206,1,0.21068974609375,1.7298106994628906,-11.17254204711914
4913408878384,4.054783071,1,0.2765302917480469,1.744175909423828,-11.1474029296875
4913413881874,4.059786561,1,0.23104046020507812,1.7513585144042967,-11.1474029296875
4913418880780,4.064785467,1,0.20949264526367187,1.7465701110839842,-11.158176837158203
4913423875519,4.069780206,1,0.2657563842773437,1.6831237670898436,-11.128249316406249
4913428878072,4.074782759,1,0.19871873779296872,1.7453730102539062,-11.226411584472656
4913433878124,4.079782811,1,0.201112939453125,1.7645266235351562,-11.214440576171874
4913438920363,4.08482505,1,0.2154781494140625,1.7130512878417967,-11.225214483642578
4913443876874,4.089781561,1,0.19871873779296872,1.7130512878417967,-11.189301458740234
4913448878019,4.094782706,1,0.19991583862304688,1.734599102783203,-11.197681164550781
4913453877551,4.099782238,1,0.20709844360351562,1.714248388671875,-11.190498559570312
4913458877551,4.104782238,1,0.2262520568847656,1.744175909423828,-11.180921752929686
4913463875780,4.109780467,1,0.22026655273437498,1.7513585144042967,-11.146205828857422
4913468876457,4.114781144,1,0.19033903198242186,1.7274164978027342,-11.186907257080078
4913473879269,4.119783956,1,0.2501940734863281,1.7573440185546874,-11.184513055419922
4913478877759,4.124782446,1,0.2346317626953125,1.687912170410156,-11.200075366210937
4913483873749,4.129778436,1,0.24660277099609373,1.7453730102539062,-11.124658013916015
4913488878905,4.134783592,1,0.19632453613281248,1.7513585144042967,-11.174936248779296
4913493877915,4.139782602,1,0.22864625854492185,1.744175909423828,-11.208455072021483
4913498877967,4.144782654,1,0.24061726684570311,1.7573440185546874,-11.203666668701171
4913503874269,4.149778956,1,0.21906945190429686,1.7274164978027342,-11.150994232177734
4913508878488,4.154783175,1,0.23822306518554687,1.7106570861816406,-11.197681164550781
4913513876978,4.159781665,1,0.2765302917480469,1.744175909423828,-11.188104357910156
4913518877238,4.164781925,1,0.25258827514648435,1.7190367919921874,-11.232397088623046
4913523875311,4.169779998,1,0.21068974609375,1.6651672546386718,-11.164162341308593
4913528873905,4.174778592,1,0.23223756103515625,1.7429788085937499,-11.239579693603515
4913533877446,4.179782133,1,0.20709844360351562,1.7597382202148437,-11.128249316406249
4913538878280,4.184782967,1,0.2741360900878906,1.7549498168945312,-11.274295617675781
4913543876457,4.189781144,1,0.2693476867675781,1.772906329345703,-11.18571015625
4913548877342,4.194782029,1,0.21906945190429686,1.715445489501953,-11.2240173828125
4913553878436,4.199783123,1,0.2442085693359375,1.7669208251953124,-11.162965240478515
4913558878436,4.204783123,1,0.1975216369628906,1.7286135986328124,-11.158176837158203
4913563874634,4.209779321,1,0.25737667846679685,1.715445489501953,-11.180921752929686
4913568878801,4.214783488,1,0.26336218261718747,1.7681179260253905,-11.136629022216797
4913573875415,4.219780102,1,0.2442085693359375,1.7082628845214842,-11.17852755126953
4913578878019,4.224782706,1,0.1975216369628906,1.678335363769531,-11.17254204711914
4913583874842,4.229779529,1,0.21308394775390624,1.7274164978027342,-11.130643518066405
4913588878488,4.234783175,1,0.2166752502441406,1.7010802795410156,-11.21084927368164
4913593877551,4.239782238,1,0.25258827514648435,1.7836802368164062,-11.184513055419922
4913598878019,4.244782706,1,0.2885013000488281,1.7369933044433592,-11.158176837158203
4913603875519,4.249780206,1,0.19991583862304688,1.7597382202148437,-11.231199987792968
4913608877707,4.254782394,1,0.22266075439453123,1.7082628845214842,-11.148600030517578
4913613877551,4.259782238,1,0.21906945190429686,1.7262193969726563,-11.232397088623046
4913618878644,4.264783331,1,0.2753331909179687,1.7561469177246092,-11.196484063720703
4913623874842,4.269779529,1,0.22266075439453123,1.7525556152343749,-11.2240173828125
4913628878071,4.274782758,1,0.2549824768066406,1.7118541870117185,-11.162965240478515
4913633878957,4.279783644,1,0.201112939453125,1.7501614135742187,-11.1474029296875
4913638878384,4.284783071,1,0.28012159423828126,1.7597382202148437,-11.203666668701171
4913643874842,4.289779529,1,0.23104046020507812,1.7465701110839842,-11.19887826538086
4913648878488,4.294783175,1,0.18914193115234373,1.7310078002929687,-11.213243475341796
4913653877134,4.299781821,1,0.19632453613281248,1.7010802795410156,-11.148600030517578
4913658877707,4.304782394,1,0.19033903198242186,1.675941162109375,-11.214440576171874
4913663874113,4.3097788,1,0.2059013427734375,1.7453730102539062,-11.1474029296875
4913668877707,4.314782394,1,0.2549824768066406,1.7705121276855467,-11.170147845458983
4913673876665,4.319781352,1,0.24061726684570311,1.7202338928222656,-11.232397088623046
4913678877238,4.324781925,1,0.21068974609375,1.7393875061035156,-11.209652172851563
4913683874790,4.329779477,1,0.21188684692382811,1.725022296142578,-11.194089862060546
4913688878488,4.334783175,1,0.2561795776367187,1.7334020019531249,-11.194089862060546
4913693876978,4.339781665,1,0.24181436767578124,1.7190367919921874,-11.231199987792968
4913698880571,4.344785258,1,0.1771709228515625,1.6998831787109374,-11.174936248779296
4913703875363,4.34978005,1,0.24301146850585936,1.6807295654296874,-11.119869610595703
4913708877915,4.354782602,1,0.2262520568847656,1.7393875061035156,-11.154585534667968
4913713899269,4.359803956,1,0.17118541870117188,1.7405846069335937,-11.146205828857422
4913718933436,4.364838123,1,0.2597708801269531,1.7238251953125,-11.155782635498046
4913723882655,4.369787342,1,0.20949264526367187,1.763329522705078,-11.180921752929686
4913728877551,4.374782238,1,0.21308394775390624,1.7130512878417967,-11.177330450439452
4913733876040,4.379780727,1,0.23702596435546874,1.7453730102539062,-11.164162341308593
4913738875207,4.384779894,1,0.21308394775390624,1.7405846069335937,-11.15338843383789
4913743875155,4.389779842,1,0.2214636535644531,1.734599102783203,-11.15338843383789
4913748877030,4.394781717,1,0.19871873779296872,1.687912170410156,-11.146205828857422
4913753879738,4.399784425,1,0.21188684692382811,1.7693150268554687,-11.174936248779296
4913758877863,4.40478255,1,0.20829554443359374,1.753752716064453,-11.192892761230468
4913763875571,4.409780258,1,0.20709844360351562,1.7238251953125,-11.150994232177734
4913768877655,4.414782342,1,0.20350714111328125,1.7405846069335937,-11.188104357910156
4913773878280,4.419782967,1,0.22266075439453123,1.725022296142578,-11.234791290283203
4913778874686,4.424779373,1,0.19033903198242186,1.7310078002929687,-11.23718549194336
4913783874269,4.429778956,1,0.2442085693359375,1.7549498168945312,-11.197681164550781
4913788877498,4.434782185,1,0.20949264526367187,1.7417817077636717,-11.194089862060546
4913793878176,4.439782863,1,0.20231004028320312,1.7334020019531249,-11.222820281982422
4913798878123,4.44478281,1,0.18076222534179687,1.7657237243652342,-11.200075366210937
4913803873957,4.449778644,1,0.1975216369628906,1.659181750488281,-11.15338843383789
4913808877551,4.454782238,1,0.22505495605468748,1.7130512878417967,-11.201272467041015
4913813877394,4.459782081,1,0.25737667846679685,1.6615759521484375,-11.17254204711914
4913818878176,4.464782863,1,0.23822306518554687,1.715445489501953,-11.208455072021483
4913823874998,4.469779685,1,0.20829554443359374,1.7573440185546874,-11.150994232177734
4913828877394,4.474782081,1,0.2609679809570312,1.744175909423828,-11.182118853759764
4913833877707,4.479782394,1,0.22385785522460935,1.707065783691406,-11.188104357910156
4913838878384,4.484783071,1,0.23702596435546874,1.744175909423828,-11.218031878662108
4913843875832,4.489780519,1,0.19991583862304688,1.7453730102539062,-11.182118853759764
4913848878540,4.494783227,1,0.19153613281249998,1.7357962036132812,-11.220426080322264
4913853877811,4.499782498,1,0.20350714111328125,1.7525556152343749,-11.17852755126953
4913858878696,4.504783383,1,0.2262520568847656,1.7010802795410156,-11.21683477783203
4913863874790,4.509779477,1,0.229843359375,1.705868682861328,-11.142614526367186
4913868878384,4.514783071,1,0.23822306518554687,1.695094775390625,-11.192892761230468
4913873877707,4.519782394,1,0.1927332336425781,1.6986860778808592,-11.152191333007812
4913878878488,4.524783175,1,0.17477672119140625,1.7238251953125,-11.174936248779296
4913883875207,4.529779894,1,0.25139117431640623,1.734599102783203,-11.1474029296875
4913888898228,4.534802915,1,0.2609679809570312,1.7405846069335937,-11.200075366210937
4913893884738,4.539789425,1,0.19393033447265623,1.7477672119140624,-11.167753643798827
4913898879946,4.544784633,1,0.24061726684570311,1.7465701110839842,-11.152191333007812
4913903875728,4.549780415,1,0.20709844360351562,1.7429788085937499,-11.196484063720703
4913908879373,4.55478406,1,0.23582886352539062,1.695094775390625,-11.146205828857422
4913913877238,4.559781925,1,0.18555062866210936,1.7262193969726563,-11.21084927368164
4913918877290,4.564781977,1,0.21787235107421873,1.7369933044433592,-11.143811627197264
4913923874894,4.569779581,1,0.20949264526367187,1.7513585144042967,-11.200075366210937
4913928876926,4.574781613,1,0.19871873779296872,1.6998831787109374,-11.177330450439452
4913933877655,4.579782342,1,0.19632453613281248,1.7178396911621092,-11.182118853759764
4913938878123,4.58478281,1,0.2214636535644531,1.6927005737304686,-11.165359442138671
4913943879530,4.589784217,1,0.24899697265624998,1.7334020019531249,-11.143811627197264
4913948881144,4.594785831,1,0.2442085693359375,1.7322049011230467,-11.180921752929686
4913953881509,4.599786196,1,0.25737667846679685,1.707065783691406,-11.228805786132812
4913958881457,4.604786144,1,0.2454056701660156,1.7717092285156248,-11.245565197753905
4913963879321,4.609784008,1,0.21188684692382811,1.7286135986328124,-11.166556542968749
4913968881353,4.61478604,1,0.229843359375,1.686715069580078,-11.168950744628905
4913973880259,4.619784946,1,0.21188684692382811,1.7226280944824217,-11.17254204711914
4913978881405,4.624786092,1,0.201112939453125,1.7681179260253905,-11.228805786132812
4913983878540,4.629783227,1,0.22266075439453123,1.70467158203125,-11.204863769531249
4913988881665,4.634786352,1,0.23343466186523437,1.7334020019531249,-11.179724652099608
4913993880884,4.639785571,1,0.2537853759765625,1.7118541870117185,-11.208455072021483
4913998880050,4.644784737,1,0.2765302917480469,1.7501614135742187,-11.16057103881836
4914003878071,4.649782758,1,0.2346317626953125,1.696291876220703,-11.265915911865234
4914008881092,4.654785779,1,0.22505495605468748,1.7357962036132812,-11.207257971191405
4914013878332,4.659783019,1,0.2154781494140625,1.7357962036132812,-11.166556542968749
4914018878280,4.664782967,1,0.3028665100097656,1.7860744384765623,-11.15338843383789
4914023874165,4.669778852,1,0.22744915771484372,1.7130512878417967,-11.218031878662108
4914028880675,4.674785362,1,0.229843359375,1.7094599853515624,-11.127052215576171
4914033880311,4.679784998,1,0.22505495605468748,1.763329522705078,-11.247959399414063
4914038881509,4.684786196,1,0.18914193115234373,1.792059942626953,-11.239579693603515
4914043878019,4.689782706,1,0.23582886352539062,1.7310078002929687,-11.215637677001952
4914048882134,4.694786821,1,0.24301146850585936,1.7381904052734374,-11.177330450439452
4914053880936,4.699785623,1,0.21308394775390624,1.714248388671875,-11.220426080322264
4914058881978,4.704786665,1,0.20470424194335937,1.7094599853515624,-11.238382592773437
4914063878853,4.70978354,1,0.26216508178710934,1.7525556152343749,-11.171344946289063
4914068881457,4.714786144,1,0.21308394775390624,1.7465701110839842,-11.19887826538086
4914073881300,4.719785987,1,0.25258827514648435,1.7202338928222656,-11.19887826538086
4914078880415,4.724785102,1,0.22026655273437498,1.7705121276855467,-11.220426080322264
4914083877550,4.729782237,1,0.2597708801269531,1.7525556152343749,-11.221623181152344
4914088881196,4.734785883,1,0.26695348510742184,1.7381904052734374,-11.164162341308593
4914093881300,4.739785987,1,0.28012159423828126,1.7429788085937499,-11.176133349609374
4914098881821,4.744786508,1,0.21068974609375,1.6627730529785156,-11.19169566040039
4914103878280,4.749782967,1,0.2262520568847656,1.7549498168945312,-11.142614526367186
4914108880780,4.754785467,1,0.24301146850585936,1.7908628417968748,-11.152191333007812
4914113880623,4.75978531,1,0.2932897033691406,1.7298106994628906,-11.177330450439452
4914118880884,4.764785571,1,0.20231004028320312,1.7322049011230467,-11.152191333007812
4914123877967,4.769782654,1,0.23822306518554687,1.705868682861328,-11.164162341308593
4914128881196,4.774785883,1,0.2214636535644531,1.7788918334960937,-11.200075366210937
4914133880519,4.779785206,1,0.23343466186523437,1.7645266235351562,-11.190498559570312
4914138880207,4.784784894,1,0.22505495605468748,1.7429788085937499,-11.168950744628905
4914143893280,4.789797967,1,0.22864625854492185,1.7621324218749999,-11.145008728027342
4914148882446,4.794787133,1,0.24061726684570311,1.7238251953125,-11.079168182373046
4914153881040,4.799785727,1,0.19033903198242186,1.7130512878417967,-11.194089862060546
4914158881821,4.804786508,1,0.22744915771484372,1.7298106994628906,-11.180921752929686
4914163878905,4.809783592,1,0.20231004028320312,1.763329522705078,-11.14022032470703
4914168879790,4.814784477,1,0.23223756103515625,1.7178396911621092,-11.11508120727539
4914173880832,4.819785519,1,0.23822306518554687,1.7597382202148437,-11.130643518066405
4914178880988,4.824785675,1,0.2657563842773437,1.7226280944824217,-11.201272467041015
4914183877811,4.829782498,1,0.239420166015625,1.6831237670898436,-11.206060870361327
4914188880415,4.834785102,1,0.2501940734863281,1.744175909423828,-11.149797131347656
4914193880155,4.839784842,1,0.22266075439453123,1.696291876220703,-11.203666668701171
4914198880884,4.844785571,1,0.21068974609375,1.7429788085937499,-11.243170996093749
4914203878436,4.849783123,1,0.21188684692382811,1.7549498168945312,-11.18571015625
4914208882915,4.854787602,1,0.2442085693359375,1.7621324218749999,-11.209652172851563
4914213881300,4.859785987,1,0.28730419921875,1.7393875061035156,-11.19887826538086
4914218880675,4.864785362,1,0.24660277099609373,1.763329522705078,-11.135431921386719
4914223877707,4.869782394,1,0.26336218261718747,1.7010802795410156,-11.162965240478515
4914228879894,4.874784581,1,0.18914193115234373,1.7274164978027342,-11.183315954589844
4914233880780,4.879785467,1,0.2442085693359375,1.7202338928222656,-11.189301458740234
4914238877186,4.884781873,1,0.19871873779296872,1.7561469177246092,-11.182118853759764
4914243877290,4.889781977,1,0.20709844360351562,1.7405846069335937,-11.184513055419922
4914248880988,4.894785675,1,0.22864625854492185,1.7369933044433592,-11.215637677001952
4914253881248,4.899785935,1,0.24779987182617186,1.7669208251953124,-11.240776794433593
4914258880675,4.904785362,1,0.21787235107421873,1.734599102783203,-11.171344946289063
4914263878644,4.909783331,1,0.2442085693359375,1.734599102783203,-11.1474029296875
4914268873644,4.914778331,1,0.25258827514648435,1.7226280944824217,-11.200075366210937
4914273878280,4.919782967,1,0.21428104858398436,1.734599102783203,-11.207257971191405
4914278882394,4.924787081,1,0.2059013427734375,1.7082628845214842,-11.17254204711914
4914283878384,4.929783071,1,0.23343466186523437,1.7238251953125,-11.128249316406249
4914288881196,4.934785883,1,0.22744915771484372,1.7214309936523438,-11.222820281982422
4914293880884,4.939785571,1,0.21787235107421873,1.6831237670898436,-11.155782635498046
4914298880780,4.944785467,1,0.1927332336425781,1.7166425903320313,-11.171344946289063
4914303877394,4.949782081,1,0.20949264526367187,1.7178396911621092,-11.194089862060546
4914308881248,4.954785935,1,0.23822306518554687,1.707065783691406,-11.196484063720703
4914313882082,4.959786769,1,0.22385785522460935,1.7022773803710936,-11.171344946289063
4914318881509,4.964786196,1,0.23343466186523437,1.7609353210449217,-11.130643518066405
4914323878696,4.969783383,1,0.19033903198242186,1.7166425903320313,-11.18571015625
4914328881821,4.974786508,1,0.20709844360351562,1.696291876220703,-11.197681164550781
4914333881613,4.9797863,1,0.258573779296875,1.7334020019531249,-11.100715997314452
4914338881665,4.984786352,1,0.20949264526367187,1.7417817077636717,-11.149797131347656
4914343877811,4.989782498,1,0.26336218261718747,1.7286135986328124,-11.196484063720703
4914348881248,4.994785935,1,0.18076222534179687,1.744175909423828,-11.206060870361327
4914353881352,4.999786039,1,0.20470424194335937,1.7609353210449217,-11.206060870361327
4914358899686,5.004804373,1,0.20470424194335937,1.7262193969726563,-11.128249316406249
4914363884061,5.009788748,1,0.18076222534179687,1.7022773803710936,-11.214440576171874
4914368882550,5.014787237,1,0.22266075439453123,1.7034744812011717,-11.189301458740234
4914373877238,5.019781925,1,0.24899697265624998,1.7429788085937499,-11.197681164550781
4914378881665,5.024786352,1,0.1975216369628906,1.7573440185546874,-11.17852755126953
4914383878071,5.029782758,1,0.22505495605468748,1.7202338928222656,-11.139023223876952
4914388882290,5.034786977,1,0.2166752502441406,1.7693150268554687,-11.240776794433593
4914393881457,5.039786144,1,0.2059013427734375,1.7034744812011717,-11.171344946289063
4914398878592,5.044783279,1,0.23104046020507812,1.7286135986328124,-11.189301458740234
4914403879061,5.049783748,1,0.277727392578125,1.7549498168945312,-11.200075366210937
4914408880988,5.054785675,1,0.19033903198242186,1.7274164978027342,-11.19887826538086
4914413881457,5.059786144,1,0.2346317626953125,1.6986860778808592,-11.179724652099608
4914418880884,5.064785571,1,0.2549824768066406,1.6699556579589843,-11.139023223876952
4914423878436,5.069783123,1,0.2154781494140625,1.7405846069335937,-11.130643518066405
4914428880727,5.074785414,1,0.22505495605468748,1.696291876220703,-11.156979736328124
4914433881873,5.07978656,1,0.22505495605468748,1.715445489501953,-11.24915650024414
4914438880779,5.084785466,1,0.239420166015625,1.7992425476074219,-11.158176837158203
4914443877134,5.089781821,1,0.2166752502441406,1.7082628845214842,-11.162965240478515
4914448927134,5.094831821,1,0.2561795776367187,1.7178396911621092,-11.203666668701171
4914453882550,5.099787237,1,0.24181436767578124,1.7788918334960937,-11.201272467041015
4914458881665,5.104786352,1,0.22744915771484372,1.6938976745605467,-11.087547888183593
4914463878332,5.109783019,1,0.2597708801269531,1.7334020019531249,-11.200075366210937
4914468881352,5.114786039,1,0.1879448303222656,1.7573440185546874,-11.212046374511718
4914473881665,5.119786352,1,0.24061726684570311,1.7238251953125,-11.124658013916015
4914478882134,5.124786821,1,0.2561795776367187,1.7764976318359373,-11.091139190673827
4914483879321,5.129784008,1,0.24301146850585936,1.7477672119140624,-11.194089862060546
4914488881717,5.134786404,1,0.22505495605468748,1.7190367919921874,-11.170147845458983
4914493876873,5.13978156,1,0.23104046020507812,1.7310078002929687,-11.17254204711914
4914498882550,5.144787237,1,0.19393033447265623,1.7118541870117185,-11.270704315185545
4914503877915,5.149782602,1,0.229843359375,1.7202338928222656,-11.204863769531249
4914508881509,5.154786196,1,0.2442085693359375,1.7705121276855467,-11.180921752929686
4914513880675,5.159785362,1,0.16879121704101563,1.753752716064453,-11.2240173828125
4914518882186,5.164786873,1,0.17477672119140625,1.734599102783203,-11.218031878662108
4914523878279,5.169782966,1,0.22266075439453123,1.7693150268554687,-11.21683477783203
4914528882342,5.174787029,1,0.24301146850585936,1.7310078002929687,-11.213243475341796
4914533881457,5.179786144,1,0.2346317626953125,1.7322049011230467,-11.21683477783203
4914538881352,5.184786039,1,0.2166752502441406,1.6891092712402342,-11.214440576171874
4914543878436,5.189783123,1,0.25258827514648435,1.7214309936523438,-11.19169566040039
4914548922290,5.194826977,1,0.201112939453125,1.7166425903320313,-11.123460913085937
4914553881561,5.199786248,1,0.2154781494140625,1.753752716064453,-11.228805786132812
4914558881144,5.204785831,1,0.23104046020507812,1.7310078002929687,-11.167753643798827
4914563877759,5.209782446,1,0.2059013427734375,1.7034744812011717,-11.152191333007812
4914568880832,5.214785519,1,0.2262520568847656,1.7238251953125,-11.203666668701171
4914573881300,5.219785987,1,0.20470424194335937,1.772906329345703,-11.177330450439452
4914578881196,5.224785883,1,0.22505495605468748,1.7274164978027342,-11.251550701904296
4914583878175,5.229782862,1,0.19991583862304688,1.7298106994628906,-11.148600030517578
4914588882134,5.234786821,1,0.18555062866210936,1.744175909423828,-11.133037719726563
4914593881613,5.2397863,1,0.26216508178710934,1.7549498168945312,-11.173739147949219
4914598881352,5.244786039,1,0.17597382202148437,1.668758557128906,-11.150994232177734
4914603877238,5.249781925,1,0.17956512451171874,1.6579846496582031,-11.171344946289063
4914608881665,5.254786352,1,0.2549824768066406,1.7681179260253905,-11.196484063720703
4914613881821,5.259786508,1,0.2442085693359375,1.7776947326660155,-11.146205828857422
4914618881613,5.2647863,1,0.23822306518554687,1.7310078002929687,-11.18571015625
4914623877654,5.269782341,1,0.2454056701660156,1.7621324218749999,-11.170147845458983
4914628881300,5.274785987,1,0.24660277099609373,1.7465701110839842,-11.206060870361327
4914633880884,5.279785571,1,0.19871873779296872,1.7393875061035156,-11.274295617675781
4914638881248,5.284785935,1,0.21906945190429686,1.7657237243652342,-11.206060870361327
4914643877602,5.289782289,1,0.229843359375,1.7549498168945312,-11.150994232177734
4914648882238,5.294786925,1,0.25737667846679685,1.7022773803710936,-11.168950744628905
4914653882446,5.299787133,1,0.25737667846679685,1.7094599853515624,-11.1474029296875
4914658881040,5.304785727,1,0.22385785522460935,1.7513585144042967,-11.158176837158203
4914663876977,5.309781664,1,0.24301146850585936,1.68551796875,-11.21084927368164
4914668881300,5.314785987,1,0.21906945190429686,1.7812860351562498,-11.152191333007812
4914673880675,5.319785362,1,0.19991583862304688,1.7525556152343749,-11.183315954589844
4914678881456,5.324786143,1,0.26815058593749996,1.7800889343261719,-11.149797131347656
4914683877654,5.329782341,1,0.21068974609375,1.7010802795410156,-11.246762298583985
4914688881509,5.334786196,1,0.22864625854492185,1.7130512878417967,-11.203666668701171
4914693881821,5.339786508,1,0.1927332336425781,1.7465701110839842,-11.121066711425781
4914698882498,5.344787185,1,0.2561795776367187,1.7190367919921874,-11.207257971191405
4914703878123,5.34978281,1,0.20829554443359374,1.7310078002929687,-11.208455072021483
4914708881404,5.354786091,1,0.20829554443359374,1.7202338928222656,-11.222820281982422
4914713881613,5.3597863,1,0.20470424194335937,1.7645266235351562,-11.171344946289063
4914718877654,5.364782341,1,0.23104046020507812,1.7022773803710936,-11.170147845458983
4914723879477,5.369784164,1,0.22385785522460935,1.7130512878417967,-11.196484063720703
4914728881561,5.374786248,1,0.14484920043945312,1.7764976318359373,-11.209652172851563
4914733881196,5.379785883,1,0.19632453613281248,1.7513585144042967,-11.097124694824219
4914738881561,5.384786248,1,0.17477672119140625,1.7226280944824217,-11.180921752929686
4914743877863,5.38978255,1,0.18555062866210936,1.7298106994628906,-11.171344946289063
4914748877081,5.394781768,1,0.2442085693359375,1.7190367919921874,-11.156979736328124
4914753882811,5.399787498,1,0.23343466186523437,1.7501614135742187,-11.171344946289063
4914758882029,5.404786716,1,0.258573779296875,1.7657237243652342,-11.177330450439452
4914763877967,5.409782654,1,0.229843359375,1.7130512878417967,-11.165359442138671
4914768874373,5.41477906,1,0.2765302917480469,1.7501614135742187,-11.13423482055664
4914773881196,5.419785883,1,0.22026655273437498,1.7561469177246092,-11.158176837158203
4914778881040,5.424785727,1,0.24660277099609373,1.7513585144042967,-11.117475408935546
4914783878592,5.429783279,1,0.2166752502441406,1.7561469177246092,-11.277886920166015
4914788881509,5.434786196,1,0.2346317626953125,1.7453730102539062,-11.179724652099608
4914793880206,5.439784893,1,0.22026655273437498,1.753752716064453,-11.167753643798827
4914798882186,5.444786873,1,0.22026655273437498,1.6915034729003906,-11.177330450439452
4914803878644,5.449783331,1,0.239420166015625,1.7657237243652342,-11.15338843383789
4914808882290,5.454786977,1,0.21428104858398436,1.7298106994628906,-11.192892761230468
4914813877967,5.459782654,1,0.19871873779296872,1.7190367919921874,-11.208455072021483
4914818881769,5.464786456,1,0.22385785522460935,1.7573440185546874,-11.166556542968749
4914823878227,5.469782914,1,0.22026655273437498,1.7513585144042967,-11.19169566040039
4914828893592,5.474798279,1,0.23582886352539062,1.7166425903320313,-11.207257971191405
4914833882915,5.479787602,1,0.2537853759765625,1.7322049011230467,-11.155782635498046
4914838881456,5.484786143,1,0.20829554443359374,1.7357962036132812,-11.166556542968749
4914843878644,5.489783331,1,0.24181436767578124,1.7310078002929687,-11.23718549194336
4914848882029,5.494786716,1,0.25258827514648435,1.7190367919921874,-11.186907257080078
4914853881404,5.499786091,1,0.18435352783203124,1.7621324218749999,-11.14022032470703
4914858881613,5.5047863,1,0.22026655273437498,1.7214309936523438,-11.1474029296875
4914863877133,5.50978182,1,0.20709844360351562,1.7453730102539062,-11.192892761230468
4914868881352,5.514786039,1,0.22864625854492185,1.695094775390625,-11.155782635498046
4914873880727,5.519785414,1,0.24181436767578124,1.7202338928222656,-11.245565197753905
4914878881352,5.524786039,1,0.24660277099609373,1.7489643127441405,-11.195286962890624
4914883878644,5.529783331,1,0.239420166015625,1.7238251953125,-11.186907257080078
4914888880988,5.534785675,1,0.201112939453125,1.7405846069335937,-11.179724652099608
4914893880363,5.53978505,1,0.12569558715820311,1.7501614135742187,-11.196484063720703
4914898881092,5.544785779,1,0.2609679809570312,1.7489643127441405,-11.258733306884764
4914903877602,5.549782289,1,0.2346317626953125,1.707065783691406,-11.190498559570312
4914908880936,5.554785623,1,0.22266075439453123,1.7393875061035156,-11.235988391113281
4914913881144,5.559785831,1,0.2214636535644531,1.7800889343261719,-11.18571015625
4914918881248,5.564785935,1,0.2537853759765625,1.7489643127441405,-11.221623181152344
4914923877394,5.569782081,1,0.19991583862304688,1.7286135986328124,-11.171344946289063
4914928882446,5.574787133,1,0.22385785522460935,1.725022296142578,-11.161768139648437
4914933880727,5.579785414,1,0.2346317626953125,1.7274164978027342,-11.182118853759764
4914938881404,5.584786091,1,0.22505495605468748,1.7417817077636717,-11.19887826538086
4914943877967,5.589782654,1,0.26216508178710934,1.7513585144042967,-11.220426080322264
4914948882238,5.594786925,1,0.2262520568847656,1.7573440185546874,-11.200075366210937
4914953880675,5.599785362,1,0.19512743530273435,1.7429788085937499,-11.148600030517578
4914958881508,5.604786195,1,0.19153613281249998,1.696291876220703,-11.158176837158203
4914963877967,5.609782654,1,0.21906945190429686,1.7681179260253905,-11.194089862060546
4914968881144,5.614785831,1,0.23702596435546874,1.7178396911621092,-11.139023223876952
4914973880675,5.619785362,1,0.23822306518554687,1.7381904052734374,-11.142614526367186
4914978881717,5.624786404,1,0.21906945190429686,1.7417817077636717,-11.135431921386719
4914983878331,5.629783018,1,0.2501940734863281,1.697488977050781,-11.195286962890624
4914988881717,5.634786404,1,0.2693476867675781,1.7669208251953124,-11.119869610595703
4914993880988,5.639785675,1,0.2454056701660156,1.7166425903320313,-11.173739147949219
4914998880623,5.64478531,1,0.21428104858398436,1.7453730102539062,-11.174936248779296
4915003873696,5.649778383,1,0.21906945190429686,1.7393875061035156,-11.212046374511718
4915008885415,5.654790102,1,0.2166752502441406,1.7034744812011717,-11.239579693603515
4915013882081,5.659786768,1,0.2214636535644531,1.7286135986328124,-11.13423482055664
4915018876561,5.664781248,1,0.20709844360351562,1.7693150268554687,-11.05762036743164
4915023877498,5.669782185,1,0.23223756103515625,1.7082628845214842,-11.21084927368164
4915028881196,5.674785883,1,0.2262520568847656,1.7465701110839842,-11.233594189453123
4915033879842,5.679784529,1,0.22385785522460935,1.7393875061035156,-11.166556542968749
4915038877186,5.684781873,1,0.1975216369628906,1.7238251953125,-11.213243475341796
4915043879217,5.689783904,1,0.19393033447265623,1.7369933044433592,-11.19887826538086
4915048881560,5.694786247,1,0.21787235107421873,1.70467158203125,-11.201272467041015
4915053880310,5.699784997,1,0.2346317626953125,1.744175909423828,-11.19887826538086
4915058882758,5.704787445,1,0.22385785522460935,1.7609353210449217,-11.307814440917968
4915063877290,5.709781977,1,0.23582886352539062,1.7489643127441405,-11.174936248779296
4915068881508,5.714786195,1,0.24779987182617186,1.7453730102539062,-11.1474029296875
4915073880102,5.719784789,1,0.2154781494140625,1.7298106994628906,-11.184513055419922
4915078881196,5.724785883,1,0.17357962036132812,1.7190367919921874,-11.170147845458983
4915083877810,5.729782497,1,0.21428104858398436,1.7489643127441405,-11.046846459960937
4915088882706,5.734787393,1,0.2561795776367187,1.7585411193847655,-11.304223138427734
4915093880675,5.739785362,1,0.22026655273437498,1.7501614135742187,-11.060014569091797
4915098881300,5.744785987,1,0.23822306518554687,1.734599102783203,-11.314997045898437
4915103877602,5.749782289,1,0.2561795776367187,1.6986860778808592,-11.171344946289063
4915108881092,5.754785779,1,0.20949264526367187,1.68551796875,-11.149797131347656
4915113881404,5.759786091,1,0.2166752502441406,1.7022773803710936,-11.09592759399414
4915118881092,5.764785779,1,0.23104046020507812,1.7525556152343749,-11.274295617675781
4915123877133,5.76978182,1,0.2059013427734375,1.707065783691406,-11.263521710205078
4915128881925,5.774786612,1,0.258573779296875,1.7489643127441405,-11.16057103881836
4915133881300,5.779785987,1,0.2166752502441406,1.714248388671875,-11.18571015625
4915138881092,5.784785779,1,0.20231004028320312,1.6986860778808592,-11.099518896484375
4915143877394,5.789782081,1,0.24660277099609373,1.744175909423828,-11.051634863281249
4915148881821,5.794786508,1,0.2753331909179687,1.7334020019531249,-11.318588348388671
4915153896977,5.799801664,1,0.20829554443359374,1.7621324218749999,-11.128249316406249
4915158881769,5.804786456,1,0.23223756103515625,1.7453730102539062,-11.062408770751953
4915163873644,5.809778331,1,0.22505495605468748,1.7118541870117185,-11.232397088623046
4915168883904,5.814788591,1,0.2166752502441406,1.7741034301757812,-11.196484063720703
4915173881665,5.819786352,1,0.21188684692382811,1.7022773803710936,-11.288660827636718
4915178882081,5.824786768,1,0.24061726684570311,1.7082628845214842,-11.146205828857422
4915183877029,5.829781716,1,0.1771709228515625,1.7525556152343749,-11.212046374511718
4915188880415,5.834785102,1,0.2059013427734375,1.7405846069335937,-11.246762298583985
4915193880988,5.839785675,1,0.23104046020507812,1.7525556152343749,-11.330559356689452
4915198880883,5.84478557,1,0.22385785522460935,1.7657237243652342,-11.164162341308593
4915203877290,5.849781977,1,0.20231004028320312,1.7106570861816406,-11.039663854980468
4915208881248,5.854785935,1,0.2537853759765625,1.7034744812011717,-11.197681164550781
4915213880206,5.859784893,1,0.2154781494140625,1.7202338928222656,-11.196484063720703
4915218881508,5.864786195,1,0.21428104858398436,1.6998831787109374,-11.139023223876952
4915223877029,5.869781716,1,0.2154781494140625,1.7190367919921874,-11.176133349609374
4915228881300,5.874785987,1,0.19632453613281248,1.697488977050781,-11.23000288696289
4915233881196,5.879785883,1,0.229843359375,1.7334020019531249,-11.131840618896483
4915238880467,5.884785154,1,0.16998831787109375,1.7549498168945312,-11.152191333007812
4915243877654,5.889782341,1,0.24301146850585936,1.7429788085937499,-11.156979736328124
4915248881665,5.894786352,1,0.24779987182617186,1.7489643127441405,-11.171344946289063
4915253880102,5.899784789,1,0.2214636535644531,1.70467158203125,-11.08395658569336
4915258881613,5.9047863,1,0.2346317626953125,1.7513585144042967,-11.203666668701171
4915263874477,5.909779164,1,0.20709844360351562,1.7753005310058592,-11.206060870361327
4915268881456,5.914786143,1,0.24660277099609373,1.7597382202148437,-11.129446417236327
4915273882081,5.919786768,1,0.23582886352539062,1.707065783691406,-11.143811627197264
4915278881717,5.924786404,1,0.24061726684570311,1.7753005310058592,-11.148600030517578
4915283878227,5.929782914,1,0.27293898925781246,1.7585411193847655,-11.282675323486327
4915288881092,5.934785779,1,0.2166752502441406,1.7369933044433592,-11.141417425537108
4915293880831,5.939785518,1,0.2645592834472656,1.7022773803710936,-11.180921752929686
4915298890310,5.944794997,1,0.2262520568847656,1.7286135986328124,-11.155782635498046
4915303879165,5.949783852,1,0.2262520568847656,1.7178396911621092,-11.158176837158203
4915308880883,5.95478557,1,0.21787235107421873,1.753752716064453,-11.164162341308593
4915313880883,5.95978557,1,0.21787235107421873,1.695094775390625,-11.152191333007812
4915318880258,5.964784945,1,0.24061726684570311,1.7465701110839842,-11.177330450439452
4915323878852,5.969783539,1,0.2454056701660156,1.7417817077636717,-11.239579693603515
4915328881144,5.974785831,1,0.23822306518554687,1.7022773803710936,-11.218031878662108
4915333881300,5.979785987,1,0.17238251953125,1.7393875061035156,-11.133037719726563
4915338880623,5.98478531,1,0.19512743530273435,1.7298106994628906,-11.207257971191405
4915343878071,5.989782758,1,0.18435352783203124,1.7094599853515624,-11.192892761230468
4915348880987,5.994785674,1,0.23822306518554687,1.7621324218749999,-11.219228979492186
4915353879998,5.999784685,1,0.258573779296875,1.7334020019531249,-11.177330450439452
4915358882029,6.004786716,1,0.2454056701660156,1.7513585144042967,-11.165359442138671
4915363878383,6.00978307,1,0.21906945190429686,1.7166425903320313,-11.16057103881836
4915368881456,6.014786143,1,0.1879448303222656,1.70467158203125,-11.235988391113281
4915373881300,6.019785987,1,0.21068974609375,1.7166425903320313,-11.250353601074218
4915378880727,6.024785414,1,0.181959326171875,1.7034744812011717,-11.174936248779296
4915383877862,6.029782549,1,0.1927332336425781,1.7573440185546874,-11.213243475341796
4915388880050,6.034784737,1,0.258573779296875,1.7477672119140624,-11.225214483642578
4915393880883,6.03978557,1,0.17836802368164062,1.763329522705078,-11.164162341308593
4915398881821,6.044786508,1,0.18435352783203124,1.7322049011230467,-11.129446417236327
4915403878435,6.049783122,1,0.2454056701660156,1.5634136840820312,-11.195286962890624
4915408881717,6.054786404,1,0.23702596435546874,1.7166425903320313,-11.168950744628905
4915413880935,6.059785622,1,0.22744915771484372,1.7561469177246092,-11.200075366210937
4915418882915,6.064787602,1,0.28012159423828126,1.744175909423828,-11.135431921386719
4915423877758,6.069782445,1,0.2346317626953125,1.7334020019531249,-11.143811627197264
4915428881092,6.074785779,1,0.277727392578125,1.7788918334960937,-11.173739147949219
4915433881092,6.079785779,1,0.22744915771484372,1.6998831787109374,-11.195286962890624
4915438881248,6.084785935,1,0.24660277099609373,1.7286135986328124,-11.188104357910156
4915443876404,6.089781091,1,0.22026655273437498,1.70467158203125,-11.167753643798827
4915448880831,6.094785518,1,0.22266075439453123,1.7238251953125,-11.204863769531249
4915453880935,6.099785622,1,0.21188684692382811,1.7010802795410156,-11.190498559570312
4915458881821,6.104786508,1,0.2549824768066406,1.7357962036132812,-11.155782635498046
4915463878540,6.109783227,1,0.20709844360351562,1.705868682861328,-11.206060870361327
4915468881717,6.114786404,1,0.23104046020507812,1.734599102783203,-11.23000288696289
4915473880519,6.119785206,1,0.19632453613281248,1.697488977050781,-11.121066711425781
4915478880675,6.124785362,1,0.22266075439453123,1.7429788085937499,-11.182118853759764
4915483877706,6.129782393,1,0.229843359375,1.7393875061035156,-11.130643518066405
4915488881977,6.134786664,1,0.2597708801269531,1.687912170410156,-11.17852755126953
4915493880362,6.139785049,1,0.26336218261718747,1.695094775390625,-11.221623181152344
4915498881769,6.144786456,1,0.19871873779296872,1.7369933044433592,-11.129446417236327
4915503878227,6.149782914,1,0.24301146850585936,1.7094599853515624,-11.180921752929686
4915508880727,6.154785414,1,0.23223756103515625,1.7357962036132812,-11.143811627197264
4915513872237,6.159776924,1,0.2059013427734375,1.7034744812011717,-11.189301458740234
4915518876508,6.164781195,1,0.2537853759765625,1.7513585144042967,-11.23000288696289
4915523877342,6.169782029,1,0.19033903198242186,1.7214309936523438,-11.092336291503905
4915528880883,6.17478557,1,0.1975216369628906,1.7118541870117185,-11.19169566040039
4915533880675,6.179785362,1,0.2765302917480469,1.7453730102539062,-11.220426080322264
4915538881456,6.184786143,1,0.229843359375,1.715445489501953,-11.21084927368164
4915543878175,6.189782862,1,0.22864625854492185,1.8363526733398436,-11.209652172851563
4915548880050,6.194784737,1,0.21906945190429686,1.5789759948730469,-11.174936248779296
4915553880675,6.199785362,1,0.25258827514648435,1.7334020019531249,-11.162965240478515
4915558880414,6.204785101,1,0.23822306518554687,1.7322049011230467,-11.156979736328124
4915563878539,6.209783226,1,0.1975216369628906,1.725022296142578,-11.152191333007812
4915568880935,6.214785622,1,0.24181436767578124,1.7669208251953124,-11.16057103881836
4915573881092,6.219785779,1,0.23582886352539062,1.744175909423828,-11.207257971191405
4915578881196,6.224785883,1,0.20949264526367187,1.7465701110839842,-11.221623181152344
4915583878748,6.229783435,1,0.25258827514648435,1.7417817077636717,-11.204863769531249
4915588881404,6.234786091,1,0.22266075439453123,1.7322049011230467,-11.19887826538086
4915593880154,6.239784841,1,0.21787235107421873,1.7226280944824217,-11.219228979492186
4915598880362,6.244785049,1,0.16879121704101563,1.714248388671875,-11.11508120727539
4915603877810,6.249782497,1,0.28490999755859375,1.7573440185546874,-11.141417425537108
4915608881092,6.254785779,1,0.20350714111328125,1.7393875061035156,-11.218031878662108
4915613880571,6.259785258,1,0.24181436767578124,1.7334020019531249,-11.192892761230468
4915618880206,6.264784893,1,0.2442085693359375,1.7597382202148437,-11.158176837158203
4915623877914,6.269782601,1,0.20231004028320312,1.7226280944824217,-11.152191333007812
4915628882289,6.274786976,1,0.23822306518554687,1.7298106994628906,-11.10191309814453
4915633881717,6.279786404,1,0.21428104858398436,1.70467158203125,-11.202469567871093
4915638881092,6.284785779,1,0.2346317626953125,1.7214309936523438,-11.165359442138671
4915643877342,6.289782029,1,0.21068974609375,1.734599102783203,-11.112687005615234
4915648880883,6.29478557,1,0.26216508178710934,1.7741034301757812,-11.137826123046874
4915653880258,6.299784945,1,0.21906945190429686,1.7561469177246092,-11.17254204711914
4915658879998,6.304784685,1,0.22266075439453123,1.7812860351562498,-11.156979736328124
4915663877342,6.309782029,1,0.24181436767578124,1.7513585144042967,-11.133037719726563
4915668880571,6.314785258,1,0.2454056701660156,1.7082628845214842,-11.189301458740234
4915673879946,6.319784633,1,0.25258827514648435,1.7274164978027342,-11.170147845458983
4915678880467,6.324785154,1,0.23104046020507812,1.7226280944824217,-11.162965240478515
4915683878071,6.329782758,1,0.2214636535644531,1.753752716064453,-11.179724652099608
4915688881560,6.334786247,1,0.20829554443359374,1.7669208251953124,-11.192892761230468
4915693881248,6.339785935,1,0.23582886352539062,1.707065783691406,-11.14022032470703
4915698881612,6.344786299,1,0.19512743530273435,1.7393875061035156,-11.176133349609374
4915703878331,6.349783018,1,0.23822306518554687,1.7118541870117185,-11.212046374511718
4915708880623,6.35478531,1,0.21188684692382811,1.7609353210449217,-11.149797131347656
4915713880727,6.359785414,1,0.20350714111328125,1.697488977050781,-11.244368096923827
4915718880883,6.36478557,1,0.2537853759765625,1.7190367919921874,-11.154585534667968
4915723877081,6.369781768,1,0.2166752502441406,1.7573440185546874,-11.145008728027342
4915728880466,6.374785153,1,0.22385785522460935,1.753752716064453,-11.16057103881836
4915733881196,6.379785883,1,0.20709844360351562,1.715445489501953,-11.152191333007812
4915738881456,6.384786143,1,0.2442085693359375,1.7166425903320313,-11.13423482055664
4915743878071,6.389782758,1,0.24899697265624998,1.7238251953125,-11.190498559570312
4915748881091,6.394785778,1,0.1879448303222656,1.7525556152343749,-11.133037719726563
4915753881196,6.399785883,1,0.2346317626953125,1.725022296142578,-11.174936248779296
4915758896508,6.404801195,1,0.24301146850585936,1.7465701110839842,-11.220426080322264
4915763878956,6.409783643,1,0.19871873779296872,1.7369933044433592,-11.12226381225586
4915768881664,6.414786351,1,0.20350714111328125,1.7453730102539062,-11.203666668701171
4915773876769,6.419781456,1,0.24899697265624998,1.7010802795410156,-11.141417425537108
4915778881508,6.424786195,1,0.24660277099609373,1.696291876220703,-11.183315954589844
4915783877550,6.429782237,1,0.21906945190429686,1.715445489501953,-11.182118853759764
4915788880987,6.434785674,1,0.22026655273437498,1.7094599853515624,-11.200075366210937
4915793880102,6.439784789,1,0.1975216369628906,1.7705121276855467,-11.204863769531249
4915798881769,6.444786456,1,0.20231004028320312,1.70467158203125,-11.222820281982422
4915803877862,6.449782549,1,0.22385785522460935,1.7334020019531249,-11.213243475341796
4915808881300,6.454785987,1,0.1879448303222656,1.7525556152343749,-11.135431921386719
4915813880154,6.459784841,1,0.19393033447265623,1.744175909423828,-11.208455072021483
4915818881612,6.464786299,1,0.21308394775390624,1.7130512878417967,-11.164162341308593
4915823879737,6.469784424,1,0.25258827514648435,1.7094599853515624,-11.161768139648437
4915828880935,6.474785622,1,0.19512743530273435,1.7226280944824217,-11.273098516845703
4915833881612,6.479786299,1,0.17477672119140625,1.763329522705078,-11.131840618896483
4915838881821,6.484786508,1,0.19153613281249998,1.7274164978027342,-11.240776794433593
4915843877550,6.489782237,1,0.17836802368164062,1.7274164978027342,-11.222820281982422
4915848880883,6.49478557,1,0.22864625854492185,1.7717092285156248,-11.112687005615234
4915853881091,6.499785778,1,0.239420166015625,1.697488977050781,-11.107898602294922
4915858881144,6.504785831,1,0.2166752502441406,1.7573440185546874,-11.215637677001952
4915863878435,6.509783122,1,0.21308394775390624,1.7274164978027342,-11.141417425537108
4915868882029,6.514786716,1,0.24899697265624998,1.678335363769531,-11.190498559570312
4915873881612,6.519786299,1,0.23582886352539062,1.7262193969726563,-11.250353601074218
4915878880883,6.52478557,1,0.2214636535644531,1.695094775390625,-11.14022032470703
4915883878539,6.529783226,1,0.24301146850585936,1.7082628845214842,-11.206060870361327
4915888892706,6.534797393,1,0.1927332336425781,1.801636749267578,-11.131840618896483
4915893883331,6.539788018,1,0.23223756103515625,1.695094775390625,-11.141417425537108
4915898882185,6.544786872,1,0.21308394775390624,1.725022296142578,-11.176133349609374
4915903877706,6.549782393,1,0.24660277099609373,1.7166425903320313,-11.171344946289063
4915908881508,6.554786195,1,0.23223756103515625,1.7334020019531249,-11.214440576171874
4915913881456,6.559786143,1,0.24061726684570311,1.7429788085937499,-11.202469567871093
4915918880727,6.564785414,1,0.19153613281249998,1.705868682861328,-11.220426080322264
4915923877654,6.569782341,1,0.239420166015625,1.7130512878417967,-11.179724652099608
4915928881664,6.574786351,1,0.23822306518554687,1.7262193969726563,-11.214440576171874
4915933881248,6.579785935,1,0.229843359375,1.7836802368164062,-11.195286962890624
4915938882081,6.584786768,1,0.18435352783203124,1.714248388671875,-11.206060870361327
4915943877758,6.589782445,1,0.2214636535644531,1.7298106994628906,-11.164162341308593
4915948880987,6.594785674,1,0.23343466186523437,1.7884686401367187,-11.156979736328124
4915953881404,6.599786091,1,0.229843359375,1.7549498168945312,-11.206060870361327
4915958880831,6.604785518,1,0.17956512451171874,1.725022296142578,-11.220426080322264
4915963878175,6.609782862,1,0.20231004028320312,1.7010802795410156,-11.143811627197264
4915968880362,6.614785049,1,0.24061726684570311,1.7226280944824217,-11.196484063720703
4915973881404,6.619786091,1,0.25258827514648435,1.7214309936523438,-11.17254204711914
4915978880883,6.62478557,1,0.2442085693359375,1.7393875061035156,-11.17852755126953
4915983879008,6.629783695,1,0.21906945190429686,1.7238251953125,-11.183315954589844
4915988881143,6.63478583,1,0.19871873779296872,1.7681179260253905,-11.159373937988281
4915993880987,6.639785674,1,0.2537853759765625,1.7405846069335937,-11.158176837158203
4915998881404,6.644786091,1,0.181959326171875,1.6807295654296874,-11.201272467041015
4916003879268,6.649783955,1,0.19871873779296872,1.7238251953125,-11.174936248779296
4916008879685,6.654784372,1,0.24779987182617186,1.7453730102539062,-11.154585534667968
4916013883539,6.659788226,1,0.2657563842773437,1.7381904052734374,-11.135431921386719
4916018880675,6.664785362,1,0.21787235107421873,1.7369933044433592,-11.188104357910156
4916023878175,6.669782862,1,0.16759411621093748,1.7334020019531249,-11.184513055419922
4916028876300,6.674780987,1,0.20470424194335937,1.7262193969726563,-11.188104357910156
4916033881508,6.679786195,1,0.20350714111328125,1.7310078002929687,-11.177330450439452
4916038881768,6.684786455,1,0.23343466186523437,1.7178396911621092,-11.207257971191405
4916043878279,6.689782966,1,0.20470424194335937,1.7166425903320313,-11.139023223876952
4916048881039,6.694785726,1,0.2454056701660156,1.782483135986328,-11.222820281982422
4916053881821,6.699786508,1,0.21308394775390624,1.7609353210449217,-11.162965240478515
4916058881456,6.704786143,1,0.2537853759765625,1.687912170410156,-11.188104357910156
4916063877914,6.709782601,1,0.23104046020507812,1.7298106994628906,-11.188104357910156
4916068880727,6.714785414,1,0.20470424194335937,1.7393875061035156,-11.209652172851563
4916073880935,6.719785622,1,0.18914193115234373,1.7417817077636717,-11.263521710205078
4916078881456,6.724786143,1,0.277727392578125,1.7513585144042967,-11.196484063720703
4916083878643,6.72978333,1,0.19153613281249998,1.6831237670898436,-11.208455072021483
4916088881352,6.734786039,1,0.2262520568847656,1.7753005310058592,-11.244368096923827
4916093881196,6.739785883,1,0.23702596435546874,1.7513585144042967,-11.251550701904296
4916098880623,6.74478531,1,0.19512743530273435,1.7609353210449217,-11.190498559570312
4916103878071,6.749782758,1,0.2262520568847656,1.7322049011230467,-11.196484063720703
4916108881352,6.754786039,1,0.23104046020507812,1.715445489501953,-11.173739147949219
4916113880935,6.759785622,1,0.24899697265624998,1.6986860778808592,-11.164162341308593
4916118880675,6.764785362,1,0.22744915771484372,1.707065783691406,-11.15338843383789
4916123877862,6.769782549,1,0.19871873779296872,1.7118541870117185,-11.221623181152344
4916128880779,6.774785466,1,0.20231004028320312,1.7369933044433592,-11.19887826538086
4916133880050,6.779784737,1,0.201112939453125,1.8004396484374998,-11.209652172851563
4916138880310,6.784784997,1,0.19871873779296872,1.7525556152343749,-11.204863769531249
4916143877550,6.789782237,1,0.24061726684570311,1.7513585144042967,-11.146205828857422
4916148880883,6.79478557,1,0.23343466186523437,1.7286135986328124,-11.226411584472656
4916153879945,6.799784632,1,0.24181436767578124,1.7489643127441405,-11.17254204711914
4916158880414,6.804785101,1,0.1927332336425781,1.7214309936523438,-11.25514200439453
4916163894008,6.809798695,1,0.19991583862304688,1.707065783691406,-11.214440576171874
4916168881873,6.81478656,1,0.18076222534179687,1.7190367919921874,-11.142614526367186
4916173881560,6.819786247,1,0.2154781494140625,1.725022296142578,-11.091139190673827
4916178880570,6.824785257,1,0.16998831787109375,1.7872715393066405,-11.233594189453123
4916183877914,6.829782601,1,0.25139117431640623,1.7429788085937499,-11.206060870361327
4916188876352,6.834781039,1,0.15322890625,1.7286135986328124,-11.220426080322264
4916193880727,6.839785414,1,0.20350714111328125,1.7513585144042967,-11.263521710205078
4916198881248,6.844785935,1,0.16160861206054686,1.7525556152343749,-11.207257971191405
4916203878070,6.849782757,1,0.21068974609375,1.7369933044433592,-11.197681164550781
4916208881300,6.854785987,1,0.2214636535644531,1.7741034301757812,-11.201272467041015
4916213880675,6.859785362,1,0.24301146850585936,1.7094599853515624,-11.143811627197264
4916218881404,6.864786091,1,0.2693476867675781,1.7334020019531249,-11.186907257080078
4916223877810,6.869782497,1,0.2059013427734375,1.7286135986328124,-11.149797131347656
4916228881612,6.874786299,1,0.20949264526367187,1.7118541870117185,-11.213243475341796
4916233880414,6.879785101,1,0.2537853759765625,1.7106570861816406,-11.133037719726563
4916238881091,6.884785778,1,0.239420166015625,1.7369933044433592,-11.188104357910156
4916243877706,6.889782393,1,0.20829554443359374,1.7453730102539062,-11.19169566040039
4916248880831,6.894785518,1,0.2454056701660156,1.7513585144042967,-11.215637677001952
4916253880570,6.899785257,1,0.2059013427734375,1.7190367919921874,-11.212046374511718
4916258877602,6.904782289,1,0.24660277099609373,1.744175909423828,-11.188104357910156
4916263912706,6.909817393,1,0.2501940734863281,1.687912170410156,-11.183315954589844
4916268882029,6.914786716,1,0.1879448303222656,1.7334020019531249,-11.135431921386719
4916273880883,6.91978557,1,0.21308394775390624,1.7178396911621092,-11.146205828857422
4916278880310,6.924784997,1,0.17597382202148437,1.697488977050781,-11.186907257080078
4916283873487,6.929778174,1,0.21068974609375,1.7621324218749999,-11.251550701904296
4916288882498,6.934787185,1,0.19991583862304688,1.7310078002929687,-11.227608685302734
4916293880362,6.939785049,1,0.2154781494140625,1.7417817077636717,-11.19169566040039
4916298881404,6.944786091,1,0.29568390502929687,1.7022773803710936,-11.168950744628905
4916303878539,6.949783226,1,0.1927332336425781,1.7381904052734374,-11.173739147949219
4916308880883,6.95478557,1,0.2454056701660156,1.6915034729003906,-11.150994232177734
4916313880050,6.959784737,1,0.21428104858398436,1.6831237670898436,-11.239579693603515
4916318881456,6.964786143,1,0.19871873779296872,1.7621324218749999,-11.165359442138671
4916323878175,6.969782862,1,0.22385785522460935,1.7860744384765623,-11.190498559570312
4916328880935,6.974785622,1,0.2454056701660156,1.7190367919921874,-11.204863769531249
4916333880310,6.979784997,1,0.21906945190429686,1.6986860778808592,-11.196484063720703
4916338881091,6.984785778,1,0.19512743530273435,1.7645266235351562,-11.158176837158203
4916343877914,6.989782601,1,0.19991583862304688,1.7274164978027342,-11.162965240478515
4916348881664,6.994786351,1,0.181959326171875,1.7621324218749999,-11.19887826538086
4916353880987,6.999785674,1,0.28012159423828126,1.7118541870117185,-11.231199987792968
4916358890310,7.004794997,1,0.22864625854492185,1.7477672119140624,-11.137826123046874
4916363920987,7.009825674,1,0.24899697265624998,1.695094775390625,-11.179724652099608
4916368882185,7.014786872,1,0.1975216369628906,1.6603788513183593,-11.280281121826171
4916373881300,7.019785987,1,0.229843359375,1.7369933044433592,-11.188104357910156
4916378881091,7.024785778,1,0.19871873779296872,1.7118541870117185,-11.252747802734374
4916383877914,7.029782601,1,0.2609679809570312,1.7286135986328124,-11.131840618896483
