timestamp_ns,t_s,sensor_id,ax,ay,az
3460459255397,0.074776302,1,0.229843359375,1.7549498168945312,-11.192892761230468
3460479220605,0.09474151,1,0.23702596435546874,1.7334020019531249,-11.19169566040039
3460499213365,0.11473427,1,0.2609679809570312,1.7322049011230467,-11.179724652099608
3460519219042,0.134739947,1,0.239420166015625,1.725022296142578,-11.202469567871093
3460539213001,0.154733906,1,0.20350714111328125,1.7405846069335937,-11.161768139648437
3460559212115,0.17473302,1,0.25139117431640623,1.7310078002929687,-11.204863769531249
3460579207167,0.194728072,1,0.201112939453125,1.7094599853515624,-11.168950744628905
3460599212011,0.214732916,1,0.21906945190429686,1.7429788085937499,-11.168950744628905
3460619210865,0.23473177,1,0.23343466186523437,1.7178396911621092,-11.192892761230468
3460639208209,0.254729114,1,0.2166752502441406,1.7489643127441405,-11.1474029296875
3460659211386,0.274732291,1,0.2346317626953125,1.7465701110839842,-11.17254204711914
3460679211490,0.294732395,1,0.22385785522460935,1.7286135986328124,-11.161768139648437
3460699207272,0.314728177,1,0.2442085693359375,1.7238251953125,-11.179724652099608
3460719210188,0.334731093,1,0.22505495605468748,1.7465701110839842,-11.148600030517578
3460739211386,0.354732291,1,0.2346317626953125,1.7310078002929687,-11.194089862060546
3460759207324,0.374728229,1,0.22505495605468748,1.7334020019531249,-11.166556542968749
3460779210865,0.39473177,1,0.23104046020507812,1.7202338928222656,-11.259930407714844
3460799210292,0.414731197,1,0.22744915771484372,1.7310078002929687,-11.200075366210937
3460819211490,0.434732395,1,0.23343466186523437,1.725022296142578,-11.171344946289063
3460839209667,0.454730572,1,0.20949264526367187,1.7369933044433592,-11.180921752929686
3460859209824,0.474730729,1,0.21068974609375,1.7214309936523438,-11.197681164550781
3460879205813,0.494726718,1,0.23582886352539062,1.7130512878417967,-11.196484063720703
3460899210240,0.514731145,1,0.22744915771484372,1.734599102783203,-11.176133349609374
3460919210032,0.534730937,1,0.1927332336425781,1.7274164978027342,-11.219228979492186
3460939207428,0.554728333,1,0.22505495605468748,1.7214309936523438,-11.209652172851563
3460959209094,0.574729999,1,0.23343466186523437,1.7477672119140624,-11.207257971191405
3460979210188,0.594731093,1,0.22385785522460935,1.707065783691406,-11.164162341308593
3460999206230,0.614727135,1,0.229843359375,1.7489643127441405,-11.173739147949219
3461019210240,0.634731145,1,0.23343466186523437,1.7393875061035156,-11.213243475341796
3461039210553,0.654731458,1,0.21906945190429686,1.7190367919921874,-11.208455072021483
3461059206230,0.674727135,1,0.2166752502441406,1.7310078002929687,-11.19887826538086
3461079210865,0.69473177,1,0.22505495605468748,1.753752716064453,-11.201272467041015
3461099213626,0.714734531,1,0.2262520568847656,1.7357962036132812,-11.188104357910156
3461119206907,0.734727812,1,0.25139117431640623,1.7202338928222656,-11.197681164550781
3461139210292,0.754731197,1,0.24061726684570311,1.7357962036132812,-11.218031878662108
3461159209355,0.77473026,1,0.23223756103515625,1.7369933044433592,-11.200075366210937
3461179205709,0.794726614,1,0.21906945190429686,1.7298106994628906,-11.177330450439452
3461199209667,0.814730572,1,0.22385785522460935,1.7477672119140624,-11.177330450439452
3461219209823,0.834730728,1,0.2442085693359375,1.7298106994628906,-11.173739147949219
3461239207063,0.854727968,1,0.23104046020507812,1.7405846069335937,-11.196484063720703
3461259209719,0.874730624,1,0.2166752502441406,1.7286135986328124,-11.156979736328124
3461279209771,0.894730676,1,0.21188684692382811,1.7238251953125,-11.239579693603515
3461299205657,0.914726562,1,0.1975216369628906,1.7322049011230467,-11.23718549194336
3461319209042,0.934729947,1,0.2501940734863281,1.7166425903320313,-11.179724652099608
3461339209563,0.954730468,1,0.21906945190429686,1.7298106994628906,-11.171344946289063
3461359206125,0.97472703,1,0.25139117431640623,1.7130512878417967,-11.213243475341796
3461379209042,0.994729947,1,0.19871873779296872,1.6986860778808592,-11.161768139648437
3461399209250,1.014730155,1,0.21787235107421873,1.714248388671875,-11.16057103881836
3461419206021,1.034726926,1,0.21787235107421873,1.7501614135742187,-11.173739147949219
3461439208886,1.054729791,1,0.18315642700195311,1.734599102783203,-11.196484063720703
3461459209563,1.074730468,1,0.239420166015625,1.753752716064453,-11.202469567871093
3461479205500,1.094726405,1,0.239420166015625,1.7166425903320313,-11.200075366210937
3461499210761,1.114731666,1,0.23582886352539062,1.7369933044433592,-11.194089862060546
3461519209511,1.134730416,1,0.239420166015625,1.7525556152343749,-11.212046374511718
3461539205865,1.15472677,1,0.23822306518554687,1.7501614135742187,-11.208455072021483
3461559210136,1.174731041,1,0.229843359375,1.70467158203125,-11.212046374511718
3461579210605,1.19473151,1,0.22026655273437498,1.7310078002929687,-11.220426080322264
3461599207063,1.214727968,1,0.229843359375,1.697488977050781,-11.192892761230468
3461619210344,1.234731249,1,0.27293898925781246,1.7489643127441405,-11.170147845458983
3461639209355,1.25473026,1,0.2166752502441406,1.7238251953125,-11.177330450439452
3461659206282,1.274727187,1,0.24181436767578124,1.7310078002929687,-11.206060870361327
3461679210084,1.294730989,1,0.2501940734863281,1.715445489501953,-11.206060870361327
3461699210657,1.314731562,1,0.23104046020507812,1.7298106994628906,-11.196484063720703
3461719207375,1.33472828,1,0.229843359375,1.725022296142578,-11.202469567871093
3461739208729,1.354729634,1,0.2442085693359375,1.744175909423828,-11.194089862060546
3461759210604,1.374731509,1,0.2262520568847656,1.7214309936523438,-11.204863769531249
3461779205917,1.394726822,1,0.22026655273437498,1.715445489501953,-11.194089862060546
3461799209979,1.414730884,1,0.2059013427734375,1.7310078002929687,-11.212046374511718
3461819210188,1.434731093,1,0.21787235107421873,1.744175909423828,-11.170147845458983
3461839206542,1.454727447,1,0.23702596435546874,1.7214309936523438,-11.234791290283203
3461859210865,1.47473177,1,0.19153613281249998,1.707065783691406,-11.190498559570312
3461879211125,1.49473203,1,0.22266075439453123,1.715445489501953,-11.189301458740234
3461899206438,1.514727343,1,0.2609679809570312,1.697488977050781,-11.215637677001952
3461919210240,1.534731145,1,0.2154781494140625,1.7322049011230467,-11.176133349609374
3461939210500,1.554731405,1,0.2346317626953125,1.7274164978027342,-11.194089862060546
3461959207063,1.574727968,1,0.1975216369628906,1.7405846069335937,-11.143811627197264
3461979210500,1.594731405,1,0.20829554443359374,1.7286135986328124,-11.188104357910156
3461999209563,1.614730468,1,0.24301146850585936,1.7501614135742187,-11.190498559570312
3462019209094,1.634729999,1,0.23822306518554687,1.7489643127441405,-11.180921752929686
3462039211125,1.65473203,1,0.21428104858398436,1.7106570861816406,-11.19169566040039
3462059209563,1.674730468,1,0.22505495605468748,1.7202338928222656,-11.196484063720703
3462079206542,1.694727447,1,0.1975216369628906,1.7417817077636717,-11.18571015625
3462099209979,1.714730884,1,0.22385785522460935,1.7190367919921874,-11.174936248779296
3462119210865,1.73473177,1,0.23702596435546874,1.7334020019531249,-11.17852755126953
3462139207479,1.754728384,1,0.2442085693359375,1.725022296142578,-11.182118853759764
3462159210917,1.774731822,1,0.22266075439453123,1.7477672119140624,-11.196484063720703
3462179210188,1.794731093,1,0.239420166015625,1.7334020019531249,-11.17254204711914
3462199206802,1.814727707,1,0.21428104858398436,1.7381904052734374,-11.17852755126953
3462219210552,1.834731457,1,0.22385785522460935,1.705868682861328,-11.203666668701171
3462239210708,1.854731613,1,0.22505495605468748,1.7298106994628906,-11.186907257080078
3462259206438,1.874727343,1,0.24301146850585936,1.7310078002929687,-11.19887826538086
3462279210136,1.894731041,1,0.22026655273437498,1.7405846069335937,-11.170147845458983
3462299210552,1.914731457,1,0.2657563842773437,1.725022296142578,-11.170147845458983
3462319207011,1.934727916,1,0.24779987182617186,1.7322049011230467,-11.188104357910156
3462339209615,1.95473052,1,0.22385785522460935,1.744175909423828,-11.204863769531249
3462359218573,1.974739478,1,0.22266075439453123,1.7262193969726563,-11.180921752929686
3462379207115,1.99472802,1,0.23343466186523437,1.7238251953125,-11.200075366210937
3462399211021,2.014731926,1,0.22744915771484372,1.7298106994628906,-11.176133349609374
3462419210448,2.034731353,1,0.23343466186523437,1.7369933044433592,-11.203666668701171
3462439206594,2.054727499,1,0.25737667846679685,1.7166425903320313,-11.209652172851563
3462459214198,2.074735103,1,0.24899697265624998,1.7130512878417967,-11.186907257080078
3462479213000,2.094733905,1,0.21428104858398436,1.7381904052734374,-11.196484063720703
3462499206281,2.114727186,1,0.23223756103515625,1.715445489501953,-11.19887826538086
3462519210760,2.134731665,1,0.22266075439453123,1.7286135986328124,-11.17852755126953
3462539210083,2.154730988,1,0.2346317626953125,1.7262193969726563,-11.17852755126953
3462559206229,2.174727134,1,0.24301146850585936,1.7334020019531249,-11.177330450439452
3462579209719,2.194730624,1,0.25258827514648435,1.7393875061035156,-11.195286962890624
3462599209823,2.214730728,1,0.21428104858398436,1.7334020019531249,-11.165359442138671
3462619206333,2.234727238,1,0.2166752502441406,1.697488977050781,-11.203666668701171
3462639209823,2.254730728,1,0.21787235107421873,1.7094599853515624,-11.196484063720703
3462659209719,2.274730624,1,0.22505495605468748,1.7286135986328124,-11.207257971191405
3462679206646,2.294727551,1,0.24660277099609373,1.7226280944824217,-11.179724652099608
3462699211021,2.314731926,1,0.24301146850585936,1.7381904052734374,-11.190498559570312
3462719209823,2.334730728,1,0.22266075439453123,1.7310078002929687,-11.189301458740234
3462739206594,2.354727499,1,0.24660277099609373,1.7214309936523438,-11.222820281982422
3462759211490,2.374732395,1,0.22505495605468748,1.7405846069335937,-11.15338843383789
3462779210812,2.394731717,1,0.22266075439453123,1.7357962036132812,-11.186907257080078
3462799206073,2.414726978,1,0.22266075439453123,1.7262193969726563,-11.190498559570312
3462819210135,2.43473104,1,0.23223756103515625,1.7286135986328124,-11.23718549194336
3462839211594,2.454732499,1,0.22266075439453123,1.7022773803710936,-11.23718549194336
3462859206073,2.474726978,1,0.22026655273437498,1.7262193969726563,-11.174936248779296
3462879210552,2.494731457,1,0.19033903198242186,1.7178396911621092,-11.167753643798827
3462899209979,2.514730884,1,0.20949264526367187,1.744175909423828,-11.197681164550781
3462919206281,2.534727186,1,0.24061726684570311,1.7262193969726563,-11.202469567871093
3462939210292,2.554731197,1,0.23582886352539062,1.7381904052734374,-11.136629022216797
3462959211229,2.574732134,1,0.23343466186523437,1.7214309936523438,-11.18571015625
3462979206281,2.594727186,1,0.23702596435546874,1.7178396911621092,-11.212046374511718
3462999210187,2.614731092,1,0.21068974609375,1.7489643127441405,-11.19887826538086
3463019209875,2.63473078,1,0.24061726684570311,1.7214309936523438,-11.218031878662108
3463039205864,2.654726769,1,0.23343466186523437,1.7226280944824217,-11.186907257080078
3463059209562,2.674730467,1,0.23223756103515625,1.707065783691406,-11.173739147949219
3463079209771,2.694730676,1,0.2346317626953125,1.707065783691406,-11.194089862060546
3463099206281,2.714727186,1,0.229843359375,1.7369933044433592,-11.195286962890624
3463119210396,2.734731301,1,0.2262520568847656,1.7453730102539062,-11.18571015625
3463139209614,2.754730519,1,0.23582886352539062,1.7429788085937499,-11.203666668701171
3463159205344,2.774726249,1,0.21906945190429686,1.7178396911621092,-11.200075366210937
3463179209562,2.794730467,1,0.23582886352539062,1.7369933044433592,-11.200075366210937
3463199209198,2.814730103,1,0.24660277099609373,1.7286135986328124,-11.192892761230468
3463219205708,2.834726613,1,0.18914193115234373,1.7417817077636717,-11.215637677001952
3463239209718,2.854730623,1,0.21906945190429686,1.7298106994628906,-11.213243475341796
3463259210708,2.874731613,1,0.22744915771484372,1.725022296142578,-11.204863769531249
3463279205916,2.894726821,1,0.21428104858398436,1.7405846069335937,-11.19169566040039
3463299210812,2.914731717,1,0.23822306518554687,1.744175909423828,-11.165359442138671
3463319209875,2.93473078,1,0.2166752502441406,1.7417817077636717,-11.158176837158203
3463339206489,2.954727394,1,0.23343466186523437,1.7274164978027342,-11.150994232177734
3463359208729,2.974729634,1,0.2166752502441406,1.7118541870117185,-11.189301458740234
3463379209562,2.994730467,1,0.21308394775390624,1.7130512878417967,-11.16057103881836
3463399206333,3.014727238,1,0.229843359375,1.7334020019531249,-11.200075366210937
3463419209302,3.034730207,1,0.2346317626953125,1.7393875061035156,-11.184513055419922
3463439209406,3.054730311,1,0.23822306518554687,1.7262193969726563,-11.19887826538086
3463459205604,3.074726509,1,0.23822306518554687,1.734599102783203,-11.161768139648437
3463479211489,3.094732394,1,0.23702596435546874,1.7226280944824217,-11.155782635498046
3463499210864,3.114731769,1,0.22266075439453123,1.7238251953125,-11.171344946289063
3463519206958,3.134727863,1,0.21906945190429686,1.734599102783203,-11.156979736328124
3463539210916,3.154731821,1,0.22026655273437498,1.7238251953125,-11.17852755126953
3463559210187,3.174731092,1,0.23582886352539062,1.7369933044433592,-11.166556542968749
3463579206541,3.194727446,1,0.23702596435546874,1.7298106994628906,-11.233594189453123
3463599209354,3.214730259,1,0.22026655273437498,1.7405846069335937,-11.158176837158203
3463619210083,3.234730988,1,0.20231004028320312,1.7262193969726563,-11.16057103881836
3463639205448,3.254726353,1,0.23223756103515625,1.725022296142578,-11.159373937988281
3463659210552,3.274731457,1,0.21308394775390624,1.707065783691406,-11.19169566040039
3463679209614,3.294730519,1,0.19991583862304688,1.7525556152343749,-11.188104357910156
3463699206489,3.314727394,1,0.24061726684570311,1.7310078002929687,-11.145008728027342
3463719210916,3.334731821,1,0.19632453613281248,1.7513585144042967,-11.136629022216797
3463739210760,3.354731665,1,0.22864625854492185,1.715445489501953,-11.194089862060546
3463759205760,3.374726665,1,0.2346317626953125,1.7585411193847655,-11.221623181152344
3463779210291,3.394731196,1,0.23223756103515625,1.7262193969726563,-11.202469567871093
3463799210708,3.414731613,1,0.22266075439453123,1.7310078002929687,-11.202469567871093
3463819207166,3.434728071,1,0.22385785522460935,1.7549498168945312,-11.194089862060546
3463839211802,3.454732707,1,0.21068974609375,1.734599102783203,-11.176133349609374
3463859210135,3.47473104,1,0.2166752502441406,1.7417817077636717,-11.186907257080078
3463879206749,3.494727654,1,0.2154781494140625,1.7393875061035156,-11.167753643798827
3463899210239,3.514731144,1,0.23822306518554687,1.7202338928222656,-11.195286962890624
3463919209770,3.534730675,1,0.21906945190429686,1.7238251953125,-11.204863769531249
3463939206906,3.554727811,1,0.22744915771484372,1.707065783691406,-11.220426080322264
3463959225812,3.574746717,1,0.22744915771484372,1.7226280944824217,-11.174936248779296
3463979224093,3.594744998,1,0.2214636535644531,1.7334020019531249,-11.213243475341796
3463999220395,3.6147413,1,0.20949264526367187,1.7381904052734374,-11.168950744628905
3464019218572,3.634739477,1,0.2059013427734375,1.7226280944824217,-11.177330450439452
3464039293624,3.654814529,1,0.22505495605468748,1.715445489501953,-11.220426080322264
3464059235135,3.67475604,1,0.23582886352539062,1.7238251953125,-11.180921752929686
3464079232687,3.694753592,1,0.239420166015625,1.7202338928222656,-11.171344946289063
3464099225291,3.714746196,1,0.2442085693359375,1.7322049011230467,-11.197681164550781
3464119231854,3.734752759,1,0.21068974609375,1.725022296142578,-11.188104357910156
3464139270031,3.754790936,1,0.2346317626953125,1.7322049011230467,-11.202469567871093
3464159231124,3.774752029,1,0.2537853759765625,1.725022296142578,-11.221623181152344
3464179233208,3.794754113,1,0.2442085693359375,1.7274164978027342,-11.167753643798827
3464199227010,3.814747915,1,0.22744915771484372,1.7298106994628906,-11.207257971191405
3464219229301,3.834750206,1,0.23582886352539062,1.7202338928222656,-11.184513055419922
3464239270708,3.854791613,1,0.23822306518554687,1.7417817077636717,-11.183315954589844
3464259233260,3.874754165,1,0.23104046020507812,1.7393875061035156,-11.207257971191405
3464279232999,3.894753904,1,0.20949264526367187,1.7405846069335937,-11.179724652099608
3464299225968,3.914746873,1,0.23702596435546874,1.7513585144042967,-11.21683477783203
3464319232895,3.9347538,1,0.22744915771484372,1.7118541870117185,-11.164162341308593
3464339268989,3.954789894,1,0.2166752502441406,1.7465701110839842,-11.206060870361327
3464359243156,3.974764061,1,0.19033903198242186,1.7082628845214842,-11.170147845458983
3464379234978,3.994755883,1,0.19871873779296872,1.7501614135742187,-11.188104357910156
3464399226958,4.014747863,1,0.22385785522460935,1.7381904052734374,-11.196484063720703
3464419232583,4.034753488,1,0.23343466186523437,1.7202338928222656,-11.195286962890624
3464439276281,4.054797186,1,0.21787235107421873,1.7585411193847655,-11.214440576171874
3464459236385,4.07475729,1,0.21906945190429686,1.7166425903320313,-11.204863769531249
3464479231645,4.09475255,1,0.21787235107421873,1.7561469177246092,-11.17254204711914
3464499227843,4.114748748,1,0.20350714111328125,1.7178396911621092,-11.219228979492186
3464519233676,4.134754581,1,0.2059013427734375,1.7130512878417967,-11.19169566040039
3464539232478,4.154753383,1,0.2214636535644531,1.7298106994628906,-11.189301458740234
3464559232999,4.174753904,1,0.2166752502441406,1.7453730102539062,-11.192892761230468
3464579231645,4.19475255,1,0.21068974609375,1.7214309936523438,-11.214440576171874
3464599225499,4.214746404,1,0.21188684692382811,1.7681179260253905,-11.182118853759764
3464619231072,4.234751977,1,0.229843359375,1.7489643127441405,-11.186907257080078
3464639317999,4.254838904,1,0.23822306518554687,1.7274164978027342,-11.194089862060546
3464659234301,4.274755206,1,0.23582886352539062,1.7549498168945312,-11.203666668701171
3464679232947,4.294753852,1,0.22864625854492185,1.7214309936523438,-11.158176837158203
3464699227062,4.314747967,1,0.23702596435546874,1.7477672119140624,-11.164162341308593
3464719233051,4.334753956,1,0.24061726684570311,1.7298106994628906,-11.207257971191405
3464739233728,4.354754633,1,0.2166752502441406,1.7465701110839842,-11.164162341308593
3464759234822,4.374755727,1,0.21906945190429686,1.7094599853515624,-11.170147845458983
3464779234614,4.394755519,1,0.2501940734863281,1.7034744812011717,-11.218031878662108
3464799227947,4.414748852,1,0.24660277099609373,1.7405846069335937,-11.19887826538086
3464819233468,4.434754373,1,0.23702596435546874,1.7393875061035156,-11.170147845458983
3464839232322,4.454753227,1,0.22864625854492185,1.7741034301757812,-11.189301458740234
3464859234926,4.474755831,1,0.1975216369628906,1.7262193969726563,-11.179724652099608
3464879232166,4.494753071,1,0.21188684692382811,1.7357962036132812,-11.183315954589844
3464899227791,4.514748696,1,0.23223756103515625,1.7334020019531249,-11.231199987792968
3464919230603,4.534751508,1,0.23223756103515625,1.7357962036132812,-11.202469567871093
3464939233676,4.554754581,1,0.22744915771484372,1.725022296142578,-11.206060870361327
3464959287791,4.574808696,1,0.23104046020507812,1.7381904052734374,-11.182118853759764
3464979241332,4.594762237,1,0.2214636535644531,1.7334020019531249,-11.170147845458983
3464999228155,4.61474906,1,0.21787235107421873,1.7178396911621092,-11.14022032470703
3465019232582,4.634753487,1,0.22385785522460935,1.705868682861328,-11.142614526367186
3465039232739,4.654753644,1,0.19991583862304688,1.7357962036132812,-11.1474029296875
3465059236072,4.674756977,1,0.23343466186523437,1.715445489501953,-11.19169566040039
3465079233572,4.694754477,1,0.23702596435546874,1.7298106994628906,-11.17852755126953
3465099226124,4.714747029,1,0.24181436767578124,1.7238251953125,-11.196484063720703
3465119232843,4.734753748,1,0.21188684692382811,1.7130512878417967,-11.174936248779296
3465139232999,4.754753904,1,0.23822306518554687,1.6915034729003906,-11.156979736328124
3465159234041,4.774754946,1,0.24061726684570311,1.7010802795410156,-11.182118853759764
3465179233207,4.794754112,1,0.229843359375,1.7477672119140624,-11.21683477783203
3465199226332,4.814747237,1,0.22266075439453123,1.7214309936523438,-11.194089862060546
3465219232843,4.834753748,1,0.21428104858398436,1.7202338928222656,-11.183315954589844
3465239233989,4.854754894,1,0.19871873779296872,1.7202338928222656,-11.189301458740234
3465259233103,4.874754008,1,0.22505495605468748,1.7334020019531249,-11.183315954589844
3465279229457,4.894750362,1,0.22266075439453123,1.7022773803710936,-11.171344946289063
3465299226176,4.914747081,1,0.2346317626953125,1.7094599853515624,-11.159373937988281
3465319232530,4.934753435,1,0.2262520568847656,1.763329522705078,-11.167753643798827
3465339230811,4.954751716,1,0.23822306518554687,1.7118541870117185,-11.215637677001952
3465359233259,4.974754164,1,0.21787235107421873,1.7429788085937499,-11.196484063720703
3465379231072,4.994751977,1,0.21308394775390624,1.7022773803710936,-11.156979736328124
3465399226801,5.014747706,1,0.23702596435546874,1.7262193969726563,-11.19169566040039
3465419231384,5.034752289,1,0.21308394775390624,1.715445489501953,-11.183315954589844
3465439230134,5.054751039,1,0.2154781494140625,1.7298106994628906,-11.196484063720703
3465459229145,5.07475005,1,0.22266075439453123,1.7381904052734374,-11.214440576171874
3465479234301,5.094755206,1,0.2214636535644531,1.7453730102539062,-11.214440576171874
3465499225916,5.114746821,1,0.2166752502441406,1.7298106994628906,-11.182118853759764
3465519232895,5.1347538,1,0.23343466186523437,1.7286135986328124,-11.207257971191405
3465539232530,5.154753435,1,0.23702596435546874,1.7513585144042967,-11.17852755126953
3465559235186,5.174756091,1,0.22505495605468748,1.70467158203125,-11.19169566040039
3465579231801,5.194752706,1,0.2214636535644531,1.7489643127441405,-11.200075366210937
3465599227270,5.214748175,1,0.23343466186523437,1.7214309936523438,-11.183315954589844
3465619232061,5.234752966,1,0.21906945190429686,1.744175909423828,-11.207257971191405
3465639232530,5.254753435,1,0.2346317626953125,1.7214309936523438,-11.200075366210937
3465659273780,5.274794685,1,0.229843359375,1.7286135986328124,-11.194089862060546
3465679233103,5.294754008,1,0.21308394775390624,1.7525556152343749,-11.21084927368164
3465699223988,5.314744893,1,0.21188684692382811,1.7262193969726563,-11.2240173828125
3465719232061,5.334752966,1,0.21906945190429686,1.70467158203125,-11.17852755126953
3465739231280,5.354752185,1,0.22744915771484372,1.7369933044433592,-11.197681164550781
3465759230551,5.374751456,1,0.201112939453125,1.7286135986328124,-11.218031878662108
3465779235968,5.394756873,1,0.2166752502441406,1.707065783691406,-11.19169566040039
3465799227947,5.414748852,1,0.23104046020507812,1.7274164978027342,-11.148600030517578
3465819232374,5.434753279,1,0.24660277099609373,1.7118541870117185,-11.188104357910156
3465839235811,5.454756716,1,0.21188684692382811,1.734599102783203,-11.183315954589844
3465859231749,5.474752654,1,0.21308394775390624,1.7286135986328124,-11.203666668701171
3465879235499,5.494756404,1,0.20350714111328125,1.725022296142578,-11.171344946289063
3465899225967,5.514746872,1,0.23343466186523437,1.7393875061035156,-11.221623181152344
3465919395290,5.534916195,1,0.22864625854492185,1.7489643127441405,-11.177330450439452
3465939232582,5.554753487,1,0.22026655273437498,1.7609353210449217,-11.218031878662108
3465959252165,5.57477307,1,0.2442085693359375,1.7202338928222656,-11.174936248779296
3465979240655,5.59476156,1,0.22864625854492185,1.7130512878417967,-11.192892761230468
3465999228832,5.614749737,1,0.20949264526367187,1.7513585144042967,-11.192892761230468
3466019278676,5.634799581,1,0.23104046020507812,1.734599102783203,-11.19887826538086
3466039239926,5.654760831,1,0.20470424194335937,1.7190367919921874,-11.194089862060546
3466059234978,5.674755883,1,0.2442085693359375,1.7310078002929687,-11.1474029296875
3466079230551,5.694751456,1,0.19871873779296872,1.7573440185546874,-11.168950744628905
3466099226905,5.71474781,1,0.2501940734863281,1.725022296142578,-11.18571015625
3466119232322,5.734753227,1,0.23822306518554687,1.7417817077636717,-11.17852755126953
3466139228207,5.754749112,1,0.2154781494140625,1.7357962036132812,-11.158176837158203
3466159231905,5.77475281,1,0.22385785522460935,1.7393875061035156,-11.206060870361327
3466179278467,5.794799372,1,0.21308394775390624,1.7334020019531249,-11.214440576171874
3466199227738,5.814748643,1,0.23343466186523437,1.7310078002929687,-11.203666668701171
3466219232738,5.834753643,1,0.21787235107421873,1.7477672119140624,-11.166556542968749
3466239232999,5.854753904,1,0.22266075439453123,1.7369933044433592,-11.2240173828125
3466259233363,5.874754268,1,0.2537853759765625,1.7357962036132812,-11.196484063720703
3466279232999,5.894753904,1,0.23582886352539062,1.7405846069335937,-11.197681164550781
3466299226332,5.914747237,1,0.20350714111328125,1.7166425903320313,-11.240776794433593
3466319232582,5.934753487,1,0.22385785522460935,1.715445489501953,-11.189301458740234
3466339233207,5.954754112,1,0.2154781494140625,1.7417817077636717,-11.183315954589844
3466359240394,5.974761299,1,0.24779987182617186,1.7322049011230467,-11.170147845458983
3466379234926,5.994755831,1,0.21787235107421873,1.7417817077636717,-11.203666668701171
3466399227321,6.014748226,1,0.2262520568847656,1.734599102783203,-11.17852755126953
3466419231696,6.034752601,1,0.229843359375,1.7405846069335937,-11.209652172851563
3466439231384,6.054752289,1,0.23223756103515625,1.7226280944824217,-11.184513055419922
3466459232738,6.074753643,1,0.2214636535644531,1.7417817077636717,-11.195286962890624
3466479236124,6.094757029,1,0.21308394775390624,1.7369933044433592,-11.202469567871093
3466499227321,6.114748226,1,0.19512743530273435,1.7238251953125,-11.171344946289063
3466519232790,6.134753695,1,0.23822306518554687,1.725022296142578,-11.183315954589844
3466539231071,6.154751976,1,0.24660277099609373,1.7178396911621092,-11.186907257080078
3466559228207,6.174749112,1,0.23223756103515625,1.7489643127441405,-11.177330450439452
3466579231384,6.194752289,1,0.229843359375,1.7334020019531249,-11.161768139648437
3466599227894,6.214748799,1,0.2262520568847656,1.7262193969726563,-11.182118853759764
3466619232530,6.234753435,1,0.2166752502441406,1.7465701110839842,-11.16057103881836
3466639232790,6.254753695,1,0.239420166015625,1.7621324218749999,-11.203666668701171
3466659232373,6.274753278,1,0.21787235107421873,1.7513585144042967,-11.200075366210937
3466679232582,6.294753487,1,0.23702596435546874,1.7405846069335937,-11.192892761230468
3466699227217,6.314748122,1,0.2059013427734375,1.7381904052734374,-11.219228979492186
3466719233155,6.33475406,1,0.21428104858398436,1.7310078002929687,-11.202469567871093
3466739232061,6.354752966,1,0.2442085693359375,1.7190367919921874,-11.196484063720703
3466759233675,6.37475458,1,0.2561795776367187,1.70467158203125,-11.202469567871093
3466779231957,6.394752862,1,0.24181436767578124,1.7286135986328124,-11.21084927368164
3466799230186,6.414751091,1,0.2214636535644531,1.7298106994628906,-11.196484063720703
3466819233415,6.43475432,1,0.2262520568847656,1.7106570861816406,-11.188104357910156
3466839234144,6.454755049,1,0.20829554443359374,1.7310078002929687,-11.183315954589844
3466859232165,6.47475307,1,0.23223756103515625,1.7190367919921874,-11.197681164550781
3466879234717,6.494755622,1,0.24181436767578124,1.7190367919921874,-11.192892761230468
3466899226123,6.514747028,1,0.2154781494140625,1.7310078002929687,-11.179724652099608
3466919233102,6.534754007,1,0.23104046020507812,1.744175909423828,-11.202469567871093
3466939233259,6.554754164,1,0.20470424194335937,1.7322049011230467,-11.19169566040039
3466959231748,6.574752653,1,0.2262520568847656,1.7429788085937499,-11.239579693603515
3466979232946,6.594753851,1,0.24779987182617186,1.7238251953125,-11.197681164550781
3466999227738,6.614748643,1,0.21787235107421873,1.7489643127441405,-11.161768139648437
3467019232061,6.634752966,1,0.24301146850585936,1.7214309936523438,-11.131840618896483
3467039232582,6.654753487,1,0.239420166015625,1.7190367919921874,-11.19887826538086
3467059232946,6.674753851,1,0.21428104858398436,1.7489643127441405,-11.195286962890624
3467079234144,6.694755049,1,0.23104046020507812,1.7465701110839842,-11.177330450439452
3467099227946,6.714748851,1,0.23702596435546874,1.7274164978027342,-11.17254204711914
3467119233207,6.734754112,1,0.20470424194335937,1.7417817077636717,-11.196484063720703
3467139232113,6.754753018,1,0.23822306518554687,1.7298106994628906,-11.206060870361327
3467159233571,6.774754476,1,0.22744915771484372,1.7286135986328124,-11.195286962890624
3467179232425,6.79475333,1,0.229843359375,1.6986860778808592,-11.196484063720703
3467199226696,6.814747601,1,0.22266075439453123,1.725022296142578,-11.174936248779296
3467219232998,6.834753903,1,0.24301146850585936,1.7274164978027342,-11.227608685302734
3467239230967,6.854751872,1,0.23822306518554687,1.7453730102539062,-11.159373937988281
3467259232529,6.874753434,1,0.20829554443359374,1.7322049011230467,-11.196484063720703
3467279233519,6.894754424,1,0.23223756103515625,1.7178396911621092,-11.196484063720703
3467299227529,6.914748434,1,0.19871873779296872,1.7238251953125,-11.203666668701171
3467319232946,6.934753851,1,0.22026655273437498,1.7322049011230467,-11.195286962890624
3467339232842,6.954753747,1,0.2214636535644531,1.7286135986328124,-11.194089862060546
3467359232581,6.974753486,1,0.23104046020507812,1.7178396911621092,-11.220426080322264
3467379231488,6.994752393,1,0.20350714111328125,1.7334020019531249,-11.173739147949219
3467399227269,7.014748174,1,0.2501940734863281,1.7561469177246092,-11.194089862060546
3467419232477,7.034753382,1,0.23223756103515625,1.7262193969726563,-11.226411584472656
3467439232790,7.054753695,1,0.22385785522460935,1.7585411193847655,-11.202469567871093
3467459231904,7.074752809,1,0.23702596435546874,1.7202338928222656,-11.170147845458983
3467479235186,7.094756091,1,0.22385785522460935,1.7178396911621092,-11.19169566040039
3467499226956,7.114747861,1,0.18914193115234373,1.7262193969726563,-11.188104357910156
3467519233571,7.134754476,1,0.21428104858398436,1.7322049011230467,-11.174936248779296
3467539231852,7.154752757,1,0.2537853759765625,1.7357962036132812,-11.201272467041015
3467559233675,7.17475458,1,0.23104046020507812,1.70467158203125,-11.173739147949219
3467579235394,7.194756299,1,0.2166752502441406,1.7322049011230467,-11.208455072021483
3467599229561,7.214750466,1,0.24181436767578124,1.7130512878417967,-11.189301458740234
3467619233727,7.234754632,1,0.24061726684570311,1.7118541870117185,-11.17254204711914
3467639231488,7.254752393,1,0.20829554443359374,1.7322049011230467,-11.18571015625
3467659231956,7.274752861,1,0.2059013427734375,1.7705121276855467,-11.206060870361327
3467679233988,7.294754893,1,0.21906945190429686,1.7262193969726563,-11.23718549194336
3467699266800,7.314787705,1,0.20709844360351562,1.7489643127441405,-11.225214483642578
3467719234092,7.334754997,1,0.23343466186523437,1.753752716064453,-11.194089862060546
3467739230967,7.354751872,1,0.22266075439453123,1.7310078002929687,-11.196484063720703
3467759233050,7.374753955,1,0.23822306518554687,1.7417817077636717,-11.170147845458983
3467779232633,7.394753538,1,0.2214636535644531,1.7310078002929687,-11.2240173828125
3467799226956,7.414747861,1,0.23104046020507812,1.7118541870117185,-11.19169566040039
3467819237477,7.434758382,1,0.2501940734863281,1.7178396911621092,-11.227608685302734
3467839231592,7.454752497,1,0.24061726684570311,1.7489643127441405,-11.180921752929686
3467859232321,7.474753226,1,0.24181436767578124,1.7501614135742187,-11.168950744628905
3467879231331,7.494752236,1,0.20470424194335937,1.7310078002929687,-11.204863769531249
3467899225342,7.514746247,1,0.239420166015625,1.705868682861328,-11.180921752929686
3467919232946,7.534753851,1,0.2346317626953125,1.7226280944824217,-11.201272467041015
3467939229196,7.554750101,1,0.2154781494140625,1.7214309936523438,-11.152191333007812
3467959232008,7.574752913,1,0.22505495605468748,1.7166425903320313,-11.202469567871093
3467979232790,7.594753695,1,0.25258827514648435,1.7381904052734374,-11.158176837158203
3467999226696,7.614747601,1,0.2214636535644531,1.7669208251953124,-11.233594189453123
3468019231852,7.634752757,1,0.2549824768066406,1.7262193969726563,-11.195286962890624
3468039232529,7.654753434,1,0.229843359375,1.7609353210449217,-11.201272467041015
3468059231071,7.674751976,1,0.2214636535644531,1.7262193969726563,-11.164162341308593
3468079232737,7.694753642,1,0.24779987182617186,1.7106570861816406,-11.215637677001952
3468099225915,7.71474682,1,0.20231004028320312,1.725022296142578,-11.202469567871093
3468119273154,7.734794059,1,0.23582886352539062,1.7094599853515624,-11.182118853759764
3468139233362,7.754754267,1,0.2609679809570312,1.7513585144042967,-11.186907257080078
3468159233883,7.774754788,1,0.22505495605468748,1.7357962036132812,-11.184513055419922
3468179232529,7.794753434,1,0.23104046020507812,1.744175909423828,-11.164162341308593
3468199228102,7.814749007,1,0.23582886352539062,1.734599102783203,-11.176133349609374
3468219269821,7.834790726,1,0.22744915771484372,1.7381904052734374,-11.177330450439452
3468239234248,7.854755153,1,0.2059013427734375,1.7334020019531249,-11.209652172851563
3468259232894,7.874753799,1,0.229843359375,1.7429788085937499,-11.170147845458983
3468279232269,7.894753174,1,0.21787235107421873,1.7238251953125,-11.182118853759764
3468299225498,7.914746403,1,0.22026655273437498,1.7513585144042967,-11.179724652099608
3468319232060,7.934752965,1,0.23104046020507812,1.7286135986328124,-11.208455072021483
3468339232425,7.95475333,1,0.21428104858398436,1.7226280944824217,-11.174936248779296
3468359232112,7.974753017,1,0.21068974609375,1.707065783691406,-11.208455072021483
3468379240654,7.994761559,1,0.2501940734863281,1.7034744812011717,-11.215637677001952
3468399228935,8.01474984,1,0.2059013427734375,1.7226280944824217,-11.213243475341796
3468419231852,8.034752757,1,0.24181436767578124,1.7405846069335937,-11.182118853759764
3468439233519,8.054754424,1,0.2262520568847656,1.7214309936523438,-11.180921752929686
3468459231904,8.074752809,1,0.21428104858398436,1.7202338928222656,-11.204863769531249
3468479234873,8.094755778,1,0.23104046020507812,1.7298106994628906,-11.201272467041015
3468499227112,8.114748017,1,0.2154781494140625,1.7274164978027342,-11.168950744628905
3468519233206,8.134754111,1,0.2154781494140625,1.7190367919921874,-11.17852755126953
3468539233206,8.154754111,1,0.239420166015625,1.7274164978027342,-11.206060870361327
3468559231800,8.174752705,1,0.2262520568847656,1.7417817077636717,-11.21683477783203
3468579233727,8.194754632,1,0.2214636535644531,1.725022296142578,-11.156979736328124
3468599227477,8.214748382,1,0.24779987182617186,1.7334020019531249,-11.197681164550781
3468619232789,8.234753694,1,0.2166752502441406,1.7465701110839842,-11.186907257080078
3468639233310,8.254754215,1,0.20829554443359374,1.7310078002929687,-11.16057103881836
3468659232321,8.274753226,1,0.2262520568847656,1.7465701110839842,-11.186907257080078
3468679233206,8.294754111,1,0.2262520568847656,1.7381904052734374,-11.17852755126953
3468699226487,8.314747392,1,0.23702596435546874,1.7513585144042967,-11.189301458740234
3468719231539,8.334752444,1,0.239420166015625,1.7310078002929687,-11.180921752929686
3468739271643,8.354792548,1,0.20829554443359374,1.7357962036132812,-11.150994232177734
3468759233727,8.374754632,1,0.22385785522460935,1.7214309936523438,-11.186907257080078
3468779232946,8.394753851,1,0.2346317626953125,1.7130512878417967,-11.184513055419922
3468799227008,8.414747913,1,0.20231004028320312,1.744175909423828,-11.188104357910156
3468819232216,8.434753121,1,0.24899697265624998,1.7405846069335937,-11.17254204711914
3468839273675,8.45479458,1,0.23822306518554687,1.7369933044433592,-11.168950744628905
3468859233883,8.474754788,1,0.24181436767578124,1.715445489501953,-11.212046374511718
3468879233727,8.494754632,1,0.24061726684570311,1.7238251953125,-11.21084927368164
3468899225498,8.514746403,1,0.21068974609375,1.7262193969726563,-11.204863769531249
3468919230862,8.534751767,1,0.22026655273437498,1.725022296142578,-11.206060870361327
3468939232633,8.554753538,1,0.19033903198242186,1.7214309936523438,-11.214440576171874
3468959233310,8.574754215,1,0.21787235107421873,1.7214309936523438,-11.201272467041015
3468979230914,8.594751819,1,0.21188684692382811,1.734599102783203,-11.203666668701171
3468999226227,8.614747132,1,0.23702596435546874,1.7262193969726563,-11.17254204711914
3469019230654,8.634751559,1,0.2549824768066406,1.7022773803710936,-11.186907257080078
3469039232060,8.654752965,1,0.24181436767578124,1.7190367919921874,-11.129446417236327
3469059232737,8.674753642,1,0.22864625854492185,1.7262193969726563,-11.16057103881836
3469079233414,8.694754319,1,0.2214636535644531,1.7022773803710936,-11.179724652099608
3469099225081,8.714745986,1,0.19512743530273435,1.705868682861328,-11.261127508544922
3469119226695,8.7347476,1,0.2262520568847656,1.7286135986328124,-11.128249316406249
3469139231695,8.7547526,1,0.2166752502441406,1.7334020019531249,-11.225214483642578
3469159233935,8.77475484,1,0.21188684692382811,1.7262193969726563,-11.202469567871093
3469179229612,8.794750517,1,0.21308394775390624,1.7274164978027342,-11.174936248779296
3469199226435,8.81474734,1,0.21906945190429686,1.7322049011230467,-11.170147845458983
3469219230550,8.834751455,1,0.1879448303222656,1.6938976745605467,-11.179724652099608
3469239232320,8.854753225,1,0.1927332336425781,1.7094599853515624,-11.215637677001952
3469259232008,8.874752913,1,0.23343466186523437,1.7298106994628906,-11.179724652099608
3469279232164,8.894753069,1,0.21188684692382811,1.7453730102539062,-11.209652172851563
3469299224456,8.914745361,1,0.2214636535644531,1.7405846069335937,-11.173739147949219
3469319230966,8.934751871,1,0.21787235107421873,1.7322049011230467,-11.190498559570312
3469339233518,8.954754423,1,0.26336218261718747,1.7334020019531249,-11.202469567871093
3469359233935,8.97475484,1,0.20829554443359374,1.7334020019531249,-11.23000288696289
3469379233779,8.994754684,1,0.2549824768066406,1.7453730102539062,-11.200075366210937
3469399227216,9.014748121,1,0.23104046020507812,1.70467158203125,-11.194089862060546
3469419231122,9.034752027,1,0.18435352783203124,1.7310078002929687,-11.19887826538086
3469439231487,9.054752392,1,0.23223756103515625,1.7298106994628906,-11.170147845458983
3469459233414,9.074754319,1,0.22864625854492185,1.7393875061035156,-11.173739147949219
3469479234091,9.094754996,1,0.20829554443359374,1.7130512878417967,-11.195286962890624
3469499225393,9.114746298,1,0.23343466186523437,1.7381904052734374,-11.19887826538086
3469519231799,9.134752704,1,0.21308394775390624,1.7405846069335937,-11.194089862060546
3469539232685,9.15475359,1,0.22266075439453123,1.7357962036132812,-11.222820281982422
3469559233518,9.174754423,1,0.23223756103515625,1.7214309936523438,-11.161768139648437
3469579232841,9.194753746,1,0.2346317626953125,1.734599102783203,-11.168950744628905
3469599226226,9.214747131,1,0.22505495605468748,1.725022296142578,-11.215637677001952
3469619231122,9.234752027,1,0.22864625854492185,1.7357962036132812,-11.170147845458983
3469639232893,9.254753798,1,0.22266075439453123,1.7405846069335937,-11.170147845458983
3469659237164,9.274758069,1,0.23343466186523437,1.744175909423828,-11.19169566040039
3469679233362,9.294754267,1,0.21188684692382811,1.7262193969726563,-11.154585534667968
3469699226487,9.314747392,1,0.22266075439453123,1.7202338928222656,-11.204863769531249
3469719233154,9.334754059,1,0.20949264526367187,1.7357962036132812,-11.171344946289063
3469739232476,9.354753381,1,0.2442085693359375,1.7238251953125,-11.165359442138671
3469759270966,9.374791871,1,0.23223756103515625,1.7262193969726563,-11.208455072021483
3469779232268,9.394753173,1,0.21188684692382811,1.7034744812011717,-11.206060870361327
3469799226487,9.414747392,1,0.22385785522460935,1.7322049011230467,-11.177330450439452
3469819230810,9.434751715,1,0.22385785522460935,1.7274164978027342,-11.208455072021483
3469839233153,9.454754058,1,0.2214636535644531,1.7262193969726563,-11.204863769531249
3469859269091,9.474789996,1,0.23223756103515625,1.7369933044433592,-11.204863769531249
3469879235289,9.494756194,1,0.21906945190429686,1.7357962036132812,-11.233594189453123
3469899228570,9.514749475,1,0.25139117431640623,1.734599102783203,-11.197681164550781
3469919232893,9.534753798,1,0.2346317626953125,1.7381904052734374,-11.173739147949219
3469939233726,9.554754631,1,0.23582886352539062,1.7214309936523438,-11.212046374511718
3469959290549,9.574811454,1,0.2537853759765625,1.7286135986328124,-11.180921752929686
3469979243726,9.594764631,1,0.2346317626953125,1.7501614135742187,-11.190498559570312
3469999231226,9.614752131,1,0.20949264526367187,1.7082628845214842,-11.166556542968749
3470019233570,9.634754475,1,0.201112939453125,1.7202338928222656,-11.177330450439452
3470039234351,9.654755256,1,0.23702596435546874,1.7381904052734374,-11.197681164550781
3470059232685,9.67475359,1,0.2346317626953125,1.7274164978027342,-11.21084927368164
3470079233778,9.694754683,1,0.22505495605468748,1.7274164978027342,-11.182118853759764
3470099225914,9.714746819,1,0.20470424194335937,1.7262193969726563,-11.167753643798827
3470119232372,9.734753277,1,0.2442085693359375,1.697488977050781,-11.189301458740234
3470139231643,9.754752548,1,0.21308394775390624,1.7621324218749999,-11.17254204711914
3470159232789,9.774753694,1,0.22385785522460935,1.7190367919921874,-11.15338843383789
3470179233310,9.794754215,1,0.239420166015625,1.715445489501953,-11.16057103881836
3470199225862,9.814746767,1,0.24181436767578124,1.7262193969726563,-11.208455072021483
3470219230132,9.834751037,1,0.2346317626953125,1.715445489501953,-11.188104357910156
3470239233205,9.85475411,1,0.239420166015625,1.7082628845214842,-11.1474029296875
3470259231955,9.87475286,1,0.20829554443359374,1.7369933044433592,-11.16057103881836
3470279233570,9.894754475,1,0.23582886352539062,1.7513585144042967,-11.188104357910156
3470299226435,9.91474734,1,0.2442085693359375,1.7202338928222656,-11.186907257080078
3470319233153,9.934754058,1,0.24301146850585936,1.7381904052734374,-11.189301458740234
3470339233101,9.954754006,1,0.23702596435546874,1.6986860778808592,-11.219228979492186
3470359232007,9.974752912,1,0.20949264526367187,1.7214309936523438,-11.204863769531249
3470379242997,9.994763902,1,0.22864625854492185,1.7202338928222656,-11.161768139648437
3470399228310,10.014749215,1,0.23822306518554687,1.7501614135742187,-11.222820281982422
3470419229664,10.034750569,1,0.23702596435546874,1.7214309936523438,-11.201272467041015
3470439233257,10.054754162,1,0.23223756103515625,1.7381904052734374,-11.17852755126953
3470459231122,10.074752027,1,0.24779987182617186,1.725022296142578,-11.183315954589844
3470479244299,10.094765204,1,0.23822306518554687,1.734599102783203,-11.222820281982422
3470499236382,10.114757287,1,0.2262520568847656,1.7214309936523438,-11.174936248779296
3470519235653,10.134756558,1,0.20709844360351562,1.7405846069335937,-11.17852755126953
3470539235237,10.154756142,1,0.23343466186523437,1.7334020019531249,-11.202469567871093
3470559244299,10.174765204,1,0.22385785522460935,1.7381904052734374,-11.19169566040039
3470579259403,10.194780308,1,0.201112939453125,1.7226280944824217,-11.174936248779296
3470599239664,10.214760569,1,0.19871873779296872,1.7405846069335937,-11.202469567871093
3470619236643,10.234757548,1,0.2645592834472656,1.7357962036132812,-11.192892761230468
3470639234976,10.254755881,1,0.24061726684570311,1.7262193969726563,-11.202469567871093
3470659232528,10.274753433,1,0.24061726684570311,1.7573440185546874,-11.212046374511718
3470679237372,10.294758277,1,0.21308394775390624,1.7274164978027342,-11.197681164550781
3470699236539,10.314757444,1,0.23582886352539062,1.7322049011230467,-11.196484063720703
3470719232164,10.334753069,1,0.20949264526367187,1.7322049011230467,-11.182118853759764
3470739235653,10.354756558,1,0.22744915771484372,1.7274164978027342,-11.17852755126953
3470759236018,10.374756923,1,0.21787235107421873,1.734599102783203,-11.197681164550781
3470779228622,10.394749527,1,0.2501940734863281,1.7417817077636717,-11.213243475341796
3470799234299,10.414755204,1,0.25139117431640623,1.715445489501953,-11.177330450439452
3470819234455,10.43475536,1,0.21906945190429686,1.7298106994628906,-11.235988391113281
3470839235757,10.454756662,1,0.21308394775390624,1.7238251953125,-11.227608685302734
3470859235497,10.474756402,1,0.229843359375,1.7286135986328124,-11.186907257080078
3470879229924,10.494750829,1,0.20829554443359374,1.7381904052734374,-11.194089862060546
3470899234559,10.514755464,1,0.21787235107421873,1.734599102783203,-11.182118853759764
3470919231538,10.534752443,1,0.23343466186523437,1.7262193969726563,-11.177330450439452
3470939235445,10.55475635,1,0.24301146850585936,1.7322049011230467,-11.17852755126953
3470959231070,10.574751975,1,0.23223756103515625,1.7381904052734374,-11.174936248779296
3470979247216,10.594768121,1,0.21308394775390624,1.7429788085937499,-11.194089862060546
3470999236226,10.614757131,1,0.24181436767578124,1.7238251953125,-11.218031878662108
3471019235393,10.634756298,1,0.23104046020507812,1.7453730102539062,-11.219228979492186
3471039235653,10.654756558,1,0.23104046020507812,1.7310078002929687,-11.208455072021483
3471059236226,10.674757131,1,0.21308394775390624,1.734599102783203,-11.171344946289063
3471079273570,10.694794475,1,0.21308394775390624,1.7357962036132812,-11.192892761230468
3471099235601,10.714756506,1,0.21308394775390624,1.7393875061035156,-11.186907257080078
3471119235705,10.73475661,1,0.22744915771484372,1.7525556152343749,-11.204863769531249
3471139235705,10.75475661,1,0.24061726684570311,1.7405846069335937,-11.182118853759764
3471159235080,10.774755985,1,0.22385785522460935,1.7477672119140624,-11.213243475341796
3471179232736,10.794753641,1,0.2154781494140625,1.7465701110839842,-11.174936248779296
3471199230653,10.814751558,1,0.22744915771484372,1.7381904052734374,-11.21084927368164
3471219234820,10.834755725,1,0.24181436767578124,1.7298106994628906,-11.21683477783203
3471239235653,10.854756558,1,0.20470424194335937,1.7310078002929687,-11.159373937988281
3471259235288,10.874756193,1,0.22385785522460935,1.7357962036132812,-11.189301458740234
3471279235184,10.894756089,1,0.2442085693359375,1.7429788085937499,-11.222820281982422
3471299235549,10.914756454,1,0.22864625854492185,1.734599102783203,-11.141417425537108
3471319235653,10.934756558,1,0.2501940734863281,1.7645266235351562,-11.206060870361327
3471339239872,10.954760777,1,0.20231004028320312,1.715445489501953,-11.19887826538086
3471359237736,10.974758641,1,0.21428104858398436,1.7298106994628906,-11.150994232177734
3471379235861,10.994756766,1,0.2442085693359375,1.7477672119140624,-11.213243475341796
3471399252007,11.014772912,1,0.23582886352539062,1.7322049011230467,-11.164162341308593
3471419232736,11.034753641,1,0.23582886352539062,1.7298106994628906,-11.235988391113281
3471439236590,11.054757495,1,0.23343466186523437,1.725022296142578,-11.189301458740234
3471459236538,11.074757443,1,0.20829554443359374,1.714248388671875,-11.221623181152344
3471479236122,11.094757027,1,0.22744915771484372,1.7369933044433592,-11.161768139648437
3471499234038,11.114754943,1,0.22505495605468748,1.7549498168945312,-11.174936248779296
3471519235601,11.134756506,1,0.21428104858398436,1.7573440185546874,-11.15338843383789
3471539235809,11.154756714,1,0.2059013427734375,1.70467158203125,-11.202469567871093
3471559236590,11.174757495,1,0.26336218261718747,1.7274164978027342,-11.183315954589844
3471579234559,11.194755464,1,0.23223756103515625,1.7226280944824217,-11.174936248779296
3471599236382,11.214757287,1,0.24061726684570311,1.7286135986328124,-11.15338843383789
3471619236122,11.234757027,1,0.22744915771484372,1.7178396911621092,-11.18571015625
3471639235444,11.254756349,1,0.24181436767578124,1.7489643127441405,-11.204863769531249
3471659228986,11.274749891,1,0.23343466186523437,1.705868682861328,-11.182118853759764
3471679229715,11.29475062,1,0.23582886352539062,1.7477672119140624,-11.17254204711914
3471699235965,11.31475687,1,0.229843359375,1.7393875061035156,-11.180921752929686
3471719235913,11.334756818,1,0.2154781494140625,1.744175909423828,-11.155782635498046
3471739234976,11.354755881,1,0.22385785522460935,1.714248388671875,-11.19169566040039
3471759235496,11.374756401,1,0.20709844360351562,1.7202338928222656,-11.17254204711914
3471779235184,11.394756089,1,0.20829554443359374,1.7453730102539062,-11.201272467041015
3471799235288,11.414756193,1,0.24301146850585936,1.7322049011230467,-11.190498559570312
3471819235861,11.434756766,1,0.229843359375,1.7477672119140624,-11.192892761230468
3471839251903,11.454772808,1,0.19153613281249998,1.7262193969726563,-11.214440576171874
3471859240809,11.474761714,1,0.22744915771484372,1.7274164978027342,-11.148600030517578
3471879235132,11.494756037,1,0.21906945190429686,1.7178396911621092,-11.19887826538086
3471899235392,11.514756297,1,0.24660277099609373,1.7597382202148437,-11.202469567871093
3471919232840,11.534753745,1,0.21188684692382811,1.7357962036132812,-11.225214483642578
3471939232215,11.55475312,1,0.22744915771484372,1.7334020019531249,-11.195286962890624
3471959236226,11.574757131,1,0.21428104858398436,1.7298106994628906,-11.189301458740234
3471979235288,11.594756193,1,0.24660277099609373,1.7429788085937499,-11.186907257080078
3471999236486,11.614757391,1,0.22744915771484372,1.705868682861328,-11.200075366210937
3472019286903,11.634807808,1,0.22505495605468748,1.734599102783203,-11.19887826538086
3472039242423,11.654763328,1,0.21428104858398436,1.715445489501953,-11.204863769531249
3472059237736,11.674758641,1,0.1879448303222656,1.7226280944824217,-11.174936248779296
3472079235080,11.694755985,1,0.229843359375,1.7357962036132812,-11.190498559570312
3472099235548,11.714756453,1,0.2154781494140625,1.7298106994628906,-11.17254204711914
3472119255757,11.734776662,1,0.20709844360351562,1.7357962036132812,-11.206060870361327
3472139235236,11.754756141,1,0.23343466186523437,1.7573440185546874,-11.183315954589844
3472159232423,11.774753328,1,0.21906945190429686,1.7274164978027342,-11.174936248779296
3472179235965,11.79475687,1,0.2501940734863281,1.734599102783203,-11.21683477783203
3472199232423,11.814753328,1,0.24061726684570311,1.7477672119140624,-11.209652172851563
3472219274611,11.834795516,1,0.22505495605468748,1.7286135986328124,-11.162965240478515
3472239238413,11.854759318,1,0.21188684692382811,1.707065783691406,-11.206060870361327
3472259235028,11.874755933,1,0.21906945190429686,1.7202338928222656,-11.195286962890624
3472279235913,11.894756818,1,0.23343466186523437,1.7334020019531249,-11.204863769531249
3472299235757,11.914756662,1,0.24181436767578124,1.734599102783203,-11.173739147949219
3472319235809,11.934756714,1,0.20829554443359374,1.7334020019531249,-11.203666668701171
3472339237319,11.954758224,1,0.22744915771484372,1.7381904052734374,-11.182118853759764
3472359248153,11.974769058,1,0.23343466186523437,1.7310078002929687,-11.179724652099608
3472379237788,11.994758693,1,0.258573779296875,1.7465701110839842,-11.190498559570312
3472399236538,12.014757443,1,0.22026655273437498,1.7010802795410156,-11.197681164550781
3472419235496,12.034756401,1,0.21428104858398436,1.7453730102539062,-11.150994232177734
3472439236850,12.054757755,1,0.2154781494140625,1.705868682861328,-11.221623181152344
3472459232840,12.074753745,1,0.25737667846679685,1.7178396911621092,-11.177330450439452
3472479237527,12.094758432,1,0.20709844360351562,1.7525556152343749,-11.164162341308593
3472499239975,12.11476088,1,0.23223756103515625,1.7381904052734374,-11.215637677001952
3472519236069,12.134756974,1,0.239420166015625,1.7310078002929687,-11.164162341308593
3472539236121,12.154757026,1,0.23223756103515625,1.7453730102539062,-11.177330450439452
3472559235548,12.174756453,1,0.24899697265624998,1.7429788085937499,-11.168950744628905
3472579234923,12.194755828,1,0.23343466186523437,1.7190367919921874,-11.166556542968749
3472599236225,12.21475713,1,0.21308394775390624,1.7130512878417967,-11.176133349609374
3472619235132,12.234756037,1,0.23582886352539062,1.7393875061035156,-11.18571015625
3472639233934,12.254754839,1,0.22864625854492185,1.7274164978027342,-11.183315954589844
3472659232684,12.274753589,1,0.20949264526367187,1.7417817077636717,-11.170147845458983
3472679236173,12.294757078,1,0.21188684692382811,1.7381904052734374,-11.195286962890624
3472699235027,12.314755932,1,0.22505495605468748,1.725022296142578,-11.192892761230468
3472719235652,12.334756557,1,0.2154781494140625,1.7202338928222656,-11.184513055419922
3472739251069,12.354771974,1,0.24301146850585936,1.7381904052734374,-11.186907257080078
3472759235757,12.374756662,1,0.26336218261718747,1.7764976318359373,-11.220426080322264
3472779235757,12.394756662,1,0.21906945190429686,1.734599102783203,-11.179724652099608
3472799235392,12.414756297,1,0.24061726684570311,1.7477672119140624,-11.158176837158203
3472819235652,12.434756557,1,0.2214636535644531,1.7393875061035156,-11.21683477783203
3472839233725,12.45475463,1,0.20829554443359374,1.7214309936523438,-11.186907257080078
3472859236642,12.474757547,1,0.21787235107421873,1.7334020019531249,-11.196484063720703
3472879236225,12.49475713,1,0.20470424194335937,1.7477672119140624,-11.2240173828125
3472899228465,12.51474937,1,0.2346317626953125,1.7118541870117185,-11.166556542968749
3472919238621,12.534759526,1,0.23822306518554687,1.7274164978027342,-11.149797131347656
3472939234142,12.554755047,1,0.2561795776367187,1.7417817077636717,-11.209652172851563
3472959232059,12.574752964,1,0.229843359375,1.7130512878417967,-11.182118853759764
3472979235809,12.594756714,1,0.21428104858398436,1.7130512878417967,-11.213243475341796
3472999235548,12.614756453,1,0.23582886352539062,1.7453730102539062,-11.143811627197264
3473019234454,12.634755359,1,0.24301146850585936,1.7166425903320313,-11.23000288696289
3473039238361,12.654759266,1,0.21068974609375,1.7381904052734374,-11.196484063720703
3473059234975,12.67475588,1,0.20470424194335937,1.7286135986328124,-11.189301458740234
3473079235652,12.694756557,1,0.2166752502441406,1.753752716064453,-11.200075366210937
3473099235861,12.714756766,1,0.23104046020507812,1.7226280944824217,-11.202469567871093
3473119235183,12.734756088,1,0.22505495605468748,1.7298106994628906,-11.17852755126953
3473139236173,12.754757078,1,0.23223756103515625,1.7405846069335937,-11.228805786132812
3473159233308,12.774754213,1,0.1975216369628906,1.715445489501953,-11.213243475341796
3473179236017,12.794756922,1,0.20470424194335937,1.7525556152343749,-11.16057103881836
3473199236225,12.81475713,1,0.2166752502441406,1.7585411193847655,-11.189301458740234
3473219231902,12.834752807,1,0.24899697265624998,1.7118541870117185,-11.167753643798827
3473239236642,12.854757547,1,0.22505495605468748,1.7286135986328124,-11.21084927368164
3473259232423,12.874753328,1,0.2454056701660156,1.7549498168945312,-11.159373937988281
3473279236121,12.894757026,1,0.20350714111328125,1.7334020019531249,-11.156979736328124
3473299236069,12.914756974,1,0.2501940734863281,1.7190367919921874,-11.146205828857422
3473319234819,12.934755724,1,0.22266075439453123,1.7262193969726563,-11.221623181152344
3473339235131,12.954756036,1,0.20949264526367187,1.7166425903320313,-11.219228979492186
3473359251225,12.97477213,1,0.2214636535644531,1.7202338928222656,-11.180921752929686
3473379235183,12.994756088,1,0.21906945190429686,1.7298106994628906,-11.174936248779296
3473399231694,13.014752599,1,0.20829554443359374,1.707065783691406,-11.184513055419922
3473419235235,13.03475614,1,0.25258827514648435,1.7190367919921874,-11.15338843383789
3473439236642,13.054757547,1,0.22744915771484372,1.7369933044433592,-11.194089862060546
3473459235652,13.074756557,1,0.23223756103515625,1.734599102783203,-11.202469567871093
3473479233517,13.094754422,1,0.24061726684570311,1.7238251953125,-11.196484063720703
3473499235704,13.114756609,1,0.21787235107421873,1.725022296142578,-11.18571015625
3473519236069,13.134756974,1,0.2262520568847656,1.70467158203125,-11.209652172851563
3473539235756,13.154756661,1,0.239420166015625,1.7334020019531249,-11.213243475341796
3473559236954,13.174757859,1,0.22864625854492185,1.7130512878417967,-11.165359442138671
3473579235496,13.194756401,1,0.229843359375,1.734599102783203,-11.171344946289063
3473599236069,13.214756974,1,0.2262520568847656,1.7190367919921874,-11.197681164550781
3473619236017,13.234756922,1,0.23822306518554687,1.7106570861816406,-11.162965240478515
3473639234350,13.254755255,1,0.22864625854492185,1.725022296142578,-11.182118853759764
3473659235860,13.274756765,1,0.20470424194335937,1.7322049011230467,-11.222820281982422
3473679237944,13.294758849,1,0.239420166015625,1.7322049011230467,-11.204863769531249
3473699237058,13.314757963,1,0.23104046020507812,1.7118541870117185,-11.208455072021483
3473719234714,13.334755619,1,0.24301146850585936,1.7489643127441405,-11.170147845458983
3473739232787,13.354753692,1,0.2166752502441406,1.7190367919921874,-11.212046374511718
3473759236746,13.374757651,1,0.22385785522460935,1.7238251953125,-11.180921752929686
3473779237214,13.394758119,1,0.21906945190429686,1.7405846069335937,-11.182118853759764
3473799236017,13.414756922,1,0.24301146850585936,1.7238251953125,-11.2240173828125
3473819235131,13.434756036,1,0.20709844360351562,1.7274164978027342,-11.148600030517578
3473839235235,13.45475614,1,0.19632453613281248,1.7298106994628906,-11.195286962890624
3473859235339,13.474756244,1,0.23582886352539062,1.7166425903320313,-11.206060870361327
3473879234506,13.494755411,1,0.23104046020507812,1.7322049011230467,-11.186907257080078
3473899231017,13.514751922,1,0.24301146850585936,1.7489643127441405,-11.152191333007812
3473919234298,13.534755203,1,0.229843359375,1.7453730102539062,-11.171344946289063
3473939236121,13.554757026,1,0.21906945190429686,1.7298106994628906,-11.18571015625
3473959235027,13.574755932,1,0.23104046020507812,1.7178396911621092,-11.222820281982422
3473979234871,13.594755776,1,0.239420166015625,1.697488977050781,-11.152191333007812
3473999237371,13.614758276,1,0.20709844360351562,1.7393875061035156,-11.212046374511718
3474019235912,13.634756817,1,0.25258827514648435,1.7429788085937499,-11.214440576171874
3474039237110,13.654758015,1,0.23822306518554687,1.7130512878417967,-11.218031878662108
3474059235079,13.674755984,1,0.23104046020507812,1.7357962036132812,-11.177330450439452
3474079253569,13.694774474,1,0.26815058593749996,1.7322049011230467,-11.183315954589844
3474099235912,13.714756817,1,0.25139117431640623,1.695094775390625,-11.190498559570312
3474119236016,13.734756921,1,0.20470424194335937,1.7334020019531249,-11.196484063720703
3474139229089,13.754749994,1,0.229843359375,1.7561469177246092,-11.2240173828125
3474159234923,13.774755828,1,0.22026655273437498,1.725022296142578,-11.19169566040039
3474179234246,13.794755151,1,0.23822306518554687,1.7357962036132812,-11.3389390625
3474199235756,13.814756661,1,0.23343466186523437,1.753752716064453,-11.067197174072264
3474219235600,13.834756505,1,0.24301146850585936,1.7381904052734374,-11.225214483642578
3474239228985,13.85474989,1,0.23343466186523437,1.7226280944824217,-11.311405743408203
3474259233725,13.87475463,1,0.24660277099609373,1.7334020019531249,-11.040860955810546
3474279232475,13.89475338,1,0.21428104858398436,1.7334020019531249,-11.190498559570312
3474299235808,13.914756713,1,0.21428104858398436,1.7262193969726563,-11.201272467041015
3474319236277,13.934757182,1,0.22864625854492185,1.7381904052734374,-11.206060870361327
3474339235027,13.954755932,1,0.19991583862304688,1.714248388671875,-11.19169566040039
3474359236485,13.97475739,1,0.23582886352539062,1.7262193969726563,-11.319785449218749
3474379246954,13.994767859,1,0.22266075439453123,1.7274164978027342,-11.184513055419922
3474399232891,14.014753796,1,0.239420166015625,1.7082628845214842,-11.16057103881836
3474419234714,14.034755619,1,0.23702596435546874,1.7298106994628906,-11.184513055419922
3474439234975,14.05475588,1,0.23343466186523437,1.7262193969726563,-11.188104357910156
3474459235860,14.074756765,1,0.23343466186523437,1.7310078002929687,-11.168950744628905
3474479236798,14.094757703,1,0.2442085693359375,1.7298106994628906,-11.166556542968749
3474499233777,14.114754682,1,0.22864625854492185,1.7202338928222656,-11.184513055419922
3474519239402,14.134760307,1,0.22744915771484372,1.7322049011230467,-11.167753643798827
3474539236173,14.154757078,1,0.22266075439453123,1.7381904052734374,-11.171344946289063
3474559235808,14.174756713,1,0.17597382202148437,1.7094599853515624,-11.171344946289063
3474579235443,14.194756348,1,0.20709844360351562,1.7322049011230467,-11.19887826538086
3474599253881,14.214774786,1,0.22744915771484372,1.7310078002929687,-11.180921752929686
3474619235600,14.234756505,1,0.21308394775390624,1.7310078002929687,-11.218031878662108
3474639233516,14.254754421,1,0.229843359375,1.7393875061035156,-11.173739147949219
3474659234766,14.274755671,1,0.2214636535644531,1.7322049011230467,-11.179724652099608
3474679234975,14.29475588,1,0.21906945190429686,1.7178396911621092,-11.177330450439452
3474699234245,14.31475515,1,0.2214636535644531,1.7334020019531249,-11.188104357910156
3474719235131,14.334756036,1,0.2059013427734375,1.7405846069335937,-11.158176837158203
3474739235339,14.354756244,1,0.22505495605468748,1.7357962036132812,-11.182118853759764
3474759233725,14.37475463,1,0.2501940734863281,1.7286135986328124,-11.141417425537108
3474779234610,14.394755515,1,0.20829554443359374,1.7322049011230467,-11.150994232177734
3474799234558,14.414755463,1,0.21787235107421873,1.7322049011230467,-11.19169566040039
3474819235339,14.434756244,1,0.22266075439453123,1.734599102783203,-11.21683477783203
3474839235079,14.454755984,1,0.23582886352539062,1.7393875061035156,-11.166556542968749
3474859237006,14.474757911,1,0.23104046020507812,1.7465701110839842,-11.222820281982422
3474879237370,14.494758275,1,0.23343466186523437,1.7298106994628906,-11.170147845458983
3474899235391,14.514756296,1,0.22385785522460935,1.7393875061035156,-11.15338843383789
3474919252110,14.534773015,1,0.20350714111328125,1.7549498168945312,-11.180921752929686
3474939235183,14.554756088,1,0.22026655273437498,1.7286135986328124,-11.180921752929686
3474959237527,14.574758432,1,0.18555062866210936,1.7465701110839842,-11.194089862060546
3474979274089,14.594794994,1,0.22026655273437498,1.7238251953125,-11.168950744628905
3474999238412,14.614759317,1,0.22026655273437498,1.7393875061035156,-11.192892761230468
3475019237526,14.634758431,1,0.20709844360351562,1.7166425903320313,-11.179724652099608
3475039238881,14.654759786,1,0.2166752502441406,1.7238251953125,-11.176133349609374
3475059237943,14.674758848,1,0.2262520568847656,1.7022773803710936,-11.226411584472656
3475079236954,14.694757859,1,0.19991583862304688,1.7238251953125,-11.189301458740234
3475099235495,14.7147564,1,0.20949264526367187,1.714248388671875,-11.194089862060546
3475119235756,14.734756661,1,0.2442085693359375,1.7262193969726563,-11.21683477783203
3475139235287,14.754756192,1,0.22864625854492185,1.725022296142578,-11.202469567871093
3475159236381,14.774757286,1,0.22864625854492185,1.7310078002929687,-11.19169566040039
3475179236381,14.794757286,1,0.201112939453125,1.725022296142578,-11.208455072021483
3475199237474,14.814758379,1,0.23822306518554687,1.7190367919921874,-11.190498559570312
3475219236693,14.834757598,1,0.25258827514648435,1.734599102783203,-11.183315954589844
3475239236328,14.854757233,1,0.20949264526367187,1.7417817077636717,-11.194089862060546
3475259234974,14.874755879,1,0.23223756103515625,1.7334020019531249,-11.173739147949219
3475279235703,14.894756608,1,0.23104046020507812,1.7322049011230467,-11.192892761230468
3475299231745,14.91475265,1,0.23702596435546874,1.7429788085937499,-11.197681164550781
3475319236381,14.934757286,1,0.239420166015625,1.7274164978027342,-11.190498559570312
3475339235443,14.954756348,1,0.2214636535644531,1.7477672119140624,-11.18571015625
3475359234662,14.974755567,1,0.21308394775390624,1.7405846069335937,-11.18571015625
3475379230183,14.994751088,1,0.23702596435546874,1.7310078002929687,-11.177330450439452
3475399235078,15.014755983,1,0.22744915771484372,1.7429788085937499,-11.222820281982422
3475419235131,15.034756036,1,0.24061726684570311,1.7369933044433592,-11.155782635498046
3475439234974,15.054755879,1,0.201112939453125,1.7238251953125,-11.197681164550781
