timestamp_ns,t_s,sensor_id,ax,ay,az
4992426186531,0.056968021,1,0.2549824768066406,1.6938976745605467,-11.21683477783203
4992428361166,0.059142656,1,0.24181436767578124,1.7753005310058592,-11.17254204711914
4992430581531,0.061363021,1,0.2154781494140625,1.7202338928222656,-11.238382592773437
4992432806896,0.063588386,1,0.1927332336425781,1.7788918334960937,-11.263521710205078
4992435022625,0.065804115,1,0.20231004028320312,1.7812860351562498,-11.226411584472656
4992437250021,0.068031511,1,0.24301146850585936,1.696291876220703,-11.164162341308593
4992439470021,0.070251511,1,0.21308394775390624,1.7082628845214842,-11.194089862060546
4992441691583,0.072473073,1,0.23702596435546874,1.7214309936523438,-11.182118853759764
4992443913614,0.074695104,1,0.22505495605468748,1.744175909423828,-11.17254204711914
4992446136375,0.076917865,1,0.22505495605468748,1.7417817077636717,-11.152191333007812
4992448359500,0.07914099,1,0.2597708801269531,1.7106570861816406,-11.186907257080078
4992450579083,0.081360573,1,0.22505495605468748,1.7609353210449217,-11.145008728027342
4992452803302,0.083584792,1,0.23822306518554687,1.7022773803710936,-11.25514200439453
4992455024708,0.085806198,1,0.2166752502441406,1.734599102783203,-11.176133349609374
4992457246323,0.088027813,1,0.19632453613281248,1.753752716064453,-11.170147845458983
4992459468823,0.090250313,1,0.20709844360351562,1.6938976745605467,-11.186907257080078
4992461690802,0.092472292,1,0.19871873779296872,1.7238251953125,-11.241973895263671
4992463912781,0.094694271,1,0.2454056701660156,1.6795324645996093,-11.155782635498046
4992466134812,0.096916302,1,0.20949264526367187,1.695094775390625,-11.162965240478515
4992468359812,0.099141302,1,0.22266075439453123,1.744175909423828,-11.180921752929686
4992470579343,0.101360833,1,0.18315642700195311,1.7106570861816406,-11.192892761230468
4992472804291,0.103585781,1,0.17118541870117188,1.7764976318359373,-11.21683477783203
4992475024031,0.105805521,1,0.21787235107421873,1.7681179260253905,-11.222820281982422
4992477245906,0.108027396,1,0.24301146850585936,1.7465701110839842,-11.170147845458983
4992479467885,0.110249375,1,0.25737667846679685,1.7489643127441405,-11.183315954589844
4992481690698,0.112472188,1,0.2645592834472656,1.7369933044433592,-11.171344946289063
4992483912416,0.114693906,1,0.20829554443359374,1.7262193969726563,-11.141417425537108
4992486135177,0.116916667,1,0.21188684692382811,1.7657237243652342,-11.135431921386719
4992488359604,0.119141094,1,0.2262520568847656,1.7549498168945312,-11.123460913085937
4992490579239,0.121360729,1,0.22744915771484372,1.6807295654296874,-11.155782635498046
4992492804396,0.123585886,1,0.23822306518554687,1.7286135986328124,-11.149797131347656
4992495023927,0.125805417,1,0.20949264526367187,1.6986860778808592,-11.131840618896483
4992497246218,0.128027708,1,0.24061726684570311,1.7226280944824217,-11.16057103881836
4992499469187,0.130250677,1,0.23223756103515625,1.7310078002929687,-11.23000288696289
4992501690854,0.132472344,1,0.20829554443359374,1.7166425903320313,-11.176133349609374
4992503913198,0.134694688,1,0.23223756103515625,1.714248388671875,-11.206060870361327
4992506135021,0.136916511,1,0.23104046020507812,1.7166425903320313,-11.213243475341796
4992508360489,0.139141979,1,0.23582886352539062,1.7657237243652342,-11.19887826538086
4992510579552,0.141361042,1,0.22266075439453123,1.792059942626953,-11.165359442138671
4992512804343,0.143585833,1,0.20949264526367187,1.7274164978027342,-11.209652172851563
4992515023666,0.145805156,1,0.23223756103515625,1.7381904052734374,-11.194089862060546
4992517246062,0.148027552,1,0.21188684692382811,1.7202338928222656,-11.17852755126953
4992519468771,0.150250261,1,0.24660277099609373,1.7322049011230467,-11.240776794433593
4992521690802,0.152472292,1,0.22266075439453123,1.7405846069335937,-11.218031878662108
4992523913093,0.154694583,1,0.20709844360351562,1.7597382202148437,-11.232397088623046
4992526135073,0.156916563,1,0.19871873779296872,1.7477672119140624,-11.173739147949219
4992528359083,0.159140573,1,0.18555062866210936,1.7286135986328124,-11.212046374511718
4992530579083,0.161360573,1,0.19512743530273435,1.715445489501953,-11.188104357910156
4992532803771,0.163585261,1,0.2501940734863281,1.6903063720703124,-11.214440576171874
4992535023927,0.165805417,1,0.19871873779296872,1.734599102783203,-11.182118853759764
4992537246531,0.168028021,1,0.24061726684570311,1.7453730102539062,-11.171344946289063
4992539468614,0.170250104,1,0.201112939453125,1.7417817077636717,-11.21084927368164
4992541691948,0.172473438,1,0.17956512451171874,1.7417817077636717,-11.21084927368164
4992543912625,0.174694115,1,0.20709844360351562,1.7621324218749999,-11.162965240478515
4992546134187,0.176915677,1,0.19393033447265623,1.705868682861328,-11.194089862060546
4992548358979,0.179140469,1,0.18076222534179687,1.7214309936523438,-11.182118853759764
4992550579604,0.181361094,1,0.2501940734863281,1.7525556152343749,-11.197681164550781
4992552804135,0.183585625,1,0.19991583862304688,1.7034744812011717,-11.154585534667968
4992555023458,0.185804948,1,0.2262520568847656,1.7214309936523438,-11.220426080322264
4992557246531,0.188028021,1,0.21068974609375,1.7357962036132812,-11.13423482055664
4992559468823,0.190250313,1,0.21308394775390624,1.7178396911621092,-11.251550701904296
4992561691271,0.192472761,1,0.2262520568847656,1.695094775390625,-11.165359442138671
4992563912000,0.19469349,1,0.21188684692382811,1.7094599853515624,-11.17254204711914
4992566134864,0.196916354,1,0.2059013427734375,1.696291876220703,-11.189301458740234
4992568359448,0.199140938,1,0.20829554443359374,1.6819266662597656,-11.221623181152344
4992570579864,0.201361354,1,0.2262520568847656,1.7561469177246092,-11.203666668701171
4992572802156,0.203583646,1,0.2346317626953125,1.7357962036132812,-11.19169566040039
4992575023771,0.205805261,1,0.28371289672851563,1.7597382202148437,-11.225214483642578
4992577245177,0.208026667,1,0.2262520568847656,1.7561469177246092,-11.231199987792968
4992579468406,0.210249896,1,0.2609679809570312,1.772906329345703,-11.24915650024414
4992581690958,0.212472448,1,0.2693476867675781,1.7094599853515624,-11.17254204711914
4992583913093,0.214694583,1,0.1879448303222656,1.7465701110839842,-11.03846675415039
4992586134448,0.216915938,1,0.21188684692382811,1.7238251953125,-11.235988391113281
4992588358979,0.219140469,1,0.2059013427734375,1.7429788085937499,-11.234791290283203
4992590579187,0.221360677,1,0.21787235107421873,1.7262193969726563,-11.167753643798827
4992592804031,0.223585521,1,0.26815058593749996,1.8076222534179687,-11.213243475341796
4992595023927,0.225805417,1,0.19632453613281248,1.7178396911621092,-11.164162341308593
4992597246010,0.2280275,1,0.2262520568847656,1.7561469177246092,-11.13423482055664
4992599467937,0.230249427,1,0.20829554443359374,1.7549498168945312,-11.167753643798827
4992601690541,0.232472031,1,0.16759411621093748,1.707065783691406,-11.243170996093749
4992603912781,0.234694271,1,0.2597708801269531,1.7405846069335937,-11.212046374511718
4992606135385,0.236916875,1,0.23702596435546874,1.7741034301757812,-11.137826123046874
4992608359135,0.239140625,1,0.23822306518554687,1.68551796875,-11.13423482055664
4992610579187,0.241360677,1,0.17836802368164062,1.7357962036132812,-11.16057103881836
4992612803927,0.243585417,1,0.2154781494140625,1.7286135986328124,-11.208455072021483
4992615024187,0.245805677,1,0.21068974609375,1.7381904052734374,-11.259930407714844
4992617246739,0.248028229,1,0.258573779296875,1.7800889343261719,-11.17254204711914
4992619468718,0.250250208,1,0.23702596435546874,1.7525556152343749,-11.158176837158203
4992621690489,0.252471979,1,0.22864625854492185,1.7800889343261719,-11.164162341308593
4992623912937,0.254694427,1,0.18435352783203124,1.7645266235351562,-11.034875451660156
4992626135541,0.256917031,1,0.19033903198242186,1.7022773803710936,-11.155782635498046
4992628359083,0.259140573,1,0.21906945190429686,1.7274164978027342,-11.168950744628905
4992630578770,0.26136026,1,0.20709844360351562,1.7393875061035156,-11.194089862060546
4992632804552,0.263586042,1,0.2059013427734375,1.7489643127441405,-11.131840618896483
4992635031010,0.2658125,1,0.20949264526367187,1.7190367919921874,-11.241973895263671
4992637248354,0.268029844,1,0.20949264526367187,1.7573440185546874,-11.265915911865234
4992639468718,0.270250208,1,0.2262520568847656,1.715445489501953,-11.180921752929686
4992641691166,0.272472656,1,0.24181436767578124,1.7274164978027342,-11.192892761230468
4992643913145,0.274694635,1,0.23223756103515625,1.7681179260253905,-11.141417425537108
4992646135906,0.276917396,1,0.24899697265624998,1.7094599853515624,-11.206060870361327
4992648359656,0.279141146,1,0.2166752502441406,1.6938976745605467,-11.197681164550781
4992650579864,0.281361354,1,0.26815058593749996,1.7166425903320313,-11.17254204711914
4992652804187,0.283585677,1,0.2825157958984375,1.7621324218749999,-11.212046374511718
4992655024343,0.285805833,1,0.2214636535644531,1.7238251953125,-11.184513055419922
4992657245698,0.288027188,1,0.22505495605468748,1.7022773803710936,-11.206060870361327
4992659468093,0.290249583,1,0.23702596435546874,1.7298106994628906,-11.196484063720703
4992661690385,0.292471875,1,0.18435352783203124,1.6699556579589843,-11.218031878662108
4992663912781,0.294694271,1,0.2214636535644531,1.695094775390625,-11.195286962890624
4992666134604,0.296916094,1,0.19033903198242186,1.70467158203125,-11.142614526367186
4992668359500,0.29914099,1,0.29927520751953124,1.7405846069335937,-11.176133349609374
4992670579343,0.301360833,1,0.22266075439453123,1.7118541870117185,-11.212046374511718
4992672803718,0.303585208,1,0.22505495605468748,1.7322049011230467,-11.235988391113281
4992675023875,0.305805365,1,0.17477672119140625,1.7573440185546874,-11.156979736328124
4992677245906,0.308027396,1,0.2059013427734375,1.715445489501953,-11.173739147949219
4992679467625,0.310249115,1,0.21068974609375,1.697488977050781,-11.201272467041015
4992681690281,0.312471771,1,0.16041151123046873,1.7262193969726563,-11.186907257080078
4992683912416,0.314693906,1,0.23343466186523437,1.7465701110839842,-11.137826123046874
4992686135073,0.316916563,1,0.20709844360351562,1.7262193969726563,-11.176133349609374
4992688358979,0.319140469,1,0.23582886352539062,1.7190367919921874,-11.105504400634764
4992690578979,0.321360469,1,0.24301146850585936,1.7238251953125,-11.197681164550781
4992692803145,0.323584635,1,0.26216508178710934,1.6927005737304686,-11.203666668701171
4992695024187,0.325805677,1,0.21906945190429686,1.7226280944824217,-11.201272467041015
4992697245854,0.328027344,1,0.19033903198242186,1.772906329345703,-11.171344946289063
4992699468562,0.330250052,1,0.25139117431640623,1.7226280944824217,-11.14022032470703
4992701690125,0.332471615,1,0.23582886352539062,1.7286135986328124,-11.17852755126953
4992703912468,0.334693958,1,0.23223756103515625,1.725022296142578,-11.19887826538086
4992706134239,0.336915729,1,0.1975216369628906,1.7178396911621092,-11.162965240478515
4992708359448,0.339140938,1,0.26336218261718747,1.7082628845214842,-11.240776794433593
4992710579968,0.341361458,1,0.23822306518554687,1.7238251953125,-11.1474029296875
4992712804604,0.343586094,1,0.19871873779296872,1.753752716064453,-11.194089862060546
4992715024031,0.345805521,1,0.21906945190429686,1.7393875061035156,-11.141417425537108
4992717245385,0.348026875,1,0.17956512451171874,1.7274164978027342,-11.221623181152344
4992719467520,0.35024901,1,0.22505495605468748,1.7381904052734374,-11.194089862060546
4992721689864,0.352471354,1,0.20949264526367187,1.7310078002929687,-11.214440576171874
4992723911739,0.354693229,1,0.2813186950683594,1.753752716064453,-11.11508120727539
4992726134395,0.356915885,1,0.277727392578125,1.7118541870117185,-11.212046374511718
4992728359395,0.359140885,1,0.16759411621093748,1.6915034729003906,-11.179724652099608
4992730578823,0.361360313,1,0.21906945190429686,1.6986860778808592,-11.148600030517578
4992732804135,0.363585625,1,0.2597708801269531,1.7262193969726563,-11.194089862060546
4992735021427,0.365802917,1,0.19991583862304688,1.70467158203125,-11.239579693603515
4992737245593,0.368027083,1,0.20829554443359374,1.7118541870117185,-11.158176837158203
4992739468093,0.370249583,1,0.26336218261718747,1.7501614135742187,-11.177330450439452
4992741689812,0.372471302,1,0.2262520568847656,1.7525556152343749,-11.156979736328124
4992743911635,0.374693125,1,0.1927332336425781,1.7429788085937499,-11.269507214355468
4992746134656,0.376916146,1,0.2214636535644531,1.7477672119140624,-11.225214483642578
4992748358979,0.379140469,1,0.22385785522460935,1.6819266662597656,-11.17254204711914
4992750578354,0.381359844,1,0.2154781494140625,1.7334020019531249,-11.235988391113281
4992752803198,0.383584688,1,0.2166752502441406,1.725022296142578,-11.26831011352539
4992755022833,0.385804323,1,0.19033903198242186,1.7513585144042967,-11.195286962890624
4992757245645,0.388027135,1,0.239420166015625,1.7501614135742187,-11.170147845458983
4992759468510,0.39025,1,0.23104046020507812,1.7741034301757812,-11.162965240478515
4992761690802,0.392472292,1,0.25139117431640623,1.7334020019531249,-11.23000288696289
4992763912000,0.39469349,1,0.20949264526367187,1.6627730529785156,-11.149797131347656
4992766134135,0.396915625,1,0.23104046020507812,1.753752716064453,-11.165359442138671
4992768358875,0.399140365,1,0.23223756103515625,1.7274164978027342,-11.179724652099608
4992770580073,0.401361563,1,0.21787235107421873,1.7334020019531249,-11.184513055419922
4992772803666,0.403585156,1,0.2609679809570312,1.7549498168945312,-11.186907257080078
4992775023875,0.405805365,1,0.22744915771484372,1.7369933044433592,-11.146205828857422
4992777245541,0.408027031,1,0.27174188842773433,1.7357962036132812,-11.156979736328124
4992779468979,0.410250469,1,0.229843359375,1.7034744812011717,-11.231199987792968
4992781689656,0.412471146,1,0.21428104858398436,1.7477672119140624,-11.214440576171874
4992783912989,0.414694479,1,0.2214636535644531,1.697488977050781,-11.197681164550781
4992786134708,0.416916198,1,0.22385785522460935,1.6986860778808592,-11.17254204711914
4992788358979,0.419140469,1,0.21428104858398436,1.7298106994628906,-11.192892761230468
4992790579083,0.421360573,1,0.21308394775390624,1.753752716064453,-11.164162341308593
4992792804135,0.423585625,1,0.2501940734863281,1.7286135986328124,-11.156979736328124
4992795023354,0.425804844,1,0.2741360900878906,1.7130512878417967,-11.196484063720703
4992797245437,0.428026927,1,0.24181436767578124,1.7549498168945312,-11.204863769531249
4992799468145,0.430249635,1,0.26336218261718747,1.7190367919921874,-11.162965240478515
4992801689760,0.43247125,1,0.258573779296875,1.7262193969726563,-11.064802972412108
4992803912052,0.434693542,1,0.20829554443359374,1.6927005737304686,-11.25514200439453
4992806134500,0.43691599,1,0.23343466186523437,1.7106570861816406,-11.162965240478515
4992808359187,0.439140677,1,0.1867477294921875,1.6986860778808592,-11.139023223876952
4992810578927,0.441360417,1,0.23822306518554687,1.7214309936523438,-11.133037719726563
4992812802781,0.443584271,1,0.239420166015625,1.714248388671875,-11.2240173828125
4992815023145,0.445804635,1,0.2059013427734375,1.705868682861328,-11.21084927368164
4992817245802,0.448027292,1,0.21188684692382811,1.7010802795410156,-11.239579693603515
4992819467781,0.450249271,1,0.21308394775390624,1.6843208679199217,-11.273098516845703
4992821690333,0.452471823,1,0.21428104858398436,1.734599102783203,-11.309011541748045
4992823912312,0.454693802,1,0.2501940734863281,1.7118541870117185,-11.200075366210937
4992826132208,0.456913698,1,0.23702596435546874,1.7322049011230467,-11.1474029296875
4992828355750,0.45913724,1,0.2693476867675781,1.7166425903320313,-11.112687005615234
4992830579760,0.46136125,1,0.22266075439453123,1.7477672119140624,-11.231199987792968
4992832804760,0.46358625,1,0.2214636535644531,1.7130512878417967,-11.171344946289063
4992835024083,0.465805573,1,0.21428104858398436,1.7465701110839842,-11.202469567871093
4992837246583,0.468028073,1,0.20231004028320312,1.7190367919921874,-11.201272467041015
4992839468250,0.47024974,1,0.20470424194335937,1.734599102783203,-11.162965240478515
4992841690489,0.472471979,1,0.2154781494140625,1.714248388671875,-11.326968054199218
4992843918406,0.474699896,1,0.20949264526367187,1.7776947326660155,-11.208455072021483
4992846136531,0.476918021,1,0.16998831787109375,1.7262193969726563,-11.097124694824219
4992848360333,0.479141823,1,0.21787235107421873,1.7202338928222656,-11.123460913085937
4992850578875,0.481360365,1,0.20350714111328125,1.7202338928222656,-11.15338843383789
4992852804239,0.483585729,1,0.22385785522460935,1.7262193969726563,-11.177330450439452
4992855023770,0.48580526,1,0.23104046020507812,1.7657237243652342,-11.214440576171874
4992857243614,0.488025104,1,0.2262520568847656,1.7489643127441405,-11.234791290283203
4992859465645,0.490247135,1,0.24301146850585936,1.7166425903320313,-11.202469567871093
4992861690645,0.492472135,1,0.2537853759765625,1.714248388671875,-11.3006318359375
4992863912468,0.494693958,1,0.2154781494140625,1.7166425903320313,-11.0707884765625
4992866135333,0.496916823,1,0.21428104858398436,1.7609353210449217,-11.173739147949219
4992868360020,0.49914151,1,0.2537853759765625,1.7573440185546874,-11.19169566040039
4992870579760,0.50136125,1,0.201112939453125,1.7298106994628906,-11.166556542968749
4992872803718,0.503585208,1,0.23104046020507812,1.707065783691406,-11.186907257080078
4992875023718,0.505805208,1,0.23702596435546874,1.7202338928222656,-11.149797131347656
4992877246010,0.5080275,1,0.21428104858398436,1.7274164978027342,-11.149797131347656
4992879467416,0.510248906,1,0.22026655273437498,1.7369933044433592,-11.165359442138671
4992881690333,0.512471823,1,0.23343466186523437,1.6998831787109374,-11.200075366210937
4992883912468,0.514693958,1,0.258573779296875,1.7561469177246092,-11.159373937988281
4992886135125,0.516916615,1,0.2561795776367187,1.7178396911621092,-11.085153686523437
4992888357260,0.51913875,1,0.2501940734863281,1.7226280944824217,-11.136629022216797
4992890579500,0.52136099,1,0.23343466186523437,1.7369933044433592,-11.16057103881836
4992892801375,0.523582865,1,0.21188684692382811,1.7836802368164062,-11.143811627197264
4992895024291,0.525805781,1,0.24899697265624998,1.7286135986328124,-11.203666668701171
4992897245333,0.528026823,1,0.21428104858398436,1.7034744812011717,-11.195286962890624
4992899468041,0.530249531,1,0.22266075439453123,1.7178396911621092,-11.19887826538086
4992901690802,0.532472292,1,0.20470424194335937,1.734599102783203,-11.154585534667968
4992903912625,0.534694115,1,0.258573779296875,1.7477672119140624,-11.171344946289063
4992906134552,0.536916042,1,0.25737667846679685,1.7393875061035156,-11.142614526367186
4992908359187,0.539140677,1,0.24301146850585936,1.7585411193847655,-11.208455072021483
4992910579031,0.541360521,1,0.20231004028320312,1.7274164978027342,-11.207257971191405
4992912803562,0.543585052,1,0.24301146850585936,1.7178396911621092,-11.139023223876952
4992915023458,0.545804948,1,0.22026655273437498,1.7381904052734374,-11.15338843383789
4992917245281,0.548026771,1,0.23104046020507812,1.7776947326660155,-11.1474029296875
4992919468041,0.550249531,1,0.22864625854492185,1.7262193969726563,-11.246762298583985
4992921690020,0.55247151,1,0.21787235107421873,1.7477672119140624,-11.129446417236327
4992923912729,0.554694219,1,0.21787235107421873,1.7106570861816406,-11.233594189453123
4992926134291,0.556915781,1,0.18914193115234373,1.7118541870117185,-11.19887826538086
4992928359187,0.559140677,1,0.22026655273437498,1.7190367919921874,-11.158176837158203
4992930579395,0.561360885,1,0.26815058593749996,1.6927005737304686,-11.215637677001952
4992932804187,0.563585677,1,0.23223756103515625,1.7357962036132812,-11.155782635498046
4992935024447,0.565805937,1,0.23702596435546874,1.7549498168945312,-11.180921752929686
4992937270229,0.568051719,1,0.20709844360351562,1.7393875061035156,-11.21084927368164
4992939468093,0.570249583,1,0.2501940734863281,1.7429788085937499,-11.313799945068359
4992941689708,0.572471198,1,0.2214636535644531,1.7621324218749999,-11.170147845458983
4992943911635,0.574693125,1,0.21428104858398436,1.7357962036132812,-11.148600030517578
4992946134395,0.576915885,1,0.25258827514648435,1.7429788085937499,-11.192892761230468
4992948359239,0.579140729,1,0.20709844360351562,1.7178396911621092,-11.125855114746093
4992950578979,0.581360469,1,0.1927332336425781,1.7214309936523438,-11.180921752929686
4992952803458,0.583584948,1,0.18315642700195311,1.714248388671875,-11.156979736328124
4992955023875,0.585805365,1,0.17597382202148437,1.7166425903320313,-11.146205828857422
4992957245125,0.588026615,1,0.19991583862304688,1.7489643127441405,-11.215637677001952
4992959468250,0.59024974,1,0.20470424194335937,1.7717092285156248,-11.232397088623046
4992961690802,0.592472292,1,0.23702596435546874,1.7453730102539062,-11.213243475341796
4992963913041,0.594694531,1,0.2501940734863281,1.7489643127441405,-11.149797131347656
4992966135750,0.59691724,1,0.2059013427734375,1.725022296142578,-11.19169566040039
4992968359604,0.599141094,1,0.26336218261718747,1.7010802795410156,-11.190498559570312
4992970580385,0.601361875,1,0.21906945190429686,1.7310078002929687,-11.164162341308593
4992972803666,0.603585156,1,0.20231004028320312,1.7477672119140624,-11.165359442138671
4992975024291,0.605805781,1,0.28012159423828126,1.7609353210449217,-11.135431921386719
4992977245333,0.608026823,1,0.22864625854492185,1.7501614135742187,-11.170147845458983
4992979468510,0.61025,1,0.19991583862304688,1.7501614135742187,-11.071985577392578
4992981690489,0.612471979,1,0.18315642700195311,1.7274164978027342,-11.141417425537108
4992983912260,0.61469375,1,0.20470424194335937,1.7190367919921874,-11.164162341308593
4992986134500,0.61691599,1,0.2214636535644531,1.7118541870117185,-11.18571015625
4992988359135,0.619140625,1,0.23582886352539062,1.7513585144042967,-11.174936248779296
4992990579656,0.621361146,1,0.23822306518554687,1.734599102783203,-11.173739147949219
4992992803614,0.623585104,1,0.21428104858398436,1.7022773803710936,-11.166556542968749
4992995024187,0.625805677,1,0.16759411621093748,1.7226280944824217,-11.209652172851563
4992997245489,0.628026979,1,0.2537853759765625,1.7561469177246092,-11.145008728027342
4992999468666,0.630250156,1,0.3112462158203125,1.7262193969726563,-11.089942089843749
4993001691010,0.6324725,1,0.20470424194335937,1.6747440612792968,-11.164162341308593
4993003912989,0.634694479,1,0.24061726684570311,1.7393875061035156,-11.170147845458983
4993006134656,0.636916146,1,0.19991583862304688,1.7369933044433592,-11.170147845458983
4993008359083,0.639140573,1,0.258573779296875,1.7010802795410156,-11.14022032470703
4993010578666,0.641360156,1,0.24899697265624998,1.7681179260253905,-11.166556542968749
4993012803770,0.64358526,1,0.20949264526367187,1.7010802795410156,-11.259930407714844
4993015023718,0.645805208,1,0.20829554443359374,1.7202338928222656,-11.189301458740234
4993017245593,0.648027083,1,0.2537853759765625,1.7800889343261719,-11.164162341308593
4993019468562,0.650250052,1,0.2549824768066406,1.7549498168945312,-11.21683477783203
4993021689968,0.652471458,1,0.18914193115234373,1.7226280944824217,-11.186907257080078
4993023912989,0.654694479,1,0.20709844360351562,1.7453730102539062,-11.206060870361327
4993026135020,0.65691651,1,0.24660277099609373,1.7286135986328124,-11.159373937988281
4993028359343,0.659140833,1,0.16041151123046873,1.734599102783203,-11.202469567871093
4993030579708,0.661361198,1,0.22505495605468748,1.7429788085937499,-11.204863769531249
4993032804031,0.663585521,1,0.23343466186523437,1.734599102783203,-11.143811627197264
4993035023354,0.665804844,1,0.22505495605468748,1.687912170410156,-11.179724652099608
4993037246114,0.668027604,1,0.2059013427734375,1.7334020019531249,-11.2240173828125
4993039468562,0.670250052,1,0.22266075439453123,1.734599102783203,-11.11508120727539
4993041690489,0.672471979,1,0.2657563842773437,1.7381904052734374,-11.136629022216797
4993043912729,0.674694219,1,0.2597708801269531,1.7166425903320313,-11.159373937988281
4993046134447,0.676915937,1,0.27293898925781246,1.696291876220703,-11.206060870361327
4993048359447,0.679140937,1,0.24899697265624998,1.772906329345703,-11.15338843383789
4993050579812,0.681361302,1,0.20470424194335937,1.707065783691406,-11.124658013916015
4993052810020,0.68359151,1,0.19153613281249998,1.7381904052734374,-11.141417425537108
4993055025229,0.685806719,1,0.26695348510742184,1.7788918334960937,-11.161768139648437
4993057271114,0.688052604,1,0.2166752502441406,1.7298106994628906,-11.148600030517578
4993059467520,0.69024901,1,0.2154781494140625,1.7776947326660155,-11.168950744628905
4993061690072,0.692471562,1,0.24660277099609373,1.7334020019531249,-11.10191309814453
4993063912312,0.694693802,1,0.1975216369628906,1.7513585144042967,-11.124658013916015
4993066135177,0.696916667,1,0.25258827514648435,1.734599102783203,-11.19887826538086
4993068359916,0.699141406,1,0.25737667846679685,1.7118541870117185,-11.164162341308593
4993070579812,0.701361302,1,0.23702596435546874,1.734599102783203,-11.142614526367186
4993072804499,0.703585989,1,0.17836802368164062,1.6998831787109374,-11.183315954589844
4993075023874,0.705805364,1,0.20949264526367187,1.7106570861816406,-11.182118853759764
4993077245385,0.708026875,1,0.2609679809570312,1.7800889343261719,-11.232397088623046
4993079467937,0.710249427,1,0.24301146850585936,1.7525556152343749,-11.17254204711914
4993081690072,0.712471562,1,0.23582886352539062,1.697488977050781,-11.155782635498046
4993083912416,0.714693906,1,0.23582886352539062,1.7322049011230467,-11.192892761230468
4993086134968,0.716916458,1,0.201112939453125,1.7489643127441405,-11.202469567871093
4993088359499,0.719140989,1,0.24301146850585936,1.7753005310058592,-11.184513055419922
4993090579083,0.721360573,1,0.23582886352539062,1.687912170410156,-11.207257971191405
4993092803979,0.723585469,1,0.2166752502441406,1.7238251953125,-11.194089862060546
4993095024343,0.725805833,1,0.19871873779296872,1.70467158203125,-11.204863769531249
4993097245229,0.728026719,1,0.21308394775390624,1.714248388671875,-11.243170996093749
4993099468562,0.730250052,1,0.2537853759765625,1.7202338928222656,-11.165359442138671
4993101689447,0.732470937,1,0.24899697265624998,1.7429788085937499,-11.146205828857422
4993103912208,0.734693698,1,0.20829554443359374,1.7405846069335937,-11.156979736328124
4993106135020,0.73691651,1,0.2214636535644531,1.697488977050781,-11.13423482055664
4993108359187,0.739140677,1,0.2166752502441406,1.7429788085937499,-11.156979736328124
4993110579187,0.741360677,1,0.22505495605468748,1.7262193969726563,-11.165359442138671
4993112803510,0.743585,1,0.18555062866210936,1.6986860778808592,-11.143811627197264
4993115022937,0.745804427,1,0.24061726684570311,1.7286135986328124,-11.182118853759764
4993117245906,0.748027396,1,0.22266075439453123,1.696291876220703,-11.233594189453123
4993119468145,0.750249635,1,0.2166752502441406,1.686715069580078,-11.204863769531249
4993121689864,0.752471354,1,0.22385785522460935,1.7717092285156248,-11.289857928466796
4993123912260,0.75469375,1,0.2705447875976562,1.7465701110839842,-11.183315954589844
4993126135385,0.756916875,1,0.201112939453125,1.763329522705078,-11.189301458740234
4993128359656,0.759141146,1,0.22385785522460935,1.7094599853515624,-11.186907257080078
4993130579135,0.761360625,1,0.23582886352539062,1.744175909423828,-11.155782635498046
4993132804135,0.763585625,1,0.23822306518554687,1.6938976745605467,-11.276689819335937
4993135023458,0.765804948,1,0.20829554443359374,1.7286135986328124,-11.166556542968749
4993137245385,0.768026875,1,0.1879448303222656,1.7298106994628906,-11.310208642578125
4993139468197,0.770249687,1,0.20470424194335937,1.7262193969726563,-11.177330450439452
4993141690333,0.772471823,1,0.18555062866210936,1.7130512878417967,-11.124658013916015
4993143912520,0.77469401,1,0.24779987182617186,1.714248388671875,-11.165359442138671
4993146134864,0.776916354,1,0.24301146850585936,1.725022296142578,-11.194089862060546
4993148359239,0.779140729,1,0.19512743530273435,1.7465701110839842,-11.232397088623046
4993150578718,0.781360208,1,0.19512743530273435,1.714248388671875,-11.218031878662108
4993152803145,0.783584635,1,0.22744915771484372,1.7393875061035156,-11.161768139648437
4993155023718,0.785805208,1,0.22026655273437498,1.7262193969726563,-11.14022032470703
4993157245593,0.788027083,1,0.20829554443359374,1.714248388671875,-11.092336291503905
4993159467989,0.790249479,1,0.21787235107421873,1.772906329345703,-11.204863769531249
4993161690437,0.792471927,1,0.22266075439453123,1.7429788085937499,-11.176133349609374
4993163912624,0.794694114,1,0.2166752502441406,1.7226280944824217,-11.206060870361327
4993166134083,0.796915573,1,0.17357962036132812,1.763329522705078,-11.23000288696289
4993168359031,0.799140521,1,0.2561795776367187,1.7310078002929687,-11.200075366210937
4993170579187,0.801360677,1,0.1879448303222656,1.7286135986328124,-11.180921752929686
4993172803510,0.803585,1,0.2262520568847656,1.7262193969726563,-11.152191333007812
4993175022937,0.805804427,1,0.19991583862304688,1.7465701110839842,-11.177330450439452
4993177245385,0.808026875,1,0.21428104858398436,1.7082628845214842,-11.186907257080078
4993179468249,0.810249739,1,0.229843359375,1.7262193969726563,-11.162965240478515
4993181690072,0.812471562,1,0.201112939453125,1.6747440612792968,-11.139023223876952
4993183912104,0.814693594,1,0.23343466186523437,1.7776947326660155,-11.158176837158203
4993186134031,0.816915521,1,0.22385785522460935,1.714248388671875,-11.2240173828125
4993188358666,0.819140156,1,0.23343466186523437,1.7322049011230467,-11.156979736328124
4993190579343,0.821360833,1,0.23223756103515625,1.725022296142578,-11.23000288696289
4993192804031,0.823585521,1,0.181959326171875,1.7130512878417967,-11.189301458740234
4993195023874,0.825805364,1,0.21906945190429686,1.7190367919921874,-11.240776794433593
4993197245854,0.828027344,1,0.23582886352539062,1.7369933044433592,-11.197681164550781
4993199468145,0.830249635,1,0.2657563842773437,1.7369933044433592,-11.17254204711914
4993201689916,0.832471406,1,0.24061726684570311,1.7190367919921874,-11.16057103881836
4993203912052,0.834693542,1,0.2214636535644531,1.7214309936523438,-11.232397088623046
4993206135020,0.83691651,1,0.2597708801269531,1.7322049011230467,-11.150994232177734
4993208358822,0.839140312,1,0.24660277099609373,1.7549498168945312,-11.209652172851563
4993210579135,0.841360625,1,0.23223756103515625,1.7274164978027342,-11.228805786132812
4993212803614,0.843585104,1,0.229843359375,1.763329522705078,-11.23718549194336
4993215023562,0.845805052,1,0.239420166015625,1.705868682861328,-11.110292803955078
4993217246479,0.848027969,1,0.239420166015625,1.7310078002929687,-11.186907257080078
4993219467364,0.850248854,1,0.19991583862304688,1.7645266235351562,-11.190498559570312
4993221689395,0.852470885,1,0.19153613281249998,1.734599102783203,-11.19887826538086
4993223911635,0.854693125,1,0.21188684692382811,1.714248388671875,-11.188104357910156
4993226134499,0.856915989,1,0.258573779296875,1.697488977050781,-11.215637677001952
4993228359760,0.85914125,1,0.23223756103515625,1.6938976745605467,-11.233594189453123
4993230578770,0.86136026,1,0.2059013427734375,1.7513585144042967,-11.194089862060546
4993232803145,0.863584635,1,0.23822306518554687,1.7381904052734374,-11.196484063720703
4993235023562,0.865805052,1,0.2813186950683594,1.7489643127441405,-11.17852755126953
4993237268406,0.868049896,1,0.21308394775390624,1.7178396911621092,-11.174936248779296
4993239468822,0.870250312,1,0.19871873779296872,1.7094599853515624,-11.180921752929686
4993241690177,0.872471667,1,0.229843359375,1.7513585144042967,-11.179724652099608
4993243912312,0.874693802,1,0.24660277099609373,1.7944541442871094,-11.080365283203124
4993246134656,0.876916146,1,0.27892449340820313,1.7357962036132812,-11.21084927368164
4993248358718,0.879140208,1,0.24899697265624998,1.763329522705078,-11.245565197753905
4993250579551,0.881361041,1,0.25258827514648435,1.7274164978027342,-11.11508120727539
4993252803562,0.883585052,1,0.2693476867675781,1.7705121276855467,-11.170147845458983
4993255024031,0.885805521,1,0.2454056701660156,1.7274164978027342,-11.233594189453123
4993257270229,0.888051719,1,0.21787235107421873,1.7286135986328124,-11.105504400634764
4993259468145,0.890249635,1,0.2537853759765625,1.725022296142578,-11.104307299804686
4993261695593,0.892477083,1,0.21308394775390624,1.7130512878417967,-11.173739147949219
4993263914395,0.894695885,1,0.23822306518554687,1.7310078002929687,-11.212046374511718
4993266134812,0.896916302,1,0.19632453613281248,1.7645266235351562,-11.196484063720703
4993268359239,0.899140729,1,0.23104046020507812,1.7238251953125,-11.135431921386719
4993270578666,0.901360156,1,0.2059013427734375,1.7094599853515624,-11.206060870361327
4993272803510,0.903585,1,0.2154781494140625,1.7178396911621092,-11.155782635498046
4993275024031,0.905805521,1,0.22385785522460935,1.7357962036132812,-11.188104357910156
4993277270229,0.908051719,1,0.2454056701660156,1.7178396911621092,-11.192892761230468
4993279469083,0.910250573,1,0.22385785522460935,1.7453730102539062,-11.208455072021483
4993281690333,0.912471823,1,0.23582886352539062,1.7094599853515624,-11.162965240478515
4993283911947,0.914693437,1,0.23223756103515625,1.697488977050781,-11.142614526367186
4993286134239,0.916915729,1,0.2501940734863281,1.7274164978027342,-11.194089862060546
4993288359135,0.919140625,1,0.201112939453125,1.707065783691406,-11.167753643798827
4993290579447,0.921360937,1,0.22026655273437498,1.744175909423828,-11.19169566040039
4993292803770,0.92358526,1,0.17238251953125,1.697488977050781,-11.194089862060546
4993295023822,0.925805312,1,0.20709844360351562,1.753752716064453,-11.189301458740234
4993297245437,0.928026927,1,0.23223756103515625,1.7764976318359373,-11.195286962890624
4993299467781,0.930249271,1,0.2442085693359375,1.7202338928222656,-11.204863769531249
4993301690072,0.932471562,1,0.23104046020507812,1.7118541870117185,-11.208455072021483
4993303912468,0.934693958,1,0.28730419921875,1.7298106994628906,-11.180921752929686
4993306135020,0.93691651,1,0.2214636535644531,1.70467158203125,-11.2240173828125
4993308358614,0.939140104,1,0.19512743530273435,1.7322049011230467,-11.214440576171874
4993310579551,0.941361041,1,0.22505495605468748,1.714248388671875,-11.209652172851563
4993312804187,0.943585677,1,0.19393033447265623,1.707065783691406,-11.192892761230468
4993315022937,0.945804427,1,0.1975216369628906,1.7286135986328124,-11.200075366210937
4993317245385,0.948026875,1,0.2262520568847656,1.715445489501953,-11.201272467041015
4993319467468,0.950248958,1,0.22266075439453123,1.5897499023437498,-11.165359442138671
4993321689916,0.952471406,1,0.19153613281249998,1.7597382202148437,-11.204863769531249
4993323912416,0.954693906,1,0.2059013427734375,1.763329522705078,-11.218031878662108
4993326134708,0.956916198,1,0.2166752502441406,1.7549498168945312,-11.204863769531249
4993328358822,0.959140312,1,0.2753331909179687,1.6998831787109374,-11.156979736328124
4993330579395,0.961360885,1,0.2705447875976562,1.7286135986328124,-11.156979736328124
4993332803145,0.963584635,1,0.18435352783203124,1.7214309936523438,-11.097124694824219
4993335023197,0.965804687,1,0.229843359375,1.7573440185546874,-11.275492718505859
4993337243822,0.968025312,1,0.21308394775390624,1.753752716064453,-11.207257971191405
4993339464812,0.970246302,1,0.2825157958984375,1.7561469177246092,-11.171344946289063
4993341690385,0.972471875,1,0.20829554443359374,1.7334020019531249,-11.225214483642578
4993343912676,0.974694166,1,0.18315642700195311,1.697488977050781,-11.142614526367186
4993346134604,0.976916094,1,0.22385785522460935,1.7369933044433592,-11.214440576171874
4993348359760,0.97914125,1,0.2597708801269531,1.7274164978027342,-11.159373937988281
4993350579551,0.981361041,1,0.23343466186523437,1.782483135986328,-11.184513055419922
4993352804083,0.983585573,1,0.19632453613281248,1.7118541870117185,-11.15338843383789
4993355024135,0.985805625,1,0.2693476867675781,1.7453730102539062,-11.24915650024414
4993357246114,0.988027604,1,0.24181436767578124,1.7836802368164062,-11.158176837158203
4993359468301,0.990249791,1,0.25258827514648435,1.7417817077636717,-11.276689819335937
4993361689708,0.992471198,1,0.2442085693359375,1.7573440185546874,-11.168950744628905
4993363912468,0.994693958,1,0.18435352783203124,1.725022296142578,-11.17852755126953
4993366135229,0.996916719,1,0.24779987182617186,1.7322049011230467,-11.156979736328124
4993368359708,0.999141198,1,0.21188684692382811,1.7621324218749999,-11.258733306884764
4993370578770,1.00136026,1,0.20470424194335937,1.7381904052734374,-11.23718549194336
4993372803093,1.003584583,1,0.18315642700195311,1.7465701110839842,-11.149797131347656
4993375023197,1.005804687,1,0.2346317626953125,1.734599102783203,-11.171344946289063
4993377264864,1.008046354,1,0.19033903198242186,1.7573440185546874,-11.139023223876952
4993379468510,1.01025,1,0.2154781494140625,1.7429788085937499,-11.165359442138671
4993381690229,1.012471719,1,0.22026655273437498,1.7381904052734374,-11.139023223876952
4993383912781,1.014694271,1,0.2346317626953125,1.7082628845214842,-11.23718549194336
4993386135229,1.016916719,1,0.22505495605468748,1.7741034301757812,-11.183315954589844
4993388358770,1.01914026,1,0.19632453613281248,1.7453730102539062,-11.257536206054686
4993390579499,1.021360989,1,0.25139117431640623,1.7262193969726563,-11.18571015625
4993392804656,1.023586146,1,0.2549824768066406,1.7645266235351562,-11.203666668701171
4993395023926,1.025805416,1,0.2442085693359375,1.7369933044433592,-11.170147845458983
4993397246062,1.028027552,1,0.26216508178710934,1.7274164978027342,-11.119869610595703
4993399467937,1.030249427,1,0.2166752502441406,1.7106570861816406,-11.267113012695312
4993401690906,1.032472396,1,0.22505495605468748,1.7393875061035156,-11.161768139648437
4993403913041,1.034694531,1,0.26216508178710934,1.7561469177246092,-11.135431921386719
4993406134291,1.036915781,1,0.2765302917480469,1.734599102783203,-11.143811627197264
4993408358614,1.039140104,1,0.25139117431640623,1.7489643127441405,-11.218031878662108
4993410579031,1.041360521,1,0.21428104858398436,1.792059942626953,-11.16057103881836
4993412803458,1.043584948,1,0.24660277099609373,1.7010802795410156,-11.201272467041015
4993415024187,1.045805677,1,0.21068974609375,1.7489643127441405,-11.19169566040039
4993417264395,1.048045885,1,0.22864625854492185,1.7334020019531249,-11.15338843383789
4993419468145,1.050249635,1,0.22385785522460935,1.6795324645996093,-11.183315954589844
4993421690124,1.052471614,1,0.239420166015625,1.707065783691406,-11.171344946289063
4993423912468,1.054693958,1,0.26216508178710934,1.7082628845214842,-11.149797131347656
4993426134656,1.056916146,1,0.24899697265624998,1.7238251953125,-11.189301458740234
4993428358770,1.05914026,1,0.19153613281249998,1.686715069580078,-11.117475408935546
4993430579812,1.061361302,1,0.24181436767578124,1.7190367919921874,-11.177330450439452
4993432803822,1.063585312,1,0.2645592834472656,1.7178396911621092,-11.263521710205078
4993435022989,1.065804479,1,0.24899697265624998,1.7202338928222656,-11.165359442138671
4993437246479,1.068027969,1,0.24899697265624998,1.696291876220703,-11.218031878662108
4993439468093,1.070249583,1,0.28371289672851563,1.7597382202148437,-11.174936248779296
4993441690749,1.072472239,1,0.17597382202148437,1.7381904052734374,-11.155782635498046
4993443913197,1.074694687,1,0.2537853759765625,1.7274164978027342,-11.164162341308593
4993446135489,1.076916979,1,0.24779987182617186,1.7178396911621092,-11.152191333007812
4993448358874,1.079140364,1,0.22385785522460935,1.7453730102539062,-11.143811627197264
4993450579031,1.081360521,1,0.2885013000488281,1.66636435546875,-11.180921752929686
4993452803197,1.083584687,1,0.2501940734863281,1.763329522705078,-11.200075366210937
4993455023406,1.085804896,1,0.24779987182617186,1.6915034729003906,-11.3389390625
4993457245385,1.088026875,1,0.239420166015625,1.7489643127441405,-11.186907257080078
4993459468406,1.090249896,1,0.20829554443359374,1.7262193969726563,-11.168950744628905
4993461690229,1.092471719,1,0.2549824768066406,1.7381904052734374,-11.176133349609374
4993463912208,1.094693698,1,0.258573779296875,1.7274164978027342,-11.171344946289063
4993466134239,1.096915729,1,0.2932897033691406,1.734599102783203,-11.171344946289063
4993468359604,1.099141094,1,0.20231004028320312,1.7130512878417967,-11.202469567871093
4993470584187,1.101365677,1,0.18435352783203124,1.7322049011230467,-11.219228979492186
4993472806531,1.103588021,1,0.21906945190429686,1.7322049011230467,-11.203666668701171
4993475023249,1.105804739,1,0.181959326171875,1.744175909423828,-11.213243475341796
4993477246478,1.108027968,1,0.20709844360351562,1.7190367919921874,-11.239579693603515
4993479468874,1.110250364,1,0.23582886352539062,1.7465701110839842,-11.2240173828125
4993481689864,1.112471354,1,0.22505495605468748,1.7621324218749999,-11.179724652099608
4993483913093,1.114694583,1,0.22026655273437498,1.7202338928222656,-11.09592759399414
4993486135020,1.11691651,1,0.2537853759765625,1.696291876220703,-11.188104357910156
4993488359916,1.119141406,1,0.2501940734863281,1.7788918334960937,-11.182118853759764
4993490579447,1.121360937,1,0.2454056701660156,1.7357962036132812,-11.202469567871093
4993492804187,1.123585677,1,0.18315642700195311,1.7262193969726563,-11.11508120727539
4993495020853,1.125802343,1,0.18076222534179687,1.753752716064453,-11.189301458740234
4993497247051,1.128028541,1,0.22266075439453123,1.7489643127441405,-11.17852755126953
4993499468926,1.130250416,1,0.22266075439453123,1.7166425903320313,-11.105504400634764
4993501693041,1.132474531,1,0.22385785522460935,1.7705121276855467,-11.201272467041015
4993503913093,1.134694583,1,0.2597708801269531,1.7621324218749999,-11.250353601074218
4993506134916,1.136916406,1,0.25258827514648435,1.7214309936523438,-11.213243475341796
4993508357156,1.139138646,1,0.2561795776367187,1.7561469177246092,-11.219228979492186
4993510576010,1.1413575,1,0.24181436767578124,1.7310078002929687,-11.155782635498046
4993512797781,1.143579271,1,0.22385785522460935,1.7776947326660155,-11.213243475341796
4993515024083,1.145805573,1,0.21428104858398436,1.7669208251953124,-11.121066711425781
4993517246426,1.148027916,1,0.17477672119140625,1.7334020019531249,-11.196484063720703
4993519468197,1.150249687,1,0.23104046020507812,1.7393875061035156,-11.136629022216797
4993521690072,1.152471562,1,0.21068974609375,1.7369933044433592,-11.18571015625
4993523912103,1.154693593,1,0.21308394775390624,1.7202338928222656,-11.149797131347656
4993526134135,1.156915625,1,0.20949264526367187,1.7190367919921874,-11.17852755126953
4993528358301,1.159139791,1,0.24181436767578124,1.7226280944824217,-11.207257971191405
4993530579395,1.161360885,1,0.23702596435546874,1.7597382202148437,-11.136629022216797
4993532802103,1.163583593,1,0.2346317626953125,1.697488977050781,-11.311405743408203
4993535024916,1.165806406,1,0.2154781494140625,1.6915034729003906,-11.127052215576171
4993537268614,1.168050104,1,0.2657563842773437,1.7202338928222656,-11.243170996093749
4993539468458,1.170249948,1,0.2454056701660156,1.7082628845214842,-11.166556542968749
4993541690176,1.172471666,1,0.22026655273437498,1.7741034301757812,-11.154585534667968
4993543912364,1.174693854,1,0.17238251953125,1.7465701110839842,-11.142614526367186
4993546134031,1.176915521,1,0.18076222534179687,1.7202338928222656,-11.186907257080078
4993548359551,1.179141041,1,0.22864625854492185,1.7106570861816406,-11.188104357910156
4993550578978,1.181360468,1,0.23104046020507812,1.725022296142578,-11.162965240478515
4993552803926,1.183585416,1,0.2549824768066406,1.696291876220703,-11.194089862060546
4993555023926,1.185805416,1,0.24061726684570311,1.7513585144042967,-11.204863769531249
4993557246218,1.188027708,1,0.24899697265624998,1.7393875061035156,-11.274295617675781
4993559467937,1.190249427,1,0.23582886352539062,1.7022773803710936,-11.209652172851563
4993561690124,1.192471614,1,0.21188684692382811,1.695094775390625,-11.197681164550781
4993563911895,1.194693385,1,0.26815058593749996,1.7226280944824217,-11.162965240478515
4993566135020,1.19691651,1,0.22505495605468748,1.7298106994628906,-11.174936248779296
4993568360281,1.199141771,1,0.22505495605468748,1.6998831787109374,-11.14022032470703
4993570579083,1.201360573,1,0.22026655273437498,1.7298106994628906,-11.17852755126953
4993572804343,1.203585833,1,0.24181436767578124,1.7525556152343749,-11.202469567871093
4993575023718,1.205805208,1,0.2214636535644531,1.725022296142578,-11.189301458740234
4993577268614,1.208050104,1,0.21188684692382811,1.7753005310058592,-11.214440576171874
4993579468301,1.210249791,1,0.23104046020507812,1.7453730102539062,-11.170147845458983
4993581690072,1.212471562,1,0.24061726684570311,1.7010802795410156,-11.17254204711914
4993583912833,1.214694323,1,0.18076222534179687,1.7130512878417967,-11.156979736328124
4993586134239,1.216915729,1,0.23223756103515625,1.7465701110839842,-11.263521710205078
4993588360072,1.219141562,1,0.24181436767578124,1.7465701110839842,-11.228805786132812
4993590580020,1.22136151,1,0.21308394775390624,1.734599102783203,-11.202469567871093
4993592804031,1.223585521,1,0.24660277099609373,1.744175909423828,-11.212046374511718
4993595023562,1.225805052,1,0.181959326171875,1.7214309936523438,-11.221623181152344
4993597246010,1.2280275,1,0.229843359375,1.7645266235351562,-11.244368096923827
4993599468874,1.230250364,1,0.2059013427734375,1.7585411193847655,-11.21683477783203
4993601690593,1.232472083,1,0.2741360900878906,1.7274164978027342,-11.203666668701171
4993603911843,1.234693333,1,0.2442085693359375,1.7334020019531249,-11.179724652099608
4993606134760,1.23691625,1,0.24660277099609373,1.7310078002929687,-11.124658013916015
4993608359864,1.239141354,1,0.26216508178710934,1.725022296142578,-11.179724652099608
4993610579083,1.241360573,1,0.2214636535644531,1.7681179260253905,-11.17852755126953
4993612803614,1.243585104,1,0.23104046020507812,1.7226280944824217,-11.055226165771483
4993615023874,1.245805364,1,0.22385785522460935,1.5478513732910155,-11.285069525146485
4993617265228,1.248046718,1,0.2657563842773437,1.7298106994628906,-11.195286962890624
4993619467260,1.25024875,1,0.2597708801269531,1.7286135986328124,-11.165359442138671
4993621690176,1.252471666,1,0.2705447875976562,1.7310078002929687,-11.17852755126953
4993623912260,1.25469375,1,0.2059013427734375,1.7381904052734374,-11.189301458740234
4993626134395,1.256915885,1,0.23702596435546874,1.7405846069335937,-11.179724652099608
4993628359187,1.259140677,1,0.26336218261718747,1.7274164978027342,-11.152191333007812
4993630578458,1.261359948,1,0.1879448303222656,1.7429788085937499,-11.203666668701171
4993632801114,1.263582604,1,0.20709844360351562,1.7034744812011717,-11.227608685302734
4993635023770,1.26580526,1,0.20350714111328125,1.7429788085937499,-11.152191333007812
4993637265176,1.268046666,1,0.2166752502441406,1.7501614135742187,-11.200075366210937
4993639467937,1.270249427,1,0.2059013427734375,1.7022773803710936,-11.228805786132812
4993641689916,1.272471406,1,0.2346317626953125,1.7836802368164062,-11.232397088623046
4993643911531,1.274693021,1,0.22266075439453123,1.7764976318359373,-11.158176837158203
4993646134603,1.276916093,1,0.24061726684570311,1.7645266235351562,-11.203666668701171
4993648359864,1.279141354,1,0.21428104858398436,1.7178396911621092,-11.183315954589844
4993650578718,1.281360208,1,0.26815058593749996,1.7381904052734374,-11.19887826538086
4993652803770,1.28358526,1,0.26695348510742184,1.7405846069335937,-11.19169566040039
4993655023301,1.285804791,1,0.26216508178710934,1.7298106994628906,-11.208455072021483
4993657245176,1.288026666,1,0.22864625854492185,1.7202338928222656,-11.232397088623046
4993659468770,1.29025026,1,0.22505495605468748,1.7238251953125,-11.256339105224608
4993661690072,1.292471562,1,0.22744915771484372,1.7645266235351562,-11.212046374511718
4993663912572,1.294694062,1,0.21787235107421873,1.7274164978027342,-11.171344946289063
4993666134708,1.296916198,1,0.19153613281249998,1.7477672119140624,-11.218031878662108
4993668359187,1.299140677,1,0.16639701538085935,1.7968483459472655,-11.176133349609374
4993670579239,1.301360729,1,0.18555062866210936,1.7393875061035156,-11.112687005615234
4993672803822,1.303585312,1,0.20470424194335937,1.7022773803710936,-11.15338843383789
4993675023770,1.30580526,1,0.22266075439453123,1.7573440185546874,-11.168950744628905
4993677245072,1.308026562,1,0.2262520568847656,1.734599102783203,-11.119869610595703
4993679474708,1.310256198,1,0.26216508178710934,1.7166425903320313,-11.184513055419922
4993681692416,1.312473906,1,0.21906945190429686,1.7214309936523438,-11.171344946289063
4993683913041,1.314694531,1,0.2454056701660156,1.697488977050781,-11.21683477783203
4993686134603,1.316916093,1,0.2657563842773437,1.7310078002929687,-11.176133349609374
4993688359499,1.319140989,1,0.2765302917480469,1.7334020019531249,-11.16057103881836
4993690579864,1.321361354,1,0.19153613281249998,1.753752716064453,-11.162965240478515
4993692803874,1.323585364,1,0.24301146850585936,1.7429788085937499,-11.183315954589844
4993695023718,1.325805208,1,0.2214636535644531,1.7274164978027342,-11.245565197753905
4993697245541,1.328027031,1,0.20829554443359374,1.7226280944824217,-11.155782635498046
4993699468353,1.330249843,1,0.20709844360351562,1.7525556152343749,-11.15338843383789
4993701690176,1.332471666,1,0.22266075439453123,1.7094599853515624,-11.184513055419922
4993703912833,1.334694323,1,0.1867477294921875,1.7202338928222656,-11.145008728027342
4993706134447,1.336915937,1,0.27174188842773433,1.7322049011230467,-11.188104357910156
4993708360228,1.339141718,1,0.19393033447265623,1.7190367919921874,-11.232397088623046
4993710578562,1.341360052,1,0.22385785522460935,1.7489643127441405,-11.148600030517578
4993712803353,1.343584843,1,0.20829554443359374,1.7381904052734374,-11.186907257080078
4993715023614,1.345805104,1,0.22744915771484372,1.715445489501953,-11.100715997314452
4993717246010,1.3480275,1,0.2609679809570312,1.7645266235351562,-11.221623181152344
4993719468770,1.35025026,1,0.2262520568847656,1.7669208251953124,-11.18571015625
4993721690228,1.352471718,1,0.22026655273437498,1.7202338928222656,-11.24915650024414
4993723912260,1.35469375,1,0.19512743530273435,1.7166425903320313,-11.177330450439452
4993726135020,1.35691651,1,0.20350714111328125,1.7501614135742187,-11.135431921386719
4993728359187,1.359140677,1,0.181959326171875,1.7585411193847655,-11.2240173828125
4993730578822,1.361360312,1,0.23822306518554687,1.7034744812011717,-11.177330450439452
4993732803978,1.363585468,1,0.21068974609375,1.7836802368164062,-11.168950744628905
4993735024239,1.365805729,1,0.18315642700195311,1.7118541870117185,-11.189301458740234
4993737267468,1.368048958,1,0.2154781494140625,1.744175909423828,-11.204863769531249
4993739468770,1.37025026,1,0.19632453613281248,1.705868682861328,-11.195286962890624
4993741689968,1.372471458,1,0.19991583862304688,1.6998831787109374,-11.225214483642578
4993743911947,1.374693437,1,0.24301146850585936,1.6986860778808592,-11.171344946289063
4993746133978,1.376915468,1,0.25139117431640623,1.7513585144042967,-11.143811627197264
4993748359083,1.379140573,1,0.24301146850585936,1.7405846069335937,-11.154585534667968
4993750579708,1.381361198,1,0.22266075439453123,1.7357962036132812,-11.17852755126953
4993752803614,1.383585104,1,0.19871873779296872,1.696291876220703,-11.179724652099608
4993755023249,1.385804739,1,0.19393033447265623,1.714248388671875,-11.15338843383789
4993757245801,1.388027291,1,0.19632453613281248,1.7082628845214842,-11.209652172851563
4993759469239,1.390250729,1,0.1771709228515625,1.7214309936523438,-11.130643518066405
4993761689603,1.392471093,1,0.22505495605468748,1.7393875061035156,-11.137826123046874
4993763911843,1.394693333,1,0.23343466186523437,1.7226280944824217,-11.116278308105468
4993766135176,1.396916666,1,0.2166752502441406,1.7334020019531249,-11.183315954589844
4993768359291,1.399140781,1,0.18914193115234373,1.7286135986328124,-11.107898602294922
4993770579447,1.401360937,1,0.2214636535644531,1.6927005737304686,-11.033678350830078
4993772803822,1.403585312,1,0.19871873779296872,1.7501614135742187,-11.15338843383789
4993775024239,1.405805729,1,0.2154781494140625,1.7286135986328124,-11.233594189453123
4993777265020,1.40804651,1,0.2645592834472656,1.70467158203125,-11.156979736328124
4993779467989,1.410249479,1,0.2693476867675781,1.7489643127441405,-11.226411584472656
4993781690072,1.412471562,1,0.2753331909179687,1.7322049011230467,-11.161768139648437
4993783912885,1.414694375,1,0.2549824768066406,1.6903063720703124,-11.221623181152344
4993786134812,1.416916302,1,0.26216508178710934,1.7621324218749999,-11.1474029296875
4993788359343,1.419140833,1,0.22026655273437498,1.7669208251953124,-11.206060870361327
4993790578666,1.421360156,1,0.24899697265624998,1.7322049011230467,-11.137826123046874
4993792804239,1.423585729,1,0.2262520568847656,1.8363526733398436,-11.17852755126953
4993795023822,1.425805312,1,0.2262520568847656,1.7034744812011717,-11.226411584472656
4993797246114,1.428027604,1,0.22864625854492185,1.714248388671875,-11.197681164550781
4993799468301,1.430249791,1,0.21308394775390624,1.7190367919921874,-11.245565197753905
4993801690385,1.432471875,1,0.26216508178710934,1.6986860778808592,-11.221623181152344
4993803912155,1.434693645,1,0.21308394775390624,1.6807295654296874,-11.184513055419922
4993806134447,1.436915937,1,0.23223756103515625,1.7118541870117185,-11.139023223876952
4993808358770,1.43914026,1,0.20231004028320312,1.686715069580078,-11.17254204711914
4993810579343,1.441360833,1,0.2454056701660156,1.70467158203125,-11.073182678222656
4993812804708,1.443586198,1,0.21787235107421873,1.7190367919921874,-11.182118853759764
4993815023718,1.445805208,1,0.20829554443359374,1.7334020019531249,-11.209652172851563
4993817246374,1.448027864,1,0.17118541870117188,1.7357962036132812,-11.182118853759764
4993819468249,1.450249739,1,0.19393033447265623,1.7369933044433592,-11.16057103881836
4993821690072,1.452471562,1,0.26695348510742184,1.7262193969726563,-11.182118853759764
4993823912051,1.454693541,1,0.23223756103515625,1.753752716064453,-11.156979736328124
4993826134499,1.456915989,1,0.29448680419921874,1.7082628845214842,-11.177330450439452
4993828359395,1.459140885,1,0.24301146850585936,1.714248388671875,-11.11508120727539
4993830579916,1.461361406,1,0.22026655273437498,1.7381904052734374,-11.173739147949219
4993832803822,1.463585312,1,0.17597382202148437,1.7274164978027342,-11.222820281982422
4993835023093,1.465804583,1,0.21308394775390624,1.7609353210449217,-11.196484063720703
4993837248145,1.468029635,1,0.24061726684570311,1.7812860351562498,-11.166556542968749
4993839469239,1.470250729,1,0.2214636535644531,1.7094599853515624,-11.129446417236327
4993841690541,1.472472031,1,0.22385785522460935,1.6807295654296874,-11.219228979492186
4993843911947,1.474693437,1,0.2346317626953125,1.7034744812011717,-11.222820281982422
4993846134239,1.476915729,1,0.21787235107421873,1.7369933044433592,-11.220426080322264
4993848358770,1.47914026,1,0.17836802368164062,1.7501614135742187,-11.281478222656249
4993850576687,1.481358177,1,0.21428104858398436,1.7393875061035156,-11.310208642578125
4993852802051,1.483583541,1,0.19991583862304688,1.7238251953125,-11.183315954589844
4993855024395,1.485805885,1,0.2059013427734375,1.7298106994628906,-11.186907257080078
4993857259239,1.488040729,1,0.22505495605468748,1.7369933044433592,-11.174936248779296
4993859468510,1.49025,1,0.19153613281249998,1.7369933044433592,-11.162965240478515
4993861690958,1.492472448,1,0.2214636535644531,1.7262193969726563,-11.197681164550781
4993863912728,1.494694218,1,0.21906945190429686,1.7034744812011717,-11.196484063720703
4993866134864,1.496916354,1,0.25258827514648435,1.714248388671875,-11.136629022216797
4993868359760,1.49914125,1,0.19512743530273435,1.7166425903320313,-11.155782635498046
4993870579239,1.501360729,1,0.2262520568847656,1.7334020019531249,-11.130643518066405
4993872803822,1.503585312,1,0.20829554443359374,1.7513585144042967,-11.080365283203124
4993875023562,1.505805052,1,0.1927332336425781,1.7465701110839842,-11.17254204711914
4993877245124,1.508026614,1,0.181959326171875,1.697488977050781,-11.201272467041015
4993879468249,1.510249739,1,0.23343466186523437,1.7621324218749999,-11.225214483642578
4993881687416,1.512468906,1,0.277727392578125,1.7477672119140624,-11.195286962890624
4993883910593,1.514692083,1,0.2154781494140625,1.7429788085937499,-11.184513055419922
4993886135801,1.516917291,1,0.239420166015625,1.7932570434570312,-11.1474029296875
4993888365541,1.519147031,1,0.239420166015625,1.714248388671875,-11.165359442138671
4993890581270,1.52136276,1,0.18315642700195311,1.7525556152343749,-11.148600030517578
4993892804187,1.523585677,1,0.20949264526367187,1.7334020019531249,-11.154585534667968
4993895178874,1.525960364,1,0.229843359375,1.782483135986328,-11.171344946289063
4993897382885,1.528164375,1,0.229843359375,1.7262193969726563,-11.158176837158203
4993899483666,1.530265156,1,0.18555062866210936,1.6927005737304686,-11.165359442138671
4993901703770,1.53248526,1,0.20231004028320312,1.7286135986328124,-11.218031878662108
4993903913458,1.534694948,1,0.2214636535644531,1.753752716064453,-11.231199987792968
4993906135176,1.536916666,1,0.25139117431640623,1.7561469177246092,-11.170147845458983
4993908357260,1.53913875,1,0.23343466186523437,1.7693150268554687,-11.177330450439452
4993910579343,1.541360833,1,0.21308394775390624,1.7262193969726563,-11.116278308105468
4993912800593,1.543582083,1,0.229843359375,1.6998831787109374,-11.215637677001952
4993915022676,1.545804166,1,0.24061726684570311,1.734599102783203,-11.158176837158203
4993917246374,1.548027864,1,0.22505495605468748,1.668758557128906,-11.213243475341796
4993919467520,1.55024901,1,0.21308394775390624,1.7465701110839842,-11.19169566040039
4993921689447,1.552470937,1,0.2609679809570312,1.744175909423828,-11.263521710205078
4993923912312,1.554693802,1,0.24181436767578124,1.7166425903320313,-11.183315954589844
4993926134551,1.556916041,1,0.239420166015625,1.68551796875,-11.227608685302734
4993928356687,1.559138177,1,0.28371289672851563,1.7477672119140624,-11.180921752929686
4993930579239,1.561360729,1,0.2561795776367187,1.7669208251953124,-11.196484063720703
4993932800905,1.563582395,1,0.2765302917480469,1.714248388671875,-11.125855114746093
4993935023197,1.565804687,1,0.21787235107421873,1.7549498168945312,-11.09592759399414
4993937245697,1.568027187,1,0.24660277099609373,1.714248388671875,-11.159373937988281
4993939468093,1.570249583,1,0.22266075439453123,1.7178396911621092,-11.232397088623046
4993941689603,1.572471093,1,0.201112939453125,1.7896657409667969,-11.146205828857422
4993943912207,1.574693697,1,0.22026655273437498,1.763329522705078,-11.208455072021483
4993946134343,1.576915833,1,0.20231004028320312,1.6986860778808592,-11.258733306884764
4993948356530,1.57913802,1,0.201112939453125,1.7477672119140624,-11.330559356689452
4993950579395,1.581360885,1,0.2166752502441406,1.7022773803710936,-11.092336291503905
4993952803197,1.583584687,1,0.23104046020507812,1.7597382202148437,-11.200075366210937
4993955023197,1.585804687,1,0.17597382202148437,1.7214309936523438,-11.212046374511718
4993957245385,1.588026875,1,0.18435352783203124,1.695094775390625,-11.18571015625
4993959467780,1.59024927,1,0.21068974609375,1.7262193969726563,-11.149797131347656
4993961690176,1.592471666,1,0.19871873779296872,1.7130512878417967,-11.141417425537108
4993963911791,1.594693281,1,0.2537853759765625,1.7082628845214842,-11.189301458740234
4993966134291,1.596915781,1,0.2214636535644531,1.7298106994628906,-11.179724652099608
4993968359447,1.599140937,1,0.22385785522460935,1.7884686401367187,-11.180921752929686
4993970578926,1.601360416,1,0.2059013427734375,1.7310078002929687,-11.145008728027342
4993972803301,1.603584791,1,0.2059013427734375,1.7322049011230467,-11.18571015625
4993975022989,1.605804479,1,0.22026655273437498,1.734599102783203,-11.197681164550781
4993977245749,1.608027239,1,0.23702596435546874,1.70467158203125,-11.142614526367186
4993979467885,1.610249375,1,0.26815058593749996,1.7429788085937499,-11.263521710205078
4993981689864,1.612471354,1,0.22026655273437498,1.7262193969726563,-11.130643518066405
4993983912624,1.614694114,1,0.22505495605468748,1.7405846069335937,-11.21683477783203
4993986134187,1.616915677,1,0.2885013000488281,1.705868682861328,-11.155782635498046
4993988358770,1.61914026,1,0.25139117431640623,1.7381904052734374,-11.194089862060546
4993990578874,1.621360364,1,0.21188684692382811,1.7274164978027342,-11.220426080322264
4993992803926,1.623585416,1,0.23104046020507812,1.7369933044433592,-11.161768139648437
4993995022885,1.625804375,1,0.23582886352539062,1.7549498168945312,-11.19169566040039
4993997245697,1.628027187,1,0.17238251953125,1.7764976318359373,-11.168950744628905
4993999467832,1.630249322,1,0.2059013427734375,1.7357962036132812,-11.15338843383789
4994001831218,1.632612708,1,0.19991583862304688,1.7525556152343749,-11.093533392333983
4994003911530,1.63469302,1,0.2454056701660156,1.7705121276855467,-11.16057103881836
4994006132728,1.636914218,1,0.22385785522460935,1.707065783691406,-11.18571015625
4994008353197,1.639134687,1,0.229843359375,1.7238251953125,-11.186907257080078
4994010575957,1.641357447,1,0.239420166015625,1.7357962036132812,-11.189301458740234
4994012797832,1.643579322,1,0.2154781494140625,1.7010802795410156,-11.161768139648437
4994015020697,1.645802187,1,0.26216508178710934,1.6986860778808592,-11.189301458740234
4994017246843,1.648028333,1,0.19991583862304688,1.7561469177246092,-11.128249316406249
4994019469447,1.650250937,1,0.17597382202148437,1.7166425903320313,-11.18571015625
4994021690437,1.652471927,1,0.21906945190429686,1.7357962036132812,-11.18571015625
4994023912520,1.65469401,1,0.24899697265624998,1.7178396911621092,-11.17852755126953
4994026135124,1.656916614,1,0.22266075439453123,1.734599102783203,-11.167753643798827
4994028359499,1.659140989,1,0.17357962036132812,1.753752716064453,-11.17852755126953
4994030579135,1.661360625,1,0.1771709228515625,1.7010802795410156,-11.200075366210937
4994032803405,1.663584895,1,0.18315642700195311,1.7022773803710936,-11.091139190673827
4994035023510,1.665805,1,0.2693476867675781,1.6986860778808592,-11.159373937988281
4994037245228,1.668026718,1,0.2537853759765625,1.7310078002929687,-11.200075366210937
4994039467832,1.670249322,1,0.25258827514648435,1.7202338928222656,-11.109095703125
4994041689707,1.672471197,1,0.27293898925781246,1.763329522705078,-11.17254204711914
4994043911947,1.674693437,1,0.21068974609375,1.7322049011230467,-11.154585534667968
4994046134395,1.676915885,1,0.2346317626953125,1.7274164978027342,-11.152191333007812
4994048359760,1.67914125,1,0.201112939453125,1.7393875061035156,-11.128249316406249
4994050579707,1.681361197,1,0.2753331909179687,1.7705121276855467,-11.146205828857422
4994052803978,1.683585468,1,0.24181436767578124,1.7393875061035156,-11.159373937988281
4994055023874,1.685805364,1,0.18315642700195311,1.7621324218749999,-11.202469567871093
4994057246374,1.688027864,1,0.23343466186523437,1.7178396911621092,-11.12226381225586
4994059468510,1.69025,1,0.21787235107421873,1.7322049011230467,-11.124658013916015
4994061690020,1.69247151,1,0.2537853759765625,1.7453730102539062,-11.167753643798827
4994063911739,1.694693229,1,0.2753331909179687,1.7609353210449217,-11.158176837158203
4994066134291,1.696915781,1,0.27174188842773433,1.753752716064453,-11.196484063720703
4994068359187,1.699140677,1,0.23343466186523437,1.7202338928222656,-11.202469567871093
4994070578770,1.70136026,1,0.22744915771484372,1.7298106994628906,-11.188104357910156
4994072803874,1.703585364,1,0.2154781494140625,1.744175909423828,-11.135431921386719
4994075023197,1.705804687,1,0.22744915771484372,1.695094775390625,-11.137826123046874
4994077245697,1.708027187,1,0.20709844360351562,1.7334020019531249,-11.143811627197264
4994079468249,1.710249739,1,0.22864625854492185,1.7788918334960937,-11.188104357910156
4994081690020,1.71247151,1,0.23702596435546874,1.7705121276855467,-11.212046374511718
4994083911791,1.714693281,1,0.229843359375,1.7130512878417967,-11.197681164550781
4994086134707,1.716916197,1,0.2693476867675781,1.7238251953125,-11.200075366210937
4994088359760,1.71914125,1,0.22026655273437498,1.7489643127441405,-11.179724652099608
4994090578718,1.721360208,1,0.2442085693359375,1.7405846069335937,-11.202469567871093
4994092804291,1.723585781,1,0.2154781494140625,1.7501614135742187,-11.244368096923827
4994095023457,1.725804947,1,0.21428104858398436,1.696291876220703,-11.188104357910156
4994097250228,1.728031718,1,0.2609679809570312,1.7214309936523438,-11.222820281982422
4994099470176,1.730251666,1,0.23582886352539062,1.7202338928222656,-11.118672509765624
4994101689291,1.732470781,1,0.23104046020507812,1.7357962036132812,-11.225214483642578
4994103912312,1.734693802,1,0.2154781494140625,1.7525556152343749,-11.220426080322264
4994106131843,1.736913333,1,0.20829554443359374,1.7453730102539062,-11.202469567871093
4994108355749,1.739137239,1,0.21906945190429686,1.7585411193847655,-11.206060870361327
4994110579812,1.741361302,1,0.2214636535644531,1.7357962036132812,-11.189301458740234
4994112805020,1.74358651,1,0.25737667846679685,1.7477672119140624,-11.161768139648437
4994115023301,1.745804791,1,0.23223756103515625,1.6938976745605467,-11.166556542968749
4994117246218,1.748027708,1,0.25258827514648435,1.7334020019531249,-11.194089862060546
4994119468093,1.750249583,1,0.23582886352539062,1.7262193969726563,-11.239579693603515
4994121689760,1.75247125,1,0.20709844360351562,1.7357962036132812,-11.196484063720703
4994123912676,1.754694166,1,0.2442085693359375,1.7369933044433592,-11.183315954589844
4994126134187,1.756915677,1,0.26336218261718747,1.7465701110839842,-11.146205828857422
4994128356739,1.759138229,1,0.21428104858398436,1.7812860351562498,-11.189301458740234
4994130579551,1.761361041,1,0.16759411621093748,1.687912170410156,-11.128249316406249
4994132803614,1.763585104,1,0.20709844360351562,1.6448165405273436,-11.19169566040039
4994135022937,1.765804427,1,0.1927332336425781,1.7178396911621092,-11.124658013916015
4994137245020,1.76802651,1,0.2214636535644531,1.7417817077636717,-11.189301458740234
4994139467832,1.770249322,1,0.23104046020507812,1.7417817077636717,-11.213243475341796
4994141689447,1.772470937,1,0.28012159423828126,1.7417817077636717,-11.170147845458983
4994143911582,1.774693072,1,0.22864625854492185,1.7166425903320313,-11.177330450439452
4994146133978,1.776915468,1,0.20829554443359374,1.7477672119140624,-11.329362255859374
4994148359707,1.779141197,1,0.17956512451171874,1.7082628845214842,-11.159373937988281
4994150579603,1.781361093,1,0.2262520568847656,1.7010802795410156,-11.195286962890624
4994152801426,1.783582916,1,0.20350714111328125,1.725022296142578,-11.2240173828125
4994155023405,1.785804895,1,0.201112939453125,1.7166425903320313,-11.208455072021483
4994157245489,1.788026979,1,0.21068974609375,1.7417817077636717,-11.207257971191405
4994159468197,1.790249687,1,0.2645592834472656,1.744175909423828,-11.233594189453123
4994161689707,1.792471197,1,0.20949264526367187,1.7226280944824217,-11.182118853759764
4994163912207,1.794693697,1,0.239420166015625,1.7381904052734374,-11.204863769531249
4994166135072,1.796916562,1,0.239420166015625,1.7597382202148437,-11.332953558349608
4994168359968,1.799141458,1,0.17836802368164062,1.744175909423828,-11.146205828857422
4994170579134,1.801360624,1,0.21906945190429686,1.7693150268554687,-11.16057103881836
4994172803978,1.803585468,1,0.20470424194335937,1.7465701110839842,-11.194089862060546
4994175023301,1.805804791,1,0.25258827514648435,1.7429788085937499,-11.222820281982422
4994177245437,1.808026927,1,0.17118541870117188,1.7178396911621092,-11.182118853759764
4994179467832,1.810249322,1,0.23223756103515625,1.7573440185546874,-11.15338843383789
4994181689499,1.812470989,1,0.29568390502929687,1.8004396484374998,-11.197681164550781
4994183911582,1.814693072,1,0.239420166015625,1.7477672119140624,-11.207257971191405
4994186134655,1.816916145,1,0.23343466186523437,1.7022773803710936,-11.073182678222656
4994188359395,1.819140885,1,0.19033903198242186,1.7369933044433592,-11.1474029296875
4994190578822,1.821360312,1,0.24660277099609373,1.7465701110839842,-11.180921752929686
4994192804239,1.823585729,1,0.24061726684570311,1.7405846069335937,-11.245565197753905
4994195023353,1.825804843,1,0.21068974609375,1.7238251953125,-11.194089862060546
4994197245489,1.828026979,1,0.23223756103515625,1.7561469177246092,-11.17852755126953
4994199468509,1.830249999,1,0.23343466186523437,1.7405846069335937,-11.168950744628905
4994201689812,1.832471302,1,0.23822306518554687,1.7298106994628906,-11.129446417236327
4994203912312,1.834693802,1,0.1975216369628906,1.7130512878417967,-11.215637677001952
4994206135332,1.836916822,1,0.16998831787109375,1.7477672119140624,-11.049240661621093
4994208358874,1.839140364,1,0.25139117431640623,1.744175909423828,-11.239579693603515
4994210578822,1.841360312,1,0.24779987182617186,1.7417817077636717,-11.184513055419922
4994212803874,1.843585364,1,0.2214636535644531,1.707065783691406,-11.189301458740234
4994215023093,1.845804583,1,0.24899697265624998,1.6903063720703124,-11.19169566040039
4994217245280,1.84802677,1,0.22266075439453123,1.7429788085937499,-11.189301458740234
4994219467676,1.850249166,1,0.23343466186523437,1.7501614135742187,-11.203666668701171
4994221689499,1.852470989,1,0.21428104858398436,1.7393875061035156,-11.225214483642578
4994223913666,1.854695156,1,0.22385785522460935,1.705868682861328,-11.204863769531249
4994226134499,1.856915989,1,0.25258827514648435,1.744175909423828,-11.203666668701171
4994228359603,1.859141093,1,0.20709844360351562,1.7477672119140624,-11.184513055419922
4994230579082,1.861360572,1,0.2454056701660156,1.782483135986328,-11.228805786132812
4994232804134,1.863585624,1,0.24660277099609373,1.7417817077636717,-11.204863769531249
4994235023197,1.865804687,1,0.2262520568847656,1.70467158203125,-11.206060870361327
4994237245801,1.868027291,1,0.277727392578125,1.725022296142578,-11.251550701904296
4994239468301,1.870249791,1,0.21906945190429686,1.7597382202148437,-11.165359442138671
4994241690176,1.872471666,1,0.20709844360351562,1.7226280944824217,-11.150994232177734
4994243912364,1.874693854,1,0.23582886352539062,1.7453730102539062,-11.152191333007812
4994246134707,1.876916197,1,0.2166752502441406,1.7214309936523438,-11.207257971191405
4994248356218,1.879137708,1,0.19153613281249998,1.7561469177246092,-11.162965240478515
4994250578874,1.881360364,1,0.17357962036132812,1.7992425476074219,-11.165359442138671
4994252803041,1.883584531,1,0.2262520568847656,1.734599102783203,-11.161768139648437
4994255022832,1.885804322,1,0.24899697265624998,1.7238251953125,-11.222820281982422
4994257246322,1.888027812,1,0.19512743530273435,1.7334020019531249,-11.171344946289063
4994259468562,1.890250052,1,0.29089550170898437,1.7369933044433592,-11.221623181152344
4994261690280,1.89247177,1,0.20829554443359374,1.707065783691406,-11.121066711425781
4994263911739,1.894693229,1,0.2645592834472656,1.7298106994628906,-11.150994232177734
4994266134655,1.896916145,1,0.25737667846679685,1.7645266235351562,-11.135431921386719
4994268358562,1.899140052,1,0.2454056701660156,1.7513585144042967,-11.166556542968749
4994270579030,1.90136052,1,0.25737667846679685,1.7298106994628906,-11.203666668701171
4994272803770,1.90358526,1,0.2537853759765625,1.7262193969726563,-11.156979736328124
4994275023041,1.905804531,1,0.22266075439453123,1.7322049011230467,-11.167753643798827
4994277245749,1.908027239,1,0.19632453613281248,1.6986860778808592,-11.192892761230468
4994279468041,1.910249531,1,0.23702596435546874,1.6891092712402342,-11.231199987792968
4994281689759,1.912471249,1,0.21428104858398436,1.7357962036132812,-11.177330450439452
4994283911843,1.914693333,1,0.23702596435546874,1.7226280944824217,-11.188104357910156
4994286134082,1.916915572,1,0.27174188842773433,1.7334020019531249,-11.149797131347656
4994288359916,1.919141406,1,0.22744915771484372,1.7477672119140624,-11.200075366210937
4994290579655,1.921361145,1,0.19033903198242186,1.7896657409667969,-11.226411584472656
4994292803562,1.923585052,1,0.20350714111328125,1.725022296142578,-11.177330450439452
4994295023301,1.925804791,1,0.23223756103515625,1.7705121276855467,-11.152191333007812
4994297245489,1.928026979,1,0.27293898925781246,1.7369933044433592,-11.189301458740234
4994299468301,1.930249791,1,0.21787235107421873,1.753752716064453,-11.23718549194336
4994301689759,1.932471249,1,0.2166752502441406,1.7417817077636717,-11.149797131347656
4994303915124,1.934696614,1,0.22026655273437498,1.7453730102539062,-11.243170996093749
4994306134655,1.936916145,1,0.21308394775390624,1.7489643127441405,-11.168950744628905
4994308359603,1.939141093,1,0.23343466186523437,1.707065783691406,-11.143811627197264
4994310579134,1.941360624,1,0.1879448303222656,1.7597382202148437,-11.179724652099608
4994312803249,1.943584739,1,0.2059013427734375,1.7525556152343749,-11.164162341308593
4994315023249,1.945804739,1,0.2741360900878906,1.811213555908203,-11.225214483642578
4994317245853,1.948027343,1,0.29089550170898437,1.7513585144042967,-11.19169566040039
4994319467312,1.950248802,1,0.1879448303222656,1.7190367919921874,-11.162965240478515
4994321690228,1.952471718,1,0.2454056701660156,1.7010802795410156,-11.194089862060546
4994323911791,1.954693281,1,0.26336218261718747,1.7106570861816406,-11.221623181152344
4994326134395,1.956915885,1,0.2214636535644531,1.7429788085937499,-11.206060870361327
4994328359707,1.959141197,1,0.229843359375,1.7202338928222656,-11.190498559570312
4994330578718,1.961360208,1,0.2645592834472656,1.7621324218749999,-11.189301458740234
4994332803041,1.963584531,1,0.20470424194335937,1.7238251953125,-11.226411584472656
4994335023197,1.965804687,1,0.20709844360351562,1.7034744812011717,-11.161768139648437
4994337245332,1.968026822,1,0.19512743530273435,1.7118541870117185,-11.109095703125
4994339467051,1.970248541,1,0.19871873779296872,1.707065783691406,-11.143811627197264
4994341690176,1.972471666,1,0.239420166015625,1.7322049011230467,-11.155782635498046
4994343911739,1.974693229,1,0.25139117431640623,1.7262193969726563,-11.073182678222656
4994346132989,1.976914479,1,0.2645592834472656,1.7310078002929687,-11.1474029296875
4994348359186,1.979140676,1,0.2597708801269531,1.7322049011230467,-11.213243475341796
4994350578718,1.981360208,1,0.2645592834472656,1.7262193969726563,-11.188104357910156
4994352804186,1.983585676,1,0.2597708801269531,1.7010802795410156,-11.135431921386719
4994355023614,1.985805104,1,0.23104046020507812,1.7238251953125,-11.200075366210937
4994357245072,1.988026562,1,0.201112939453125,1.7836802368164062,-11.214440576171874
4994359467728,1.990249218,1,0.2059013427734375,1.7741034301757812,-11.243170996093749
4994361689968,1.992471458,1,0.21308394775390624,1.6998831787109374,-11.113884106445312
4994363911530,1.99469302,1,0.25737667846679685,1.7214309936523438,-11.149797131347656
4994366134030,1.99691552,1,0.25139117431640623,1.715445489501953,-11.194089862060546
4994368358926,1.999140416,1,0.22266075439453123,1.7022773803710936,-11.21084927368164
4994370578822,2.001360312,1,0.18914193115234373,1.7334020019531249,-11.184513055419922
4994372803353,2.003584843,1,0.27293898925781246,1.7525556152343749,-11.19169566040039
4994375023457,2.005804947,1,0.23582886352539062,1.7585411193847655,-11.165359442138671
4994377246061,2.008027551,1,0.23223756103515625,1.7298106994628906,-11.130643518066405
4994379468509,2.010249999,1,0.2609679809570312,1.7621324218749999,-11.19169566040039
4994381689343,2.012470833,1,0.25139117431640623,1.7238251953125,-11.202469567871093
4994383911999,2.014693489,1,0.23822306518554687,1.7477672119140624,-11.273098516845703
4994386135436,2.016916926,1,0.20709844360351562,1.7322049011230467,-11.168950744628905
4994388359134,2.019140624,1,0.22744915771484372,1.695094775390625,-11.148600030517578
4994390579707,2.021361197,1,0.20350714111328125,1.7477672119140624,-11.219228979492186
4994392804499,2.023585989,1,0.19871873779296872,1.7393875061035156,-11.256339105224608
4994395023770,2.02580526,1,0.21308394775390624,1.70467158203125,-11.194089862060546
4994397244916,2.028026406,1,0.21308394775390624,1.7022773803710936,-11.167753643798827
4994399468197,2.030249687,1,0.18914193115234373,1.7274164978027342,-11.231199987792968
4994401689603,2.032471093,1,0.21787235107421873,1.6998831787109374,-11.228805786132812
4994403911791,2.034693281,1,0.22266075439453123,1.7501614135742187,-11.282675323486327
4994406134759,2.036916249,1,0.2346317626953125,1.7022773803710936,-11.220426080322264
4994408359239,2.039140729,1,0.20350714111328125,1.725022296142578,-11.19169566040039
4994410579082,2.041360572,1,0.19393033447265623,1.7549498168945312,-11.159373937988281
4994412802884,2.043584374,1,0.1975216369628906,1.7274164978027342,-11.162965240478515
4994415022989,2.045804479,1,0.239420166015625,1.705868682861328,-11.252747802734374
4994417245436,2.048026926,1,0.24181436767578124,1.7202338928222656,-11.148600030517578
4994419467468,2.050248958,1,0.23223756103515625,1.6986860778808592,-11.234791290283203
4994421689864,2.052471354,1,0.18315642700195311,1.695094775390625,-11.192892761230468
4994423915801,2.054697291,1,0.20829554443359374,1.7405846069335937,-11.111489904785156
4994426135072,2.056916562,1,0.21787235107421873,1.5765817932128905,-11.201272467041015
4994428360541,2.059142031,1,0.1927332336425781,1.7381904052734374,-11.173739147949219
4994430579603,2.061361093,1,0.17357962036132812,1.6891092712402342,-11.19169566040039
4994432803041,2.063584531,1,0.20709844360351562,1.7310078002929687,-11.23000288696289
4994435023249,2.065804739,1,0.15442600708007811,1.7130512878417967,-11.112687005615234
4994437246166,2.068027656,1,0.22744915771484372,1.7788918334960937,-11.220426080322264
4994439467364,2.070248854,1,0.24301146850585936,1.7238251953125,-11.183315954589844
4994441689551,2.072471041,1,0.23343466186523437,1.7573440185546874,-11.261127508544922
4994443912103,2.074693593,1,0.2549824768066406,1.7369933044433592,-11.164162341308593
4994446134395,2.076915885,1,0.21188684692382811,1.7477672119140624,-11.243170996093749
4994448359239,2.079140729,1,0.2501940734863281,1.7202338928222656,-11.228805786132812
4994450578561,2.081360051,1,0.21787235107421873,1.7202338928222656,-11.23000288696289
4994452804186,2.083585676,1,0.21068974609375,1.6651672546386718,-11.180921752929686
4994455023614,2.085805104,1,0.20470424194335937,1.7525556152343749,-11.21683477783203
4994457245228,2.088026718,1,0.22385785522460935,1.7118541870117185,-11.186907257080078
4994459467884,2.090249374,1,0.21188684692382811,1.715445489501953,-11.161768139648437
4994461689811,2.092471301,1,0.23702596435546874,1.7298106994628906,-11.194089862060546
4994463911739,2.094693229,1,0.20829554443359374,1.7357962036132812,-11.19169566040039
4994466133926,2.096915416,1,0.21787235107421873,1.7956512451171873,-11.247959399414063
4994468359186,2.099140676,1,0.21068974609375,1.7860744384765623,-11.173739147949219
4994470579811,2.101361301,1,0.22744915771484372,1.7393875061035156,-11.167753643798827
4994472803614,2.103585104,1,0.20709844360351562,1.7094599853515624,-11.276689819335937
4994475022520,2.10580401,1,0.23582886352539062,1.715445489501953,-11.174936248779296
4994477245593,2.108027083,1,0.2549824768066406,1.7357962036132812,-11.124658013916015
4994479467832,2.110249322,1,0.22864625854492185,1.7393875061035156,-11.188104357910156
4994481689551,2.112471041,1,0.22385785522460935,1.7286135986328124,-11.164162341308593
4994483911947,2.114693437,1,0.23223756103515625,1.753752716064453,-11.192892761230468
4994486133822,2.116915312,1,0.26336218261718747,1.7178396911621092,-11.146205828857422
4994488358874,2.119140364,1,0.239420166015625,1.7525556152343749,-11.189301458740234
4994490578093,2.121359583,1,0.23582886352539062,1.7369933044433592,-11.173739147949219
4994492803666,2.123585156,1,0.22505495605468748,1.7573440185546874,-11.146205828857422
4994495022676,2.125804166,1,0.21068974609375,1.7429788085937499,-11.203666668701171
4994497245645,2.128027135,1,0.23702596435546874,1.7513585144042967,-11.17254204711914
4994499468093,2.130249583,1,0.2501940734863281,1.7310078002929687,-11.170147845458983
4994501689916,2.132471406,1,0.2597708801269531,1.6927005737304686,-11.273098516845703
4994503912676,2.134694166,1,0.22026655273437498,1.7549498168945312,-11.142614526367186
4994506133978,2.136915468,1,0.22026655273437498,1.7022773803710936,-11.196484063720703
4994508359082,2.139140572,1,0.2214636535644531,1.7322049011230467,-11.155782635498046
4994510578353,2.141359843,1,0.25258827514648435,1.725022296142578,-11.207257971191405
4994512803405,2.143584895,1,0.23343466186523437,1.715445489501953,-11.127052215576171
4994515022572,2.145804062,1,0.23223756103515625,1.7465701110839842,-11.233594189453123
4994517248509,2.148029999,1,0.229843359375,1.696291876220703,-11.246762298583985
4994519468405,2.150249895,1,0.2454056701660156,1.734599102783203,-11.16057103881836
4994521689864,2.152471354,1,0.24660277099609373,1.7262193969726563,-11.034875451660156
4994523912155,2.154693645,1,0.2262520568847656,1.725022296142578,-11.128249316406249
4994526135280,2.15691677,1,0.22026655273437498,1.7274164978027342,-11.251550701904296
4994528359291,2.159140781,1,0.24061726684570311,1.7429788085937499,-11.195286962890624
4994530578822,2.161360312,1,0.201112939453125,1.7322049011230467,-11.190498559570312
4994532803874,2.163585364,1,0.19991583862304688,1.7357962036132812,-11.136629022216797
4994535023718,2.165805208,1,0.27892449340820313,1.7429788085937499,-11.159373937988281
4994537246166,2.168027656,1,0.23223756103515625,1.725022296142578,-11.167753643798827
4994539468509,2.170249999,1,0.23822306518554687,1.7429788085937499,-11.139023223876952
4994541689447,2.172470937,1,0.19632453613281248,1.7166425903320313,-11.174936248779296
4994543911686,2.174693176,1,0.21906945190429686,1.7477672119140624,-11.212046374511718
4994546133926,2.176915416,1,0.2214636535644531,1.715445489501953,-11.196484063720703
4994548359291,2.179140781,1,0.21428104858398436,1.7681179260253905,-11.133037719726563
4994550578561,2.181360051,1,0.21906945190429686,1.7381904052734374,-11.15338843383789
4994552803301,2.183584791,1,0.20350714111328125,1.7405846069335937,-11.165359442138671
4994555022832,2.185804322,1,0.20350714111328125,1.7549498168945312,-11.251550701904296
4994557245697,2.188027187,1,0.16759411621093748,1.7226280944824217,-11.214440576171874
4994559468561,2.190250051,1,0.23223756103515625,1.7286135986328124,-11.212046374511718
4994561689603,2.192471093,1,0.23822306518554687,1.6915034729003906,-11.19887826538086
4994563912363,2.194693853,1,0.21308394775390624,1.7357962036132812,-11.165359442138671
4994566134447,2.196915937,1,0.2454056701660156,1.7022773803710936,-11.206060870361327
4994568359395,2.199140885,1,0.19632453613281248,1.715445489501953,-11.156979736328124
4994570578561,2.201360051,1,0.2166752502441406,1.7190367919921874,-11.208455072021483
4994572803249,2.203584739,1,0.22505495605468748,1.687912170410156,-11.14022032470703
4994575022832,2.205804322,1,0.22505495605468748,1.744175909423828,-11.21683477783203
4994577245280,2.20802677,1,0.2609679809570312,1.7501614135742187,-11.174936248779296
4994579467676,2.210249166,1,0.28730419921875,1.7262193969726563,-11.182118853759764
4994581690332,2.212471822,1,0.2549824768066406,1.7525556152343749,-11.068394274902342
4994583912520,2.21469401,1,0.24660277099609373,1.7465701110839842,-11.231199987792968
4994586131895,2.216913385,1,0.25737667846679685,1.7573440185546874,-11.174936248779296
4994588355384,2.219136874,1,0.18914193115234373,1.7202338928222656,-11.11508120727539
4994590578770,2.22136026,1,0.20829554443359374,1.7369933044433592,-11.162965240478515
4994592803666,2.223585156,1,0.20231004028320312,1.7812860351562498,-11.214440576171874
4994595023822,2.225805312,1,0.2346317626953125,1.7322049011230467,-11.202469567871093
4994597245541,2.228027031,1,0.23343466186523437,1.7585411193847655,-11.164162341308593
4994599467624,2.230249114,1,0.16519991455078123,1.6998831787109374,-11.203666668701171
4994601689447,2.232470937,1,0.2454056701660156,1.7322049011230467,-11.194089862060546
4994603912103,2.234693593,1,0.20949264526367187,1.7357962036132812,-11.209652172851563
4994606134343,2.236915833,1,0.2154781494140625,1.753752716064453,-11.215637677001952
4994608359395,2.239140885,1,0.21428104858398436,1.7429788085937499,-11.21084927368164
4994610578457,2.241359947,1,0.21906945190429686,1.7178396911621092,-11.200075366210937
4994612802988,2.243584478,1,0.23223756103515625,1.7357962036132812,-11.250353601074218
4994615022884,2.245804374,1,0.2346317626953125,1.7118541870117185,-11.259930407714844
4994617243197,2.248024687,1,0.23582886352539062,1.7106570861816406,-11.207257971191405
4994619465853,2.250247343,1,0.2214636535644531,1.714248388671875,-11.21683477783203
4994621689603,2.252471093,1,0.1975216369628906,1.7022773803710936,-11.250353601074218
4994623911999,2.254693489,1,0.24301146850585936,1.7010802795410156,-11.109095703125
4994626134551,2.256916041,1,0.25139117431640623,1.7609353210449217,-11.135431921386719
4994628358822,2.259140312,1,0.24779987182617186,1.7657237243652342,-11.196484063720703
4994630579551,2.261361041,1,0.2059013427734375,1.7705121276855467,-11.162965240478515
4994632803978,2.263585468,1,0.16639701538085935,1.725022296142578,-11.171344946289063
4994635028561,2.265810051,1,0.21068974609375,1.7453730102539062,-11.231199987792968
4994637245749,2.268027239,1,0.2346317626953125,1.70467158203125,-11.220426080322264
4994639468145,2.270249635,1,0.24061726684570311,1.7118541870117185,-11.179724652099608
4994641689863,2.272471353,1,0.19153613281249998,1.7501614135742187,-11.167753643798827
4994643912311,2.274693801,1,0.258573779296875,1.7525556152343749,-11.119869610595703
4994646134186,2.276915676,1,0.18555062866210936,1.7106570861816406,-11.162965240478515
4994648359291,2.279140781,1,0.26815058593749996,1.7477672119140624,-11.141417425537108
4994650579395,2.281360885,1,0.2561795776367187,1.772906329345703,-11.1474029296875
4994652804082,2.283585572,1,0.24181436767578124,1.6998831787109374,-11.129446417236327
4994655022988,2.285804478,1,0.22744915771484372,1.7501614135742187,-11.166556542968749
4994657245020,2.28802651,1,0.2609679809570312,1.7573440185546874,-11.212046374511718
4994659467728,2.290249218,1,0.23582886352539062,1.705868682861328,-11.159373937988281
4994661689916,2.292471406,1,0.21308394775390624,1.7310078002929687,-11.21084927368164
4994663912051,2.294693541,1,0.19512743530273435,1.7549498168945312,-11.168950744628905
4994666133457,2.296914947,1,0.2561795776367187,1.6891092712402342,-11.263521710205078
4994668359603,2.299141093,1,0.2549824768066406,1.7010802795410156,-11.141417425537108
4994670578822,2.301360312,1,0.2059013427734375,1.725022296142578,-11.146205828857422
4994672803718,2.303585208,1,0.19393033447265623,1.7669208251953124,-11.15338843383789
4994675023301,2.305804791,1,0.1640028137207031,1.7082628845214842,-11.214440576171874
4994677245488,2.308026978,1,0.2154781494140625,1.6699556579589843,-11.143811627197264
4994679467676,2.310249166,1,0.22505495605468748,1.7274164978027342,-11.197681164550781
4994681690488,2.312471978,1,0.23223756103515625,1.7238251953125,-11.152191333007812
4994683911738,2.314693228,1,0.18435352783203124,1.697488977050781,-11.100715997314452
4994686133926,2.316915416,1,0.23343466186523437,1.7202338928222656,-11.15338843383789
4994688358770,2.31914026,1,0.201112939453125,1.744175909423828,-11.170147845458983
4994690578978,2.321360468,1,0.2262520568847656,1.7501614135742187,-11.238382592773437
4994692804134,2.323585624,1,0.21787235107421873,1.7334020019531249,-11.269507214355468
4994695023874,2.325805364,1,0.24301146850585936,1.7130512878417967,-11.188104357910156
4994697245593,2.328027083,1,0.17118541870117188,1.7022773803710936,-11.192892761230468
4994699468457,2.330249947,1,0.1975216369628906,1.7034744812011717,-11.267113012695312
4994701689603,2.332471093,1,0.2549824768066406,1.7417817077636717,-11.105504400634764
4994703912155,2.334693645,1,0.26815058593749996,1.7214309936523438,-11.208455072021483
4994706134968,2.336916458,1,0.20470424194335937,1.7417817077636717,-11.180921752929686
4994708359759,2.339141249,1,0.24660277099609373,1.7130512878417967,-11.21683477783203
4994710579082,2.341360572,1,0.24660277099609373,1.6891092712402342,-11.176133349609374
4994712804186,2.343585676,1,0.2166752502441406,1.7381904052734374,-11.225214483642578
4994715022936,2.345804426,1,0.20470424194335937,1.7106570861816406,-11.200075366210937
4994717245332,2.348026822,1,0.22864625854492185,1.715445489501953,-11.221623181152344
4994719467780,2.35024927,1,0.23582886352539062,1.7334020019531249,-11.289857928466796
4994721690176,2.352471666,1,0.23104046020507812,1.7429788085937499,-11.139023223876952
4994723911738,2.354693228,1,0.24301146850585936,1.705868682861328,-11.152191333007812
4994726135332,2.356916822,1,0.19632453613281248,1.7094599853515624,-11.186907257080078
4994728359759,2.359141249,1,0.21906945190429686,1.70467158203125,-11.113884106445312
4994730579343,2.361360833,1,0.181959326171875,1.7357962036132812,-11.165359442138671
4994732802832,2.363584322,1,0.17597382202148437,1.7705121276855467,-11.184513055419922
4994735023249,2.365804739,1,0.22266075439453123,1.7238251953125,-11.218031878662108
4994737244707,2.368026197,1,0.1879448303222656,1.7298106994628906,-11.214440576171874
4994739467884,2.370249374,1,0.23223756103515625,1.6819266662597656,-11.056423266601563
4994741689134,2.372470624,1,0.24779987182617186,1.70467158203125,-11.145008728027342
4994743912155,2.374693645,1,0.2214636535644531,1.7190367919921874,-11.149797131347656
4994746134447,2.376915937,1,0.2214636535644531,1.7609353210449217,-11.127052215576171
4994748359134,2.379140624,1,0.27174188842773433,1.7776947326660155,-11.176133349609374
4994750578666,2.381360156,1,0.25737667846679685,1.7489643127441405,-11.17254204711914
4994752804134,2.383585624,1,0.2154781494140625,1.7226280944824217,-11.137826123046874
4994755023301,2.385804791,1,0.2154781494140625,1.7393875061035156,-11.152191333007812
4994757245020,2.38802651,1,0.20709844360351562,1.7274164978027342,-11.164162341308593
4994759467936,2.390249426,1,0.2609679809570312,1.7944541442871094,-11.104307299804686
4994761690488,2.392471978,1,0.23104046020507812,1.7357962036132812,-11.13423482055664
4994763912676,2.394694166,1,0.2442085693359375,1.7776947326660155,-11.129446417236327
4994766135072,2.396916562,1,0.22385785522460935,1.7322049011230467,-11.156979736328124
4994768358770,2.39914026,1,0.2609679809570312,1.6927005737304686,-11.24915650024414
4994770578718,2.401360208,1,0.17238251953125,1.7585411193847655,-11.176133349609374
4994772803509,2.403584999,1,0.21428104858398436,1.7417817077636717,-11.188104357910156
4994775023249,2.405804739,1,0.2561795776367187,1.7357962036132812,-11.251550701904296
4994777244655,2.408026145,1,0.229843359375,1.7178396911621092,-11.15338843383789
4994779468197,2.410249687,1,0.23343466186523437,1.7561469177246092,-11.314997045898437
4994781689759,2.412471249,1,0.20949264526367187,1.7573440185546874,-11.183315954589844
4994783912103,2.414693593,1,0.2262520568847656,1.7094599853515624,-11.207257971191405
4994786134603,2.416916093,1,0.2657563842773437,1.7405846069335937,-11.161768139648437
4994788358561,2.419140051,1,0.15442600708007811,1.7465701110839842,-11.190498559570312
4994790578613,2.421360103,1,0.22864625854492185,1.7322049011230467,-11.174936248779296
4994792803926,2.423585416,1,0.19033903198242186,1.7657237243652342,-11.212046374511718
4994795023145,2.425804635,1,0.21188684692382811,1.7262193969726563,-11.244368096923827
4994797248040,2.42802953,1,0.2214636535644531,1.6927005737304686,-11.183315954589844
4994799468197,2.430249687,1,0.22266075439453123,1.695094775390625,-11.05762036743164
4994801690228,2.432471718,1,0.26695348510742184,1.734599102783203,-11.124658013916015
4994803911061,2.434692551,1,0.19991583862304688,1.7585411193847655,-11.087547888183593
4994806134030,2.43691552,1,0.22505495605468748,1.7178396911621092,-11.1474029296875
4994808358665,2.439140155,1,0.23582886352539062,1.7357962036132812,-11.233594189453123
4994810577832,2.441359322,1,0.22026655273437498,1.7513585144042967,-11.241973895263671
4994812803301,2.443584791,1,0.2262520568847656,1.6891092712402342,-11.201272467041015
4994815023353,2.445804843,1,0.23822306518554687,1.7477672119140624,-11.156979736328124
4994817246634,2.448028124,1,0.25258827514648435,1.7405846069335937,-11.148600030517578
4994819468249,2.450249739,1,0.22026655273437498,1.7477672119140624,-11.082759484863281
4994821689863,2.452471353,1,0.20709844360351562,1.7465701110839842,-11.14022032470703
4994823912207,2.454693697,1,0.21787235107421873,1.7274164978027342,-11.208455072021483
4994826133718,2.456915208,1,0.19153613281249998,1.7525556152343749,-11.19169566040039
4994828359186,2.459140676,1,0.239420166015625,1.7202338928222656,-11.155782635498046
4994830578197,2.461359687,1,0.19512743530273435,1.7357962036132812,-11.208455072021483
4994832803509,2.463584999,1,0.20949264526367187,1.7657237243652342,-11.213243475341796
4994835023145,2.465804635,1,0.24660277099609373,1.7274164978027342,-11.183315954589844
4994837246322,2.468027812,1,0.25139117431640623,1.7334020019531249,-11.173739147949219
4994839467988,2.470249478,1,0.23582886352539062,1.7465701110839842,-11.201272467041015
4994841689030,2.47247052,1,0.21068974609375,1.7429788085937499,-11.145008728027342
4994843915593,2.474697083,1,0.23702596435546874,1.7513585144042967,-11.235988391113281
4994846135384,2.476916874,1,0.21787235107421873,1.7465701110839842,-11.149797131347656
4994848359499,2.479140989,1,0.19393033447265623,1.687912170410156,-11.212046374511718
4994850577780,2.48135927,1,0.258573779296875,1.7334020019531249,-11.197681164550781
4994852804447,2.483585937,1,0.3028665100097656,1.7322049011230467,-11.231199987792968
4994855023509,2.485804999,1,0.20350714111328125,1.7298106994628906,-11.19169566040039
4994857245280,2.48802677,1,0.23223756103515625,1.7764976318359373,-11.233594189453123
4994859467103,2.490248593,1,0.2657563842773437,1.7585411193847655,-11.137826123046874
4994861689655,2.492471145,1,0.24061726684570311,1.7369933044433592,-11.139023223876952
4994863911634,2.494693124,1,0.23104046020507812,1.744175909423828,-11.190498559570312
4994866134186,2.496915676,1,0.21906945190429686,1.7597382202148437,-11.159373937988281
4994868359499,2.499140989,1,0.19991583862304688,1.7226280944824217,-11.19169566040039
4994870579082,2.501360572,1,0.19991583862304688,1.7274164978027342,-11.155782635498046
4994872801218,2.503582708,1,0.24301146850585936,1.7357962036132812,-11.184513055419922
4994875023770,2.50580526,1,0.25737667846679685,1.7106570861816406,-11.173739147949219
4994877246478,2.508027968,1,0.23582886352539062,1.734599102783203,-11.204863769531249
4994879468822,2.510250312,1,0.2059013427734375,1.7561469177246092,-11.14022032470703
4994881690020,2.51247151,1,0.23343466186523437,1.7465701110839842,-11.262324609375
4994883911478,2.514692968,1,0.21188684692382811,1.7238251953125,-11.171344946289063
4994886134290,2.51691578,1,0.18914193115234373,1.7130512878417967,-11.171344946289063
4994888359499,2.519140989,1,0.181959326171875,1.7322049011230467,-11.174936248779296
4994890578926,2.521360416,1,0.20829554443359374,1.6986860778808592,-11.197681164550781
4994892804030,2.52358552,1,0.22744915771484372,1.70467158203125,-11.184513055419922
4994895023613,2.525805103,1,0.2214636535644531,1.7226280944824217,-11.177330450439452
4994897245436,2.528026926,1,0.201112939453125,1.7202338928222656,-11.162965240478515
4994899468613,2.530250103,1,0.2262520568847656,1.7334020019531249,-11.166556542968749
4994901690020,2.53247151,1,0.20949264526367187,1.7166425903320313,-11.145008728027342
4994903912207,2.534693697,1,0.258573779296875,1.7381904052734374,-11.204863769531249
4994906131686,2.536913176,1,0.23223756103515625,1.6915034729003906,-11.247959399414063
4994908356843,2.539138333,1,0.22744915771484372,1.714248388671875,-11.192892761230468
4994910578874,2.541360364,1,0.229843359375,1.7274164978027342,-11.183315954589844
4994912801270,2.54358276,1,0.17477672119140625,1.7405846069335937,-11.212046374511718
4994915023926,2.545805416,1,0.19871873779296872,1.7274164978027342,-11.218031878662108
4994917265540,2.54804703,1,0.201112939453125,1.7357962036132812,-11.295843432617186
4994919468353,2.550249843,1,0.26815058593749996,1.7298106994628906,-11.173739147949219
4994921689811,2.552471301,1,0.21428104858398436,1.7812860351562498,-11.17254204711914
4994923912311,2.554693801,1,0.21906945190429686,1.7274164978027342,-11.262324609375
4994926134238,2.556915728,1,0.21428104858398436,1.7178396911621092,-11.19887826538086
4994928359343,2.559140833,1,0.20231004028320312,1.7214309936523438,-11.196484063720703
4994930579499,2.561360989,1,0.22505495605468748,1.6843208679199217,-11.180921752929686
4994932804238,2.563585728,1,0.2346317626953125,1.7166425903320313,-11.231199987792968
4994935022936,2.565804426,1,0.2454056701660156,1.7597382202148437,-11.188104357910156
4994937245853,2.568027343,1,0.21308394775390624,1.7429788085937499,-11.15338843383789
4994939467728,2.570249218,1,0.2501940734863281,1.7226280944824217,-11.155782635498046
4994941689655,2.572471145,1,0.2346317626953125,1.7465701110839842,-11.137826123046874
4994943912155,2.574693645,1,0.18914193115234373,1.7669208251953124,-11.119869610595703
4994946133926,2.576915416,1,0.24899697265624998,1.7238251953125,-11.128249316406249
4994948359655,2.579141145,1,0.201112939453125,1.686715069580078,-11.161768139648437
4994950579082,2.581360572,1,0.2166752502441406,1.7274164978027342,-11.14022032470703
4994952803561,2.583585051,1,0.2693476867675781,1.715445489501953,-11.116278308105468
4994955023561,2.585805051,1,0.18076222534179687,1.7681179260253905,-11.179724652099608
4994957266738,2.588048228,1,0.20829554443359374,1.7513585144042967,-11.219228979492186
4994959468197,2.590249687,1,0.22266075439453123,1.714248388671875,-11.184513055419922
4994961689603,2.592471093,1,0.28012159423828126,1.753752716064453,-11.220426080322264
4994963911478,2.594692968,1,0.21787235107421873,1.7860744384765623,-11.174936248779296
4994966133353,2.596914843,1,0.23822306518554687,1.7262193969726563,-11.19887826538086
4994968359134,2.599140624,1,0.20470424194335937,1.7274164978027342,-11.225214483642578
4994970579030,2.60136052,1,0.19871873779296872,1.7190367919921874,-11.180921752929686
4994972803509,2.603584999,1,0.201112939453125,1.7310078002929687,-11.179724652099608
4994975023093,2.605804583,1,0.23343466186523437,1.7573440185546874,-11.137826123046874
4994977246061,2.608027551,1,0.2059013427734375,1.7334020019531249,-11.184513055419922
4994979467572,2.610249062,1,0.22385785522460935,1.7262193969726563,-11.17254204711914
4994981690749,2.612472239,1,0.21906945190429686,1.7693150268554687,-11.21683477783203
4994983911790,2.61469328,1,0.21068974609375,1.7585411193847655,-11.162965240478515
4994986134863,2.616916353,1,0.2765302917480469,1.7477672119140624,-11.16057103881836
4994988359707,2.619141197,1,0.20949264526367187,1.7118541870117185,-11.145008728027342
4994990578926,2.621360416,1,0.20350714111328125,1.7776947326660155,-11.244368096923827
4994992803561,2.623585051,1,0.24181436767578124,1.7417817077636717,-11.221623181152344
4994995023093,2.625804583,1,0.2885013000488281,1.7381904052734374,-11.17852755126953
4994997244655,2.628026145,1,0.19871873779296872,1.7657237243652342,-11.100715997314452
4994999468197,2.630249687,1,0.23702596435546874,1.705868682861328,-11.207257971191405
4995001689603,2.632471093,1,0.24301146850585936,1.7094599853515624,-11.11508120727539
4995003911478,2.634692968,1,0.24899697265624998,1.7106570861816406,-11.148600030517578
4995006134238,2.636915728,1,0.19512743530273435,1.715445489501953,-11.171344946289063
4995008355957,2.639137447,1,0.18555062866210936,1.7453730102539062,-11.12226381225586
4995010578561,2.641360051,1,0.16998831787109375,1.7238251953125,-11.19169566040039
4995012803301,2.643584791,1,0.25258827514648435,1.7334020019531249,-11.137826123046874
4995015023822,2.645805312,1,0.27892449340820313,1.7214309936523438,-11.26831011352539
4995017263874,2.648045364,1,0.23582886352539062,1.753752716064453,-11.159373937988281
4995019467832,2.650249322,1,0.22744915771484372,1.7609353210449217,-11.121066711425781
4995021689186,2.652470676,1,0.26695348510742184,1.7776947326660155,-11.212046374511718
4995023912780,2.65469427,1,0.21068974609375,1.7609353210449217,-11.226411584472656
4995026134499,2.656915989,1,0.22864625854492185,1.7489643127441405,-11.214440576171874
4995028358457,2.659139947,1,0.22266075439453123,1.7417817077636717,-11.208455072021483
4995030578405,2.661359895,1,0.23822306518554687,1.7357962036132812,-11.105504400634764
4995032802832,2.663584322,1,0.25737667846679685,1.7405846069335937,-11.130643518066405
4995035023301,2.665804791,1,0.22266075439453123,1.7465701110839842,-11.189301458740234
4995037246426,2.668027916,1,0.20709844360351562,1.7932570434570312,-11.202469567871093
4995039467884,2.670249374,1,0.239420166015625,1.7322049011230467,-11.190498559570312
4995041690384,2.672471874,1,0.23702596435546874,1.7369933044433592,-11.15338843383789
4995043912207,2.674693697,1,0.3016694091796875,1.7477672119140624,-11.168950744628905
4995046135020,2.67691651,1,0.2166752502441406,1.7465701110839842,-11.168950744628905
4995048359395,2.679140885,1,0.22864625854492185,1.7094599853515624,-11.146205828857422
4995050578197,2.681359687,1,0.19871873779296872,1.734599102783203,-11.149797131347656
4995052809447,2.683590937,1,0.21308394775390624,1.7034744812011717,-11.262324609375
4995055024342,2.685805832,1,0.24660277099609373,1.6795324645996093,-11.159373937988281
4995057245749,2.688027239,1,0.2166752502441406,1.7298106994628906,-11.170147845458983
4995059468770,2.69025026,1,0.23582886352539062,1.7513585144042967,-11.197681164550781
4995061690228,2.692471718,1,0.20350714111328125,1.7334020019531249,-11.135431921386719
4995063912780,2.69469427,1,0.23104046020507812,1.7381904052734374,-11.105504400634764
4995066134707,2.696916197,1,0.22385785522460935,1.753752716064453,-11.094730493164063
4995068359238,2.699140728,1,0.21787235107421873,1.7130512878417967,-11.131840618896483
4995070578561,2.701360051,1,0.23343466186523437,1.7010802795410156,-11.142614526367186
4995072803717,2.703585207,1,0.20231004028320312,1.7202338928222656,-11.239579693603515
4995075023613,2.705805103,1,0.2346317626953125,1.725022296142578,-11.201272467041015
4995077265436,2.708046926,1,0.17597382202148437,1.7322049011230467,-11.23000288696289
4995079467728,2.710249218,1,0.2346317626953125,1.705868682861328,-11.21084927368164
4995081690124,2.712471614,1,0.19632453613281248,1.7609353210449217,-11.174936248779296
4995083911999,2.714693489,1,0.2561795776367187,1.7334020019531249,-11.173739147949219
4995086134342,2.716915832,1,0.21906945190429686,1.7106570861816406,-11.239579693603515
4995088358197,2.719139687,1,0.2741360900878906,1.6819266662597656,-11.192892761230468
4995090577884,2.721359374,1,0.23822306518554687,1.7525556152343749,-11.220426080322264
4995092803822,2.723585312,1,0.28490999755859375,1.715445489501953,-11.251550701904296
4995095022988,2.725804478,1,0.21787235107421873,1.7130512878417967,-11.207257971191405
4995097245749,2.728027239,1,0.1975216369628906,1.7262193969726563,-11.154585534667968
4995099467936,2.730249426,1,0.21068974609375,1.7429788085937499,-11.130643518066405
4995101689030,2.73247052,1,0.23582886352539062,1.7477672119140624,-11.137826123046874
4995103912259,2.734693749,1,0.2154781494140625,1.7465701110839842,-11.17852755126953
4995106134290,2.73691578,1,0.21428104858398436,1.7429788085937499,-11.167753643798827
4995108358874,2.739140364,1,0.20829554443359374,1.7322049011230467,-11.179724652099608
4995110579499,2.741360989,1,0.24899697265624998,1.7405846069335937,-11.190498559570312
4995112803249,2.743584739,1,0.20350714111328125,1.7214309936523438,-11.197681164550781
4995115023770,2.74580526,1,0.17956512451171874,1.7741034301757812,-11.310208642578125
4995117265072,2.748046562,1,0.19632453613281248,1.7226280944824217,-11.11508120727539
4995119467415,2.750248905,1,0.23223756103515625,1.7214309936523438,-11.2240173828125
4995121689915,2.752471405,1,0.229843359375,1.7262193969726563,-11.279084020996093
4995123912467,2.754693957,1,0.23822306518554687,1.7130512878417967,-11.179724652099608
4995126133717,2.756915207,1,0.2454056701660156,1.7369933044433592,-11.171344946289063
4995128359238,2.759140728,1,0.19991583862304688,1.7657237243652342,-11.201272467041015
4995130576426,2.761357916,1,0.21068974609375,1.7202338928222656,-11.225214483642578
4995132801322,2.763582812,1,0.23104046020507812,1.7477672119140624,-11.189301458740234
4995135023874,2.765805364,1,0.23104046020507812,1.7130512878417967,-11.212046374511718
4995137245645,2.768027135,1,0.25737667846679685,1.763329522705078,-11.222820281982422
4995139467988,2.770249478,1,0.2346317626953125,1.7310078002929687,-11.194089862060546
4995141690488,2.772471978,1,0.44532150878906246,1.696291876220703,-11.215637677001952
4995143911686,2.774693176,1,0.22864625854492185,1.7214309936523438,-11.195286962890624
4995146133926,2.776915416,1,0.1975216369628906,1.7226280944824217,-11.225214483642578
4995148359395,2.779140885,1,0.2501940734863281,1.7705121276855467,-11.164162341308593
4995150579395,2.781360885,1,0.2561795776367187,1.7465701110839842,-11.165359442138671
4995152804238,2.783585728,1,0.25139117431640623,1.7130512878417967,-11.161768139648437
4995155023770,2.78580526,1,0.21787235107421873,1.753752716064453,-11.159373937988281
4995157265072,2.788046562,1,0.2262520568847656,1.7202338928222656,-11.21084927368164
4995159467259,2.790248749,1,0.22026655273437498,1.7202338928222656,-11.139023223876952
4995161689186,2.792470676,1,0.19512743530273435,1.7561469177246092,-11.162965240478515
4995163911895,2.794693385,1,0.1867477294921875,1.7190367919921874,-11.183315954589844
4995166134499,2.796915989,1,0.23582886352539062,1.696291876220703,-11.141417425537108
4995168358978,2.799140468,1,0.23104046020507812,1.7166425903320313,-11.197681164550781
4995170578770,2.80136026,1,0.2262520568847656,1.7178396911621092,-11.168950744628905
4995172803717,2.803585207,1,0.229843359375,1.707065783691406,-11.243170996093749
4995175023613,2.805805103,1,0.2166752502441406,1.7322049011230467,-11.143811627197264
4995177245384,2.808026874,1,0.27892449340820313,1.7561469177246092,-11.156979736328124
4995179468301,2.810249791,1,0.27174188842773433,1.7310078002929687,-11.218031878662108
4995181689603,2.812471093,1,0.24779987182617186,1.6927005737304686,-11.228805786132812
4995183911270,2.81469276,1,0.23223756103515625,1.7465701110839842,-11.21683477783203
4995186134759,2.816916249,1,0.22505495605468748,1.7561469177246092,-11.19887826538086
4995188360436,2.819141926,1,0.22385785522460935,1.7238251953125,-11.208455072021483
4995190579134,2.821360624,1,0.23104046020507812,1.7477672119140624,-11.158176837158203
4995192804238,2.823585728,1,0.2549824768066406,1.7286135986328124,-11.154585534667968
4995195022728,2.825804218,1,0.20470424194335937,1.7357962036132812,-11.171344946289063
4995197245540,2.82802703,1,0.2537853759765625,1.7106570861816406,-11.110292803955078
4995199468145,2.830249635,1,0.2501940734863281,1.7549498168945312,-11.234791290283203
4995201689238,2.832470728,1,0.23822306518554687,1.7310078002929687,-11.200075366210937
4995203911530,2.83469302,1,0.19632453613281248,1.705868682861328,-11.19169566040039
4995206134186,2.836915676,1,0.2214636535644531,1.7489643127441405,-11.176133349609374
4995208358509,2.839139999,1,0.2166752502441406,1.7190367919921874,-11.146205828857422
4995210579186,2.841360676,1,0.21308394775390624,1.7669208251953124,-11.240776794433593
4995212803197,2.843584687,1,0.26216508178710934,1.6615759521484375,-11.174936248779296
4995215022572,2.845804062,1,0.2166752502441406,1.7034744812011717,-11.158176837158203
4995217245540,2.84802703,1,0.21906945190429686,1.7429788085937499,-11.212046374511718
4995219468092,2.850249582,1,0.201112939453125,1.714248388671875,-11.226411584472656
4995221689707,2.852471197,1,0.239420166015625,1.7357962036132812,-11.233594189453123
4995223911269,2.854692759,1,0.24899697265624998,1.7310078002929687,-11.1474029296875
4995226133509,2.856914999,1,0.20470424194335937,1.8052280517578123,-11.19169566040039
4995228359811,2.859141301,1,0.25258827514648435,1.7453730102539062,-11.203666668701171
4995230579447,2.861360937,1,0.23223756103515625,1.7621324218749999,-11.165359442138671
4995232804030,2.86358552,1,0.239420166015625,1.7645266235351562,-11.208455072021483
4995235022936,2.865804426,1,0.26336218261718747,1.7465701110839842,-11.189301458740234
4995237267832,2.868049322,1,0.22385785522460935,1.7202338928222656,-11.137826123046874
4995239467311,2.870248801,1,0.239420166015625,1.7381904052734374,-11.119869610595703
4995241689863,2.872471353,1,0.21787235107421873,1.7262193969726563,-11.13423482055664
4995243911738,2.874693228,1,0.25737667846679685,1.7525556152343749,-11.19169566040039
4995246134290,2.87691578,1,0.1867477294921875,1.7202338928222656,-11.176133349609374
4995248359134,2.879140624,1,0.2825157958984375,1.7369933044433592,-11.183315954589844
4995250578457,2.881359947,1,0.23822306518554687,1.6675614562988281,-11.170147845458983
4995252802988,2.883584478,1,0.24181436767578124,1.66636435546875,-11.171344946289063
4995255022207,2.885803697,1,0.277727392578125,1.6891092712402342,-11.116278308105468
4995257270801,2.888052291,1,0.2537853759765625,1.7166425903320313,-11.190498559570312
4995259468301,2.890249791,1,0.22026655273437498,1.7477672119140624,-11.142614526367186
4995261693509,2.892474999,1,0.239420166015625,1.7753005310058592,-11.146205828857422
4995263913457,2.894694947,1,0.23582886352539062,1.7322049011230467,-11.182118853759764
4995266134915,2.896916405,1,0.26336218261718747,1.7310078002929687,-11.200075366210937
4995268359759,2.899141249,1,0.25139117431640623,1.7549498168945312,-11.201272467041015
4995270579238,2.901360728,1,0.20470424194335937,1.7573440185546874,-11.179724652099608
4995272803353,2.903584843,1,0.17597382202148437,1.7369933044433592,-11.218031878662108
4995275022728,2.905804218,1,0.21068974609375,1.7585411193847655,-11.155782635498046
4995277245488,2.908026978,1,0.23343466186523437,1.753752716064453,-11.179724652099608
4995279467572,2.910249062,1,0.22385785522460935,1.7274164978027342,-11.12226381225586
4995281689811,2.912471301,1,0.19991583862304688,1.7609353210449217,-11.179724652099608
4995283912572,2.914694062,1,0.2214636535644531,1.715445489501953,-11.21084927368164
4995286134238,2.916915728,1,0.22266075439453123,1.705868682861328,-11.190498559570312
4995288358769,2.919140259,1,0.2346317626953125,1.734599102783203,-11.164162341308593
4995290578874,2.921360364,1,0.24301146850585936,1.7812860351562498,-11.168950744628905
4995292803509,2.923584999,1,0.239420166015625,1.7130512878417967,-11.247959399414063
4995295022832,2.925804322,1,0.23822306518554687,1.7453730102539062,-11.227608685302734
4995297265436,2.928046926,1,0.19871873779296872,1.7322049011230467,-11.18571015625
4995299467519,2.930249009,1,0.24899697265624998,1.7357962036132812,-11.158176837158203
4995301689551,2.932471041,1,0.20470424194335937,1.7417817077636717,-11.203666668701171
4995303912103,2.934693593,1,0.20709844360351562,1.7621324218749999,-11.189301458740234
4995306134290,2.93691578,1,0.22505495605468748,1.753752716064453,-11.184513055419922
4995308358822,2.939140312,1,0.2166752502441406,1.7513585144042967,-11.209652172851563
4995310578457,2.941359947,1,0.2537853759765625,1.7621324218749999,-11.240776794433593
4995312802936,2.943584426,1,0.22744915771484372,1.725022296142578,-11.246762298583985
4995315022259,2.945803749,1,0.28012159423828126,1.696291876220703,-11.228805786132812
4995317245332,2.948026822,1,0.23822306518554687,1.7453730102539062,-11.23000288696289
4995319467936,2.950249426,1,0.25139117431640623,1.7166425903320313,-11.23718549194336
4995321690384,2.952471874,1,0.19393033447265623,1.7393875061035156,-11.168950744628905
4995323911947,2.954693437,1,0.23104046020507812,1.7166425903320313,-11.165359442138671
4995326133613,2.956915103,1,0.1879448303222656,1.725022296142578,-11.170147845458983
4995328359551,2.959141041,1,0.21188684692382811,1.7310078002929687,-11.180921752929686
4995330578926,2.961360416,1,0.2166752502441406,1.7238251953125,-11.259930407714844
4995332803353,2.963584843,1,0.20350714111328125,1.7118541870117185,-11.149797131347656
4995335023144,2.965804634,1,0.21068974609375,1.675941162109375,-11.215637677001952
4995337266634,2.968048124,1,0.21428104858398436,1.7202338928222656,-11.202469567871093
4995339468197,2.970249687,1,0.19393033447265623,1.7298106994628906,-11.196484063720703
4995341689915,2.972471405,1,0.22864625854492185,1.7513585144042967,-11.218031878662108
4995343912259,2.974693749,1,0.2346317626953125,1.7130512878417967,-11.19887826538086
4995346133978,2.976915468,1,0.21787235107421873,1.7178396911621092,-11.16057103881836
4995348358665,2.979140155,1,0.26216508178710934,1.753752716064453,-11.15338843383789
4995350578509,2.981359999,1,0.27892449340820313,1.6843208679199217,-11.231199987792968
4995352803926,2.983585416,1,0.2813186950683594,1.6508020446777343,-11.166556542968749
4995355022676,2.985804166,1,0.2753331909179687,1.7393875061035156,-11.201272467041015
4995357245280,2.98802677,1,0.21188684692382811,1.7334020019531249,-11.196484063720703
4995359467936,2.990249426,1,0.23702596435546874,1.7489643127441405,-11.113884106445312
4995361689394,2.992470884,1,0.23104046020507812,1.707065783691406,-11.167753643798827
4995363911322,2.994692812,1,0.21188684692382811,1.7130512878417967,-11.265915911865234
4995366135072,2.996916562,1,0.21428104858398436,1.7238251953125,-11.164162341308593
4995368357051,2.999138541,1,0.1879448303222656,1.7166425903320313,-11.17254204711914
4995370579603,3.001361093,1,0.2166752502441406,1.7357962036132812,-11.170147845458983
4995372803561,3.003585051,1,0.19512743530273435,1.696291876220703,-11.30661734008789
4995375022884,3.005804374,1,0.18914193115234373,1.6795324645996093,-11.113884106445312
4995377245905,3.008027395,1,0.19871873779296872,1.725022296142578,-11.167753643798827
4995379467832,3.010249322,1,0.201112939453125,1.7226280944824217,-11.158176837158203
4995381688874,3.012470364,1,0.2214636535644531,1.7501614135742187,-11.202469567871093
4995383911530,3.01469302,1,0.24301146850585936,1.7693150268554687,-11.174936248779296
4995386133717,3.016915207,1,0.24899697265624998,1.715445489501953,-11.129446417236327
4995388356478,3.019137968,1,0.201112939453125,1.7405846069335937,-11.245565197753905
4995390579290,3.02136078,1,0.2346317626953125,1.7585411193847655,-11.297040533447264
4995392803249,3.023584739,1,0.2657563842773437,1.6998831787109374,-11.30661734008789
4995395022988,3.025804478,1,0.2501940734863281,1.7190367919921874,-11.195286962890624
4995397245384,3.028026874,1,0.21068974609375,1.7322049011230467,-11.206060870361327
4995399467884,3.030249374,1,0.21787235107421873,1.7453730102539062,-11.196484063720703
4995401689290,3.03247078,1,0.239420166015625,1.744175909423828,-11.136629022216797
4995403911374,3.034692864,1,0.24301146850585936,1.7238251953125,-11.201272467041015
4995406134186,3.036915676,1,0.2454056701660156,1.7381904052734374,-11.206060870361327
4995408358249,3.039139739,1,0.2262520568847656,1.7405846069335937,-11.19169566040039
4995410577988,3.041359478,1,0.2454056701660156,1.7489643127441405,-11.263521710205078
4995412802415,3.043583905,1,0.28490999755859375,1.7405846069335937,-11.195286962890624
4995415023769,3.045805259,1,0.24181436767578124,1.7322049011230467,-11.203666668701171
4995417264499,3.048045989,1,0.21787235107421873,1.707065783691406,-11.131840618896483
4995419467884,3.050249374,1,0.1927332336425781,1.7489643127441405,-11.124658013916015
4995421689551,3.052471041,1,0.22864625854492185,1.7226280944824217,-11.173739147949219
4995423911738,3.054693228,1,0.229843359375,1.734599102783203,-11.141417425537108
4995426134238,3.056915728,1,0.23223756103515625,1.753752716064453,-11.176133349609374
4995428359030,3.05914052,1,0.25258827514648435,1.7525556152343749,-11.145008728027342
4995430578665,3.061360155,1,0.24779987182617186,1.7489643127441405,-11.168950744628905
4995432804134,3.063585624,1,0.20470424194335937,1.8088193542480469,-11.182118853759764
4995435023561,3.065805051,1,0.21787235107421873,1.7262193969726563,-11.21683477783203
4995437268405,3.068049895,1,0.2442085693359375,1.7477672119140624,-11.156979736328124
4995439467728,3.070249218,1,0.26336218261718747,1.7800889343261719,-11.143811627197264
4995441689499,3.072470989,1,0.24301146850585936,1.7968483459472655,-11.128249316406249
4995443912259,3.074693749,1,0.22505495605468748,1.7369933044433592,-11.173739147949219
4995446133613,3.076915103,1,0.2346317626953125,1.7130512878417967,-11.188104357910156
4995448359342,3.079140832,1,0.24899697265624998,1.715445489501953,-11.13423482055664
4995450578249,3.081359739,1,0.1771709228515625,1.7489643127441405,-11.215637677001952
4995452803301,3.083584791,1,0.19991583862304688,1.7429788085937499,-11.219228979492186
4995455023561,3.085805051,1,0.1867477294921875,1.7405846069335937,-11.208455072021483
4995457246217,3.088027707,1,0.239420166015625,1.7609353210449217,-11.196484063720703
4995459467936,3.090249426,1,0.2753331909179687,1.7202338928222656,-11.14022032470703
4995461690071,3.092471561,1,0.22026655273437498,1.7429788085937499,-11.188104357910156
4995463912259,3.094693749,1,0.23104046020507812,1.7417817077636717,-11.152191333007812
4995466134082,3.096915572,1,0.2537853759765625,1.7082628845214842,-11.124658013916015
4995468359290,3.09914078,1,0.1975216369628906,1.7525556152343749,-11.241973895263671
4995470582988,3.101364478,1,0.2214636535644531,1.7214309936523438,-11.214440576171874
4995472806009,3.103587499,1,0.22266075439453123,1.7286135986328124,-11.259930407714844
4995475023040,3.10580453,1,0.2537853759765625,1.6986860778808592,-11.179724652099608
4995477246009,3.108027499,1,0.23343466186523437,1.6903063720703124,-11.208455072021483
4995479467363,3.110248853,1,0.2645592834472656,1.7202338928222656,-11.196484063720703
4995481689915,3.112471405,1,0.2166752502441406,1.7274164978027342,-11.164162341308593
4995483911478,3.114692968,1,0.22864625854492185,1.7166425903320313,-11.196484063720703
4995486134915,3.116916405,1,0.19153613281249998,1.7106570861816406,-11.119869610595703
4995488359238,3.119140728,1,0.25737667846679685,1.7298106994628906,-11.167753643798827
4995490578769,3.121360259,1,0.20470424194335937,1.7501614135742187,-11.311405743408203
4995492803405,3.123584895,1,0.24660277099609373,1.7657237243652342,-11.233594189453123
4995495024186,3.125805676,1,0.21787235107421873,1.7298106994628906,-11.208455072021483
4995497264238,3.128045728,1,0.21428104858398436,1.7357962036132812,-11.233594189453123
4995499467363,3.130248853,1,0.16519991455078123,1.7178396911621092,-11.227608685302734
4995501688665,3.132470155,1,0.23582886352539062,1.7322049011230467,-11.189301458740234
4995503911530,3.13469302,1,0.2214636535644531,1.7465701110839842,-11.228805786132812
4995506134186,3.136915676,1,0.296881005859375,1.7669208251953124,-11.206060870361327
4995508359238,3.139140728,1,0.2442085693359375,1.7369933044433592,-11.184513055419922
4995510578457,3.141359947,1,0.20470424194335937,1.725022296142578,-11.337741961669922
4995512802988,3.143584478,1,0.17477672119140625,1.715445489501953,-11.146205828857422
4995515022936,3.145804426,1,0.20709844360351562,1.7298106994628906,-11.176133349609374
4995517244499,3.148025989,1,0.26695348510742184,1.7501614135742187,-11.158176837158203
4995519467519,3.150249009,1,0.2262520568847656,1.7597382202148437,-11.201272467041015
4995521689446,3.152470936,1,0.23822306518554687,1.7238251953125,-11.202469567871093
4995523911269,3.154692759,1,0.21428104858398436,1.7310078002929687,-11.231199987792968
