timestamp_ns,t_s,sensor_id,ax,ay,az,gx,gy,gz
5224866190349,0.061440886,1,0.2645592834472656,1.7190367919921874,-11.233594189453123,-1.0305343511450382,0.6335877862595419,-1.6106870229007633
5224872820244,0.068070781,1,0.22864625854492185,1.725022296142578,-11.247959399414063,-0.8320610687022901,0.6564885496183206,-1.3969465648854962
5224879486494,0.074737031,1,0.24779987182617186,1.7477672119140624,-11.218031878662108,-0.8091603053435115,0.549618320610687,-1.3358778625954197
5224886155244,0.081405781,1,0.23582886352539062,1.714248388671875,-11.19887826538086,-0.8320610687022901,0.5038167938931297,-1.3206106870229009
5224892815453,0.08806599,1,0.22864625854492185,1.715445489501953,-11.156979736328124,-0.7557251908396947,0.6106870229007634,-1.3129770992366412
5224899480921,0.094731458,1,0.21906945190429686,1.7190367919921874,-11.188104357910156,-0.8091603053435115,0.5267175572519084,-1.2442748091603053
5224906146963,0.1013975,1,0.2501940734863281,1.7369933044433592,-11.176133349609374,-0.8320610687022901,0.5419847328244275,-1.2900763358778626
5224912813005,0.108063542,1,0.2765302917480469,1.7405846069335937,-11.16057103881836,-0.8625954198473282,0.5419847328244275,-1.3053435114503817
5224919479151,0.114729688,1,0.21428104858398436,1.7226280944824217,-11.18571015625,-0.7862595419847328,0.5572519083969466,-1.3206106870229009
5224926146234,0.121396771,1,0.24061726684570311,1.6938976745605467,-11.139023223876952,-0.7862595419847328,0.5572519083969466,-1.3206106870229009
5224932811807,0.128062344,1,0.24061726684570311,1.7166425903320313,-11.15338843383789,-0.7862595419847328,0.5801526717557252,-1.3053435114503817
5224939478786,0.134729323,1,0.22026655273437498,1.7166425903320313,-11.174936248779296,-0.6793893129770993,0.5725190839694656,-1.2595419847328244
5224946146234,0.141396771,1,0.2442085693359375,1.7082628845214842,-11.174936248779296,-0.8244274809160306,0.5801526717557252,-1.3053435114503817
5224952812901,0.148063438,1,0.26216508178710934,1.714248388671875,-11.243170996093749,-0.8244274809160306,0.5419847328244275,-1.3053435114503817
5224959479671,0.154730208,1,0.19871873779296872,1.697488977050781,-11.221623181152344,-0.8015267175572519,0.5419847328244275,-1.297709923664122
5224966145244,0.161395781,1,0.23343466186523437,1.7214309936523438,-11.141417425537108,-0.8244274809160306,0.5038167938931297,-1.297709923664122
5224972812380,0.168062917,1,0.23343466186523437,1.7226280944824217,-11.173739147949219,-0.916030534351145,0.6335877862595419,-1.3129770992366412
5224979478838,0.174729375,1,0.29089550170898437,1.7776947326660155,-11.179724652099608,-0.7633587786259542,0.5725190839694656,-1.3206106870229009
5224986145921,0.181396458,1,0.2645592834472656,1.7381904052734374,-11.190498559570312,-0.7786259541984732,0.5267175572519084,-1.3511450381679388
5224992814932,0.188065469,1,0.22385785522460935,1.7453730102539062,-11.188104357910156,-0.8244274809160306,0.5648854961832062,-1.282442748091603
5224999480869,0.194731406,1,0.24181436767578124,1.7130512878417967,-11.139023223876952,-0.7251908396946565,0.5419847328244275,-1.3282442748091603
5225006148317,0.201398854,1,0.23582886352539062,1.7310078002929687,-11.218031878662108,-0.8473282442748091,0.5190839694656488,-1.3435114503816794
5225012814828,0.208065365,1,0.21068974609375,1.725022296142578,-11.192892761230468,-0.8473282442748091,0.6335877862595419,-1.3206106870229009
5225019474880,0.214725417,1,0.25139117431640623,1.7298106994628906,-11.13423482055664,-0.8015267175572519,0.5343511450381679,-1.3129770992366412
5225026148369,0.221398906,1,0.22505495605468748,1.7800889343261719,-11.173739147949219,-0.8549618320610687,0.549618320610687,-1.297709923664122
5225032814671,0.228065208,1,0.19632453613281248,1.7753005310058592,-11.220426080322264,-0.8396946564885496,0.5648854961832062,-1.2900763358778626
5225039481390,0.234731927,1,0.24660277099609373,1.715445489501953,-11.226411584472656,-0.7404580152671756,0.4961832061068702,-1.3587786259541985
5225046147796,0.241398333,1,0.20949264526367187,1.70467158203125,-11.174936248779296,-0.8625954198473282,0.4732824427480916,-1.366412213740458
5225052814828,0.248065365,1,0.23104046020507812,1.7657237243652342,-11.161768139648437,-0.8854961832061069,0.6183206106870229,-1.3435114503816794
5225059480505,0.254731042,1,0.23582886352539062,1.7393875061035156,-11.137826123046874,-0.732824427480916,0.5725190839694656,-1.3358778625954197
5225066147692,0.261398229,1,0.19871873779296872,1.7226280944824217,-11.194089862060546,-0.8015267175572519,0.549618320610687,-1.366412213740458
5225072813786,0.268064323,1,0.19871873779296872,1.7585411193847655,-11.195286962890624,-0.8091603053435115,0.6335877862595419,-1.3129770992366412
5225079480244,0.274730781,1,0.17238251953125,1.7585411193847655,-11.239579693603515,-0.7022900763358778,0.5343511450381679,-1.3206106870229009
5225086148109,0.281398646,1,0.17836802368164062,1.7034744812011717,-11.239579693603515,-0.816793893129771,0.46564885496183206,-1.297709923664122
5225092814776,0.288065313,1,0.21308394775390624,1.7190367919921874,-11.19887826538086,-0.816793893129771,0.5877862595419847,-1.3282442748091603
5225099481182,0.294731719,1,0.19512743530273435,1.7788918334960937,-11.161768139648437,-0.8091603053435115,0.5877862595419847,-1.4045801526717556
5225106147328,0.301397865,1,0.1867477294921875,1.7106570861816406,-11.200075366210937,-0.8549618320610687,0.6183206106870229,-1.4045801526717556
5225112813994,0.308064531,1,0.229843359375,1.7597382202148437,-11.243170996093749,-0.8854961832061069,0.549618320610687,-1.3206106870229009
5225119480609,0.314731146,1,0.26815058593749996,1.7190367919921874,-11.209652172851563,-0.7633587786259542,0.6106870229007634,-1.2671755725190839
5225126147432,0.321397969,1,0.18435352783203124,1.7393875061035156,-11.201272467041015,-0.816793893129771,0.5267175572519084,-1.3511450381679388
5225132813734,0.328064271,1,0.2154781494140625,1.6986860778808592,-11.167753643798827,-0.8702290076335878,0.6335877862595419,-1.3511450381679388
5225139480713,0.33473125,1,0.258573779296875,1.725022296142578,-11.16057103881836,-0.8015267175572519,0.5801526717557252,-1.3053435114503817
5225146147432,0.341397969,1,0.18435352783203124,1.7657237243652342,-11.188104357910156,-0.7633587786259542,0.5419847328244275,-1.3053435114503817
5225152814880,0.348065417,1,0.19991583862304688,1.7094599853515624,-11.173739147949219,-0.916030534351145,0.6641221374045801,-1.3206106870229009
5225159480401,0.354730938,1,0.23822306518554687,1.725022296142578,-11.16057103881836,-0.8473282442748091,0.6183206106870229,-1.3511450381679388
5225166147432,0.361397969,1,0.24899697265624998,1.7525556152343749,-11.158176837158203,-0.8015267175572519,0.5038167938931297,-1.2595419847328244
5225172814307,0.368064844,1,0.2753331909179687,1.7274164978027342,-11.190498559570312,-0.8625954198473282,0.6259541984732825,-1.2748091603053435
5225179481755,0.374732292,1,0.26216508178710934,1.7226280944824217,-11.168950744628905,-0.7557251908396947,0.6030534351145038,-1.3587786259541985
5225186147328,0.381397865,1,0.239420166015625,1.7705121276855467,-11.137826123046874,-0.8091603053435115,0.549618320610687,-1.3206106870229009
5225192814046,0.388064583,1,0.23223756103515625,1.7561469177246092,-11.221623181152344,-0.8549618320610687,0.6030534351145038,-1.2595419847328244
5225199479776,0.394730313,1,0.20350714111328125,1.7238251953125,-11.16057103881836,-0.8549618320610687,0.5801526717557252,-1.3053435114503817
5225206147223,0.40139776,1,0.17238251953125,1.7357962036132812,-11.117475408935546,-0.8015267175572519,0.5267175572519084,-1.3129770992366412
5225212813786,0.408064323,1,0.2609679809570312,1.7705121276855467,-11.202469567871093,-0.8473282442748091,0.6564885496183206,-1.297709923664122
5225219480296,0.414730833,1,0.2609679809570312,1.7657237243652342,-11.17254204711914,-0.7862595419847328,0.5267175572519084,-1.3969465648854962
5225226146651,0.421397188,1,0.21188684692382811,1.7657237243652342,-11.177330450439452,-0.7786259541984732,0.46564885496183206,-1.3053435114503817
5225232813942,0.428064479,1,0.23822306518554687,1.7214309936523438,-11.177330450439452,-0.8244274809160306,0.6717557251908397,-1.3206106870229009
5225239492380,0.434742917,1,0.21787235107421873,1.7298106994628906,-11.225214483642578,-0.8244274809160306,0.5877862595419847,-1.4045801526717556
5225246150036,0.441400573,1,0.19512743530273435,1.7357962036132812,-11.270704315185545,-0.7557251908396947,0.5877862595419847,-1.3511450381679388
5225252814150,0.448064687,1,0.22026655273437498,1.6807295654296874,-11.219228979492186,-0.8320610687022901,0.549618320610687,-1.3511450381679388
5225259480244,0.454730781,1,0.20350714111328125,1.7932570434570312,-11.14022032470703,-0.816793893129771,0.5954198473282443,-1.381679389312977
5225266144515,0.461395052,1,0.2501940734863281,1.7705121276855467,-11.131840618896483,-0.6717557251908397,0.5343511450381679,-1.3206106870229009
5225272814359,0.468064896,1,0.19991583862304688,1.7130512878417967,-11.129446417236327,-0.7938931297709924,0.5190839694656488,-1.2900763358778626
5225279477328,0.474727865,1,0.22744915771484372,1.7166425903320313,-11.149797131347656,-0.8320610687022901,0.5725190839694656,-1.251908396946565
5225286148317,0.481398854,1,0.22266075439453123,1.696291876220703,-11.1474029296875,-0.7709923664122137,0.5725190839694656,-1.3358778625954197
5225292814150,0.488064687,1,0.2501940734863281,1.66636435546875,-11.194089862060546,-0.8244274809160306,0.6030534351145038,-1.297709923664122
5225299480973,0.49473151,1,0.21188684692382811,1.7310078002929687,-11.208455072021483,-0.8931297709923665,0.6030534351145038,-1.3129770992366412
5225306146546,0.501397083,1,0.22864625854492185,1.7681179260253905,-11.194089862060546,-0.7633587786259542,0.5190839694656488,-1.2900763358778626
5225312813890,0.508064427,1,0.2059013427734375,1.7130512878417967,-11.165359442138671,-0.9007633587786259,0.6030534351145038,-1.2748091603053435
5225319479307,0.514729844,1,0.23582886352539062,1.734599102783203,-11.201272467041015,-0.8320610687022901,0.5954198473282443,-1.2595419847328244
5225326145869,0.521396406,1,0.24061726684570311,1.7513585144042967,-11.186907257080078,-0.7557251908396947,0.6030534351145038,-1.2900763358778626
5225332812223,0.52806276,1,0.20350714111328125,1.7477672119140624,-11.176133349609374,-0.8473282442748091,0.6106870229007634,-1.2748091603053435
5225339479098,0.534729635,1,0.2597708801269531,1.7609353210449217,-11.156979736328124,-0.8625954198473282,0.5190839694656488,-1.3282442748091603
5225346145036,0.541395573,1,0.19991583862304688,1.7274164978027342,-11.219228979492186,-0.7404580152671756,0.48854961832061067,-1.2900763358778626
5225352812275,0.548062812,1,0.24899697265624998,1.734599102783203,-11.239579693603515,-0.8320610687022901,0.5954198473282443,-1.3206106870229009
5225359479463,0.55473,1,0.24899697265624998,1.753752716064453,-11.170147845458983,-0.8549618320610687,0.6183206106870229,-1.2671755725190839
5225366145869,0.561396406,1,0.239420166015625,1.753752716064453,-11.18571015625,-0.8625954198473282,0.5877862595419847,-1.2671755725190839
5225372811286,0.568061823,1,0.23822306518554687,1.7501614135742187,-11.18571015625,-0.8854961832061069,0.5877862595419847,-1.2595419847328244
5225379479359,0.574729896,1,0.23343466186523437,1.7465701110839842,-11.146205828857422,-0.8854961832061069,0.5801526717557252,-1.2366412213740459
5225386145505,0.581396042,1,0.2166752502441406,1.7513585144042967,-11.203666668701171,-0.7404580152671756,0.5801526717557252,-1.3511450381679388
5225392811911,0.588062448,1,0.2597708801269531,1.6831237670898436,-11.215637677001952,-0.7404580152671756,0.5114503816793893,-1.3511450381679388
5225399478734,0.594729271,1,0.239420166015625,1.7010802795410156,-11.192892761230468,-0.8396946564885496,0.5877862595419847,-1.3358778625954197
5225406145348,0.601395885,1,0.24779987182617186,1.7178396911621092,-11.137826123046874,-0.8015267175572519,0.5190839694656488,-1.2595419847328244
5225412812484,0.608063021,1,0.20709844360351562,1.744175909423828,-11.136629022216797,-0.816793893129771,0.6564885496183206,-1.251908396946565
5225419478786,0.614729323,1,0.24061726684570311,1.7094599853515624,-11.18571015625,-0.8702290076335878,0.6335877862595419,-1.2900763358778626
5225426145869,0.621396406,1,0.24181436767578124,1.7561469177246092,-11.177330450439452,-0.8244274809160306,0.6106870229007634,-1.3358778625954197
5225432812640,0.628063177,1,0.277727392578125,1.7465701110839842,-11.164162341308593,-0.7862595419847328,0.5572519083969466,-1.366412213740458
5225439478838,0.634729375,1,0.21188684692382811,1.7381904052734374,-11.196484063720703,-0.8931297709923665,0.5877862595419847,-1.3282442748091603
5225446145348,0.641395885,1,0.22385785522460935,1.6891092712402342,-11.204863769531249,-0.8244274809160306,0.5877862595419847,-1.3206106870229009
5225452811442,0.648061979,1,0.22864625854492185,1.7836802368164062,-11.286266625976562,-0.816793893129771,0.5801526717557252,-1.2671755725190839
5225459478942,0.654729479,1,0.22026655273437498,1.697488977050781,-11.156979736328124,-0.8244274809160306,0.6183206106870229,-1.381679389312977
5225466145921,0.661396458,1,0.20829554443359374,1.7549498168945312,-11.195286962890624,-0.8244274809160306,0.5648854961832062,-1.3358778625954197
5225472811911,0.668062448,1,0.22744915771484372,1.7609353210449217,-11.164162341308593,-0.8931297709923665,0.4732824427480916,-1.2748091603053435
5225479478525,0.674729062,1,0.22864625854492185,1.7417817077636717,-11.110292803955078,-0.8091603053435115,0.6183206106870229,-1.3129770992366412
5225486145140,0.681395677,1,0.21188684692382811,1.697488977050781,-11.202469567871093,-0.7709923664122137,0.48854961832061067,-1.3511450381679388
5225492811598,0.688062135,1,0.22385785522460935,1.7717092285156248,-11.170147845458983,-0.8320610687022901,0.5419847328244275,-1.2748091603053435
5225499479046,0.694729583,1,0.21906945190429686,1.8028338500976562,-11.202469567871093,-0.8625954198473282,0.5648854961832062,-1.3511450381679388
5225506145973,0.70139651,1,0.21906945190429686,1.7262193969726563,-11.167753643798827,-0.732824427480916,0.48854961832061067,-1.3282442748091603
5225512809463,0.70806,1,0.20470424194335937,1.7262193969726563,-11.048043560791015,-0.8396946564885496,0.5725190839694656,-1.366412213740458
5225519479359,0.714729896,1,0.22505495605468748,1.705868682861328,-11.201272467041015,-0.8091603053435115,0.5725190839694656,-1.3587786259541985
5225526145713,0.72139625,1,0.2609679809570312,1.7573440185546874,-11.174936248779296,-0.8091603053435115,0.5114503816793893,-1.3358778625954197
5225532811286,0.728061823,1,0.21906945190429686,1.7010802795410156,-11.167753643798827,-0.8244274809160306,0.5114503816793893,-1.3435114503816794
5225539480452,0.734730989,1,0.1927332336425781,1.7118541870117185,-11.186907257080078,-0.8778625954198473,0.6412213740458015,-1.3435114503816794
5225546145244,0.741395781,1,0.18435352783203124,1.7238251953125,-11.206060870361327,-0.7404580152671756,0.549618320610687,-1.3129770992366412
5225552811598,0.748062135,1,0.25258827514648435,1.7369933044433592,-11.13423482055664,-0.7633587786259542,0.5801526717557252,-1.2748091603053435
5225559478942,0.754729479,1,0.21428104858398436,1.7381904052734374,-11.195286962890624,-0.8244274809160306,0.6030534351145038,-1.297709923664122
5225566145609,0.761396146,1,0.16160861206054686,1.715445489501953,-11.21683477783203,-0.816793893129771,0.6030534351145038,-1.3893129770992367
5225572812484,0.768063021,1,0.21068974609375,1.725022296142578,-11.207257971191405,-0.8931297709923665,0.4732824427480916,-1.3740458015267176
5225579478213,0.77472875,1,0.19393033447265623,1.7262193969726563,-11.241973895263671,-0.8320610687022901,0.5114503816793893,-1.3511450381679388
5225586145192,0.781395729,1,0.22864625854492185,1.7381904052734374,-11.186907257080078,-0.8625954198473282,0.5801526717557252,-1.3435114503816794
5225592812171,0.788062708,1,0.21308394775390624,1.7393875061035156,-11.135431921386719,-0.7557251908396947,0.48091603053435117,-1.3206106870229009
5225599479255,0.794729792,1,0.22505495605468748,1.7094599853515624,-11.23000288696289,-0.9312977099236641,0.5801526717557252,-1.3740458015267176
5225606146286,0.801396823,1,0.239420166015625,1.7405846069335937,-11.197681164550781,-0.7633587786259542,0.5343511450381679,-1.2366412213740459
5225612818473,0.80806901,1,0.239420166015625,1.7286135986328124,-11.206060870361327,-0.7480916030534351,0.5648854961832062,-1.3206106870229009
5225619481598,0.814732135,1,0.2765302917480469,1.6938976745605467,-11.189301458740234,-0.8931297709923665,0.5801526717557252,-1.3511450381679388
5225626145348,0.821395885,1,0.26216508178710934,1.744175909423828,-11.19887826538086,-0.7099236641221374,0.6259541984732825,-1.3129770992366412
5225632812692,0.828063229,1,0.21308394775390624,1.7274164978027342,-11.21683477783203,-0.7557251908396947,0.5343511450381679,-1.3206106870229009
5225639479046,0.834729583,1,0.22864625854492185,1.7202338928222656,-11.168950744628905,-0.8015267175572519,0.5725190839694656,-1.3129770992366412
5225646145296,0.841395833,1,0.22864625854492185,1.7022773803710936,-11.171344946289063,-0.8396946564885496,0.5954198473282443,-1.3053435114503817
5225652812067,0.848062604,1,0.2693476867675781,1.7022773803710936,-11.136629022216797,-0.8473282442748091,0.549618320610687,-1.3511450381679388
5225659478786,0.854729323,1,0.2501940734863281,1.6986860778808592,-11.136629022216797,-0.8320610687022901,0.5572519083969466,-1.3053435114503817
5225666145765,0.861396302,1,0.23822306518554687,1.715445489501953,-11.232397088623046,-0.8320610687022901,0.5190839694656488,-1.3435114503816794
5225672812588,0.868063125,1,0.2741360900878906,1.7010802795410156,-11.196484063720703,-0.7938931297709924,0.5190839694656488,-1.2900763358778626
5225679478786,0.874729323,1,0.19393033447265623,1.7357962036132812,-11.196484063720703,-0.7251908396946565,0.5725190839694656,-1.2900763358778626
5225686146807,0.881397344,1,0.2166752502441406,1.7393875061035156,-11.200075366210937,-0.8702290076335878,0.5419847328244275,-1.3358778625954197
5225692812223,0.88806276,1,0.2454056701660156,1.70467158203125,-11.183315954589844,-0.7022900763358778,0.5190839694656488,-1.3053435114503817
5225699479463,0.89473,1,0.239420166015625,1.7262193969726563,-11.09592759399414,-0.732824427480916,0.549618320610687,-1.3282442748091603
5225706145921,0.901396458,1,0.2442085693359375,1.7465701110839842,-11.184513055419922,-0.7786259541984732,0.5725190839694656,-1.2900763358778626
5225712811546,0.908062083,1,0.19871873779296872,1.7357962036132812,-11.136629022216797,-0.8244274809160306,0.5877862595419847,-1.3511450381679388
5225719477900,0.914728437,1,0.2166752502441406,1.7226280944824217,-11.186907257080078,-0.8702290076335878,0.5343511450381679,-1.2748091603053435
5225726144932,0.921395469,1,0.23822306518554687,1.7214309936523438,-11.19887826538086,-0.8549618320610687,0.5801526717557252,-1.3129770992366412
5225732812119,0.928062656,1,0.21906945190429686,1.7465701110839842,-11.155782635498046,-0.7633587786259542,0.5267175572519084,-1.2900763358778626
5225739478421,0.934728958,1,0.24899697265624998,1.7322049011230467,-11.170147845458983,-0.8473282442748091,0.5267175572519084,-1.4198473282442747
5225746142900,0.941393437,1,0.24779987182617186,1.6891092712402342,-11.170147845458983,-0.8091603053435115,0.5572519083969466,-1.3129770992366412
5225752811598,0.948062135,1,0.2154781494140625,1.7585411193847655,-11.201272467041015,-0.8015267175572519,0.5725190839694656,-1.2595419847328244
5225759478734,0.954729271,1,0.22026655273437498,1.7298106994628906,-11.21683477783203,-0.8549618320610687,0.6106870229007634,-1.2290076335877862
5225766147015,0.961397552,1,0.16280571289062498,1.695094775390625,-11.1474029296875,-0.8091603053435115,0.5572519083969466,-1.282442748091603
5225772811963,0.9680625,1,0.2214636535644531,1.7214309936523438,-11.14022032470703,-0.732824427480916,0.5038167938931297,-1.3282442748091603
5225779479515,0.974730052,1,0.24660277099609373,1.705868682861328,-11.202469567871093,-0.8625954198473282,0.5801526717557252,-1.4198473282442747
5225786146442,0.981396979,1,0.2980781066894531,1.7178396911621092,-11.18571015625,-0.7786259541984732,0.6412213740458015,-1.3282442748091603
5225792813317,0.988063854,1,0.2980781066894531,1.7597382202148437,-11.150994232177734,-0.732824427480916,0.549618320610687,-1.2900763358778626
5225799479411,0.994729948,1,0.23702596435546874,1.7597382202148437,-11.164162341308593,-0.7404580152671756,0.6335877862595419,-1.3053435114503817
5225806146077,1.001396614,1,0.23582886352539062,1.7130512878417967,-11.164162341308593,-0.7557251908396947,0.6183206106870229,-1.3587786259541985
5225812812223,1.00806276,1,0.2166752502441406,1.714248388671875,-11.21683477783203,-0.7557251908396947,0.5648854961832062,-1.3435114503816794
5225819477744,1.014728281,1,0.17597382202148437,1.7788918334960937,-11.170147845458983,-0.7251908396946565,0.5648854961832062,-1.366412213740458
5225826146025,1.021396562,1,0.24779987182617186,1.697488977050781,-11.202469567871093,-0.8702290076335878,0.5343511450381679,-1.366412213740458
5225832812952,1.028063489,1,0.19871873779296872,1.7298106994628906,-11.179724652099608,-0.732824427480916,0.5190839694656488,-1.3282442748091603
5225839479515,1.034730052,1,0.19512743530273435,1.7465701110839842,-11.269507214355468,-0.8015267175572519,0.4961832061068702,-1.3587786259541985
5225846145765,1.041396302,1,0.229843359375,1.734599102783203,-11.232397088623046,-0.8778625954198473,0.5114503816793893,-1.3969465648854962
5225852811338,1.048061875,1,0.21188684692382811,1.7357962036132812,-11.184513055419922,-0.816793893129771,0.4961832061068702,-1.2900763358778626
5225859478838,1.054729375,1,0.21787235107421873,1.792059942626953,-11.192892761230468,-0.7251908396946565,0.6259541984732825,-1.2900763358778626
5225866145088,1.061395625,1,0.2549824768066406,1.7501614135742187,-11.204863769531249,-0.8015267175572519,0.5038167938931297,-1.3358778625954197
5225872812588,1.068063125,1,0.24301146850585936,1.7286135986328124,-11.23718549194336,-0.8015267175572519,0.5343511450381679,-1.297709923664122
5225879478629,1.074729166,1,0.24899697265624998,1.725022296142578,-11.128249316406249,-0.8244274809160306,0.5648854961832062,-1.2748091603053435
5225886145609,1.081396146,1,0.23822306518554687,1.725022296142578,-11.2240173828125,-0.8778625954198473,0.6106870229007634,-1.3511450381679388
5225892812275,1.088062812,1,0.22505495605468748,1.70467158203125,-11.177330450439452,-0.732824427480916,0.549618320610687,-1.3587786259541985
5225899478577,1.094729114,1,0.18076222534179687,1.7429788085937499,-11.208455072021483,-0.8015267175572519,0.5343511450381679,-1.3206106870229009
5225906144671,1.101395208,1,0.23702596435546874,1.725022296142578,-11.19887826538086,-0.8396946564885496,0.549618320610687,-1.3511450381679388
5225912812327,1.108062864,1,0.2753331909179687,1.753752716064453,-11.2240173828125,-0.7404580152671756,0.5038167938931297,-1.4122137404580153
5225919478473,1.11472901,1,0.21068974609375,1.6843208679199217,-11.208455072021483,-0.8244274809160306,0.5801526717557252,-1.3282442748091603
5225926146129,1.121396666,1,0.24181436767578124,1.7357962036132812,-11.208455072021483,-0.816793893129771,0.6335877862595419,-1.381679389312977
5225932812952,1.128063489,1,0.24181436767578124,1.6927005737304686,-11.196484063720703,-0.7480916030534351,0.5648854961832062,-1.3206106870229009
5225939478577,1.134729114,1,0.24181436767578124,1.6927005737304686,-11.288660827636718,-0.8244274809160306,0.5267175572519084,-1.3129770992366412
5225946145036,1.141395573,1,0.2442085693359375,1.7262193969726563,-11.288660827636718,-0.9007633587786259,0.5725190839694656,-1.366412213740458
5225952812692,1.148063229,1,0.22505495605468748,1.7357962036132812,-11.258733306884764,-0.9007633587786259,0.5648854961832062,-1.3358778625954197
5225959478838,1.154729375,1,0.20709844360351562,1.7357962036132812,-11.188104357910156,-0.8320610687022901,0.5648854961832062,-1.366412213740458
5225966145452,1.161395989,1,0.20709844360351562,1.6938976745605467,-11.208455072021483,-0.8244274809160306,0.5725190839694656,-1.366412213740458
5225972812171,1.168062708,1,0.21188684692382811,1.6998831787109374,-11.245565197753905,-0.8702290076335878,0.6183206106870229,-1.282442748091603
5225979478629,1.174729166,1,0.22505495605468748,1.7429788085937499,-11.117475408935546,-0.8396946564885496,0.549618320610687,-1.4427480916030535
5225986153213,1.18140375,1,0.1927332336425781,1.7417817077636717,-11.21683477783203,-0.8854961832061069,0.5267175572519084,-1.3358778625954197
5225992814098,1.188064635,1,0.2442085693359375,1.7166425903320313,-11.128249316406249,-0.8015267175572519,0.6412213740458015,-1.381679389312977
5225999478109,1.194728646,1,0.18914193115234373,1.7573440185546874,-11.245565197753905,-0.8015267175572519,0.5725190839694656,-1.3282442748091603
5226006143421,1.201393958,1,0.23702596435546874,1.70467158203125,-11.089942089843749,-0.9389312977099237,0.5954198473282443,-1.2748091603053435
5226012821181,1.208071718,1,0.19393033447265623,1.7393875061035156,-11.21084927368164,-0.8702290076335878,0.6335877862595419,-1.3129770992366412
5226019477588,1.214728125,1,0.229843359375,1.714248388671875,-11.135431921386719,-0.7404580152671756,0.5801526717557252,-1.3053435114503817
5226026146702,1.221397239,1,0.258573779296875,1.7082628845214842,-11.194089862060546,-0.8702290076335878,0.5572519083969466,-1.251908396946565
5226032812275,1.228062812,1,0.18435352783203124,1.7286135986328124,-11.234791290283203,-0.7175572519083969,0.5725190839694656,-1.3511450381679388
5226039478265,1.234728802,1,0.24660277099609373,1.7202338928222656,-11.262324609375,-0.7557251908396947,0.5877862595419847,-1.3511450381679388
5226046144723,1.24139526,1,0.25139117431640623,1.7334020019531249,-11.188104357910156,-0.8244274809160306,0.6564885496183206,-1.251908396946565
5226052812275,1.248062812,1,0.20709844360351562,1.7238251953125,-11.170147845458983,-0.8931297709923665,0.6641221374045801,-1.3053435114503817
5226059478994,1.254729531,1,0.1975216369628906,1.7190367919921874,-11.142614526367186,-0.7633587786259542,0.4961832061068702,-1.3358778625954197
5226066280036,1.261530573,1,0.2214636535644531,1.7501614135742187,-11.180921752929686,-0.8854961832061069,0.5725190839694656,-1.3129770992366412
5226072814098,1.268064635,1,0.21787235107421873,1.7609353210449217,-11.245565197753905,-0.8396946564885496,0.48854961832061067,-1.297709923664122
5226079479202,1.274729739,1,0.21787235107421873,1.7753005310058592,-11.152191333007812,-0.7938931297709924,0.5877862595419847,-1.366412213740458
5226086146650,1.281397187,1,0.21787235107421873,1.7753005310058592,-11.174936248779296,-0.8778625954198473,0.648854961832061,-1.2671755725190839
5226092811911,1.288062448,1,0.21787235107421873,1.7274164978027342,-11.174936248779296,-0.732824427480916,0.648854961832061,-1.282442748091603
5226099478525,1.294729062,1,0.21068974609375,1.7178396911621092,-11.131840618896483,-0.732824427480916,0.5648854961832062,-1.2900763358778626
5226106145609,1.301396146,1,0.2657563842773437,1.7274164978027342,-11.184513055419922,-0.8320610687022901,0.5648854961832062,-1.213740458015267
5226112812484,1.308063021,1,0.20231004028320312,1.7010802795410156,-11.231199987792968,-0.8091603053435115,0.5954198473282443,-1.213740458015267
5226119478786,1.314729323,1,0.258573779296875,1.715445489501953,-11.200075366210937,-0.7480916030534351,0.5343511450381679,-1.2748091603053435
5226126145192,1.321395729,1,0.22744915771484372,1.7214309936523438,-11.186907257080078,-0.8778625954198473,0.5725190839694656,-1.2900763358778626
5226132812223,1.32806276,1,0.2561795776367187,1.7417817077636717,-11.197681164550781,-0.8473282442748091,0.6564885496183206,-1.297709923664122
5226139478577,1.334729114,1,0.2214636535644531,1.7166425903320313,-11.17852755126953,-0.8015267175572519,0.5419847328244275,-1.3282442748091603
5226146145713,1.34139625,1,0.21787235107421873,1.734599102783203,-11.171344946289063,-0.7480916030534351,0.5877862595419847,-1.3206106870229009
5226152812327,1.348062864,1,0.15442600708007811,1.7717092285156248,-11.155782635498046,-0.8015267175572519,0.6335877862595419,-1.297709923664122
5226159479046,1.354729583,1,0.2059013427734375,1.7106570861816406,-11.206060870361327,-0.7557251908396947,0.5954198473282443,-1.3740458015267176
5226166144931,1.361395468,1,0.18555062866210936,1.686715069580078,-11.155782635498046,-0.7633587786259542,0.5419847328244275,-1.381679389312977
5226172812692,1.368063229,1,0.2657563842773437,1.7010802795410156,-11.256339105224608,-0.8549618320610687,0.6106870229007634,-1.3206106870229009
5226179480556,1.374731093,1,0.2262520568847656,1.7106570861816406,-11.195286962890624,-0.816793893129771,0.5572519083969466,-1.3511450381679388
5226186145036,1.381395573,1,0.19871873779296872,1.7417817077636717,-11.209652172851563,-0.8244274809160306,0.6717557251908397,-1.3587786259541985
5226192812015,1.388062552,1,0.23343466186523437,1.7369933044433592,-11.204863769531249,-0.8549618320610687,0.5648854961832062,-1.3511450381679388
5226199478629,1.394729166,1,0.19512743530273435,1.7238251953125,-11.188104357910156,-0.7862595419847328,0.5114503816793893,-1.366412213740458
5226206145504,1.401396041,1,0.19991583862304688,1.6675614562988281,-11.155782635498046,-0.8396946564885496,0.5419847328244275,-1.3129770992366412
5226212812848,1.408063385,1,0.24301146850585936,1.696291876220703,-11.17852755126953,-0.8015267175572519,0.5419847328244275,-1.2748091603053435
5226219479046,1.414729583,1,0.24301146850585936,1.7274164978027342,-11.180921752929686,-0.7099236641221374,0.42748091603053434,-1.3206106870229009
5226226145817,1.421396354,1,0.23104046020507812,1.7274164978027342,-11.232397088623046,-0.8091603053435115,0.5343511450381679,-1.213740458015267
5226232812275,1.428062812,1,0.21068974609375,1.7322049011230467,-11.232397088623046,-0.7862595419847328,0.6030534351145038,-1.3282442748091603
5226239478108,1.434728645,1,0.28730419921875,1.7022773803710936,-11.12226381225586,-0.7862595419847328,0.6259541984732825,-1.2748091603053435
5226246145817,1.441396354,1,0.22026655273437498,1.715445489501953,-11.204863769531249,-0.7633587786259542,0.6259541984732825,-1.213740458015267
5226252812692,1.448063229,1,0.201112939453125,1.7693150268554687,-11.167753643798827,-0.8778625954198473,0.5954198473282443,-1.213740458015267
5226259476650,1.454727187,1,0.25258827514648435,1.7429788085937499,-11.174936248779296,-0.8625954198473282,0.5648854961832062,-1.297709923664122
5226266146025,1.461396562,1,0.2059013427734375,1.725022296142578,-11.218031878662108,-0.7862595419847328,0.549618320610687,-1.2671755725190839
5226272812067,1.468062604,1,0.21068974609375,1.7609353210449217,-11.143811627197264,-0.8549618320610687,0.6412213740458015,-1.3511450381679388
5226279479202,1.474729739,1,0.25139117431640623,1.697488977050781,-11.136629022216797,-0.7633587786259542,0.6412213740458015,-1.2748091603053435
5226286146025,1.481396562,1,0.2442085693359375,1.7034744812011717,-11.188104357910156,-0.8396946564885496,0.5572519083969466,-1.2748091603053435
5226292811963,1.4880625,1,0.29448680419921874,1.763329522705078,-11.155782635498046,-0.7862595419847328,0.5725190839694656,-1.3435114503816794
5226299478733,1.49472927,1,0.2166752502441406,1.734599102783203,-11.152191333007812,-0.7557251908396947,0.5419847328244275,-1.3587786259541985
5226306148213,1.50139875,1,0.19153613281249998,1.7106570861816406,-11.21683477783203,-0.816793893129771,0.5419847328244275,-1.3053435114503817
5226312812431,1.508062968,1,0.23223756103515625,1.7238251953125,-11.19887826538086,-0.8473282442748091,0.5877862595419847,-1.3435114503816794
5226319478369,1.514728906,1,0.19512743530273435,1.7262193969726563,-11.195286962890624,-0.7099236641221374,0.5877862595419847,-1.282442748091603
5226326146129,1.521396666,1,0.24660277099609373,1.7334020019531249,-11.228805786132812,-0.7633587786259542,0.5114503816793893,-1.282442748091603
5226332811025,1.528061562,1,0.21068974609375,1.7561469177246092,-11.129446417236327,-0.8244274809160306,0.5572519083969466,-1.282442748091603
5226339480036,1.534730573,1,0.24181436767578124,1.7453730102539062,-11.220426080322264,-0.7404580152671756,0.5267175572519084,-1.3587786259541985
5226346145921,1.541396458,1,0.22505495605468748,1.7561469177246092,-11.196484063720703,-0.7938931297709924,0.5572519083969466,-1.2900763358778626
5226352811963,1.5480625,1,0.23582886352539062,1.6843208679199217,-11.171344946289063,-0.8549618320610687,0.549618320610687,-1.3969465648854962
5226359485504,1.554736041,1,0.20829554443359374,1.7274164978027342,-11.184513055419922,-0.8015267175572519,0.5801526717557252,-1.2595419847328244
5226366148421,1.561398958,1,0.20829554443359374,1.7190367919921874,-11.146205828857422,-0.7633587786259542,0.5267175572519084,-1.3435114503816794
5226372812067,1.568062604,1,0.19871873779296872,1.7190367919921874,-11.079168182373046,-0.7938931297709924,0.6183206106870229,-1.3587786259541985
5226379479202,1.574729739,1,0.20829554443359374,1.7010802795410156,-11.232397088623046,-0.8091603053435115,0.6412213740458015,-1.3587786259541985
5226386145713,1.58139625,1,0.25258827514648435,1.763329522705078,-11.14022032470703,-0.8091603053435115,0.5648854961832062,-1.3893129770992367
5226392811650,1.588062187,1,0.20350714111328125,1.7094599853515624,-11.208455072021483,-0.7557251908396947,0.5648854961832062,-1.3053435114503817
5226399479306,1.594729843,1,0.2154781494140625,1.7417817077636717,-11.158176837158203,-0.9007633587786259,0.6030534351145038,-1.3053435114503817
5226406145973,1.60139651,1,0.24061726684570311,1.6831237670898436,-11.257536206054686,-0.7633587786259542,0.48091603053435117,-1.2748091603053435
5226412811598,1.608062135,1,0.2813186950683594,1.7214309936523438,-11.231199987792968,-0.8396946564885496,0.5267175572519084,-1.3435114503816794
5226419478890,1.614729427,1,0.2166752502441406,1.7405846069335937,-11.196484063720703,-0.7862595419847328,0.5725190839694656,-1.297709923664122
5226426145244,1.621395781,1,0.21068974609375,1.714248388671875,-11.212046374511718,-0.8625954198473282,0.5725190839694656,-1.2671755725190839
5226432812015,1.628062552,1,0.21906945190429686,1.70467158203125,-11.186907257080078,-0.8396946564885496,0.5343511450381679,-1.3282442748091603
5226439479254,1.634729791,1,0.2166752502441406,1.7525556152343749,-11.202469567871093,-0.8320610687022901,0.6030534351145038,-1.381679389312977
5226446146285,1.641396822,1,0.1879448303222656,1.7190367919921874,-11.195286962890624,-0.8625954198473282,0.5114503816793893,-1.2595419847328244
5226452810973,1.64806151,1,0.19991583862304688,1.7010802795410156,-11.23000288696289,-0.8244274809160306,0.549618320610687,-1.2748091603053435
5226459478473,1.65472901,1,0.16879121704101563,1.7585411193847655,-11.149797131347656,-0.8091603053435115,0.6564885496183206,-1.3511450381679388
5226466146338,1.661396875,1,0.26216508178710934,1.6903063720703124,-11.200075366210937,-0.9007633587786259,0.5877862595419847,-1.3282442748091603
5226472811963,1.6680625,1,0.2154781494140625,1.7238251953125,-11.167753643798827,-0.8625954198473282,0.6030534351145038,-1.3206106870229009
5226479478317,1.674728854,1,0.27174188842773433,1.707065783691406,-11.232397088623046,-0.8396946564885496,0.5038167938931297,-1.3206106870229009
5226486145140,1.681395677,1,0.22505495605468748,1.7082628845214842,-11.208455072021483,-0.7557251908396947,0.5343511450381679,-1.3511450381679388
5226492813108,1.688063645,1,0.18315642700195311,1.7166425903320313,-11.206060870361327,-0.8931297709923665,0.6412213740458015,-1.3511450381679388
5226499479931,1.694730468,1,0.21906945190429686,1.725022296142578,-11.197681164550781,-0.7251908396946565,0.5801526717557252,-1.3282442748091603
5226506142900,1.701393437,1,0.21906945190429686,1.7681179260253905,-11.125855114746093,-0.8320610687022901,0.5572519083969466,-1.251908396946565
5226512811963,1.7080625,1,0.21188684692382811,1.7681179260253905,-11.197681164550781,-0.8931297709923665,0.5877862595419847,-1.4122137404580153
5226519479515,1.714730052,1,0.23223756103515625,1.7681179260253905,-11.197681164550781,-0.8091603053435115,0.5419847328244275,-1.4122137404580153
5226526145400,1.721395937,1,0.2549824768066406,1.7800889343261719,-11.16057103881836,-0.8091603053435115,0.5114503816793893,-1.282442748091603
5226532812223,1.72806276,1,0.19153613281249998,1.725022296142578,-11.124658013916015,-0.7786259541984732,0.5114503816793893,-1.297709923664122
5226539478160,1.734728697,1,0.2346317626953125,1.753752716064453,-11.251550701904296,-0.8473282442748091,0.6717557251908397,-1.297709923664122
5226546144827,1.741395364,1,0.229843359375,1.744175909423828,-11.19169566040039,-0.8091603053435115,0.5419847328244275,-1.2748091603053435
5226552811442,1.748061979,1,0.24061726684570311,1.707065783691406,-11.196484063720703,-0.8396946564885496,0.48854961832061067,-1.3053435114503817
5226559477379,1.754727916,1,0.181959326171875,1.7298106994628906,-11.162965240478515,-0.8549618320610687,0.5267175572519084,-1.2671755725190839
5226566146233,1.76139677,1,0.2442085693359375,1.7166425903320313,-11.081562384033202,-0.7480916030534351,0.5801526717557252,-1.3206106870229009
5226572811494,1.768062031,1,0.2549824768066406,1.7429788085937499,-11.289857928466796,-0.8625954198473282,0.5267175572519084,-1.3206106870229009
5226579478733,1.77472927,1,0.18435352783203124,1.7286135986328124,-11.158176837158203,-0.8473282442748091,0.6412213740458015,-1.2595419847328244
5226586145921,1.781396458,1,0.23104046020507812,1.7322049011230467,-11.218031878662108,-0.7557251908396947,0.5038167938931297,-1.3053435114503817
5226592812119,1.788062656,1,0.24061726684570311,1.7669208251953124,-11.133037719726563,-0.816793893129771,0.5419847328244275,-1.3893129770992367
5226599479306,1.794729843,1,0.23223756103515625,1.7214309936523438,-11.219228979492186,-0.8320610687022901,0.6183206106870229,-1.297709923664122
5226606145765,1.801396302,1,0.25139117431640623,1.6627730529785156,-11.165359442138671,-0.7251908396946565,0.4351145038167939,-1.3053435114503817
5226612812015,1.808062552,1,0.20709844360351562,1.7381904052734374,-11.188104357910156,-0.8320610687022901,0.5267175572519084,-1.282442748091603
5226619479046,1.814729583,1,0.20231004028320312,1.7010802795410156,-11.24915650024414,-0.8244274809160306,0.5725190839694656,-1.2748091603053435
5226626145608,1.821396145,1,0.2059013427734375,1.725022296142578,-11.159373937988281,-0.8244274809160306,0.44274809160305345,-1.297709923664122
5226632811910,1.828062447,1,0.24899697265624998,1.7645266235351562,-11.165359442138671,-0.7709923664122137,0.4961832061068702,-1.297709923664122
5226639478681,1.834729218,1,0.20470424194335937,1.7298106994628906,-11.17254204711914,-0.8396946564885496,0.5114503816793893,-1.3511450381679388
5226646146181,1.841396718,1,0.28371289672851563,1.7214309936523438,-11.12226381225586,-0.7633587786259542,0.4732824427480916,-1.4198473282442747
5226652812535,1.848063072,1,0.28371289672851563,1.6891092712402342,-11.173739147949219,-0.8015267175572519,0.5648854961832062,-1.366412213740458
5226659479358,1.854729895,1,0.2597708801269531,1.6891092712402342,-11.13423482055664,-0.8854961832061069,0.5801526717557252,-1.381679389312977
5226666144983,1.86139552,1,0.19991583862304688,1.7274164978027342,-11.13423482055664,-0.8473282442748091,0.5801526717557252,-1.3969465648854962
5226672812327,1.868062864,1,0.229843359375,1.7298106994628906,-11.218031878662108,-0.8473282442748091,0.5572519083969466,-1.282442748091603
5226679478785,1.874729322,1,0.2346317626953125,1.763329522705078,-11.215637677001952,-0.8549618320610687,0.5572519083969466,-1.282442748091603
5226686145035,1.881395572,1,0.21068974609375,1.7034744812011717,-11.143811627197264,-0.7633587786259542,0.5877862595419847,-1.282442748091603
5226692812483,1.88806302,1,0.21428104858398436,1.6986860778808592,-11.234791290283203,-0.8244274809160306,0.5190839694656488,-1.297709923664122
5226699479046,1.894729583,1,0.23104046020507812,1.7118541870117185,-11.225214483642578,-0.8396946564885496,0.6564885496183206,-1.366412213740458
5226706145140,1.901395677,1,0.2454056701660156,1.7597382202148437,-11.18571015625,-0.7786259541984732,0.549618320610687,-1.3206106870229009
5226712811962,1.908062499,1,0.2346317626953125,1.7525556152343749,-11.188104357910156,-0.7633587786259542,0.5648854961832062,-1.3511450381679388
5226719478056,1.914728593,1,0.27174188842773433,1.7238251953125,-11.182118853759764,-0.8549618320610687,0.5801526717557252,-1.3435114503816794
5226726145921,1.921396458,1,0.2262520568847656,1.7381904052734374,-11.176133349609374,-0.8396946564885496,0.5267175572519084,-1.3435114503816794
5226732817483,1.92806802,1,0.23223756103515625,1.7310078002929687,-11.19169566040039,-0.7175572519083969,0.5954198473282443,-1.251908396946565
5226739481077,1.934731614,1,0.21428104858398436,1.6998831787109374,-11.165359442138671,-0.8625954198473282,0.5954198473282443,-1.251908396946565
5226746144827,1.941395364,1,0.22266075439453123,1.714248388671875,-11.127052215576171,-0.8625954198473282,0.5572519083969466,-1.3206106870229009
5226752810296,1.948060833,1,0.2214636535644531,1.7645266235351562,-11.143811627197264,-0.8091603053435115,0.5267175572519084,-1.2671755725190839
5226759476910,1.954727447,1,0.20231004028320312,1.7334020019531249,-11.189301458740234,-0.8931297709923665,0.7022900763358778,-1.3282442748091603
5226766145244,1.961395781,1,0.27293898925781246,1.744175909423828,-11.183315954589844,-0.7862595419847328,0.5114503816793893,-1.3282442748091603
5226772812015,1.968062552,1,0.24061726684570311,1.7681179260253905,-11.21683477783203,-0.8244274809160306,0.48854961832061067,-1.3129770992366412
5226779478421,1.974728958,1,0.2346317626953125,1.6998831787109374,-11.162965240478515,-0.8320610687022901,0.6106870229007634,-1.282442748091603
5226786145608,1.981396145,1,0.28490999755859375,1.7525556152343749,-11.182118853759764,-0.732824427480916,0.5725190839694656,-1.3053435114503817
5226792812014,1.988062551,1,0.28490999755859375,1.7621324218749999,-11.183315954589844,-0.7633587786259542,0.4732824427480916,-1.2900763358778626
5226799478212,1.994728749,1,0.25258827514648435,1.7621324218749999,-11.231199987792968,-0.8473282442748091,0.5343511450381679,-1.2900763358778626
5226806144827,2.001395364,1,0.201112939453125,1.7621324218749999,-11.231199987792968,-0.7709923664122137,0.48854961832061067,-1.3358778625954197
5226812811546,2.008062083,1,0.2346317626953125,1.7645266235351562,-11.152191333007812,-0.7709923664122137,0.4961832061068702,-1.3129770992366412
5226819480556,2.014731093,1,0.25139117431640623,1.7465701110839842,-11.131840618896483,-0.7862595419847328,0.4961832061068702,-1.3206106870229009
5226826143004,2.021393541,1,0.22266075439453123,1.7477672119140624,-11.206060870361327,-0.7862595419847328,0.648854961832061,-1.3206106870229009
5226832812587,2.028063124,1,0.25258827514648435,1.7741034301757812,-11.219228979492186,-0.7786259541984732,0.6335877862595419,-1.3206106870229009
5226839478785,2.034729322,1,0.2549824768066406,1.7477672119140624,-11.245565197753905,-0.8320610687022901,0.6106870229007634,-1.2900763358778626
5226846145244,2.041395781,1,0.25139117431640623,1.7082628845214842,-11.176133349609374,-0.8320610687022901,0.6564885496183206,-1.251908396946565
5226852811754,2.048062291,1,0.2154781494140625,1.7872715393066405,-11.194089862060546,-0.9007633587786259,0.5954198473282443,-1.213740458015267
5226859479358,2.054729895,1,0.24181436767578124,1.7226280944824217,-11.141417425537108,-0.8473282442748091,0.5648854961832062,-1.2442748091603053
5226866150452,2.061400989,1,0.23582886352539062,1.7310078002929687,-11.182118853759764,-0.8396946564885496,0.5954198473282443,-1.297709923664122
5226872813785,2.068064322,1,0.201112939453125,1.7429788085937499,-11.15338843383789,-0.7786259541984732,0.48854961832061067,-1.3206106870229009
5226879478889,2.074729426,1,0.20949264526367187,1.7190367919921874,-11.192892761230468,-0.8244274809160306,0.5648854961832062,-1.3129770992366412
5226886146285,2.081396822,1,0.20709844360351562,1.7214309936523438,-11.221623181152344,-0.8473282442748091,0.6259541984732825,-1.3511450381679388
5226892811025,2.088061562,1,0.19153613281249998,1.686715069580078,-11.218031878662108,-0.7633587786259542,0.549618320610687,-1.3435114503816794
5226899479046,2.094729583,1,0.20949264526367187,1.7310078002929687,-11.17254204711914,-0.8244274809160306,0.5572519083969466,-1.3053435114503817
5226906144723,2.10139526,1,0.296881005859375,1.714248388671875,-11.197681164550781,-0.8015267175572519,0.5725190839694656,-1.3358778625954197
5226912812327,2.108062864,1,0.21906945190429686,1.7357962036132812,-11.14022032470703,-0.7862595419847328,0.5114503816793893,-1.3129770992366412
5226919478369,2.114728906,1,0.20949264526367187,1.7489643127441405,-11.195286962890624,-0.8091603053435115,0.648854961832061,-1.4122137404580153
5226926145712,2.121396249,1,0.21906945190429686,1.7010802795410156,-11.201272467041015,-0.8396946564885496,0.6412213740458015,-1.3282442748091603
5226932812431,2.128062968,1,0.22385785522460935,1.7226280944824217,-11.220426080322264,-0.7862595419847328,0.5725190839694656,-1.282442748091603
5226939478369,2.134728906,1,0.22385785522460935,1.7334020019531249,-11.182118853759764,-0.9312977099236641,0.5648854961832062,-1.381679389312977
5226946145712,2.141396249,1,0.20470424194335937,1.7334020019531249,-11.148600030517578,-0.816793893129771,0.6106870229007634,-1.282442748091603
5226952812587,2.148063124,1,0.23343466186523437,1.7501614135742187,-11.148600030517578,-0.7709923664122137,0.44274809160305345,-1.297709923664122
5226959479046,2.154729583,1,0.22266075439453123,1.7322049011230467,-11.245565197753905,-0.7709923664122137,0.6259541984732825,-1.3358778625954197
5226966144723,2.16139526,1,0.19991583862304688,1.7381904052734374,-11.234791290283203,-0.8244274809160306,0.6259541984732825,-1.3206106870229009
5226972811806,2.168062343,1,0.26216508178710934,1.7010802795410156,-11.174936248779296,-0.7709923664122137,0.549618320610687,-1.3206106870229009
5226979479046,2.174729583,1,0.21906945190429686,1.7262193969726563,-11.208455072021483,-0.7633587786259542,0.549618320610687,-1.3206106870229009
5226986144931,2.181395468,1,0.2609679809570312,1.7489643127441405,-11.168950744628905,-0.9007633587786259,0.6335877862595419,-1.381679389312977
5226992811962,2.188062499,1,0.2549824768066406,1.7262193969726563,-11.17852755126953,-0.8015267175572519,0.6183206106870229,-1.3206106870229009
5226999478212,2.194728749,1,0.21308394775390624,1.70467158203125,-11.150994232177734,-0.7480916030534351,0.5419847328244275,-1.2748091603053435
5227006147066,2.201397603,1,0.21308394775390624,1.7238251953125,-11.197681164550781,-0.8396946564885496,0.5725190839694656,-1.3206106870229009
5227012811598,2.208062135,1,0.22266075439453123,1.7022773803710936,-11.186907257080078,-0.8473282442748091,0.5190839694656488,-1.3206106870229009
5227019478629,2.214729166,1,0.2166752502441406,1.734599102783203,-11.159373937988281,-0.8091603053435115,0.4732824427480916,-1.2213740458015268
5227026145087,2.221395624,1,0.21428104858398436,1.734599102783203,-11.15338843383789,-0.9312977099236641,0.5877862595419847,-1.4045801526717556
5227032812119,2.228062656,1,0.19991583862304688,1.7429788085937499,-11.150994232177734,-0.8854961832061069,0.5648854961832062,-1.3740458015267176
5227039477587,2.234728124,1,0.20350714111328125,1.7202338928222656,-11.234791290283203,-0.8931297709923665,0.5725190839694656,-1.3282442748091603
5227046146598,2.241397135,1,0.2501940734863281,1.7645266235351562,-11.116278308105468,-0.8778625954198473,0.5114503816793893,-1.297709923664122
5227052812066,2.248062603,1,0.22385785522460935,1.7417817077636717,-11.1474029296875,-0.7862595419847328,0.5343511450381679,-1.3206106870229009
5227059477848,2.254728385,1,0.22864625854492185,1.7262193969726563,-11.204863769531249,-0.8396946564885496,0.5572519083969466,-1.3282442748091603
5227066145296,2.261395833,1,0.2501940734863281,1.7357962036132812,-11.196484063720703,-0.7786259541984732,0.6259541984732825,-1.3053435114503817
5227072811858,2.268062395,1,0.19991583862304688,1.725022296142578,-11.139023223876952,-0.7022900763358778,0.6335877862595419,-1.366412213740458
5227079479671,2.274730208,1,0.19991583862304688,1.7405846069335937,-11.189301458740234,-0.8625954198473282,0.5725190839694656,-1.3282442748091603
5227086145452,2.281395989,1,0.19512743530273435,1.7405846069335937,-11.239579693603515,-0.816793893129771,0.549618320610687,-1.3129770992366412
5227092811181,2.288061718,1,0.29089550170898437,1.7357962036132812,-11.239579693603515,-0.7404580152671756,0.5267175572519084,-1.297709923664122
5227099478889,2.294729426,1,0.20829554443359374,1.7190367919921874,-11.130643518066405,-0.7404580152671756,0.5419847328244275,-1.2748091603053435
5227106145764,2.301396301,1,0.2549824768066406,1.7226280944824217,-11.183315954589844,-0.8320610687022901,0.5419847328244275,-1.297709923664122
5227112811546,2.308062083,1,0.2346317626953125,1.7417817077636717,-11.123460913085937,-0.8854961832061069,0.6183206106870229,-1.297709923664122
5227119478369,2.314728906,1,0.2214636535644531,1.7274164978027342,-11.192892761230468,-0.7633587786259542,0.5267175572519084,-1.2442748091603053
5227126145035,2.321395572,1,0.22385785522460935,1.7573440185546874,-11.243170996093749,-0.8015267175572519,0.6030534351145038,-1.3435114503816794
5227132811494,2.328062031,1,0.2166752502441406,1.7405846069335937,-11.194089862060546,-0.7862595419847328,0.6564885496183206,-1.3282442748091603
5227139479671,2.334730208,1,0.24181436767578124,1.7298106994628906,-11.251550701904296,-0.7099236641221374,0.5648854961832062,-1.3435114503816794
5227146145712,2.341396249,1,0.23822306518554687,1.7405846069335937,-11.08395658569336,-0.7938931297709924,0.5190839694656488,-1.3282442748091603
5227152812796,2.348063333,1,0.23343466186523437,1.7298106994628906,-11.088744989013671,-0.8396946564885496,0.5648854961832062,-1.381679389312977
5227159478941,2.354729478,1,0.277727392578125,1.7130512878417967,-11.168950744628905,-0.816793893129771,0.549618320610687,-1.381679389312977
5227166145869,2.361396406,1,0.21906945190429686,1.7585411193847655,-11.214440576171874,-0.8396946564885496,0.5419847328244275,-1.3358778625954197
5227172811702,2.368062239,1,0.20949264526367187,1.7322049011230467,-11.219228979492186,-0.7938931297709924,0.5877862595419847,-1.3435114503816794
5227179478369,2.374728906,1,0.22505495605468748,1.6915034729003906,-11.176133349609374,-0.8244274809160306,0.4732824427480916,-1.366412213740458
5227186144983,2.38139552,1,0.2442085693359375,1.7429788085937499,-11.228805786132812,-0.7938931297709924,0.5190839694656488,-1.3206106870229009
5227192811598,2.388062135,1,0.25258827514648435,1.7501614135742187,-11.208455072021483,-0.8625954198473282,0.6030534351145038,-1.3587786259541985
5227199478837,2.394729374,1,0.2166752502441406,1.715445489501953,-11.14022032470703,-0.816793893129771,0.46564885496183206,-1.3053435114503817
5227206146077,2.401396614,1,0.18315642700195311,1.7310078002929687,-11.194089862060546,-0.8396946564885496,0.6259541984732825,-1.2595419847328244
5227212811546,2.408062083,1,0.24301146850585936,1.725022296142578,-11.251550701904296,-0.7480916030534351,0.6259541984732825,-1.3893129770992367
5227219478264,2.414728801,1,0.19632453613281248,1.7214309936523438,-11.186907257080078,-0.8244274809160306,0.46564885496183206,-1.3740458015267176
5227226145035,2.421395572,1,0.19632453613281248,1.687912170410156,-11.148600030517578,-0.8320610687022901,0.5038167938931297,-1.3206106870229009
5227232812066,2.428062603,1,0.16519991455078123,1.687912170410156,-11.082759484863281,-0.7786259541984732,0.5572519083969466,-1.366412213740458
5227239479150,2.434729687,1,0.2262520568847656,1.707065783691406,-11.235988391113281,-0.7633587786259542,0.5343511450381679,-1.3129770992366412
5227246151389,2.441401926,1,0.21428104858398436,1.7381904052734374,-11.253944903564452,-0.7633587786259542,0.5419847328244275,-1.4198473282442747
5227252813785,2.448064322,1,0.2501940734863281,1.7118541870117185,-11.201272467041015,-0.9007633587786259,0.5419847328244275,-1.3282442748091603
5227259478993,2.45472953,1,0.21308394775390624,1.7334020019531249,-11.129446417236327,-0.816793893129771,0.5343511450381679,-1.3282442748091603
5227266145296,2.461395833,1,0.23822306518554687,1.7274164978027342,-11.206060870361327,-0.8091603053435115,0.6412213740458015,-1.3053435114503817
5227272811858,2.468062395,1,0.258573779296875,1.7226280944824217,-11.161768139648437,-0.8778625954198473,0.5648854961832062,-1.297709923664122
5227279478577,2.474729114,1,0.18435352783203124,1.7106570861816406,-11.190498559570312,-0.732824427480916,0.5572519083969466,-1.297709923664122
5227286144931,2.481395468,1,0.22026655273437498,1.7477672119140624,-11.149797131347656,-0.7557251908396947,0.5419847328244275,-1.3435114503816794
5227292811650,2.488062187,1,0.20350714111328125,1.7166425903320313,-11.202469567871093,-0.8015267175572519,0.6641221374045801,-1.3206106870229009
5227299479931,2.494730468,1,0.25139117431640623,1.7094599853515624,-11.168950744628905,-0.7480916030534351,0.5572519083969466,-1.3740458015267176
5227306145296,2.501395833,1,0.23822306518554687,1.7489643127441405,-11.204863769531249,-0.8702290076335878,0.5801526717557252,-1.3206106870229009
5227312812431,2.508062968,1,0.20829554443359374,1.7178396911621092,-11.207257971191405,-0.8854961832061069,0.5572519083969466,-1.366412213740458
5227319478993,2.51472953,1,0.229843359375,1.7130512878417967,-11.180921752929686,-0.7022900763358778,0.5648854961832062,-1.3511450381679388
5227326143525,2.521394062,1,0.2657563842773437,1.7130512878417967,-11.184513055419922,-0.8778625954198473,0.549618320610687,-1.297709923664122
5227332812327,2.528062864,1,0.1867477294921875,1.7501614135742187,-11.220426080322264,-0.8320610687022901,0.5801526717557252,-1.3053435114503817
5227339478629,2.534729166,1,0.1975216369628906,1.7465701110839842,-11.150994232177734,-0.7480916030534351,0.5038167938931297,-1.3358778625954197
5227346145452,2.541395989,1,0.19632453613281248,1.7094599853515624,-11.159373937988281,-0.8015267175572519,0.6259541984732825,-1.297709923664122
5227352812431,2.548062968,1,0.2166752502441406,1.7513585144042967,-11.221623181152344,-0.8549618320610687,0.6717557251908397,-1.366412213740458
5227359476806,2.554727343,1,0.2693476867675781,1.7022773803710936,-11.171344946289063,-0.732824427480916,0.5801526717557252,-1.3053435114503817
5227366146077,2.561396614,1,0.2693476867675781,1.7561469177246092,-11.155782635498046,-0.8396946564885496,0.5725190839694656,-1.2748091603053435
5227372811285,2.568061822,1,0.22385785522460935,1.7561469177246092,-11.246762298583985,-0.9007633587786259,0.5343511450381679,-1.297709923664122
5227379478525,2.574729062,1,0.277727392578125,1.7429788085937499,-11.246762298583985,-0.8320610687022901,0.549618320610687,-1.297709923664122
5227386144410,2.581394947,1,0.2501940734863281,1.7166425903320313,-11.183315954589844,-0.8320610687022901,0.4961832061068702,-1.3893129770992367
5227392811754,2.588062291,1,0.2166752502441406,1.7393875061035156,-11.17852755126953,-0.9083969465648855,0.4961832061068702,-1.3740458015267176
5227399478889,2.594729426,1,0.2059013427734375,1.7274164978027342,-11.158176837158203,-0.7709923664122137,0.5801526717557252,-1.3740458015267176
5227406145608,2.601396145,1,0.20231004028320312,1.6651672546386718,-11.182118853759764,-0.7557251908396947,0.5572519083969466,-1.3053435114503817
5227412810973,2.60806151,1,0.22266075439453123,1.6771382629394531,-11.194089862060546,-0.8320610687022901,0.549618320610687,-1.282442748091603
5227419478421,2.614728958,1,0.2861070983886719,1.7226280944824217,-11.262324609375,-0.8473282442748091,0.7022900763358778,-1.297709923664122
5227426146025,2.621396562,1,0.25737667846679685,1.7477672119140624,-11.180921752929686,-0.732824427480916,0.5343511450381679,-1.366412213740458
5227432811493,2.62806203,1,0.17597382202148437,1.7405846069335937,-11.137826123046874,-0.8625954198473282,0.6030534351145038,-1.3511450381679388
5227439478473,2.63472901,1,0.2454056701660156,1.7262193969726563,-11.208455072021483,-0.7862595419847328,0.6030534351145038,-1.381679389312977
5227446144254,2.641394791,1,0.2442085693359375,1.7334020019531249,-11.167753643798827,-0.8015267175572519,0.5190839694656488,-1.282442748091603
5227452811441,2.648061978,1,0.2549824768066406,1.744175909423828,-11.159373937988281,-0.8702290076335878,0.5801526717557252,-1.3282442748091603
5227459479202,2.654729739,1,0.20231004028320312,1.744175909423828,-11.202469567871093,-0.7404580152671756,0.5572519083969466,-1.3206106870229009
5227466145764,2.661396301,1,0.2214636535644531,1.7369933044433592,-11.232397088623046,-0.8015267175572519,0.5419847328244275,-1.3053435114503817
5227472811233,2.66806177,1,0.2262520568847656,1.7034744812011717,-11.156979736328124,-0.816793893129771,0.5419847328244275,-1.366412213740458
5227479478264,2.674728801,1,0.23343466186523437,1.705868682861328,-11.158176837158203,-0.8015267175572519,0.6183206106870229,-1.251908396946565
5227486144931,2.681395468,1,0.22744915771484372,1.7549498168945312,-11.232397088623046,-0.8931297709923665,0.6183206106870229,-1.3282442748091603
5227492812743,2.68806328,1,0.21308394775390624,1.7034744812011717,-11.241973895263671,-0.8549618320610687,0.6106870229007634,-1.3511450381679388
5227499476545,2.694727082,1,0.22744915771484372,1.7190367919921874,-11.19887826538086,-0.7251908396946565,0.48854961832061067,-1.3282442748091603
5227506144775,2.701395312,1,0.21906945190429686,1.7166425903320313,-11.173739147949219,-0.7938931297709924,0.5877862595419847,-1.2900763358778626
5227512811493,2.70806203,1,0.21906945190429686,1.7310078002929687,-11.142614526367186,-0.7786259541984732,0.6412213740458015,-1.251908396946565
5227519478577,2.714729114,1,0.18435352783203124,1.7310078002929687,-11.165359442138671,-0.8015267175572519,0.6106870229007634,-1.282442748091603
5227526146233,2.72139677,1,0.2346317626953125,1.7489643127441405,-11.165359442138671,-0.7709923664122137,0.549618320610687,-1.366412213740458
5227532811233,2.72806177,1,0.27293898925781246,1.7202338928222656,-11.10191309814453,-0.7709923664122137,0.6259541984732825,-1.2442748091603053
5227539477535,2.734728072,1,0.23702596435546874,1.7130512878417967,-11.136629022216797,-0.9083969465648855,0.6259541984732825,-1.3511450381679388
5227546144306,2.741394843,1,0.2549824768066406,1.7609353210449217,-11.24915650024414,-0.7709923664122137,0.4122137404580153,-1.3511450381679388
5227552811493,2.74806203,1,0.22744915771484372,1.744175909423828,-11.188104357910156,-0.8854961832061069,0.6030534351145038,-1.3129770992366412
5227559478473,2.75472901,1,0.23223756103515625,1.7513585144042967,-11.189301458740234,-0.8091603053435115,0.5572519083969466,-1.3893129770992367
5227566145139,2.761395676,1,0.23582886352539062,1.7573440185546874,-11.165359442138671,-0.7633587786259542,0.4732824427480916,-1.3511450381679388
5227572810920,2.768061457,1,0.21906945190429686,1.7322049011230467,-11.11508120727539,-0.8015267175572519,0.5648854961832062,-1.3740458015267176
5227579478160,2.774728697,1,0.2549824768066406,1.7262193969726563,-11.21683477783203,-0.8931297709923665,0.5877862595419847,-1.3282442748091603
5227586146441,2.781396978,1,0.20470424194335937,1.7178396911621092,-11.141417425537108,-0.7786259541984732,0.5343511450381679,-1.3053435114503817
5227592812275,2.788062812,1,0.2214636535644531,1.7178396911621092,-11.179724652099608,-0.8473282442748091,0.5877862595419847,-1.282442748091603
5227599477691,2.794728228,1,0.22744915771484372,1.66636435546875,-11.238382592773437,-0.7786259541984732,0.549618320610687,-1.3511450381679388
5227606145764,2.801396301,1,0.1975216369628906,1.7286135986328124,-11.105504400634764,-0.8091603053435115,0.5267175572519084,-1.3740458015267176
5227612812170,2.808062707,1,0.23702596435546874,1.7190367919921874,-11.189301458740234,-0.7862595419847328,0.6030534351145038,-1.3206106870229009
5227619485868,2.814736405,1,0.26695348510742184,1.715445489501953,-11.171344946289063,-0.8091603053435115,0.6106870229007634,-1.3358778625954197
5227626148004,2.821398541,1,0.2454056701660156,1.695094775390625,-11.137826123046874,-0.8091603053435115,0.6335877862595419,-1.3129770992366412
5227632811858,2.828062395,1,0.25258827514648435,1.7489643127441405,-11.139023223876952,-0.8854961832061069,0.5572519083969466,-1.2595419847328244
5227639478473,2.83472901,1,0.2166752502441406,1.7298106994628906,-11.240776794433593,-0.8473282442748091,0.5648854961832062,-1.2900763358778626
5227646144827,2.841395364,1,0.16639701538085935,1.6986860778808592,-11.130643518066405,-0.7786259541984732,0.5190839694656488,-1.3435114503816794
5227652811337,2.848061874,1,0.16639701538085935,1.7118541870117185,-11.189301458740234,-0.9007633587786259,0.5648854961832062,-1.3053435114503817
5227659478577,2.854729114,1,0.16998831787109375,1.7118541870117185,-11.159373937988281,-0.7786259541984732,0.5648854961832062,-1.3053435114503817
5227666144931,2.861395468,1,0.229843359375,1.7262193969726563,-11.159373937988281,-0.7938931297709924,0.6259541984732825,-1.282442748091603
5227672812118,2.868062655,1,0.21428104858398436,1.7477672119140624,-11.077971081542968,-0.7938931297709924,0.48854961832061067,-1.3053435114503817
5227679479410,2.874729947,1,0.2346317626953125,1.7298106994628906,-11.165359442138671,-0.816793893129771,0.48854961832061067,-1.3282442748091603
5227686146025,2.881396562,1,0.2262520568847656,1.7405846069335937,-11.200075366210937,-0.7633587786259542,0.5801526717557252,-1.3282442748091603
5227692811754,2.888062291,1,0.23343466186523437,1.772906329345703,-11.188104357910156,-0.8320610687022901,0.48091603053435117,-1.3053435114503817
5227699479045,2.894729582,1,0.2501940734863281,1.7609353210449217,-11.186907257080078,-0.8396946564885496,0.5725190839694656,-1.3053435114503817
5227706145556,2.901396093,1,0.21068974609375,1.7262193969726563,-11.11508120727539,-0.7786259541984732,0.5419847328244275,-1.366412213740458
5227712811441,2.908061978,1,0.20231004028320312,1.7310078002929687,-11.204863769531249,-0.7786259541984732,0.5954198473282443,-1.3358778625954197
5227719478525,2.914729062,1,0.19632453613281248,1.7130512878417967,-11.218031878662108,-0.8473282442748091,0.549618320610687,-1.3435114503816794
5227726145035,2.921395572,1,0.229843359375,1.7357962036132812,-11.23000288696289,-0.8320610687022901,0.5267175572519084,-1.3282442748091603
5227732811702,2.928062239,1,0.18914193115234373,1.7178396911621092,-11.170147845458983,-0.7786259541984732,0.5343511450381679,-1.2900763358778626
5227739477847,2.934728384,1,0.2454056701660156,1.7417817077636717,-11.188104357910156,-0.7709923664122137,0.5343511450381679,-1.381679389312977
5227746142327,2.941392864,1,0.258573779296875,1.7549498168945312,-11.141417425537108,-0.7938931297709924,0.5725190839694656,-1.282442748091603
5227752811858,2.948062395,1,0.23343466186523437,1.7453730102539062,-11.209652172851563,-0.7862595419847328,0.6030534351145038,-1.3893129770992367
5227759478056,2.954728593,1,0.20709844360351562,1.697488977050781,-11.183315954589844,-0.7938931297709924,0.6183206106870229,-1.3129770992366412
5227766142639,2.961393176,1,0.2549824768066406,1.7274164978027342,-11.14022032470703,-0.7938931297709924,0.549618320610687,-1.2671755725190839
5227772811545,2.968062082,1,0.19153613281249998,1.7597382202148437,-11.17852755126953,-0.7786259541984732,0.5572519083969466,-1.3435114503816794
5227779478525,2.974729062,1,0.26695348510742184,1.7094599853515624,-11.222820281982422,-0.816793893129771,0.5801526717557252,-1.3358778625954197
5227786145712,2.981396249,1,0.22266075439453123,1.7405846069335937,-11.200075366210937,-0.7480916030534351,0.5801526717557252,-1.3053435114503817
5227792812639,2.988063176,1,0.17836802368164062,1.7417817077636717,-11.174936248779296,-0.8244274809160306,0.5725190839694656,-1.282442748091603
5227799478733,2.99472927,1,0.17836802368164062,1.7405846069335937,-11.146205828857422,-0.8473282442748091,0.5954198473282443,-1.3053435114503817
5227806144827,3.001395364,1,0.181959326171875,1.7405846069335937,-11.086350787353515,-0.7557251908396947,0.5801526717557252,-1.297709923664122
5227812812952,3.008063489,1,0.19512743530273435,1.6903063720703124,-11.239579693603515,-0.8549618320610687,0.5954198473282443,-1.2748091603053435
5227819478420,3.014728957,1,0.16759411621093748,1.7130512878417967,-11.177330450439452,-0.8549618320610687,0.549618320610687,-1.3511450381679388
5227826145347,3.021395884,1,0.2346317626953125,1.734599102783203,-11.188104357910156,-0.8320610687022901,0.549618320610687,-1.3511450381679388
5227832811285,3.028061822,1,0.20470424194335937,1.7429788085937499,-11.173739147949219,-0.8015267175572519,0.6412213740458015,-1.3282442748091603
5227839477952,3.034728489,1,0.2346317626953125,1.7357962036132812,-11.204863769531249,-0.8854961832061069,0.6259541984732825,-1.3435114503816794
5227846146650,3.041397187,1,0.23582886352539062,1.753752716064453,-11.165359442138671,-0.8854961832061069,0.4961832061068702,-1.3740458015267176
5227852811858,3.048062395,1,0.2059013427734375,1.7226280944824217,-11.215637677001952,-0.7480916030534351,0.6335877862595419,-1.3587786259541985
5227859478316,3.054728853,1,0.20350714111328125,1.7465701110839842,-11.145008728027342,-0.8778625954198473,0.6335877862595419,-1.2442748091603053
5227866145035,3.061395572,1,0.21787235107421873,1.744175909423828,-11.17852755126953,-0.8396946564885496,0.5801526717557252,-1.3435114503816794
5227872811858,3.068062395,1,0.20949264526367187,1.7082628845214842,-11.168950744628905,-0.8702290076335878,0.5725190839694656,-1.3129770992366412
5227879478056,3.074728593,1,0.22385785522460935,1.7334020019531249,-11.214440576171874,-0.8702290076335878,0.5648854961832062,-1.3206106870229009
5227886145660,3.081396197,1,0.23702596435546874,1.7417817077636717,-11.235988391113281,-0.8625954198473282,0.5572519083969466,-1.381679389312977
5227892812952,3.088063489,1,0.21906945190429686,1.725022296142578,-11.145008728027342,-0.816793893129771,0.549618320610687,-1.282442748091603
5227899478368,3.094728905,1,0.2154781494140625,1.734599102783203,-11.235988391113281,-0.9083969465648855,0.4961832061068702,-1.3282442748091603
5227906145712,3.101396249,1,0.16280571289062498,1.725022296142578,-11.218031878662108,-0.7404580152671756,0.5419847328244275,-1.3358778625954197
5227912811129,3.108061666,1,0.23822306518554687,1.7166425903320313,-11.177330450439452,-0.8244274809160306,0.5648854961832062,-1.3206106870229009
5227919478889,3.114729426,1,0.16998831787109375,1.753752716064453,-11.206060870361327,-0.8015267175572519,0.5725190839694656,-1.3129770992366412
5227926145608,3.121396145,1,0.24181436767578124,1.7357962036132812,-11.195286962890624,-0.8244274809160306,0.6183206106870229,-1.3893129770992367
5227932811597,3.128062134,1,0.21787235107421873,1.6723498596191406,-11.218031878662108,-0.8396946564885496,0.6106870229007634,-1.282442748091603
5227939478993,3.13472953,1,0.21787235107421873,1.753752716064453,-11.192892761230468,-0.8396946564885496,0.6106870229007634,-1.3435114503816794
5227946144931,3.141395468,1,0.25258827514648435,1.753752716064453,-11.238382592773437,-0.7786259541984732,0.5114503816793893,-1.2290076335877862
5227952811649,3.148062186,1,0.19153613281249998,1.7130512878417967,-11.238382592773437,-0.7709923664122137,0.5572519083969466,-1.3129770992366412
5227959478889,3.154729426,1,0.15322890625,1.714248388671875,-11.173739147949219,-0.7709923664122137,0.5648854961832062,-1.282442748091603
5227966145868,3.161396405,1,0.2765302917480469,1.7322049011230467,-11.204863769531249,-0.8244274809160306,0.5648854961832062,-1.381679389312977
5227972812379,3.168062916,1,0.2454056701660156,1.7573440185546874,-11.128249316406249,-0.7633587786259542,0.6335877862595419,-1.381679389312977
5227979478212,3.174728749,1,0.22744915771484372,1.7274164978027342,-11.200075366210937,-0.8320610687022901,0.5648854961832062,-1.3511450381679388
5227986145295,3.181395832,1,0.1879448303222656,1.7082628845214842,-11.261127508544922,-0.816793893129771,0.6106870229007634,-1.2900763358778626
5227992811285,3.188061822,1,0.21428104858398436,1.6938976745605467,-11.093533392333983,-0.7480916030534351,0.6183206106870229,-1.3206106870229009
5227999498420,3.194748957,1,0.2861070983886719,1.7130512878417967,-11.214440576171874,-0.8625954198473282,0.5877862595419847,-1.3358778625954197
5228006154097,3.201404634,1,0.24181436767578124,1.7489643127441405,-11.17852755126953,-0.8702290076335878,0.6106870229007634,-1.297709923664122
5228012816389,3.208066926,1,0.18076222534179687,1.7202338928222656,-11.156979736328124,-0.7862595419847328,0.48854961832061067,-1.3511450381679388
5228019479931,3.214730468,1,0.25258827514648435,1.7549498168945312,-11.21084927368164,-0.8549618320610687,0.6259541984732825,-1.2900763358778626
5228026145660,3.221396197,1,0.19153613281249998,1.7130512878417967,-11.17852755126953,-0.8320610687022901,0.5572519083969466,-1.2900763358778626
5228032812222,3.228062759,1,0.21906945190429686,1.7681179260253905,-11.162965240478515,-0.7022900763358778,0.6183206106870229,-1.366412213740458
5228039479358,3.234729895,1,0.21068974609375,1.707065783691406,-11.203666668701171,-0.816793893129771,0.5954198473282443,-1.3511450381679388
5228046146389,3.241396926,1,0.2597708801269531,1.7130512878417967,-11.189301458740234,-0.8015267175572519,0.5419847328244275,-1.3206106870229009
5228052811754,3.248062291,1,0.18435352783203124,1.7082628845214842,-11.194089862060546,-0.6793893129770993,0.5572519083969466,-1.3053435114503817
5228059478785,3.254729322,1,0.2346317626953125,1.744175909423828,-11.094730493164063,-0.816793893129771,0.5114503816793893,-1.282442748091603
5228066148368,3.261398905,1,0.25737667846679685,1.6843208679199217,-11.215637677001952,-0.8244274809160306,0.648854961832061,-1.3282442748091603
5228072812118,3.268062655,1,0.23343466186523437,1.6986860778808592,-11.209652172851563,-0.8015267175572519,0.5801526717557252,-1.2900763358778626
5228079478524,3.274729061,1,0.2609679809570312,1.7417817077636717,-11.149797131347656,-0.8015267175572519,0.6564885496183206,-1.3358778625954197
5228086144983,3.28139552,1,0.2609679809570312,1.7573440185546874,-11.219228979492186,-0.7557251908396947,0.6259541984732825,-1.2442748091603053
5228092809097,3.288059634,1,0.2885013000488281,1.7573440185546874,-11.238382592773437,-0.816793893129771,0.5572519083969466,-1.366412213740458
5228099479097,3.294729634,1,0.23582886352539062,1.734599102783203,-11.238382592773437,-0.8396946564885496,0.5648854961832062,-1.297709923664122
5228106144097,3.301394634,1,0.25258827514648435,1.7681179260253905,-11.21683477783203,-0.8396946564885496,0.5877862595419847,-1.297709923664122
5228112810972,3.308061509,1,0.22385785522460935,1.7848773376464844,-11.21683477783203,-0.7786259541984732,0.5877862595419847,-1.297709923664122
5228119478264,3.314728801,1,0.22505495605468748,1.7357962036132812,-11.218031878662108,-0.8091603053435115,0.5954198473282443,-1.2671755725190839
5228126145035,3.321395572,1,0.18435352783203124,1.7465701110839842,-11.19887826538086,-0.9236641221374046,0.5877862595419847,-1.3893129770992367
5228132811701,3.328062238,1,0.19991583862304688,1.7334020019531249,-11.274295617675781,-0.8854961832061069,0.6106870229007634,-1.3282442748091603
5228139478160,3.334728697,1,0.22266075439453123,1.7262193969726563,-11.164162341308593,-0.8015267175572519,0.5572519083969466,-1.297709923664122
5228146145139,3.341395676,1,0.26695348510742184,1.7357962036132812,-11.150994232177734,-0.9007633587786259,0.6183206106870229,-1.3282442748091603
5228152812170,3.348062707,1,0.24181436767578124,1.7190367919921874,-11.080365283203124,-0.7480916030534351,0.6259541984732825,-1.3129770992366412
5228159478420,3.354728957,1,0.23343466186523437,1.6795324645996093,-11.17254204711914,-0.8549618320610687,0.5419847328244275,-1.2748091603053435
5228166145764,3.361396301,1,0.2537853759765625,1.7393875061035156,-11.25514200439453,-0.8702290076335878,0.648854961832061,-1.3129770992366412
5228172811858,3.368062395,1,0.2501940734863281,1.7166425903320313,-11.17852755126953,-0.7709923664122137,0.6183206106870229,-1.297709923664122
5228179478524,3.374729061,1,0.19871873779296872,1.7381904052734374,-11.19169566040039,-0.8320610687022901,0.5343511450381679,-1.3053435114503817
5228186144618,3.381395155,1,0.23822306518554687,1.725022296142578,-11.15338843383789,-0.9465648854961832,0.6412213740458015,-1.3282442748091603
5228192811545,3.388062082,1,0.2262520568847656,1.7393875061035156,-11.17852755126953,-0.7786259541984732,0.5877862595419847,-1.3740458015267176
5228199477795,3.394728332,1,0.22266075439453123,1.7298106994628906,-11.167753643798827,-0.8625954198473282,0.6335877862595419,-1.3358778625954197
5228206147431,3.401397968,1,0.17956512451171874,1.7369933044433592,-11.189301458740234,-0.7938931297709924,0.5648854961832062,-1.3206106870229009
5228212812170,3.408062707,1,0.23223756103515625,1.7465701110839842,-11.200075366210937,-0.7938931297709924,0.5343511450381679,-1.2900763358778626
5228219478368,3.414728905,1,0.2214636535644531,1.7417817077636717,-11.212046374511718,-0.8702290076335878,0.5114503816793893,-1.3053435114503817
5228226145504,3.421396041,1,0.2214636535644531,1.7513585144042967,-11.220426080322264,-0.8625954198473282,0.6030534351145038,-1.3893129770992367
5228232812691,3.428063228,1,0.23582886352539062,1.7513585144042967,-11.180921752929686,-0.8015267175572519,0.549618320610687,-1.3206106870229009
5228239478316,3.434728853,1,0.1927332336425781,1.7322049011230467,-11.180921752929686,-0.8320610687022901,0.5419847328244275,-1.2900763358778626
5228246146389,3.441396926,1,0.2825157958984375,1.6927005737304686,-11.152191333007812,-0.8320610687022901,0.6412213740458015,-1.3358778625954197
5228252811441,3.448061978,1,0.23582886352539062,1.7262193969726563,-11.177330450439452,-0.6870229007633588,0.6412213740458015,-1.3435114503816794
5228259479462,3.454729999,1,0.17118541870117188,1.7322049011230467,-11.19169566040039,-0.8625954198473282,0.5343511450381679,-1.3435114503816794
5228266144826,3.461395363,1,0.2705447875976562,1.7405846069335937,-11.219228979492186,-0.9083969465648855,0.5725190839694656,-1.3435114503816794
5228272811754,3.468062291,1,0.22744915771484372,1.7190367919921874,-11.261127508544922,-0.916030534351145,0.5190839694656488,-1.3511450381679388
5228279478160,3.474728697,1,0.16879121704101563,1.7669208251953124,-11.150994232177734,-0.732824427480916,0.5725190839694656,-1.297709923664122
5228286144983,3.48139552,1,0.22026655273437498,1.7585411193847655,-11.166556542968749,-0.8473282442748091,0.5419847328244275,-1.282442748091603
5228292811545,3.488062082,1,0.17357962036132812,1.753752716064453,-11.203666668701171,-0.7557251908396947,0.5572519083969466,-1.3435114503816794
5228299478524,3.494729061,1,0.2537853759765625,1.7884686401367187,-11.165359442138671,-0.816793893129771,0.4580152671755725,-1.3435114503816794
5228306145087,3.501395624,1,0.25258827514648435,1.7381904052734374,-11.109095703125,-0.9083969465648855,0.5419847328244275,-1.282442748091603
5228312812326,3.508062863,1,0.24301146850585936,1.7334020019531249,-11.18571015625,-0.7862595419847328,0.549618320610687,-1.3129770992366412
5228319478837,3.514729374,1,0.22744915771484372,1.7525556152343749,-11.188104357910156,-0.7404580152671756,0.5648854961832062,-1.2900763358778626
5228326146337,3.521396874,1,0.20829554443359374,1.7226280944824217,-11.168950744628905,-0.8473282442748091,0.6106870229007634,-1.2748091603053435
5228332811233,3.52806177,1,0.27293898925781246,1.7226280944824217,-11.19887826538086,-0.7633587786259542,0.5572519083969466,-1.3511450381679388
5228339479358,3.534729895,1,0.20470424194335937,1.7453730102539062,-11.162965240478515,-0.7709923664122137,0.5648854961832062,-1.3282442748091603
5228346145139,3.541395676,1,0.27892449340820313,1.7381904052734374,-11.241973895263671,-0.8549618320610687,0.5877862595419847,-1.3358778625954197
5228352812847,3.548063384,1,0.18435352783203124,1.7836802368164062,-11.194089862060546,-0.8244274809160306,0.4961832061068702,-1.3435114503816794
5228359479045,3.554729582,1,0.23822306518554687,1.6927005737304686,-11.128249316406249,-0.7862595419847328,0.5190839694656488,-1.3053435114503817
5228366151910,3.561402447,1,0.2609679809570312,1.7274164978027342,-11.183315954589844,-0.8015267175572519,0.5343511450381679,-1.297709923664122
5228372813524,3.568064061,1,0.2609679809570312,1.7381904052734374,-11.182118853759764,-0.7557251908396947,0.6106870229007634,-1.3129770992366412
5228379478993,3.57472953,1,0.22385785522460935,1.7381904052734374,-11.17254204711914,-0.8396946564885496,0.4961832061068702,-1.2900763358778626
5228386145764,3.581396301,1,0.18555062866210936,1.707065783691406,-11.17254204711914,-0.8320610687022901,0.6183206106870229,-1.2748091603053435
5228392811910,3.588062447,1,0.258573779296875,1.7393875061035156,-11.23718549194336,-0.8320610687022901,0.6412213740458015,-1.3511450381679388
5228399478524,3.594729061,1,0.23343466186523437,1.7561469177246092,-11.156979736328124,-0.8320610687022901,0.6412213740458015,-1.3511450381679388
5228406145451,3.601395988,1,0.24779987182617186,1.7369933044433592,-11.171344946289063,-0.816793893129771,0.5572519083969466,-1.2595419847328244
5228412829566,3.608080103,1,0.2705447875976562,1.7453730102539062,-11.171344946289063,-0.9007633587786259,0.648854961832061,-1.2748091603053435
5228419496858,3.614747395,1,0.21188684692382811,1.715445489501953,-11.131840618896483,-0.7557251908396947,0.6259541984732825,-1.2748091603053435
5228426162639,3.621413176,1,0.23822306518554687,1.7369933044433592,-11.176133349609374,-0.8854961832061069,0.5877862595419847,-1.3893129770992367
5228432829149,3.628079686,1,0.24301146850585936,1.7274164978027342,-11.121066711425781,-0.8625954198473282,0.5801526717557252,-1.297709923664122
5228439494878,3.634745415,1,0.21428104858398436,1.7082628845214842,-11.173739147949219,-0.7786259541984732,0.5954198473282443,-1.297709923664122
5228446162274,3.641412811,1,0.2059013427734375,1.7214309936523438,-11.23000288696289,-0.8015267175572519,0.5343511450381679,-1.3206106870229009
5228452829045,3.648079582,1,0.23223756103515625,1.68551796875,-11.156979736328124,-0.7938931297709924,0.648854961832061,-1.3740458015267176
5228459496233,3.65474677,1,0.21906945190429686,1.715445489501953,-11.186907257080078,-0.7633587786259542,0.48091603053435117,-1.251908396946565
5228466163160,3.661413697,1,0.26695348510742184,1.7274164978027342,-11.2240173828125,-0.7938931297709924,0.5648854961832062,-1.297709923664122
5228472827899,3.668078436,1,0.23104046020507812,1.7453730102539062,-11.184513055419922,-0.8778625954198473,0.5954198473282443,-1.282442748091603
5228479495139,3.674745676,1,0.16160861206054686,1.659181750488281,-11.170147845458983,-0.7786259541984732,0.5725190839694656,-1.3358778625954197
5228486163108,3.681413645,1,0.19991583862304688,1.7298106994628906,-11.206060870361327,-0.9007633587786259,0.5267175572519084,-1.3893129770992367
5228492829358,3.688079895,1,0.277727392578125,1.744175909423828,-11.161768139648437,-0.8854961832061069,0.6106870229007634,-1.3053435114503817
5228499495660,3.694746197,1,0.20231004028320312,1.7513585144042967,-11.11508120727539,-0.8320610687022901,0.6412213740458015,-1.2900763358778626
5228506162170,3.701412707,1,0.24181436767578124,1.734599102783203,-11.195286962890624,-0.9083969465648855,0.4732824427480916,-1.3358778625954197
5228512831076,3.708081613,1,0.24660277099609373,1.7645266235351562,-11.206060870361327,-0.8473282442748091,0.5572519083969466,-1.3282442748091603
5228519495868,3.714746405,1,0.24660277099609373,1.7214309936523438,-11.244368096923827,-0.7862595419847328,0.5267175572519084,-1.282442748091603
5228526162170,3.721412707,1,0.18315642700195311,1.7214309936523438,-11.227608685302734,-0.8854961832061069,0.648854961832061,-1.2671755725190839
5228532827639,3.728078176,1,0.2059013427734375,1.734599102783203,-11.227608685302734,-0.7938931297709924,0.5801526717557252,-1.2748091603053435
5228539495816,3.734746353,1,0.2059013427734375,1.7238251953125,-11.194089862060546,-0.8702290076335878,0.5419847328244275,-1.297709923664122
5228546162222,3.741412759,1,0.22026655273437498,1.734599102783203,-11.182118853759764,-0.8702290076335878,0.5190839694656488,-1.3587786259541985
5228552828889,3.748079426,1,0.22505495605468748,1.7393875061035156,-11.179724652099608,-0.8854961832061069,0.5190839694656488,-1.3358778625954197
5228559494722,3.754745259,1,0.22266075439453123,1.7262193969726563,-11.161768139648437,-0.8015267175572519,0.5877862595419847,-1.3358778625954197
5228566162118,3.761412655,1,0.1975216369628906,1.7094599853515624,-11.235988391113281,-0.8015267175572519,0.5725190839694656,-1.3282442748091603
5228572828993,3.76807953,1,0.22505495605468748,1.6915034729003906,-11.252747802734374,-0.8473282442748091,0.6183206106870229,-1.3053435114503817
5228579496076,3.774746613,1,0.25737667846679685,1.7298106994628906,-11.135431921386719,-0.8091603053435115,0.5190839694656488,-1.3587786259541985
5228586162847,3.781413384,1,0.21787235107421873,1.734599102783203,-11.183315954589844,-0.816793893129771,0.5190839694656488,-1.3511450381679388
5228592828733,3.78807927,1,0.2262520568847656,1.7010802795410156,-11.183315954589844,-0.9083969465648855,0.6106870229007634,-1.282442748091603
5228599495451,3.794745988,1,0.25139117431640623,1.7645266235351562,-11.137826123046874,-0.8244274809160306,0.549618320610687,-1.3129770992366412
5228606158733,3.80140927,1,0.21787235107421873,1.6627730529785156,-11.139023223876952,-0.8015267175572519,0.5038167938931297,-1.2671755725190839
5228612829201,3.808079738,1,0.2537853759765625,1.7465701110839842,-11.202469567871093,-0.8320610687022901,0.5877862595419847,-1.3053435114503817
5228619495555,3.814746092,1,0.21068974609375,1.7597382202148437,-11.154585534667968,-0.732824427480916,0.5419847328244275,-1.3435114503816794
5228626162170,3.821412707,1,0.2454056701660156,1.7178396911621092,-11.148600030517578,-0.816793893129771,0.5190839694656488,-1.2671755725190839
5228632828941,3.828079478,1,0.18435352783203124,1.772906329345703,-11.150994232177734,-0.8854961832061069,0.549618320610687,-1.3129770992366412
5228639495555,3.834746092,1,0.2597708801269531,1.7214309936523438,-11.170147845458983,-0.7557251908396947,0.5572519083969466,-1.3053435114503817
5228646162066,3.841412603,1,0.23343466186523437,1.7106570861816406,-11.139023223876952,-0.8320610687022901,0.5419847328244275,-1.2595419847328244
5228652828733,3.84807927,1,0.22266075439453123,1.7489643127441405,-11.208455072021483,-0.8015267175572519,0.6641221374045801,-1.3206106870229009
5228659494878,3.854745415,1,0.22266075439453123,1.7238251953125,-11.17852755126953,-0.648854961832061,0.5267175572519084,-1.2671755725190839
5228666162274,3.861412811,1,0.23702596435546874,1.7238251953125,-11.145008728027342,-0.8396946564885496,0.5419847328244275,-1.297709923664122
5228672829305,3.868079842,1,0.19512743530273435,1.7525556152343749,-11.044452258300781,-0.916030534351145,0.5343511450381679,-1.297709923664122
5228679495451,3.874745988,1,0.22744915771484372,1.7381904052734374,-11.197681164550781,-0.7633587786259542,0.6412213740458015,-1.3282442748091603
5228686163264,3.881413801,1,0.2645592834472656,1.7561469177246092,-11.200075366210937,-0.7633587786259542,0.5877862595419847,-1.282442748091603
5228692829410,3.888079947,1,0.19033903198242186,1.6807295654296874,-11.203666668701171,-0.8244274809160306,0.5877862595419847,-1.3206106870229009
5228699495399,3.894745936,1,0.21188684692382811,1.7178396911621092,-11.17852755126953,-0.8091603053435115,0.6106870229007634,-1.3282442748091603
5228706163108,3.901413645,1,0.21308394775390624,1.725022296142578,-11.226411584472656,-0.7480916030534351,0.6183206106870229,-1.3282442748091603
5228712829774,3.908080311,1,0.2537853759765625,1.7202338928222656,-11.159373937988281,-0.9236641221374046,0.6106870229007634,-1.3282442748091603
5228719495243,3.91474578,1,0.181959326171875,1.7130512878417967,-11.200075366210937,-0.9007633587786259,0.5725190839694656,-1.2748091603053435
5228726161545,3.921412082,1,0.23104046020507812,1.7489643127441405,-11.17254204711914,-0.8244274809160306,0.5038167938931297,-1.2442748091603053
5228732828420,3.928078957,1,0.23702596435546874,1.7417817077636717,-11.118672509765624,-0.9083969465648855,0.5725190839694656,-1.3206106870229009
5228739498055,3.934748592,1,0.18315642700195311,1.7166425903320313,-11.183315954589844,-0.816793893129771,0.5572519083969466,-1.3282442748091603
5228746164410,3.941414947,1,0.21308394775390624,1.7190367919921874,-11.182118853759764,-0.7786259541984732,0.4961832061068702,-1.3282442748091603
5228752829305,3.948079842,1,0.21308394775390624,1.725022296142578,-11.156979736328124,-0.8091603053435115,0.6106870229007634,-1.3129770992366412
5228759495191,3.954745728,1,0.21188684692382811,1.7393875061035156,-11.165359442138671,-0.8549618320610687,0.6030534351145038,-1.2900763358778626
5228766161701,3.961412238,1,0.18076222534179687,1.7130512878417967,-11.149797131347656,-0.7022900763358778,0.5877862595419847,-1.297709923664122
5228772826076,3.968076613,1,0.1771709228515625,1.7357962036132812,-11.218031878662108,-0.8244274809160306,0.6412213740458015,-1.2900763358778626
5228779495451,3.974745988,1,0.24899697265624998,1.725022296142578,-11.164162341308593,-0.8015267175572519,0.5801526717557252,-1.3053435114503817
5228786162170,3.981412707,1,0.201112939453125,1.7657237243652342,-11.150994232177734,-0.8244274809160306,0.5190839694656488,-1.3053435114503817
5228792827795,3.988078332,1,0.22744915771484372,1.7190367919921874,-11.189301458740234,-0.8015267175572519,0.6030534351145038,-1.3206106870229009
5228799494514,3.994745051,1,0.22744915771484372,1.725022296142578,-11.170147845458983,-0.8015267175572519,0.5648854961832062,-1.3129770992366412
5228806162639,4.001413176,1,0.181959326171875,1.7405846069335937,-11.226411584472656,-0.8549618320610687,0.5114503816793893,-1.3282442748091603
5228812865035,4.008115572,1,0.19991583862304688,1.7405846069335937,-11.143811627197264,-0.8625954198473282,0.5877862595419847,-1.3282442748091603
5228819495972,4.014746509,1,0.24899697265624998,1.707065783691406,-11.143811627197264,-0.816793893129771,0.5267175572519084,-1.2366412213740459
5228826162691,4.021413228,1,0.201112939453125,1.7238251953125,-11.137826123046874,-0.816793893129771,0.5801526717557252,-1.3053435114503817
5228832828732,4.028079269,1,0.2454056701660156,1.7130512878417967,-11.189301458740234,-0.8320610687022901,0.6335877862595419,-1.3053435114503817
5228839495191,4.034745728,1,0.229843359375,1.7334020019531249,-11.189301458740234,-0.8473282442748091,0.6335877862595419,-1.3129770992366412
5228846159722,4.041410259,1,0.23343466186523437,1.753752716064453,-11.118672509765624,-0.7557251908396947,0.6183206106870229,-1.3129770992366412
5228852830191,4.048080728,1,0.23822306518554687,1.7286135986328124,-11.152191333007812,-0.8702290076335878,0.5267175572519084,-1.3282442748091603
5228859495868,4.054746405,1,0.21906945190429686,1.772906329345703,-11.200075366210937,-0.8778625954198473,0.6259541984732825,-1.3435114503816794
5228866171024,4.061421561,1,0.17238251953125,1.6915034729003906,-11.220426080322264,-0.7862595419847328,0.5572519083969466,-1.3893129770992367
5228872830139,4.068080676,1,0.22864625854492185,1.7226280944824217,-11.271901416015623,-0.8320610687022901,0.5267175572519084,-1.2366412213740459
5228879496128,4.074746665,1,0.23702596435546874,1.7190367919921874,-11.207257971191405,-0.8473282442748091,0.6106870229007634,-1.3282442748091603
5228886162847,4.081413384,1,0.23702596435546874,1.7022773803710936,-11.294646331787108,-0.6946564885496184,0.5114503816793893,-1.3282442748091603
5228892829045,4.088079582,1,0.26216508178710934,1.7130512878417967,-11.150994232177734,-0.816793893129771,0.5648854961832062,-1.3053435114503817
5228899495607,4.094746144,1,0.2442085693359375,1.7334020019531249,-11.139023223876952,-0.8396946564885496,0.6564885496183206,-1.381679389312977
5228906163160,4.101413697,1,0.22385785522460935,1.7513585144042967,-11.183315954589844,-0.7862595419847328,0.48854961832061067,-1.297709923664122
5228912869722,4.108120259,1,0.21787235107421873,1.7286135986328124,-11.125855114746093,-0.8244274809160306,0.5725190839694656,-1.2671755725190839
5228919496024,4.114746561,1,0.229843359375,1.7322049011230467,-11.204863769531249,-0.8778625954198473,0.5801526717557252,-1.3511450381679388
5228926162899,4.121413436,1,0.20949264526367187,1.7094599853515624,-11.233594189453123,-0.816793893129771,0.4961832061068702,-1.3282442748091603
5228932829410,4.128079947,1,0.2442085693359375,1.7357962036132812,-11.146205828857422,-0.8778625954198473,0.6106870229007634,-1.3435114503816794
5228939495087,4.134745624,1,0.20709844360351562,1.6903063720703124,-11.159373937988281,-0.8854961832061069,0.6564885496183206,-1.3893129770992367
5228946162014,4.141412551,1,0.20709844360351562,1.7022773803710936,-11.257536206054686,-0.7786259541984732,0.5648854961832062,-1.3587786259541985
5228952829722,4.148080259,1,0.23223756103515625,1.7022773803710936,-11.208455072021483,-0.8320610687022901,0.5954198473282443,-1.2748091603053435
5228959495243,4.15474578,1,0.19153613281249998,1.705868682861328,-11.222820281982422,-0.8320610687022901,0.5419847328244275,-1.3587786259541985
5228966162587,4.161413124,1,0.17836802368164062,1.7082628845214842,-11.222820281982422,-0.7862595419847328,0.5419847328244275,-1.297709923664122
5228972828784,4.168079321,1,0.2501940734863281,1.715445489501953,-11.221623181152344,-0.7862595419847328,0.5725190839694656,-1.297709923664122
5228979496024,4.174746561,1,0.19512743530273435,1.7202338928222656,-11.207257971191405,-0.7938931297709924,0.5725190839694656,-1.3206106870229009
5228986157430,4.181407967,1,0.16998831787109375,1.7956512451171873,-11.17254204711914,-0.7938931297709924,0.5038167938931297,-1.2671755725190839
5228992829253,4.18807979,1,0.20949264526367187,1.7094599853515624,-11.19169566040039,-0.7862595419847328,0.5114503816793893,-1.2671755725190839
5228999495607,4.194746144,1,0.2442085693359375,1.7585411193847655,-11.146205828857422,-0.916030534351145,0.6793893129770993,-1.3206106870229009
5229006162639,4.201413176,1,0.2442085693359375,1.744175909423828,-11.155782635498046,-0.7862595419847328,0.5572519083969466,-1.3282442748091603
5229012863993,4.20811453,1,0.26216508178710934,1.7393875061035156,-11.162965240478515,-0.8549618320610687,0.5114503816793893,-1.2595419847328244
5229019495087,4.214745624,1,0.20949264526367187,1.7274164978027342,-11.259930407714844,-0.8091603053435115,0.6335877862595419,-1.2900763358778626
5229026161128,4.221411665,1,0.28730419921875,1.7286135986328124,-11.145008728027342,-0.7786259541984732,0.5954198473282443,-1.3511450381679388
5229032829357,4.228079894,1,0.2980781066894531,1.7322049011230467,-11.171344946289063,-0.8549618320610687,0.5343511450381679,-1.3511450381679388
5229039494982,4.234745519,1,0.2609679809570312,1.7513585144042967,-11.201272467041015,-0.8778625954198473,0.5954198473282443,-1.3358778625954197
5229046161701,4.241412238,1,0.21068974609375,1.753752716064453,-11.220426080322264,-0.7938931297709924,0.5954198473282443,-1.2900763358778626
5229052828264,4.248078801,1,0.17357962036132812,1.753752716064453,-11.21683477783203,-0.8320610687022901,0.6259541984732825,-1.3282442748091603
5229059495555,4.254746092,1,0.22744915771484372,1.7405846069335937,-11.183315954589844,-0.8396946564885496,0.6030534351145038,-1.2671755725190839
5229066163055,4.261413592,1,0.229843359375,1.744175909423828,-11.219228979492186,-0.8473282442748091,0.4961832061068702,-1.3740458015267176
5229072828889,4.268079426,1,0.24660277099609373,1.7334020019531249,-11.10191309814453,-0.8625954198473282,0.48091603053435117,-1.2442748091603053
5229079495659,4.274746196,1,0.258573779296875,1.7477672119140624,-11.209652172851563,-0.8244274809160306,0.5801526717557252,-1.3435114503816794
5229086158316,4.281408853,1,0.258573779296875,1.7405846069335937,-11.166556542968749,-0.7862595419847328,0.5648854961832062,-1.366412213740458
5229092828837,4.288079374,1,0.1771709228515625,1.7477672119140624,-11.277886920166015,-0.8473282442748091,0.5267175572519084,-1.3282442748091603
5229099495607,4.294746144,1,0.22266075439453123,1.7477672119140624,-11.329362255859374,-0.8320610687022901,0.5725190839694656,-1.3053435114503817
5229106161545,4.301412082,1,0.17597382202148437,1.7214309936523438,-11.176133349609374,-0.732824427480916,0.5267175572519084,-1.2748091603053435
5229112828837,4.308079374,1,0.16280571289062498,1.7238251953125,-11.196484063720703,-0.732824427480916,0.5572519083969466,-1.2748091603053435
5229119491441,4.314741978,1,0.25139117431640623,1.7022773803710936,-11.207257971191405,-0.8702290076335878,0.6183206106870229,-1.297709923664122
5229126162534,4.321413071,1,0.1867477294921875,1.7202338928222656,-11.124658013916015,-0.8396946564885496,0.6183206106870229,-1.3969465648854962
5229132829409,4.328079946,1,0.25258827514648435,1.7274164978027342,-11.204863769531249,-0.7938931297709924,0.5190839694656488,-1.3969465648854962
5229139495607,4.334746144,1,0.2825157958984375,1.7465701110839842,-11.18571015625,-0.8549618320610687,0.6030534351145038,-1.282442748091603
5229146162326,4.341412863,1,0.21906945190429686,1.6915034729003906,-11.202469567871093,-0.8320610687022901,0.549618320610687,-1.3358778625954197
5229152829357,4.348079894,1,0.23343466186523437,1.725022296142578,-11.14022032470703,-0.7709923664122137,0.5419847328244275,-1.3053435114503817
5229159494774,4.354745311,1,0.26815058593749996,1.7405846069335937,-11.212046374511718,-0.8625954198473282,0.6106870229007634,-1.2671755725190839
5229166162118,4.361412655,1,0.2537853759765625,1.707065783691406,-11.232397088623046,-0.8320610687022901,0.6335877862595419,-1.2595419847328244
5229172828524,4.368079061,1,0.18914193115234373,1.7393875061035156,-11.2240173828125,-0.8320610687022901,0.6183206106870229,-1.2595419847328244
5229179495868,4.374746405,1,0.201112939453125,1.7489643127441405,-11.156979736328124,-0.8244274809160306,0.5648854961832062,-1.3053435114503817
5229186161336,4.381411873,1,0.22026655273437498,1.7298106994628906,-11.182118853759764,-0.8549618320610687,0.5190839694656488,-1.2671755725190839
5229192828680,4.388079217,1,0.229843359375,1.6903063720703124,-11.251550701904296,-0.8473282442748091,0.6106870229007634,-1.2900763358778626
5229199495451,4.394745988,1,0.2059013427734375,1.7453730102539062,-11.214440576171874,-0.916030534351145,0.549618320610687,-1.366412213740458
5229206162378,4.401412915,1,0.23343466186523437,1.7381904052734374,-11.238382592773437,-0.8396946564885496,0.5801526717557252,-1.3893129770992367
5229212828680,4.408079217,1,0.23343466186523437,1.7274164978027342,-11.139023223876952,-0.7709923664122137,0.6335877862595419,-1.297709923664122
5229219497118,4.414747655,1,0.2059013427734375,1.7010802795410156,-11.264718811035156,-0.8625954198473282,0.5572519083969466,-1.251908396946565
5229226161857,4.421412394,1,0.2214636535644531,1.6927005737304686,-11.225214483642578,-0.8473282442748091,0.6106870229007634,-1.3282442748091603
5229232822378,4.428072915,1,0.2214636535644531,1.7202338928222656,-11.212046374511718,-0.8015267175572519,0.5954198473282443,-1.3206106870229009
5229239495868,4.434746405,1,0.24899697265624998,1.7202338928222656,-11.208455072021483,-0.8396946564885496,0.6106870229007634,-1.282442748091603
5229246172430,4.441422967,1,0.17357962036132812,1.656787548828125,-11.231199987792968,-0.7557251908396947,0.6106870229007634,-1.3053435114503817
5229252829982,4.448080519,1,0.22385785522460935,1.7178396911621092,-11.231199987792968,-0.8473282442748091,0.5725190839694656,-1.3587786259541985
5229259496128,4.454746665,1,0.20709844360351562,1.7585411193847655,-11.19169566040039,-0.8473282442748091,0.5419847328244275,-1.2900763358778626
5229266162014,4.461412551,1,0.22026655273437498,1.7298106994628906,-11.209652172851563,-0.8015267175572519,0.5419847328244275,-1.3435114503816794
5229272828316,4.468078853,1,0.20470424194335937,1.7106570861816406,-11.184513055419922,-0.7557251908396947,0.6106870229007634,-1.3435114503816794
5229279491180,4.474741717,1,0.22026655273437498,1.7082628845214842,-11.162965240478515,-0.8396946564885496,0.5343511450381679,-1.3129770992366412
5229286161493,4.48141203,1,0.21787235107421873,1.7274164978027342,-11.17852755126953,-0.8549618320610687,0.5419847328244275,-1.3053435114503817
5229292827743,4.48807828,1,0.2442085693359375,1.7226280944824217,-11.164162341308593,-0.8015267175572519,0.5190839694656488,-1.3511450381679388
5229299494982,4.494745519,1,0.2705447875976562,1.7381904052734374,-11.097124694824219,-0.8396946564885496,0.6259541984732825,-1.3358778625954197
5229306161961,4.501412498,1,0.22385785522460935,1.7645266235351562,-11.201272467041015,-0.8702290076335878,0.5648854961832062,-1.3053435114503817
5229312829774,4.508080311,1,0.2214636535644531,1.744175909423828,-11.171344946289063,-0.7862595419847328,0.5267175572519084,-1.3587786259541985
5229319497378,4.514747915,1,0.23343466186523437,1.7322049011230467,-11.16057103881836,-0.7251908396946565,0.5190839694656488,-1.3129770992366412
5229326162586,4.521413123,1,0.26336218261718747,1.705868682861328,-11.179724652099608,-0.8931297709923665,0.5801526717557252,-1.3358778625954197
5229332827847,4.528078384,1,0.19632453613281248,1.7274164978027342,-11.213243475341796,-0.732824427480916,0.4961832061068702,-1.3282442748091603
5229339495972,4.534746509,1,0.2537853759765625,1.697488977050781,-11.167753643798827,-0.9389312977099237,0.5954198473282443,-1.2748091603053435
5229346162430,4.541412967,1,0.25139117431640623,1.7274164978027342,-11.189301458740234,-0.8473282442748091,0.5114503816793893,-1.3511450381679388
5229352829305,4.548079842,1,0.23822306518554687,1.7489643127441405,-11.173739147949219,-0.7709923664122137,0.5419847328244275,-1.3206106870229009
5229359495034,4.554745571,1,0.24061726684570311,1.7513585144042967,-11.23000288696289,-0.8244274809160306,0.5038167938931297,-1.2748091603053435
5229366162743,4.56141328,1,0.2454056701660156,1.6915034729003906,-11.196484063720703,-0.9007633587786259,0.5725190839694656,-1.297709923664122
5229372824149,4.568074686,1,0.2454056701660156,1.6998831787109374,-11.226411584472656,-0.7938931297709924,0.5038167938931297,-1.366412213740458
5229379495451,4.574745988,1,0.20709844360351562,1.734599102783203,-11.245565197753905,-0.8625954198473282,0.5725190839694656,-1.3435114503816794
5229386162326,4.581412863,1,0.2609679809570312,1.734599102783203,-11.332953558349608,-0.8015267175572519,0.5877862595419847,-1.3435114503816794
5229392830034,4.588080571,1,0.23582886352539062,1.714248388671875,-11.179724652099608,-0.7557251908396947,0.48854961832061067,-1.381679389312977
5229399495816,4.594746353,1,0.21308394775390624,1.7166425903320313,-11.209652172851563,-0.7557251908396947,0.5572519083969466,-1.3587786259541985
5229406158888,4.601409425,1,0.2059013427734375,1.7082628845214842,-11.152191333007812,-0.7251908396946565,0.5954198473282443,-1.3129770992366412
5229412829149,4.608079686,1,0.20350714111328125,1.7585411193847655,-11.184513055419922,-0.7786259541984732,0.5954198473282443,-1.3053435114503817
5229419496909,4.614747446,1,0.20470424194335937,1.7465701110839842,-11.18571015625,-0.7709923664122137,0.5419847328244275,-1.3053435114503817
5229426162066,4.621412603,1,0.24899697265624998,1.6819266662597656,-11.194089862060546,-0.8396946564885496,0.6183206106870229,-1.366412213740458
5229432828211,4.628078748,1,0.19632453613281248,1.7334020019531249,-11.183315954589844,-0.8320610687022901,0.5343511450381679,-1.4122137404580153
5229439495086,4.634745623,1,0.23702596435546874,1.7465701110839842,-11.215637677001952,-0.732824427480916,0.5877862595419847,-1.3206106870229009
5229446208524,4.641459061,1,0.2561795776367187,1.7717092285156248,-11.106701501464842,-0.8015267175572519,0.5648854961832062,-1.282442748091603
5229452829930,4.648080467,1,0.25737667846679685,1.7166425903320313,-11.164162341308593,-0.8244274809160306,0.5190839694656488,-1.3587786259541985
5229459493159,4.654743696,1,0.18914193115234373,1.705868682861328,-11.166556542968749,-0.7862595419847328,0.5343511450381679,-1.2900763358778626
5229466158576,4.661409113,1,0.23702596435546874,1.6915034729003906,-11.143811627197264,-0.916030534351145,0.5343511450381679,-1.3129770992366412
5229472831232,4.668081769,1,0.16998831787109375,1.7405846069335937,-11.206060870361327,-0.816793893129771,0.48091603053435117,-1.3969465648854962
5229479487743,4.67473828,1,0.20949264526367187,1.7202338928222656,-11.197681164550781,-0.8015267175572519,0.5343511450381679,-1.2748091603053435
5229486162951,4.681413488,1,0.21428104858398436,1.7693150268554687,-11.113884106445312,-0.8091603053435115,0.6106870229007634,-1.381679389312977
5229492828576,4.688079113,1,0.2059013427734375,1.7681179260253905,-11.243170996093749,-0.7175572519083969,0.6106870229007634,-1.3282442748091603
5229499495868,4.694746405,1,0.2501940734863281,1.7238251953125,-11.152191333007812,-0.7786259541984732,0.5648854961832062,-1.2900763358778626
5229506161961,4.701412498,1,0.2549824768066406,1.744175909423828,-11.180921752929686,-0.8549618320610687,0.5343511450381679,-1.3053435114503817
5229512829201,4.708079738,1,0.22505495605468748,1.7118541870117185,-11.164162341308593,-0.7557251908396947,0.549618320610687,-1.381679389312977
5229519491597,4.714742134,1,0.22505495605468748,1.6986860778808592,-11.201272467041015,-0.8091603053435115,0.5190839694656488,-1.3587786259541985
5229526163107,4.721413644,1,0.2214636535644531,1.6986860778808592,-11.123460913085937,-0.8778625954198473,0.5954198473282443,-1.2595419847328244
5229532828732,4.728079269,1,0.23223756103515625,1.7477672119140624,-11.055226165771483,-0.7633587786259542,0.5954198473282443,-1.3435114503816794
5229539496701,4.734747238,1,0.24301146850585936,1.7310078002929687,-11.208455072021483,-0.7786259541984732,0.5267175572519084,-1.3129770992366412
5229546162170,4.741412707,1,0.229843359375,1.7190367919921874,-11.200075366210937,-0.7786259541984732,0.5801526717557252,-1.2595419847328244
5229552829461,4.748079998,1,0.31483751831054685,1.7501614135742187,-11.2240173828125,-0.8778625954198473,0.5801526717557252,-1.3587786259541985
5229559494670,4.754745207,1,0.2262520568847656,1.7657237243652342,-11.168950744628905,-0.7633587786259542,0.5801526717557252,-1.3435114503816794
5229566162899,4.761413436,1,0.25737667846679685,1.7166425903320313,-11.17254204711914,-0.8778625954198473,0.6030534351145038,-1.3435114503816794
5229572828888,4.768079425,1,0.19871873779296872,1.7561469177246092,-11.143811627197264,-0.8549618320610687,0.6564885496183206,-1.3358778625954197
5229579495607,4.774746144,1,0.20829554443359374,1.7393875061035156,-11.190498559570312,-0.7786259541984732,0.6412213740458015,-1.2671755725190839
5229586161961,4.781412498,1,0.19632453613281248,1.707065783691406,-11.190498559570312,-0.8702290076335878,0.5801526717557252,-1.251908396946565
5229592829722,4.788080259,1,0.26695348510742184,1.7669208251953124,-11.154585534667968,-0.816793893129771,0.5954198473282443,-1.3206106870229009
5229599496284,4.794746821,1,0.26815058593749996,1.7094599853515624,-11.136629022216797,-0.816793893129771,0.5114503816793893,-1.2671755725190839
5229606162899,4.801413436,1,0.21068974609375,1.6903063720703124,-11.183315954589844,-0.8320610687022901,0.5877862595419847,-1.2671755725190839
5229612829513,4.80808005,1,0.2454056701660156,1.7226280944824217,-11.116278308105468,-0.7938931297709924,0.549618320610687,-1.3435114503816794
5229619498315,4.814748852,1,0.24181436767578124,1.7106570861816406,-11.253944903564452,-0.732824427480916,0.5114503816793893,-1.3129770992366412
5229626164722,4.821415259,1,0.2166752502441406,1.7513585144042967,-11.192892761230468,-0.8549618320610687,0.5877862595419847,-1.2900763358778626
5229632830138,4.828080675,1,0.1879448303222656,1.7788918334960937,-11.155782635498046,-0.816793893129771,0.5954198473282443,-1.3129770992366412
5229639494357,4.834744894,1,0.2262520568847656,1.7166425903320313,-11.179724652099608,-0.816793893129771,0.48854961832061067,-1.3129770992366412
5229646162222,4.841412759,1,0.229843359375,1.7274164978027342,-11.264718811035156,-0.8396946564885496,0.6030534351145038,-1.3358778625954197
5229652828836,4.848079373,1,0.258573779296875,1.7082628845214842,-11.119869610595703,-0.7938931297709924,0.648854961832061,-1.297709923664122
5229659495555,4.854746092,1,0.258573779296875,1.7357962036132812,-11.21683477783203,-0.6946564885496184,0.5343511450381679,-1.2442748091603053
5229666161961,4.861412498,1,0.20829554443359374,1.7214309936523438,-11.137826123046874,-0.9236641221374046,0.5572519083969466,-1.297709923664122
5229672828420,4.868078957,1,0.22864625854492185,1.7214309936523438,-11.042058056640624,-0.7938931297709924,0.4351145038167939,-1.3206106870229009
5229679495347,4.874745884,1,0.1879448303222656,1.7513585144042967,-11.195286962890624,-0.7557251908396947,0.5190839694656488,-1.282442748091603
5229686162430,4.881412967,1,0.2657563842773437,1.7106570861816406,-11.171344946289063,-0.7557251908396947,0.6641221374045801,-1.366412213740458
5229692828576,4.888079113,1,0.24899697265624998,1.7178396911621092,-11.196484063720703,-0.8625954198473282,0.6106870229007634,-1.3206106870229009
5229699495711,4.894746248,1,0.22505495605468748,1.6998831787109374,-11.164162341308593,-0.7404580152671756,0.6106870229007634,-1.2595419847328244
5229706162847,4.901413384,1,0.28490999755859375,1.6938976745605467,-11.186907257080078,-0.8396946564885496,0.5725190839694656,-1.2595419847328244
5229712829618,4.908080155,1,0.2214636535644531,1.7369933044433592,-11.21084927368164,-0.8396946564885496,0.6335877862595419,-1.2748091603053435
5229719533263,4.9147838,1,0.28012159423828126,1.7513585144042967,-11.194089862060546,-0.816793893129771,0.6335877862595419,-1.3358778625954197
5229726163628,4.921414165,1,0.2454056701660156,1.696291876220703,-11.180921752929686,-0.8778625954198473,0.5648854961832062,-1.3206106870229009
5229732828940,4.928079477,1,0.22266075439453123,1.7286135986328124,-11.215637677001952,-0.8473282442748091,0.5572519083969466,-1.282442748091603
5229739495607,4.934746144,1,0.21906945190429686,1.7369933044433592,-11.19169566040039,-0.7938931297709924,0.5877862595419847,-1.282442748091603
5229746162013,4.94141255,1,0.2501940734863281,1.70467158203125,-11.123460913085937,-0.8702290076335878,0.5038167938931297,-1.3587786259541985
5229752829461,4.948079998,1,0.1975216369628906,1.7310078002929687,-11.155782635498046,-0.9083969465648855,0.6870229007633588,-1.282442748091603
5229759494982,4.954745519,1,0.21308394775390624,1.7417817077636717,-11.149797131347656,-0.8091603053435115,0.5190839694656488,-1.3206106870229009
5229766162795,4.961413332,1,0.23582886352539062,1.7334020019531249,-11.180921752929686,-0.8091603053435115,0.549618320610687,-1.3358778625954197
5229772828940,4.968079477,1,0.2454056701660156,1.7489643127441405,-11.192892761230468,-0.8931297709923665,0.5572519083969466,-1.3206106870229009
5229779497118,4.974747655,1,0.22266075439453123,1.7741034301757812,-11.121066711425781,-0.7557251908396947,0.5267175572519084,-1.3358778625954197
5229786186649,4.981437186,1,0.239420166015625,1.714248388671875,-11.15338843383789,-0.7786259541984732,0.5954198473282443,-1.2900763358778626
5229792836128,4.988086665,1,0.22505495605468748,1.7310078002929687,-11.209652172851563,-0.8244274809160306,0.6793893129770993,-1.366412213740458
5229799495086,4.994745623,1,0.24899697265624998,1.7094599853515624,-11.186907257080078,-0.732824427480916,0.6412213740458015,-1.3282442748091603
5229806161961,5.001412498,1,0.24899697265624998,1.7178396911621092,-11.136629022216797,-0.8015267175572519,0.6030534351145038,-1.297709923664122
5229812829097,5.008079634,1,0.27293898925781246,1.7178396911621092,-11.215637677001952,-0.8320610687022901,0.5343511450381679,-1.2748091603053435
5229819491440,5.014741977,1,0.23223756103515625,1.7597382202148437,-11.19169566040039,-0.8396946564885496,0.6641221374045801,-1.2748091603053435
5229826163836,5.021414373,1,0.2166752502441406,1.7178396911621092,-11.19169566040039,-0.8549618320610687,0.5648854961832062,-1.3511450381679388
5229832826805,5.028077342,1,0.1879448303222656,1.7094599853515624,-11.139023223876952,-0.8549618320610687,0.6106870229007634,-1.3511450381679388
5229839495659,5.034746196,1,0.21428104858398436,1.7429788085937499,-11.189301458740234,-0.816793893129771,0.6106870229007634,-1.3053435114503817
5229846162430,5.041412967,1,0.24779987182617186,1.7357962036132812,-11.148600030517578,-0.7862595419847328,0.5648854961832062,-1.297709923664122
5229852829149,5.048079686,1,0.20829554443359374,1.7274164978027342,-11.179724652099608,-0.8244274809160306,0.6412213740458015,-1.297709923664122
5229859497847,5.054748384,1,0.2346317626953125,1.7190367919921874,-11.176133349609374,-0.8931297709923665,0.48091603053435117,-1.3282442748091603
5229866163263,5.0614138,1,0.1580173095703125,1.7501614135742187,-11.13423482055664,-0.7557251908396947,0.48854961832061067,-1.3587786259541985
5229872829097,5.068079634,1,0.18914193115234373,1.6627730529785156,-11.194089862060546,-0.8091603053435115,0.5954198473282443,-1.282442748091603
5229879496024,5.074746561,1,0.2537853759765625,1.725022296142578,-11.179724652099608,-0.8320610687022901,0.5038167938931297,-1.3358778625954197
5229886159774,5.081410311,1,0.2262520568847656,1.772906329345703,-11.196484063720703,-0.7251908396946565,0.4732824427480916,-1.2900763358778626
5229892830503,5.08808104,1,0.2442085693359375,1.705868682861328,-11.183315954589844,-0.8015267175572519,0.6106870229007634,-1.282442748091603
5229899496232,5.094746769,1,0.24181436767578124,1.7106570861816406,-11.18571015625,-0.7175572519083969,0.5190839694656488,-1.251908396946565
5229906162378,5.101412915,1,0.20709844360351562,1.7262193969726563,-11.189301458740234,-0.7938931297709924,0.6030534351145038,-1.3740458015267176
5229912829149,5.108079686,1,0.20350714111328125,1.753752716064453,-11.189301458740234,-0.8931297709923665,0.6335877862595419,-1.3129770992366412
5229919494149,5.114744686,1,0.20829554443359374,1.7453730102539062,-11.209652172851563,-0.7938931297709924,0.6030534351145038,-1.3511450381679388
5229926163315,5.121413852,1,0.20949264526367187,1.687912170410156,-11.143811627197264,-0.7862595419847328,0.5954198473282443,-1.366412213740458
5229932828367,5.128078904,1,0.23702596435546874,1.7405846069335937,-11.212046374511718,-0.8473282442748091,0.5877862595419847,-1.3587786259541985
5229939495347,5.134745884,1,0.2561795776367187,1.7202338928222656,-11.16057103881836,-0.7862595419847328,0.549618320610687,-1.366412213740458
5229946161753,5.14141229,1,0.2561795776367187,1.7357962036132812,-11.276689819335937,-0.7938931297709924,0.5877862595419847,-1.3511450381679388
5229952827378,5.148077915,1,0.18315642700195311,1.7393875061035156,-11.07677398071289,-0.8091603053435115,0.6946564885496184,-1.3511450381679388
5229959494253,5.15474479,1,0.23223756103515625,1.7393875061035156,-11.058817468261719,-0.7175572519083969,0.5343511450381679,-1.3282442748091603
5229966161440,5.161411977,1,0.24181436767578124,1.7561469177246092,-11.212046374511718,-0.816793893129771,0.5572519083969466,-1.381679389312977
5229972828107,5.168078644,1,0.21068974609375,1.7417817077636717,-11.194089862060546,-0.816793893129771,0.648854961832061,-1.3511450381679388
5229979491128,5.174741665,1,0.21308394775390624,1.7130512878417967,-11.17852755126953,-0.8091603053435115,0.5114503816793893,-1.3282442748091603
5229986162638,5.181413175,1,0.24660277099609373,1.7525556152343749,-11.164162341308593,-0.7709923664122137,0.5114503816793893,-1.2900763358778626
5229992848055,5.188098592,1,0.23702596435546874,1.7274164978027342,-11.182118853759764,-0.7633587786259542,0.5343511450381679,-1.2900763358778626
5229999505763,5.1947563,1,0.20470424194335937,1.753752716064453,-11.21683477783203,-0.7786259541984732,0.6259541984732825,-1.2900763358778626
5230006169201,5.201419738,1,0.2262520568847656,1.7106570861816406,-11.18571015625,-0.7709923664122137,0.5801526717557252,-1.3053435114503817
5230012867274,5.208117811,1,0.24061726684570311,1.7573440185546874,-11.156979736328124,-0.7022900763358778,0.5572519083969466,-1.297709923664122
5230019498524,5.214749061,1,0.24181436767578124,1.6807295654296874,-11.136629022216797,-0.7862595419847328,0.5572519083969466,-1.366412213740458
5230026158055,5.221408592,1,0.2214636535644531,1.7860744384765623,-11.136629022216797,-0.8702290076335878,0.48854961832061067,-1.366412213740458
5230032828836,5.228079373,1,0.2442085693359375,1.6891092712402342,-11.133037719726563,-0.8854961832061069,0.5725190839694656,-1.3129770992366412
5230039492534,5.234743071,1,0.21428104858398436,1.6651672546386718,-11.105504400634764,-0.8778625954198473,0.6946564885496184,-1.3893129770992367
5230046162638,5.241413175,1,0.23104046020507812,1.705868682861328,-11.243170996093749,-0.816793893129771,0.5648854961832062,-1.3053435114503817
5230052825711,5.248076248,1,0.23343466186523437,1.7405846069335937,-11.170147845458983,-0.8320610687022901,0.6183206106870229,-1.3358778625954197
5230059492326,5.254742863,1,0.20231004028320312,1.714248388671875,-11.186907257080078,-0.7938931297709924,0.6412213740458015,-1.3053435114503817
5230066158211,5.261408748,1,0.21188684692382811,1.7501614135742187,-11.154585534667968,-0.8015267175572519,0.5419847328244275,-1.3358778625954197
5230072825034,5.268075571,1,0.229843359375,1.707065783691406,-11.206060870361327,-0.8549618320610687,0.549618320610687,-1.3206106870229009
5230079491388,5.274741925,1,0.19153613281249998,1.7357962036132812,-11.118672509765624,-0.8473282442748091,0.5267175572519084,-1.3511450381679388
5230086158524,5.281409061,1,0.3028665100097656,1.7262193969726563,-11.104307299804686,-0.7404580152671756,0.5572519083969466,-1.297709923664122
5230092824774,5.288075311,1,0.3028665100097656,1.7298106994628906,-11.188104357910156,-0.8244274809160306,0.6106870229007634,-1.3587786259541985
5230099491857,5.294742394,1,0.22505495605468748,1.7298106994628906,-11.165359442138671,-0.7938931297709924,0.6030534351145038,-1.3740458015267176
5230106159669,5.301410206,1,0.2154781494140625,1.7453730102539062,-11.165359442138671,-0.7938931297709924,0.6183206106870229,-1.3435114503816794
5230112830972,5.308081509,1,0.23582886352539062,1.7513585144042967,-11.156979736328124,-0.8473282442748091,0.6793893129770993,-1.2671755725190839
5230119492899,5.314743436,1,0.20709844360351562,1.7477672119140624,-11.166556542968749,-0.8473282442748091,0.549618320610687,-1.297709923664122
5230126158628,5.321409165,1,0.24181436767578124,1.7262193969726563,-11.165359442138671,-0.7786259541984732,0.549618320610687,-1.2748091603053435
5230132824669,5.328075206,1,0.19393033447265623,1.7322049011230467,-11.184513055419922,-0.816793893129771,0.549618320610687,-1.2748091603053435
5230139492222,5.334742759,1,0.2214636535644531,1.7238251953125,-11.202469567871093,-0.8015267175572519,0.5801526717557252,-1.381679389312977
5230146159201,5.341409738,1,0.24301146850585936,1.7298106994628906,-11.239579693603515,-0.7557251908396947,0.5114503816793893,-1.3129770992366412
5230152825451,5.348075988,1,0.20829554443359374,1.7465701110839842,-11.176133349609374,-0.8625954198473282,0.549618320610687,-1.2748091603053435
5230159491857,5.354742394,1,0.23223756103515625,1.7034744812011717,-11.155782635498046,-0.7938931297709924,0.5190839694656488,-1.2671755725190839
5230166158732,5.361409269,1,0.21308394775390624,1.7238251953125,-11.182118853759764,-0.7557251908396947,0.5572519083969466,-1.3435114503816794
5230172825867,5.368076404,1,0.27892449340820313,1.714248388671875,-11.19887826538086,-0.7557251908396947,0.5572519083969466,-1.381679389312977
5230179491649,5.374742186,1,0.1867477294921875,1.7429788085937499,-11.162965240478515,-0.9236641221374046,0.6412213740458015,-1.3282442748091603
5230186157117,5.381407654,1,0.20709844360351562,1.744175909423828,-11.164162341308593,-0.7480916030534351,0.5572519083969466,-1.282442748091603
5230192824774,5.388075311,1,0.23582886352539062,1.7130512878417967,-11.186907257080078,-0.7557251908396947,0.5190839694656488,-1.251908396946565
5230199491388,5.394741925,1,0.2657563842773437,1.7573440185546874,-11.17254204711914,-0.8549618320610687,0.5648854961832062,-1.282442748091603
5230206159930,5.401410467,1,0.25258827514648435,1.7429788085937499,-11.159373937988281,-0.8091603053435115,0.48091603053435117,-1.3282442748091603
5230212824982,5.408075519,1,0.24899697265624998,1.7178396911621092,-11.145008728027342,-0.8244274809160306,0.5190839694656488,-1.2748091603053435
5230219490815,5.414741352,1,0.239420166015625,1.7657237243652342,-11.165359442138671,-0.8244274809160306,0.5419847328244275,-1.3053435114503817
5230226155607,5.421406144,1,0.2262520568847656,1.753752716064453,-11.206060870361327,-0.8015267175572519,0.5267175572519084,-1.2442748091603053
5230232827847,5.428078384,1,0.2262520568847656,1.715445489501953,-11.161768139648437,-0.8931297709923665,0.5190839694656488,-1.3206106870229009
5230239492013,5.43474255,1,0.20350714111328125,1.7429788085937499,-11.23718549194336,-0.8320610687022901,0.5954198473282443,-1.3511450381679388
5230246158472,5.441409009,1,0.2454056701660156,1.7429788085937499,-11.313799945068359,-0.7938931297709924,0.5572519083969466,-1.2442748091603053
5230252825294,5.448075831,1,0.2166752502441406,1.715445489501953,-11.16057103881836,-0.8091603053435115,0.6641221374045801,-1.3053435114503817
5230259493159,5.454743696,1,0.2214636535644531,1.7166425903320313,-11.21683477783203,-0.8091603053435115,0.5190839694656488,-1.381679389312977
5230266159617,5.461410154,1,0.22505495605468748,1.7525556152343749,-11.156979736328124,-0.7786259541984732,0.48091603053435117,-1.3435114503816794
5230272824409,5.468074946,1,0.2454056701660156,1.7238251953125,-11.165359442138671,-0.7251908396946565,0.48091603053435117,-1.282442748091603
5230279504617,5.474755154,1,0.24301146850585936,1.7513585144042967,-11.128249316406249,-0.7862595419847328,0.6030534351145038,-1.282442748091603
5230286162065,5.481412602,1,0.24899697265624998,1.7429788085937499,-11.219228979492186,-0.7862595419847328,0.549618320610687,-1.3358778625954197
5230292822794,5.488073331,1,0.21068974609375,1.7274164978027342,-11.166556542968749,-0.8015267175572519,0.48854961832061067,-1.4198473282442747
5230299494669,5.494745206,1,0.2262520568847656,1.7800889343261719,-11.155782635498046,-0.7404580152671756,0.48091603053435117,-1.3053435114503817
5230306158055,5.501408592,1,0.21906945190429686,1.7238251953125,-11.170147845458983,-0.7557251908396947,0.5877862595419847,-1.3740458015267176
5230312827117,5.508077654,1,0.21428104858398436,1.7573440185546874,-11.25514200439453,-0.7099236641221374,0.5648854961832062,-1.3435114503816794
5230319492482,5.514743019,1,0.21188684692382811,1.6795324645996093,-11.128249316406249,-0.9236641221374046,0.5419847328244275,-1.297709923664122
5230326163159,5.521413696,1,0.2705447875976562,1.744175909423828,-11.164162341308593,-0.9312977099236641,0.6946564885496184,-1.3282442748091603
5230332828836,5.528079373,1,0.16759411621093748,1.7561469177246092,-11.17852755126953,-0.8091603053435115,0.48091603053435117,-1.3129770992366412
5230339495399,5.534745936,1,0.20231004028320312,1.7226280944824217,-11.203666668701171,-0.8625954198473282,0.5801526717557252,-1.3053435114503817
5230346161180,5.541411717,1,0.229843359375,1.753752716064453,-11.243170996093749,-0.7786259541984732,0.5954198473282443,-1.3129770992366412
5230352828680,5.548079217,1,0.23822306518554687,1.7405846069335937,-11.206060870361327,-0.8549618320610687,0.5419847328244275,-1.3511450381679388
5230359495190,5.554745727,1,0.2262520568847656,1.7405846069335937,-11.183315954589844,-0.9236641221374046,0.5725190839694656,-1.3587786259541985
5230366173732,5.561424269,1,0.2537853759765625,1.7405846069335937,-11.208455072021483,-0.8244274809160306,0.5648854961832062,-1.3969465648854962
5230372829721,5.568080258,1,0.24181436767578124,1.707065783691406,-11.19887826538086,-0.816793893129771,0.5801526717557252,-1.2748091603053435
5230379493992,5.574744529,1,0.24181436767578124,1.7489643127441405,-11.241973895263671,-0.8473282442748091,0.6793893129770993,-1.3358778625954197
5230386161753,5.58141229,1,0.23582886352539062,1.7489643127441405,-11.174936248779296,-0.8625954198473282,0.6412213740458015,-1.3511450381679388
