timestamp_ns,t_s,sensor_id,ax,ay,az,gx,gy,gz
6207121217370,0.064776459,1,-3.6439749267578123,8.410830432128906,4.016273284912109,3.3435114503816794,51.9236641221374,52.61832061068702
6207131174922,0.074734011,1,-2.6408044311523438,7.951143713378905,5.040991595458984,35.7557251908397,73.13740458015268,68.55725190839695
6207141176953,0.084736042,1,-3.3004069885253906,6.83783994140625,5.766434698486328,66.78625954198473,66.19083969465649,84.94656488549619
6207151179974,0.094739063,1,-3.573345977783203,6.247669232177734,5.9591679321289055,19.6793893129771,31.587786259541986,68.68702290076335
6207161223203,0.104782292,1,-2.529474053955078,5.843049151611328,6.373364819335937,-55.81679389312977,8.938931297709924,51.16030534351145
6207171178411,0.1147375,1,-4.010287780761718,6.439205364990234,6.317101080322265,-33.603053435114504,-0.030534351145038167,44.63358778625954
6207181172786,0.124731875,1,-4.493916516113281,6.198588098144531,6.0525417968749995,-22.16793893129771,-26.52671755725191,54.80916030534351
6207191171224,0.134730313,1,-3.878606689453125,6.287173559570312,5.832275244140624,1.9236641221374047,-28.022900763358777,55.00763358778626
6207201184661,0.14474375,1,-3.2345664428710936,5.811924530029296,6.275202551269531,16.641221374045802,-30.33587786259542,57.0763358778626
6207211175911,0.154735,1,-2.503137835693359,4.854243865966796,6.287173559570312,44.56488549618321,-40.603053435114504,61.3206106870229
6207221173203,0.164732292,1,-1.7166425903320313,3.4428619873046875,5.90529839477539,71.48091603053435,-59.89312977099237,64.65648854961832
6207231170182,0.174729271,1,-2.5426421630859375,3.9600095458984375,5.084087225341796,55.6412213740458,-90.7557251908397,24.48854961832061
6207241170807,0.184729896,1,-2.3965958618164063,5.689820245361328,4.435258575439453,-95.2442748091603,-130.46564885496184,-54.86259541984733
6207251170755,0.194729844,1,-2.4001871643066406,7.653065606689452,3.921702319335937,-197.3969465648855,-150.08396946564886,-108.61832061068702
6207261170599,0.204729688,1,-2.50912333984375,8.773551983642578,3.2309751403808593,-115.67175572519083,-123.3969465648855,-102.06870229007633
6207271170859,0.214729948,1,-2.27927998046875,8.923189587402343,3.068169427490234,-0.06870229007633588,-76.48091603053435,-71.0381679389313
6207281170807,0.224729896,1,-2.1631611999511717,8.26119282836914,2.4001871643066406,30.38167938931298,-69.23664122137404,-44.06106870229008
6207291170963,0.234730052,1,-2.2098481323242187,7.560888842773437,1.3934253662109375,19.267175572519083,-67.78625954198473,-36.229007633587784
6207301172630,0.244731719,1,-1.9716250671386717,7.147889056396484,0.8990227233886718,15.061068702290076,-43.74809160305343,-32.86259541984733
6207311171068,0.254730157,1,-1.838746875,7.137115148925781,1.073799444580078,39.83206106870229,-5.572519083969466,-31.793893129770993
6207321170338,0.264729427,1,-2.0171148986816405,7.637503295898437,1.6017209106445311,59.282442748091604,23.412213740458014,-30.412213740458014
6207331171484,0.274730573,1,-2.759317413330078,8.300697155761718,2.2086510314941403,39.82442748091603,33.9236641221374,-28.244274809160306
6207341173203,0.284732292,1,-3.239354846191406,8.789114294433594,3.2130186279296873,18.748091603053435,43.74045801526717,-28.64885496183206
6207351171120,0.294730209,1,-3.0645781249999997,9.718064538574218,3.864241479492187,15.358778625954198,52.80916030534351,-28.64885496183206
6207361170547,0.304729636,1,-3.4153286682128905,9.307458953857422,3.774458917236328,6.7251908396946565,33.12213740458015,-8.374045801526718
6207371170130,0.314729219,1,-3.4261025756835934,8.795099798583983,4.128800762939453,24.633587786259543,35.412213740458014,7.0534351145038165
6207381169818,0.324728907,1,-2.366668341064453,8.231265307617187,4.031835595703125,23.900763358778626,36.30534351145038,14.725190839694656
6207391170443,0.334729532,1,-2.47081611328125,7.545326531982422,3.7146038757324216,19.480916030534353,33.29007633587786,24.129770992366414
6207401170963,0.344730052,1,-3.191470812988281,7.101202124023437,3.8367081604003905,15.34351145038168,44.13740458015267,24.549618320610687
6207411170599,0.354729688,1,-3.1507693847656246,7.559691741943359,5.031414788818359,23.603053435114504,78.65648854961832,11.702290076335878
6207421170495,0.364729584,1,-2.81558115234375,7.837419134521484,5.930437512207031,16.984732824427482,84.51908396946565,6.312977099236641
6207431169922,0.374729011,1,-3.1304186706542967,7.334636785888671,6.02022007446289,11.435114503816793,60.2442748091603,17.595419847328245
6207441170599,0.384729688,1,-3.0693665283203124,6.489483599853515,5.500678314208984,29.603053435114504,38.02290076335878,26.389312977099237
6207451170286,0.394729375,1,-3.1483751831054687,5.877765075683594,5.6946086486816405,26.801526717557252,33.70229007633588,24.69465648854962
6207461170963,0.404730052,1,-2.829946362304687,5.747281085205078,5.190629199218749,23.740458015267176,16.3206106870229,13.221374045801527
6207471170859,0.414729948,1,-3.229778039550781,5.6946086486816405,4.921281512451172,0.0,-0.6870229007633588,3.2290076335877864
6207481170547,0.424729636,1,-3.181894006347656,6.34583150024414,4.899733697509765,-9.312977099236642,-3.8091603053435112,-16.015267175572518
6207491170859,0.434729948,1,-3.5386300537109374,7.208941198730468,4.90931050415039,-15.396946564885496,-6.480916030534351,-26.480916030534353
6207501169713,0.444728802,1,-3.6918589599609373,8.173804467773436,5.351040710449219,-34.16793893129771,-15.572519083969466,-35.51145038167939
6207511171067,0.454730156,1,-3.3698388366699215,8.792705596923827,5.664681127929687,-60.88549618320611,-24.290076335877863,-40.16030534351145
6207521171432,0.464730521,1,-3.3303345092773435,8.987833032226561,5.524620330810547,-40.9236641221374,-33.343511450381676,-27.450381679389313
6207531171276,0.474730365,1,-3.4823663146972654,8.58680425415039,4.930858319091796,-24.549618320610687,-49.229007633587784,-8.50381679389313
6207541169974,0.484729063,1,-3.5877111877441403,7.8721350585937495,4.349067315673828,-23.52671755725191,-55.63358778625954,4.1679389312977095
6207551169817,0.494728906,1,-3.3207577026367185,7.9092451843261715,4.058171813964844,-15.732824427480915,-48.68702290076336,4.4961832061068705
6207561170390,0.504729479,1,-2.81558115234375,7.3657614074707025,3.6284126159667967,-23.14503816793893,-48.68702290076336,11.435114503816793
6207571170495,0.514729584,1,-2.6791116577148437,6.795941412353515,3.3303345092773435,-1.1221374045801527,-39.16030534351145,14.183206106870228
6207581169817,0.524728906,1,-2.578555187988281,6.313509777832031,3.0550013183593747,10.396946564885496,-31.435114503816795,14.091603053435115
6207591170286,0.534729375,1,-2.6216508178710938,6.38413872680664,3.5410242553710933,17.755725190839694,-4.893129770992366,5.33587786259542
6207601171640,0.544730729,1,-2.2158336364746094,6.342240197753906,3.9600095458984375,5.801526717557252,-1.251908396946565,-1.4809160305343512
6207611170182,0.554729271,1,-2.328361114501953,7.138312249755859,4.218583325195312,2.8396946564885495,4.251908396946565,-15.748091603053435
6207621170026,0.564729115,1,-2.7832594299316407,7.249642626953125,4.622006304931641,-8.122137404580153,3.763358778625954,-14.587786259541986
6207631170755,0.574729844,1,-3.0609868225097654,7.593210565185546,4.917690209960937,5.580152671755725,8.770992366412214,-13.870229007633588
6207641169453,0.584728542,1,-3.0897172424316404,7.807491613769531,5.219359619140625,13.404580152671755,9.13740458015267,-10.549618320610687
6207651170547,0.594729636,1,-3.1495722839355467,7.967903124999999,5.453991381835937,5.366412213740458,-0.26717557251908397,-8.526717557251908
6207661170807,0.604729896,1,-3.0801404357910154,7.934384301757812,5.446808776855469,0.2595419847328244,-12.13740458015267,-4.0458015267175576
6207671170703,0.614729792,1,-3.180696905517578,7.7224974548339835,5.293579870605469,3.6412213740458017,-25.610687022900763,2.8396946564885495
6207681171067,0.624730156,1,-3.4249054748535155,7.4411787597656245,5.1511248718261715,-1.1221374045801527,-34.12213740458015,4.6183206106870225
6207691169765,0.634728854,1,-3.475183709716797,7.292738256835937,5.224148022460938,-7.320610687022901,-36.66412213740458,5.763358778625954
6207701178932,0.644738021,1,-3.047818713378906,7.2532339294433585,5.567715960693359,7.5038167938931295,-30.480916030534353,6.2748091603053435
6207711173255,0.654732344,1,-2.9700071594238278,7.144297753906249,5.827486840820312,10.877862595419847,-35.76335877862596,8.450381679389313
6207721169765,0.664728854,1,-2.941276739501953,7.189787585449218,5.985504150390625,-2.4656488549618323,-46.36641221374046,5.603053435114504
6207731171067,0.674730156,1,-2.384624853515625,7.794323504638672,5.687426043701172,-9.664122137404581,-52.847328244274806,2.7709923664122136
6207741170338,0.684729427,1,-2.3020248962402343,7.789535101318359,4.893748193359374,-28.793893129770993,-84.47328244274809,4.038167938931298
6207751170130,0.694729219,1,-2.1033061584472654,7.080851409912109,4.100070343017578,-40.18320610687023,-95.63358778625954,9.396946564885496
6207761171015,0.704730104,1,-1.9069816223144531,6.429628558349609,3.025073797607422,-15.13740458015267,-96.04580152671755,13.748091603053435
6207771170494,0.714729583,1,-1.158793603515625,6.308721374511719,2.5917232971191404,-3.3206106870229006,-77.90076335877863,8.221374045801527
6207781171067,0.724730156,1,-0.8966285217285156,6.101622930908203,2.3163901062011716,-20.572519083969464,-67.34351145038168,-0.13740458015267176
6207791170599,0.734729688,1,-1.0510545288085937,6.482300994873047,2.366668341064453,-22.129770992366414,-48.87786259541985,-12.648854961832061
6207801171015,0.744730104,1,-1.3263877197265623,6.912060192871094,3.095702746582031,-27.770992366412212,-29.061068702290076,-20.297709923664122
6207811170182,0.754729271,1,-2.039859814453125,7.523778717041015,4.046200805664062,-22.47328244274809,-5.099236641221374,-24.6793893129771
6207821171224,0.764730313,1,-2.426523382568359,8.224082702636718,5.480327600097656,-2.8473282442748094,16.740458015267176,-22.938931297709924
6207831171380,0.774730469,1,-2.522291448974609,8.757989672851561,6.762422589111328,-7.129770992366412,23.427480916030536,-20.900763358778626
6207841168984,0.784728073,1,-2.4301146850585935,8.84178673095703,7.345410693359375,-23.778625954198475,-1.83206106870229,-13.198473282442748
6207851171276,0.794730365,1,-2.393004559326172,8.340201483154296,7.13112964477539,-34.10687022900763,-37.17557251908397,1.4580152671755726
6207861170755,0.804729844,1,-2.2266075439453124,7.313088970947265,6.106411334228516,-25.458015267175572,-65.26717557251908,18.061068702290076
6207871170703,0.814729792,1,-2.1679496032714844,6.311115576171875,5.2253451232910155,-19.053435114503817,-75.7175572519084,24.33587786259542
6207881170026,0.824729115,1,-2.3714567443847656,5.950788226318359,4.9069163024902345,-23.52671755725191,-72.22137404580153,16.49618320610687
6207891170911,0.83473,1,-2.644395733642578,6.0345852844238275,5.1882349975585935,-35.06870229007634,-61.778625954198475,2.8625954198473282
6207901171224,0.844730313,1,-2.634818927001953,6.411672045898437,5.999869360351562,-30.9618320610687,-45.343511450381676,-4.66412213740458
6207911171067,0.854730156,1,-2.4564509033203126,6.86297905883789,6.828263134765624,-12.389312977099237,-38.38931297709924,-5.183206106870229
6207921170286,0.864729375,1,-2.1978771240234374,6.965929730224609,7.079654309082031,-10.50381679389313,-50.49618320610687,-0.22137404580152673
6207931171588,0.874730677,1,-1.599326708984375,6.628347296142578,7.5142019104003905,-10.580152671755725,-57.82442748091603,5.984732824427481
6207941170546,0.884729635,1,-1.4628572143554686,6.568492254638672,6.870161663818359,31.984732824427482,-74.4885496183206,10.84732824427481
6207951171536,0.894730625,1,-1.052251629638672,5.936423016357422,5.558139154052734,24.099236641221374,-103.54198473282443,15.992366412213741
6207961170390,0.904729479,1,-0.41419688720703124,5.143942266845703,3.8941690002441405,-3.480916030534351,-121.12977099236642,5.030534351145038
6207971170494,0.914729583,1,-0.18076222534179687,5.386953735351562,2.3367408203125,-7.442748091603053,-122.56488549618321,-12.549618320610687
6207981170599,0.924729688,1,0.7410054138183594,5.503072515869141,1.3335703247070312,-22.549618320610687,-100.65648854961832,-27.16030534351145
6207991170390,0.934729479,1,0.97683427734375,5.9783215454101555,1.1671733093261718,5.396946564885496,-56.25954198473283,-43.74809160305343
6208001175338,0.944734427,1,0.7218518005371093,6.276399652099609,1.5550339782714844,27.6793893129771,-16.83206106870229,-49.412213740458014
6208011211536,0.954770625,1,-0.03232172241210937,6.828263134765624,2.421734979248047,24.099236641221374,15.709923664122137,-58.6412213740458
6208021175026,0.964734115,1,-1.2294225524902342,7.229291912841797,3.9528269409179684,15.65648854961832,44.37404580152672,-60.62595419847328
6208031170599,0.974729688,1,-2.067393133544922,7.7799582946777335,5.492298608398437,42.54961832061068,67.85496183206106,-55.61068702290076
6208041173776,0.984732865,1,-2.6420015319824217,8.75320126953125,7.339425189208984,52.83206106870229,80.99236641221374,-55.725190839694655
6208051171224,0.994730313,1,-2.3918074584960936,8.877699755859375,8.17141026611328,18.557251908396946,45.900763358778626,-39.12977099236641
6208061168828,1.004727917,1,-1.3838485595703125,9.457096557617186,8.821436016845702,23.198473282442748,25.633587786259543,-32.343511450381676
6208071166848,1.014725937,1,-0.9983820922851562,9.537302313232422,8.844180932617187,0.8473282442748091,-13.389312977099237,-16.66412213740458
6208081170130,1.024729219,1,-1.369483349609375,8.558073834228516,7.006631158447266,-35.50381679389313,-80.68702290076335,7.908396946564886
6208091169036,1.034728125,1,-1.4006079711914061,7.800309008789062,5.534197137451171,-35.42748091603053,-99.29007633587786,16.564885496183205
6208101170494,1.044729583,1,-1.5957354064941405,7.368155609130859,4.246116644287109,-33.81679389312977,-98.31297709923665,18.572519083969464
6208111170651,1.05472974,1,-1.2737152832031249,6.236895324707031,3.9169139160156248,-59.19083969465649,-88.76335877862596,25.3206106870229
6208121166484,1.064725573,1,-0.8978256225585937,6.605602380371093,4.420893365478515,-14.15267175572519,-53.50381679389313,15.450381679389313
6208131170703,1.074729792,1,-0.4225765930175781,6.845022546386718,5.317521887207031,-4.244274809160306,-27.862595419847327,11.267175572519085
6208141172213,1.084731302,1,-0.9971849914550781,6.379350323486328,5.1152118469238275,-10.694656488549619,-48.16030534351145,21.198473282442748
6208151171119,1.094730208,1,-0.46686932373046874,6.141127258300781,5.233724829101562,-5.625954198473282,-40.32824427480916,16.923664122137403
6208161170338,1.104729427,1,0.010773907470703125,6.648698010253906,5.6215854980468745,5.908396946564886,-26.404580152671755,5.648854961832061
6208171167369,1.114726458,1,-0.17836802368164062,6.630741497802734,5.364208819580078,-7.526717557251908,-42.091603053435115,4.8396946564885495
6208181170807,1.124729896,1,-0.7134720947265625,6.89530078125,5.125985754394531,-18.50381679389313,-49.55725190839695,0.3511450381679389
6208191170494,1.134729583,1,-0.2166752502441406,6.78636460571289,4.7884033203125,-27.923664122137403,-49.396946564885496,-0.22900763358778625
6208201170442,1.144729531,1,-0.5303156677246094,6.855796453857422,4.942829327392578,-13.442748091603054,-36.74045801526717,2.122137404580153
6208211171901,1.15473099,1,-0.29568390502929687,6.8773442687988275,5.17746109008789,12.793893129770993,-24.15267175572519,8.931297709923664
6208221168880,1.164727969,1,-0.2549824768066406,6.676231329345702,5.932831713867187,20.587786259541986,-10.526717557251908,11.488549618320612
6208231170078,1.174729167,1,-0.55545478515625,6.673837127685546,6.508637213134765,26.984732824427482,-10.83969465648855,13.183206106870228
6208241169973,1.184729062,1,-0.5506663818359374,6.655880615234374,6.9515645202636716,5.648854961832061,-17.519083969465647,7.687022900763359
6208251169609,1.194728698,1,0.5662286926269531,6.604405279541015,6.855796453857422,7.740458015267175,-24.015267175572518,8.13740458015267
6208261170078,1.204729167,1,-0.27174188842773433,6.4739212890625,6.518214019775391,22.87786259541985,-39.87786259541985,12.106870229007633
6208271175026,1.214734115,1,-1.1061211669921875,6.68461103515625,5.945999822998046,6.198473282442748,-52.786259541984734,8.48091603053435
6208281174401,1.22473349,1,-0.2980781066894531,6.672640026855468,5.671863732910156,-18.82442748091603,-54.82442748091603,1.900763358778626
6208291171328,1.234730417,1,0.003591302490234375,7.268796240234375,6.13514175415039,-9.389312977099237,-38.93893129770992,-5.8320610687022905
6208301171015,1.244730104,1,-0.11372457885742186,7.356184600830078,6.074089611816406,-3.435114503816794,-49.63358778625954,5.809160305343512
6208311170442,1.254729531,1,-0.18076222534179687,7.320271575927734,6.023811376953125,-0.04580152671755725,-47.465648854961835,9.419847328244275
6208321171223,1.264730312,1,-0.5027823486328125,6.333860491943359,5.315127685546875,27.259541984732824,-56.595419847328245,26.328244274809162
6208331171692,1.274730781,1,0.06344634399414062,6.259640240478515,5.475539196777343,30.33587786259542,-46.725190839694655,11.916030534351146
6208341172057,1.284731146,1,0.8116343627929687,7.211335400390625,5.5449710449218745,2.2213740458015265,-40.908396946564885,-1.0
6208351170182,1.294729271,1,-0.14245499877929688,6.285976458740234,4.7369279846191406,-2.1526717557251906,-63.6412213740458,11.358778625954198
6208361171380,1.304730469,1,1.035492218017578,6.718129858398437,4.496310717773437,29.81679389312977,-43.404580152671755,4.419847328244275
6208371170390,1.314729479,1,1.638831036376953,6.800729815673828,4.765658404541015,7.770992366412214,-26.442748091603054,-8.938931297709924
6208381170286,1.324729375,1,1.399410870361328,6.883329772949218,4.078522528076172,-2.7251908396946565,-40.33587786259542,-3.099236641221374
6208391170234,1.334729323,1,0.7781155395507812,7.1023992248535155,3.902548706054687,12.412213740458014,-21.12213740458015,-6.2748091603053435
6208401171484,1.344730573,1,0.2657563842773437,7.204152795410156,4.086902233886718,4.748091603053435,-10.793893129770993,-8.549618320610687
6208411172994,1.354732083,1,1.1432312927246093,7.466317877197265,4.2892122741699215,1.4274809160305344,-0.2748091603053435,-15.801526717557252
6208421170546,1.364729635,1,1.3299790222167969,7.644685900878906,4.335899206542969,12.206106870229007,5.076335877862595,-10.290076335877863
6208431171119,1.374730208,1,0.8032546569824218,7.455543969726562,4.3801919372558595,5.015267175572519,-0.7099236641221374,-6.847328244274809
6208441170182,1.384729271,1,0.9409212524414062,7.52737001953125,4.6076410949707025,-7.427480916030534,4.312977099236641,-9.603053435114504
6208451171328,1.394730417,1,0.6356605407714844,8.070853796386718,4.76924970703125,0.44274809160305345,10.549618320610687,-8.419847328244275
6208461170078,1.404729167,1,0.7649474304199219,7.499836700439452,4.479551306152343,-6.595419847328245,7.66412213740458,1.1221374045801527
6208471172109,1.414731198,1,0.737414111328125,7.491456994628906,4.824316345214844,0.1297709923664122,21.564885496183205,4.648854961832061
6208481170963,1.424730052,1,1.0845733520507812,7.394491827392578,5.090072729492187,22.18320610687023,36.51145038167939,7.687022900763359
6208491170807,1.434729896,1,0.5590460876464843,6.957550024414062,5.572504364013671,18.137404580152673,35.41984732824427,11.725190839694656
6208501171119,1.444730208,1,0.5985504150390625,7.1035963256835934,5.969941839599609,6.717557251908397,34.83969465648855,2.8625954198473282
6208511170442,1.454729531,1,0.584185205078125,7.204152795410156,6.102820031738281,2.1755725190839694,26.328244274809162,-1.1068702290076335
6208521169973,1.464729062,1,0.2346317626953125,7.038952880859375,5.892130285644531,-11.076335877862595,10.603053435114504,0.05343511450381679
6208531170702,1.474729791,1,-0.09696516723632811,6.8210805297851556,5.547365246582031,-6.076335877862595,1.7786259541984732,3.3053435114503817
6208541170702,1.484729791,1,0.09457096557617187,6.817489227294922,5.250484240722656,-2.732824427480916,3.045801526717557,1.015267175572519
6208551171900,1.494730989,1,0.5434837768554687,6.999448553466796,5.439626171875,-13.419847328244275,5.427480916030534,-3.183206106870229
6208561169713,1.504728802,1,1.1623849060058593,7.229291912841797,5.77122310180664,-2.145038167938931,13.236641221374045,-3.2213740458015265
6208571169973,1.514729062,1,0.9445125549316405,7.096413720703125,5.634753607177734,4.564885496183206,6.343511450381679,0.022900763358778626
6208581172057,1.524731146,1,0.8080430603027343,7.145494854736327,5.7520694885253905,-10.610687022900763,5.694656488549619,-3.7251908396946565
6208591170546,1.534729635,1,0.8475473876953125,7.337030987548828,5.724536169433593,-0.31297709923664124,10.320610687022901,-6.9541984732824424
6208601171327,1.544730416,1,0.46806642456054687,7.067683300781249,5.367800122070312,-4.068702290076335,2.549618320610687,-2.9923664122137406
6208611171484,1.554730573,1,0.4740519287109375,6.904877587890625,5.044582897949218,-5.175572519083969,1.5419847328244274,-2.7786259541984735
6208621170234,1.564729323,1,0.5147533569335937,6.835445739746094,4.594472985839843,-0.366412213740458,4.427480916030534,-3.4885496183206106
6208631169973,1.574729062,1,0.33399113159179683,6.679822631835937,4.149151477050781,-5.412213740458015,3.969465648854962,-4.458015267175573
6208641170286,1.584729375,1,0.5027823486328125,6.5218053222656245,4.024652990722656,-5.99236641221374,14.954198473282442,-8.038167938931299
6208651170234,1.594729323,1,0.7613561279296874,6.567295153808593,4.273649963378906,9.625954198473282,34.961832061068705,-13.045801526717558
6208661170130,1.604729219,1,0.5710170959472656,6.7277066650390625,4.8698061767578125,17.916030534351144,49.76335877862596,-16.18320610687023
6208671170338,1.614729427,1,0.5662286926269531,6.974309436035155,5.604826086425781,19.374045801526716,59.038167938931295,-20.435114503816795
6208681170598,1.624729687,1,0.5410895751953124,8.028955267333984,6.459556079101562,9.587786259541986,64.43511450381679,-33.725190839694655
6208691170546,1.634729635,1,-0.6596025573730468,8.044517578125,6.545747338867187,-15.068702290076336,37.595419847328245,-23.923664122137403
6208701169973,1.644729062,1,-1.2222399475097656,8.2743609375,6.387730029296875,2.122137404580153,26.977099236641223,-14.83206106870229
6208711170442,1.654729531,1,-0.6560112548828124,8.708908538818358,6.702567547607422,-1.9541984732824427,27.48854961832061,-13.48091603053435
6208721170650,1.664729739,1,-0.5470750793457031,8.760383874511719,6.566098052978515,-21.900763358778626,4.351145038167939,-3.366412213740458
6208731170077,1.674729166,1,-1.2389993591308592,7.994239343261718,5.819107135009765,-12.488549618320612,-17.709923664122137,19.12213740458015
6208741170494,1.684729583,1,0.30406361083984373,7.830236529541015,5.054159704589844,4.320610687022901,-19.068702290076335,22.076335877862597
6208751170129,1.694729218,1,0.9265560424804687,7.338228088378906,4.574122271728515,-28.31297709923664,-21.366412213740457,24.38167938931298
6208761171223,1.704730312,1,0.8774749084472656,6.586448767089843,3.4165257690429685,-21.748091603053435,-28.35114503816794,30.221374045801525
6208771170182,1.714729271,1,0.6117185241699218,5.543773944091797,2.3499089294433593,-10.01526717557252,-19.267175572519083,34.083969465648856
6208781170234,1.724729323,1,0.7745242370605468,5.055356805419922,2.1116858642578125,5.519083969465649,18.33587786259542,20.763358778625953
6208791170129,1.734729218,1,0.8271966735839843,5.27322915649414,2.488772625732422,17.419847328244273,59.725190839694655,1.4427480916030535
6208801170182,1.744729271,1,0.3220201232910156,5.838260748291015,3.5793314819335937,5.7251908396946565,89.0,-15.053435114503817
6208811169869,1.754728958,1,-0.3495534423828125,6.458358978271484,4.65432802734375,-0.8473282442748091,102.12213740458016,-27.85496183206107
6208821170754,1.764729843,1,-0.6607996582031249,6.926425402832031,5.444414575195312,6.625954198473282,107.98473282442748,-26.6793893129771
6208831169400,1.774728489,1,-0.39743747558593745,7.396886029052734,6.350619903564453,29.633587786259543,124.09160305343511,-20.328244274809162
6208841170963,1.784730052,1,-0.6631938598632812,7.254431030273437,6.300341668701171,45.030534351145036,111.59541984732824,-9.80916030534351
6208851177473,1.794736562,1,-1.4329296936035156,6.768408093261718,5.912480999755859,32.29770992366412,93.3969465648855,-6.549618320610687
6208861172682,1.804731771,1,-1.4053963745117186,7.164648468017577,6.003460662841796,33.49618320610687,92.55725190839695,-19.442748091603054
6208871170129,1.814729218,1,-1.197100830078125,7.127538342285156,6.472724188232421,26.908396946564885,88.80916030534351,-23.6793893129771
6208881170650,1.824729739,1,-1.5119383483886717,7.143100653076171,6.580463262939452,24.206106870229007,70.07633587786259,-22.946564885496183
6208891170129,1.834729218,1,-2.166752502441406,7.362170104980469,6.730100866699218,17.221374045801525,60.396946564885496,-24.748091603053435
6208901170807,1.844729896,1,-2.138022082519531,7.851784344482422,6.445190869140625,2.816793893129771,40.54961832061068,-28.83206106870229
6208911172004,1.854731093,1,-1.656787548828125,8.289923248291014,6.591237170410156,-8.129770992366412,36.81679389312977,-30.18320610687023
6208921169765,1.864728854,1,-1.9093758239746093,8.328230474853514,6.323086584472656,0.12213740458015267,17.374045801526716,-18.53435114503817
6208931170650,1.874729739,1,-2.1607669982910154,8.124723333740233,5.8226984375,-6.793893129770993,0.3282442748091603,-8.98473282442748
6208941171484,1.884730573,1,-1.9656395629882812,8.632294085693358,5.692214447021484,-13.198473282442748,-0.5725190839694656,-8.534351145038167
6208951171744,1.894730833,1,-2.0374656127929685,8.233659509277343,5.1702784851074215,-19.801526717557252,-16.3206106870229,5.175572519083969
6208961169504,1.904728593,1,-1.7393875061035156,7.746439471435546,4.902127899169922,-0.5267175572519084,-12.98473282442748,15.557251908396946
6208971170598,1.914729687,1,-1.0283096130371092,7.540538128662109,4.867411975097656,14.251908396946565,-0.7480916030534351,21.03053435114504
6208981171171,1.92473026,1,-0.7350199096679687,6.855796453857422,4.824316345214844,20.46564885496183,0.4351145038167939,27.732824427480917
6208991170286,1.934729375,1,-1.052251629638672,6.481103894042969,4.459200592041015,18.16030534351145,-4.679389312977099,25.595419847328245
6209001170390,1.944729479,1,-0.6811503723144531,6.5014546081542965,4.553771557617187,-1.2213740458015268,4.374045801526718,13.404580152671755
6209011171692,1.954730781,1,-1.1180921752929687,6.552929943847656,4.797980126953124,-12.381679389312977,7.473282442748092,4.931297709923665
6209021170963,1.964730052,1,-1.2306196533203124,6.9144543945312495,4.875791680908203,-2.5572519083969465,6.282442748091603,-2.7786259541984735
6209031171067,1.974730156,1,-1.3335703247070312,7.094019519042968,4.924872814941406,-8.213740458015268,5.190839694656488,-4.7251908396946565
6209041170598,1.984729687,1,-1.4784195251464842,7.275978845214843,5.167884283447266,-11.244274809160306,8.664122137404581,-6.67175572519084
6209051170650,1.994729739,1,-1.5574281799316405,7.498639599609374,5.452794281005859,-3.2900763358778624,9.755725190839694,-5.786259541984733
6209061173254,2.004732343,1,-1.5693991882324219,7.558494641113281,5.4779333984375,2.312977099236641,6.061068702290076,-1.549618320610687
6209071169088,2.014728177,1,-1.5705962890624998,7.468712078857421,5.590460876464843,7.00763358778626,3.3282442748091605,2.7557251908396947
6209081168879,2.024727968,1,-1.4472949035644531,7.8338278320312495,5.66946953125,0.25190839694656486,0.0916030534351145,-0.35877862595419846
6209091171275,2.034730364,1,-1.3575123413085937,7.504625103759765,5.513846423339843,-18.48854961832061,-12.488549618320612,5.083969465648855
6209101170338,2.044729427,1,-1.5693991882324219,7.340622290039062,5.285200164794921,2.8091603053435112,-14.893129770992367,7.793893129770993
6209111170442,2.054729531,1,-1.3826514587402343,7.198167291259765,5.288791467285156,-0.9847328244274809,-14.587786259541986,7.748091603053435
6209121174661,2.06473375,1,-1.2964601989746094,7.074865905761718,5.424063861083984,-4.267175572519084,-17.0,6.801526717557252
6209131171431,2.07473052,1,-1.4975731384277342,6.988674645996094,5.455188482666015,-1.0763358778625953,-18.366412213740457,4.419847328244275
6209141171067,2.084730156,1,-1.8040309509277344,7.200561492919921,5.813121630859374,-6.8396946564885495,-25.786259541984734,-0.13740458015267176
6209151170911,2.09473,1,-1.8950106140136718,7.110778930664062,6.337451794433593,-30.916030534351144,-36.343511450381676,-4.519083969465649
6209161170129,2.104729218,1,-1.897404815673828,7.2532339294433585,6.793547210693359,-6.748091603053435,-33.85496183206107,-1.4427480916030535
6209171170806,2.114729895,1,-1.4891934326171874,7.161057165527343,7.32266577758789,3.7251908396946565,-40.458015267175576,1.3587786259541985
6209181166796,2.124725885,1,-1.8854338073730468,7.024587670898437,7.094019519042968,-7.595419847328245,-64.03053435114504,2.9923664122137406
6209191170129,2.134729218,1,-1.35990654296875,6.180631585693359,6.628347296142578,5.740458015267175,-82.37404580152672,12.13740458015267
6209201170129,2.144729218,1,-0.6667851623535156,6.2392895263671875,5.954379528808594,35.099236641221374,-82.99236641221374,4.259541984732825
6209211170650,2.154729739,1,0.086191259765625,5.504269616699219,5.19661470336914,5.961832061068702,-98.61068702290076,-0.9083969465648855
6209221171171,2.16473026,1,-0.5781997009277343,6.196193896484375,4.715380169677734,15.16793893129771,-97.6793893129771,-21.64885496183206
6209231167629,2.174726718,1,0.20350714111328125,7.157465863037109,4.129997863769531,10.465648854961833,-91.26717557251908,-29.49618320610687
6209241169452,2.184728541,1,0.3124433166503906,7.868543756103515,4.068945721435546,17.671755725190838,-79.10687022900764,-36.32824427480916
6209251169400,2.194728489,1,-0.23104046020507812,8.042123376464843,3.2166099304199216,-4.488549618320611,-104.92366412213741,-18.549618320610687
6209261169244,2.204728333,1,0.4860229370117187,9.422380633544922,4.16231958618164,19.923664122137403,-51.38167938931298,-29.81679389312977
6209271169504,2.214728593,1,0.5339069702148437,8.912415679931641,4.155136981201172,48.45038167938932,-56.778625954198475,-1.6564885496183206
6209281167369,2.224726458,1,0.16519991455078123,8.185775476074218,3.9564182434082027,43.87022900763359,-63.87786259541985,12.297709923664122
6209291170494,2.234729583,1,0.34117373657226563,7.706935144042968,3.584119885253906,46.74809160305343,-55.038167938931295,14.022900763358779
6209301170181,2.24472927,1,0.8020575561523438,7.624335186767578,3.3111808959960936,47.534351145038165,-47.267175572519086,13.778625954198473
6209311169921,2.25472901,1,0.6883329772949218,7.541735229492187,3.5302503479003904,38.45038167938932,-34.83206106870229,9.65648854961832
6209321170025,2.264729114,1,-0.04548983154296875,7.368155609130859,3.3973721557617185,27.954198473282442,-36.47328244274809,8.816793893129772
6209331167629,2.274726718,1,-0.5063736511230469,7.885303167724609,3.536235852050781,15.396946564885496,-29.69465648854962,1.1984732824427482
6209341168983,2.284728072,1,0.5638344909667968,8.212111694335936,3.6762966491699216,8.86259541984733,-15.458015267175572,1.3282442748091603
6209351170702,2.294729791,1,0.7218518005371093,8.234856610107421,4.197035510253906,21.450381679389313,-0.8015267175572519,3.900763358778626
6209361171588,2.304730677,1,0.19393033447265623,7.875726361083984,4.076128326416016,15.396946564885496,-8.061068702290076,11.610687022900763
6209371170442,2.314729531,1,-0.12090718383789062,7.68658442993164,4.319139794921875,20.12213740458015,1.0305343511450382,13.358778625954198
6209381171119,2.324730208,1,-0.229843359375,7.636306195068359,4.860229370117187,26.50381679389313,12.748091603053435,12.419847328244275
6209391170963,2.334730052,1,-0.11731588134765625,7.844601739501953,5.141548065185547,20.519083969465647,7.099236641221374,10.557251908396946
6209401169088,2.344728177,1,0.2537853759765625,8.015787158203125,5.109226342773437,2.3893129770992365,-1.1755725190839694,9.236641221374045
6209411170806,2.354729895,1,0.07781155395507812,7.899668377685546,4.805162731933594,-6.488549618320611,-14.038167938931299,11.106870229007633
6209421170077,2.364729166,1,-0.06703764648437499,7.803900311279296,4.349067315673828,-8.0,-21.290076335877863,12.793893129770993
6209431170285,2.374729374,1,0.10175357055664062,7.641094598388672,4.280832568359375,-16.6793893129771,-18.763358778625953,11.564885496183207
6209441171223,2.384730312,1,0.06464344482421874,7.666233715820312,4.322731097412109,-13.16030534351145,-15.045801526717558,11.755725190839694
6209451171483,2.394730572,1,0.4560954162597656,7.830236529541015,4.7572786987304685,-0.6259541984732825,-1.8244274809160306,11.770992366412214
6209461170181,2.40472927,1,0.8631096984863281,7.960720520019531,5.055356805419922,-2.885496183206107,0.030534351145038167,11.320610687022901
6209471170858,2.414729947,1,0.5255272644042969,7.8912886718749995,5.029020587158203,-5.534351145038168,-9.030534351145038,14.572519083969466
6209481169296,2.424728385,1,0.3363853332519531,7.702146740722656,4.957194537353515,-0.5267175572519084,-11.526717557251908,16.404580152671755
6209491170442,2.434729531,1,0.7003039855957031,7.771578588867187,4.951209033203125,2.1297709923664123,-11.694656488549619,14.801526717557252
6209501169713,2.444728802,1,0.6200982299804687,7.612364178466796,4.809951135253906,-4.8320610687022905,-17.72519083969466,14.366412213740459
6209511169869,2.454728958,1,0.3399766357421875,7.406462835693359,4.428075970458984,-5.854961832061068,-27.885496183206108,16.977099236641223
6209521169765,2.464728854,1,0.7948749511718749,7.389703424072265,4.580107775878906,0.46564885496183206,-18.64885496183206,12.183206106870228
6209531169973,2.474729062,1,1.073799444580078,7.418433843994141,4.772841009521484,10.366412213740459,-14.183206106870228,11.732824427480915
6209541170077,2.484729166,1,1.2306196533203124,7.42441934814453,4.8494554626464845,16.267175572519083,-12.51908396946565,9.954198473282442
6209551170650,2.494729739,1,0.7517793212890624,7.137115148925781,4.639962817382812,14.80916030534351,-18.923664122137403,10.351145038167939
6209561171015,2.504730104,1,1.4125789794921875,7.979874133300781,4.752490295410156,14.267175572519085,-10.83969465648855,-2.8473282442748094
6209571169765,2.514728854,1,0.842758984375,7.583633758544922,4.394557147216797,-8.931297709923664,-22.15267175572519,-0.17557251908396945
6209581170963,2.524730052,1,0.14604630126953125,7.465120776367187,3.892971899414062,8.992366412213741,-27.458015267175572,4.3893129770992365
6209591171067,2.534730156,1,0.9959878906249999,8.100781317138672,4.690241052246093,19.69465648854962,2.312977099236641,-6.290076335877862
6209601171535,2.544730624,1,0.8894459167480468,8.288726147460936,4.829104748535156,10.030534351145038,-5.511450381679389,-1.1603053435114503
6209611170910,2.554729999,1,0.6069301208496093,7.8709379577636716,4.513070129394531,1.4122137404580153,-23.755725190839694,8.122137404580153
6209621169660,2.564728749,1,1.2006921325683593,7.756016278076172,4.485536810302734,13.312977099236642,-12.938931297709924,5.526717557251908
6209631170077,2.574729166,1,1.5358803649902344,7.406462835693359,4.025850091552734,23.14503816793893,-17.72519083969466,11.80916030534351
6209641171015,2.584730104,1,1.8219874633789062,7.599196069335937,4.00310517578125,5.450381679389313,-12.244274809160306,-2.2977099236641223
6209651170285,2.594729374,1,1.2725181823730467,7.6087728759765625,3.3698388366699215,-17.129770992366414,-25.740458015267176,-3.213740458015267
6209661169712,2.604728801,1,1.3060370056152344,7.633911993408202,3.2441432495117186,-4.709923664122138,-10.01526717557252,-6.427480916030534
6209671170077,2.614729166,1,1.5921441040039062,7.979874133300781,3.324349005126953,6.374045801526718,5.847328244274809,-12.564885496183207
6209681170077,2.624729166,1,1.313219610595703,8.212111694335936,3.6679169433593746,-7.297709923664122,11.992366412213741,-13.473282442748092
6209691169817,2.634728906,1,0.47285482788085936,8.095992913818359,3.6260184143066403,-5.137404580152672,10.022900763358779,-6.221374045801527
6209701169660,2.644728749,1,0.1352723937988281,8.190563879394531,4.128800762939453,5.511450381679389,25.206106870229007,-4.480916030534351
6209711177577,2.654736666,1,0.6572083557128906,8.233659509277343,5.2636523498535155,12.351145038167939,39.42748091603053,-1.381679389312977
6209721173046,2.664732135,1,1.13006318359375,8.310273962402343,5.288791467285156,16.083969465648856,26.259541984732824,4.358778625954199
6209731170494,2.674729583,1,0.978031378173828,7.837419134521484,5.1690813842773435,-6.549618320610687,10.251908396946565,7.9465648854961835
6209741170442,2.684729531,1,0.8547299926757812,7.526172918701171,4.754884497070313,-1.748091603053435,-0.916030534351145,8.145038167938932
6209751169973,2.694729062,1,1.254561669921875,7.184999182128906,4.594472985839843,-4.557251908396947,-0.6641221374045801,3.6564885496183206
6209761171015,2.704730104,1,1.2222399475097656,7.329848382568359,4.116829754638672,-6.32824427480916,-0.5877862595419847,-3.2061068702290076
6209771170546,2.714729635,1,1.016338604736328,7.410054138183593,3.9731776550292968,-9.938931297709924,2.5877862595419847,-7.068702290076335
6209781170650,2.724729739,1,1.16837041015625,7.490259893798828,3.824737152099609,-5.061068702290076,7.862595419847328,-10.13740458015267
6209791170546,2.734729635,1,0.5638344909667968,7.845798840332031,3.8654385803222655,-3.4885496183206106,11.587786259541986,-16.82442748091603
6209801170546,2.744729635,1,-0.009576806640625,8.072050897216796,3.9983167724609374,-13.893129770992367,8.80916030534351,-13.740458015267176
6209811170650,2.754729739,1,0.22505495605468748,8.52335791015625,4.53940634765625,-3.633587786259542,21.64885496183206,-13.83206106870229
6209821170442,2.764729531,1,0.3399766357421875,8.613140472412109,5.31153638305664,5.305343511450381,28.076335877862597,-6.320610687022901
6209831171692,2.774730781,1,1.1755530151367186,8.643067993164061,5.427655163574219,21.12213740458015,19.603053435114504,2.7251908396946565
6209841170077,2.784729166,1,1.1001356628417969,8.081627703857421,5.00507857055664,6.297709923664122,1.633587786259542,8.48091603053435
6209851170025,2.794729114,1,0.9229647399902343,7.406462835693359,4.469974499511719,-3.3206106870229006,-9.961832061068701,11.549618320610687
6209861173723,2.804732812,1,1.6304513305664061,6.9910688476562495,4.023455889892578,14.106870229007633,-3.5343511450381677,5.7251908396946565
6209871171275,2.814730364,1,1.4065934753417968,7.052120989990234,3.7014357666015623,19.541984732824428,-0.007633587786259542,-1.6641221374045803
6209881170754,2.824729843,1,0.7948749511718749,7.187393383789062,3.5529952636718747,-5.801526717557252,0.4732824427480916,-10.610687022900763
6209891170442,2.834729531,1,0.9229647399902343,7.211335400390625,3.641580725097656,-1.5801526717557253,12.419847328244275,-16.458015267175572
6209901170494,2.844729583,1,0.7314286071777343,7.789535101318359,3.7229835815429686,21.80916030534351,24.30534351145038,-20.03053435114504
6209911171587,2.854730676,1,0.6452373474121094,8.091204510498047,4.302380383300781,-3.648854961832061,32.48091603053435,-23.587786259541986
6209921169869,2.864728958,1,0.04668693237304687,8.142679846191406,4.590881683349609,4.114503816793893,30.778625954198475,-17.977099236641223
6209931169817,2.874728906,1,-0.2166752502441406,8.440757952880858,4.90931050415039,20.450381679389313,32.89312977099237,-13.34351145038168
6209941170337,2.884729426,1,0.2454056701660156,8.66940421142578,5.29238276977539,6.083969465648855,31.19083969465649,-14.572519083969466
6209951169973,2.894729062,1,0.45489831542968745,8.616731774902343,4.989516259765625,-6.984732824427481,13.244274809160306,-9.312977099236642
6209961170181,2.90472927,1,-0.04908113403320312,7.912836486816405,4.349067315673828,-4.282442748091603,-1.0305343511450382,1.9389312977099236
6209971170650,2.914729739,1,0.594959112548828,7.714117749023437,3.612850305175781,3.4122137404580153,2.0381679389312977,0.916030534351145
6209981171014,2.924730103,1,0.6643909606933593,7.50821640625,3.1567548889160153,-18.14503816793893,3.2519083969465647,-2.5114503816793894
6209991171379,2.934730468,1,0.35314474487304687,7.343016491699219,2.731784094238281,-18.923664122137403,7.206106870229007,-0.04580152671755725
6210001311483,2.944870572,1,0.9085995300292968,7.813477117919922,2.9269115295410155,-3.3053435114503817,36.091603053435115,-9.290076335877863
6210011167056,2.954726145,1,0.8224082702636718,7.813477117919922,3.831919757080078,3.1068702290076335,57.64885496183206,-6.320610687022901
6210021171535,2.964730624,1,0.08858546142578125,8.099584216308592,3.921702319335937,21.786259541984734,52.97709923664122,-1.9465648854961832
6210031171587,2.974730676,1,0.2645592834472656,8.384494213867187,4.383783239746093,0.5267175572519084,57.48854961832061,-6.6106870229007635
6210041170285,2.984729374,1,0.17238251953125,8.52934341430664,4.535815045166015,-14.106870229007633,51.87786259541985,-4.748091603053435
6210051170129,2.994729218,1,-0.08738836059570312,8.486247784423828,4.630386010742187,-5.290076335877862,48.229007633587784,1.099236641221374
6210061170494,3.004729583,1,0.07541735229492187,8.382100012207031,4.762067102050781,5.083969465648855,49.85496183206107,5.931297709923665
6210071170441,3.01472953,1,0.23702596435546874,8.095992913818359,4.891353991699218,8.717557251908397,48.20610687022901,9.038167938931299
6210081172994,3.024732083,1,-0.09457096557617187,7.967903124999999,4.519055633544921,10.50381679389313,37.31297709923664,11.763358778625955
6210091172889,3.034731978,1,-0.3758896606445312,7.578845355224609,4.939238024902344,10.946564885496183,43.52671755725191,10.900763358778626
6210101171379,3.044730468,1,-0.44053310546874996,7.734468463134765,5.415684155273437,18.641221374045802,40.97709923664122,-0.8854961832061069
6210111169191,3.05472828,1,-0.25737667846679685,7.948749511718749,5.5832782714843745,2.732824427480916,26.52671755725191,-4.312977099236641
6210121171587,3.064730676,1,-0.5303156677246094,8.091204510498047,5.537788439941406,-0.9389312977099237,9.916030534351146,-2.877862595419847
6210131171119,3.074730208,1,-0.2741360900878906,8.116343627929687,5.38815083618164,-0.19083969465648856,3.122137404580153,-2.66412213740458
6210141170702,3.084729791,1,-0.06344634399414062,7.850587243652344,5.284003063964843,5.877862595419847,-4.824427480916031,-0.08396946564885496
6210151171483,3.094730572,1,-0.4656722229003906,7.920019091796875,4.587290380859375,11.007633587786259,-19.908396946564885,3.0763358778625953
6210161170233,3.104729322,1,-0.3962403747558593,8.049305981445311,4.280832568359375,-6.816793893129771,-19.916030534351144,-2.816793893129771
6210171170858,3.114729947,1,-0.2885013000488281,8.221688500976562,4.520252734375,1.0610687022900764,-11.389312977099237,-0.648854961832061
6210181170806,3.124729895,1,-0.025139117431640625,8.254010223388672,4.485536810302734,15.236641221374045,-15.748091603053435,1.3511450381679388
6210191170858,3.134729947,1,0.5351040710449219,8.090007409667969,4.452017987060547,1.8091603053435115,-19.763358778625953,2.763358778625954
6210201169921,3.14472901,1,0.181959326171875,8.148665350341796,3.6068648010253903,15.938931297709924,-29.083969465648856,5.1679389312977095
6210211170598,3.154729687,1,0.2932897033691406,7.857769848632812,3.3351229125976563,-8.122137404580153,-24.946564885496183,2.801526717557252
6210221170077,3.164729166,1,-0.21787235107421873,7.864952453613281,3.527856146240234,-6.755725190839694,-18.72519083969466,1.083969465648855
6210231171535,3.174730624,1,-0.05746083984375,8.078036401367187,3.9516298400878904,-6.778625954198473,-4.732824427480916,0.0
6210241171223,3.184730312,1,0.5446808776855468,8.52934341430664,4.2688615600585935,6.175572519083969,1.1984732824427482,1.717557251908397
6210251170441,3.19472953,1,-0.062249243164062495,8.552088330078124,4.575319372558593,10.251908396946565,3.564885496183206,6.4961832061068705
6210261170077,3.204729166,1,-0.5817910034179687,8.407239129638672,4.900930798339844,5.427480916030534,-4.022900763358779,12.068702290076336
6210271170337,3.214729426,1,0.09935936889648436,8.518569506835936,4.833893151855468,-5.190839694656488,-10.740458015267176,12.541984732824428
6210281170077,3.224729166,1,0.6763619689941406,8.844180932617187,5.197811804199218,-13.541984732824428,-6.740458015267175,4.694656488549619
6210291171535,3.234730624,1,0.19632453613281248,8.736441857910156,4.703409161376952,-22.893129770992367,-36.93893129770992,14.877862595419847
6210301171483,3.244730572,1,-0.5446808776855468,8.049305981445311,4.070142822265625,-27.519083969465647,-49.93129770992366,26.610687022900763
6210311171587,3.254730676,1,0.37229835815429685,7.7608046813964835,3.8091748413085935,-15.473282442748092,-37.954198473282446,24.282442748091604
6210321168254,3.264727343,1,1.351526837158203,7.669825018310546,3.6942531616210936,-17.923664122137403,-32.38931297709924,20.374045801526716
6210331172108,3.274731197,1,0.709880792236328,7.256825231933593,3.3016040893554686,-22.65648854961832,-36.36641221374046,22.916030534351144
6210341167785,3.284726874,1,0.5770026000976562,7.135918048095703,3.087323040771484,-13.763358778625955,-26.595419847328245,18.53435114503817
6210351170806,3.294729895,1,1.3479355346679687,7.438784558105469,3.4859576171874997,-8.893129770992367,-3.0763358778625953,5.893129770992366
6210361169712,3.304728801,1,1.3407529296874998,7.602787371826172,3.7624879089355465,-14.633587786259541,4.114503816793893,-0.16030534351145037
6210371170858,3.314729947,1,0.39145197143554683,7.431601953125,3.758896606445312,-16.450381679389313,0.3435114503816794,2.7251908396946565
6210381170285,3.324729374,1,0.26815058593749996,7.60398447265625,4.0222587890625,-3.633587786259542,14.854961832061068,0.04580152671755725
6210391168098,3.334727187,1,0.8367734802246093,7.936778503417968,4.485536810302734,4.152671755725191,29.076335877862597,-4.564885496183206
6210401171275,3.344730364,1,0.507570751953125,8.118737829589843,4.551377355957031,1.534351145038168,19.885496183206108,0.17557251908396945
6210411172160,3.354731249,1,0.33518823242187495,7.976282830810546,4.705803363037109,-5.076335877862595,15.877862595419847,2.3206106870229006
6210421170441,3.36472953,1,0.5315127685546874,8.39526812133789,4.7943888244628905,-2.6106870229007635,17.50381679389313,-0.7022900763358778
6210431170129,3.374729218,1,0.6117185241699218,8.202534887695313,4.650736724853515,-8.099236641221374,8.282442748091603,7.847328244274809
6210441169400,3.384728489,1,0.5099649536132812,8.566453540039062,4.722562774658203,5.679389312977099,8.916030534351146,9.267175572519085
6210451170389,3.394729478,1,0.4752490295410156,8.505401397705077,4.867411975097656,-14.068702290076336,5.870229007633588,11.068702290076336
6210461170337,3.404729426,1,0.6524199523925781,8.553285430908202,4.7189714721679685,-17.862595419847327,-2.854961832061069,12.32824427480916
6210471171223,3.414730312,1,0.5482721801757812,8.532934716796875,4.489128112792969,-25.229007633587788,-9.251908396946565,15.854961832061068
6210481171483,3.424730572,1,0.594959112548828,8.173804467773436,4.2497079467773435,-31.091603053435115,-12.19083969465649,20.0
6210491169087,3.434728176,1,0.4465186096191406,8.148665350341796,4.129997863769531,-20.671755725190838,-6.885496183206107,24.206106870229007
6210501169660,3.444728749,1,0.6368576416015624,7.9475524108886715,4.273649963378906,-21.717557251908396,-0.12213740458015267,28.14503816793893
6210511170754,3.454729843,1,0.9325415466308593,7.700949639892578,4.095281939697266,-16.137404580152673,1.1145038167938932,31.412213740458014
6210521171275,3.464730364,1,1.0690110412597655,7.331045483398437,4.005499377441406,-9.50381679389313,6.473282442748092,33.93129770992366
6210531171743,3.474730832,1,0.9516951599121093,7.040149981689453,3.892971899414062,0.8549618320610687,10.312977099236642,33.81679389312977
6210541169920,3.484729009,1,0.9900023864746094,6.807912420654296,4.103661645507812,-0.5648854961832062,19.0381679389313,28.65648854961832
6210551170077,3.494729166,1,1.2150573425292968,6.868964562988281,4.513070129394531,9.603053435114504,29.16793893129771,21.419847328244273
6210561172473,3.504731562,1,1.3215993164062498,6.757634185791015,4.904522100830078,1.4122137404580153,28.870229007633586,15.076335877862595
6210571169087,3.514728176,1,1.696291876220703,6.816292126464844,4.886565588378906,-5.977099236641221,25.297709923664122,7.809160305343512
6210581170858,3.524729947,1,0.14724340209960937,7.006631158447266,4.945223529052734,-8.511450381679388,10.931297709923664,3.763358778625954
6210591170598,3.534729687,1,0.8104372619628906,7.135918048095703,5.039794494628906,-30.251908396946565,7.770992366412214,-9.251908396946565
6210601170285,3.544729374,1,1.0007762939453124,7.881711865234375,4.741716387939453,-35.61832061068702,2.1297709923664123,-17.129770992366414
6210611171379,3.554730468,1,1.0941501586914062,7.967903124999999,4.619612103271484,-49.23664122137404,-3.0,-17.923664122137403
6210621184139,3.564743228,1,1.0989385620117187,7.9643118225097655,4.165910888671875,-40.25190839694657,-6.259541984732825,-12.931297709923664
6210631185441,3.57474453,1,1.2976572998046874,7.9643118225097655,3.7325603881835936,-25.389312977099237,0.2366412213740458,-8.442748091603054
6210641185545,3.584744634,1,1.20667763671875,7.8553756469726554,3.201047619628906,-26.87786259541985,4.687022900763359,-5.717557251908397
6210651183775,3.594742864,1,1.140837091064453,7.586027960205078,3.125630267333984,-25.00763358778626,19.633587786259543,-2.145038167938931
6210661183410,3.604742499,1,0.7254431030273437,7.706935144042968,3.2130186279296873,0.26717557251908397,39.17557251908397,0.8473282442748091
6210671185598,3.614744687,1,0.5781997009277343,7.45075556640625,3.9995138732910154,-14.557251908396946,57.541984732824424,-2.450381679389313
6210681184868,3.624743957,1,0.010773907470703125,7.539341027832031,4.395754248046875,6.290076335877862,70.66412213740458,5.068702290076335
6210691183150,3.634742239,1,-0.354341845703125,7.1778165771484375,5.289988568115234,29.84732824427481,88.48091603053435,12.49618320610687
6210701183722,3.644742811,1,-0.3746925598144531,6.839037042236328,5.668272430419922,24.106870229007633,82.2824427480916,9.381679389312977
6210711184608,3.654743697,1,-0.3399766357421875,6.414066247558593,6.121973645019531,-0.9847328244274809,73.81679389312977,3.7786259541984735
6210721195962,3.664755051,1,-0.3315969299316406,6.066907006835937,6.5768719604492185,-6.091603053435114,62.74809160305343,-5.152671755725191
6210731194347,3.674753436,1,-0.027533319091796873,6.130353350830077,6.737283471679687,13.977099236641221,56.656488549618324,-12.221374045801527
6210741193514,3.684752603,1,0.24301146850585936,5.908889697265625,6.574477758789062,17.610687022900763,41.9236641221374,-16.801526717557252
6210751192160,3.694751249,1,-0.2657563842773437,5.88614478149414,5.986701251220703,19.053435114503817,22.18320610687023,-23.66412213740458
6210761193410,3.704752499,1,-0.19632453613281248,5.4887073059082025,5.6958057495117185,0.3511450381679389,10.412213740458014,-35.274809160305345
6210771193410,3.714752499,1,-0.5398924743652344,6.321889483642578,4.553771557617187,33.00763358778626,15.213740458015268,-43.969465648854964
6210781192264,3.724751353,1,-0.47165772705078124,7.371746911621093,3.699041564941406,22.755725190839694,5.312977099236641,-66.05343511450381
6210791194972,3.734754061,1,1.042674822998047,8.16542476196289,3.025073797607422,-52.55725190839695,12.076335877862595,-79.85496183206106
6210801194087,3.744753176,1,-0.2561795776367187,7.395688928222656,3.7995980346679685,41.49618320610687,58.045801526717554,-48.83969465648855
6210811193254,3.754752343,1,-0.8858546142578124,7.923610394287109,3.432088079833984,173.34351145038167,74.91603053435115,-42.87786259541985
6210821186743,3.764745832,1,-0.718260498046875,9.145850341796875,2.7964275390625,91.58015267175573,77.43511450381679,-48.74045801526717
6210831185545,3.774744634,1,-1.8171990600585937,8.62511148071289,4.283226770019531,98.68702290076335,125.67175572519083,-26.00763358778626
6210841184660,3.784743749,1,-2.2840683837890623,8.361749298095702,4.553771557617187,159.70992366412213,106.79389312977099,-30.045801526717558
6210851183983,3.794743072,1,-2.503137835693359,8.647856396484375,4.398148449707031,112.89312977099236,89.87786259541984,-27.34351145038168
6210861183775,3.804742864,1,-2.634818927001953,8.170213165283203,4.2125978210449215,109.81679389312977,72.09923664122137,-24.229007633587788
6210871193931,3.81475302,1,-2.529474053955078,8.179789971923828,4.088099334716796,108.94656488549619,59.45038167938932,-29.022900763358777
6210881186431,3.82474552,1,-2.5522189697265625,8.677783917236328,3.83072265625,89.06106870229007,42.87786259541985,-34.3206106870229
6210891184868,3.834743957,1,-2.110488763427734,8.621520178222656,3.8283284545898435,70.90839694656489,39.70229007633588,-32.0
6210901183775,3.844742864,1,-2.0075380920410155,8.869320050048827,3.5051112304687497,78.58015267175573,24.80916030534351,-34.267175572519086
6210911185233,3.854744322,1,-2.2876596862792966,8.917204083251953,3.057395520019531,54.18320610687023,7.633587786259542,-30.18320610687023
6210921193462,3.864752551,1,-2.2397756530761717,9.054870678710937,2.4001871643066406,56.267175572519086,2.595419847328244,-30.931297709923665
6210931194868,3.874753957,1,-1.8052280517578123,8.953117108154297,2.223016241455078,57.97709923664122,11.572519083969466,-28.64885496183206
6210941193462,3.884752551,1,-1.2928688964843749,9.09796630859375,2.146401788330078,60.58015267175573,19.435114503816795,-30.47328244274809
6210951193618,3.894752707,1,-0.42018239135742186,9.294290844726563,2.3965958618164063,60.06870229007634,29.610687022900763,-30.549618320610687
6210961193306,3.904752395,1,0.6177040283203125,9.69771382446289,2.3163901062011716,51.29770992366412,28.80916030534351,-36.961832061068705
6210971193410,3.914752499,1,0.8224082702636718,9.266757525634764,1.8710685974121093,13.748091603053435,6.862595419847328,-26.709923664122137
6210981192733,3.924751822,1,-0.2059013427734375,8.622717279052734,1.5310919616699217,20.0,7.351145038167939,-16.244274809160306
6210991192889,3.934751978,1,-1.388636962890625,8.704120135498046,1.0175357055664063,32.82442748091603,0.19083969465648856,-15.625954198473282
6211001194191,3.94475328,1,-1.908178723144531,9.106346014404297,1.668758557128906,-7.083969465648855,20.82442748091603,-20.03053435114504
6211011193722,3.954752811,1,-1.6065093139648436,9.683348614501952,2.6192566162109374,-9.80916030534351,35.74045801526717,-27.106870229007633
6211021187577,3.964746666,1,-2.5617957763671875,10.350133776855468,3.381809844970703,-8.740458015267176,33.57251908396947,-21.244274809160306
6211031187004,3.974746093,1,-2.8886043029785156,10.516530792236328,3.8367081604003905,-3.450381679389313,28.0,-6.717557251908397
6211041185441,3.98474453,1,-2.6898855651855467,10.314220751953124,3.939658831787109,15.061068702290076,24.641221374045802,5.145038167938932
6211051183983,3.994743072,1,-2.35589443359375,10.043675964355469,3.7995980346679685,12.702290076335878,9.419847328244275,11.389312977099237
6211061183618,4.004742707,1,-2.3211785095214843,9.394847314453125,2.941276739501953,-3.3893129770992365,-11.076335877862595,17.15267175572519
6211071184243,4.014743332,1,-2.127248175048828,8.815450512695312,2.2768857788085937,0.8320610687022901,-17.709923664122137,18.87786259541985
6211081185649,4.024744738,1,-1.5693991882324219,8.372523205566406,1.9812018737792967,7.770992366412214,-8.587786259541986,15.82442748091603
6211091184920,4.034744009,1,-1.4616601135253906,7.978677032470703,1.7369933044433592,9.061068702290076,-5.9465648854961835,13.908396946564885
6211101184399,4.044743488,1,-1.5478513732910155,7.68658442993164,1.5538368774414062,9.412213740458014,-5.870229007633588,10.877862595419847
6211111185858,4.054744947,1,-1.6998831787109374,7.5537062377929685,1.3754688537597655,2.648854961832061,-7.709923664122138,3.183206106870229
6211121198254,4.064757343,1,-2.0781670410156248,7.625532287597656,1.0606313354492187,-16.870229007633586,-14.412213740458014,-14.65648854961832
6211131194816,4.074753905,1,-2.288856787109375,7.940369805908203,0.9804255798339843,-31.015267175572518,-10.916030534351146,-22.213740458015266
6211141195754,4.084754843,1,-1.8435352783203125,8.455123162841796,1.2413935607910156,-29.053435114503817,8.557251908396946,-17.50381679389313
6211151193097,4.094752186,1,-1.89620771484375,8.914809881591797,1.7872715393066405,-18.221374045801525,18.541984732824428,-10.793893129770993
6211161193514,4.104752603,1,-1.9201497314453124,9.19971987915039,2.0829554443359375,-13.549618320610687,21.748091603053435,-6.358778625954199
6211171192681,4.11475177,1,-1.905784521484375,9.460687860107422,2.5246856506347655,-14.083969465648854,24.6793893129771,0.46564885496183206
6211181192941,4.12475203,1,-1.7585411193847655,9.701305126953125,3.0933085449218747,-13.068702290076336,28.366412213740457,9.98473282442748
6211191192108,4.134751197,1,-1.924938134765625,9.795876092529296,3.515885137939453,-5.793893129770993,23.129770992366414,15.312977099236642
6211201191639,4.144750728,1,-1.6328455322265625,9.913191973876952,3.782838623046875,-16.923664122137403,13.15267175572519,24.19083969465649
6211211193879,4.154752968,1,-1.5849614990234373,9.491812481689452,3.6679169433593746,-37.732824427480914,-6.282442748091603,28.519083969465647
6211221191118,4.164750207,1,-1.2413935607910156,9.096769207763671,3.6834792541503902,-35.83969465648855,-15.259541984732824,28.862595419847327
6211231189243,4.174748332,1,-1.0043675964355467,8.908824377441405,3.143586779785156,-39.01526717557252,-28.603053435114504,31.137404580152673
6211241189087,4.184748176,1,-0.6619967590332031,8.468291271972657,2.443282794189453,-70.17557251908397,-45.37404580152672,24.595419847328245
6211251189191,4.19474828,1,-0.9217676391601562,8.811859210205078,1.8471265808105468,-96.5114503816794,-48.847328244274806,10.801526717557252
6211261187837,4.204746926,1,-0.258573779296875,9.566032733154296,0.8990227233886718,-106.32824427480917,-47.20610687022901,4.435114503816794
6211271200754,4.214759843,1,-0.612915625,9.512163195800781,1.0079588989257813,-128.72519083969465,-27.244274809160306,14.381679389312977
6211281185806,4.224744895,1,-1.6436194396972654,9.603142858886718,0.38187516479492184,-119.80152671755725,-29.786259541984734,20.3206106870229
6211291185649,4.234744738,1,-2.176329309082031,9.464279162597656,0.39264907226562495,-126.38931297709924,-5.175572519083969,29.17557251908397
6211301185441,4.24474453,1,-1.9009961181640624,9.131485131835937,1.6112977172851561,-101.7175572519084,37.213740458015266,33.9236641221374
6211311185024,4.254744113,1,-1.9788076721191405,8.576030346679687,1.9572598571777342,-72.31297709923665,45.56488549618321,47.74045801526717
6211321264660,4.264823749,1,-1.7848773376464844,7.673416320800781,2.7904420349121093,-79.87022900763358,62.06870229007634,64.8854961832061
6211331192264,4.274751353,1,-1.7657237243652342,7.012616662597656,3.2632968627929686,-43.25190839694657,75.68702290076335,60.11450381679389
6211341193254,4.284752343,1,-1.9428946472167967,6.461950280761719,3.9935283691406247,-43.00763358778626,76.70229007633588,39.55725190839695
6211351192108,4.294751197,1,-1.407790576171875,6.203376501464843,4.8326960510253905,-79.74809160305344,72.23664122137404,28.450381679389313
6211361191118,4.304750207,1,-1.0402806213378906,5.973533142089844,4.502296221923828,-104.29770992366412,38.86259541984733,33.06870229007634
6211371193097,4.314752186,1,-2.053027923583984,5.328295794677734,4.545391851806641,-111.45038167938931,31.389312977099237,9.786259541984732
6211381192212,4.324751301,1,-2.7054478759765623,6.1255649475097655,5.567715960693359,-89.06106870229007,57.282442748091604,-20.236641221374047
6211391189139,4.334748228,1,-0.8511386901855468,7.461529473876952,7.390900524902343,-97.98473282442748,99.27480916030534,-31.259541984732824
6211401192681,4.34475177,1,-0.7003039855957031,8.41442173461914,8.409633331298828,-92.38167938931298,84.38931297709924,3.877862595419847
6211411193097,4.354752186,1,-3.372233038330078,7.503428002929687,6.719326959228515,-100.80916030534351,-5.030534351145038,10.198473282442748
6211421189191,4.36474828,1,-4.072537023925781,6.924031201171875,5.428852264404297,-85.96946564885496,-18.16793893129771,-2.045801526717557
6211431187681,4.37474677,1,-2.931699932861328,6.921636999511718,4.859032269287109,-80.22900763358778,-2.5343511450381677,-5.083969465648855
6211441183566,4.384742655,1,-3.5003228271484375,6.80551821899414,4.636371514892578,-110.22137404580153,-21.106870229007633,-16.419847328244273
6211451184868,4.394743957,1,-3.305195391845703,6.6510922119140625,6.223727215576171,-128.29770992366412,-10.068702290076336,-8.84732824427481
6211461184608,4.404743697,1,-3.0633810241699218,6.636727001953124,8.52934341430664,-84.29770992366412,13.068702290076336,7.137404580152672
6211471184451,4.41474354,1,-2.166752502441406,6.5780690612792965,9.85692823486328,-12.282442748091603,17.72519083969466,22.442748091603054
6211481183826,4.424742915,1,-1.159990704345703,5.681440539550781,9.872490545654296,-9.13740458015267,-27.198473282442748,18.14503816793893
6211491185806,4.434744895,1,-2.1320365783691404,5.048174200439453,8.463502868652343,-21.198473282442748,-81.31297709923665,6.244274809160306
6211501184503,4.444743592,1,-1.5538368774414062,4.879382983398437,6.337451794433593,-33.343511450381676,-114.77099236641222,-18.34351145038168
6211511185493,4.454744582,1,-0.7242460021972655,4.984727856445312,5.049371301269531,-44.64885496183206,-111.81679389312977,-36.48854961832061
6211521184295,4.464743384,1,-0.7242460021972655,5.36899722290039,4.050989208984375,-43.93893129770992,-108.78625954198473,-50.85496183206107
6211531194191,4.47475328,1,-0.4800374328613281,6.016628771972656,3.6762966491699216,-37.778625954198475,-62.69465648854962,-55.05343511450382
6211541193097,4.484752186,1,-0.5698199951171875,6.6343328002929685,3.630806817626953,-28.81679389312977,-37.778625954198475,-44.33587786259542
6211551191274,4.494750363,1,-1.2593500732421874,6.976703637695312,3.9839515624999997,-12.778625954198473,-9.396946564885496,-36.274809160305345
6211561189816,4.504748905,1,-1.5670049865722655,7.475894683837891,4.723759875488281,19.633587786259543,8.076335877862595,-30.412213740458014
6211571192680,4.514751769,1,-1.2976572998046874,7.933187200927734,5.334281298828125,18.709923664122137,9.610687022900763,-17.206106870229007
6211581192212,4.524751301,1,-1.629254229736328,7.844601739501953,5.941211419677734,5.465648854961832,8.511450381679388,-0.6717557251908397
6211591191691,4.53475078,1,-2.3822306518554686,7.572859851074218,6.356605407714843,23.450381679389313,13.793893129770993,12.106870229007633
6211601193358,4.544752447,1,-2.067393133544922,6.940790612792968,6.622361791992187,38.23664122137404,13.511450381679388,16.885496183206108
6211611193045,4.554752134,1,-1.6519991455078125,6.556521246337891,6.798335614013672,44.725190839694655,3.4656488549618323,19.87786259541985
6211621191899,4.564750988,1,-1.5286977600097655,5.932831713867187,6.8593877563476555,38.35114503816794,-6.6183206106870225,15.091603053435115
6211631187785,4.574746874,1,-1.5083470458984374,5.643133312988281,6.736086370849609,38.63358778625954,-5.984732824427481,5.709923664122138
6211641185180,4.584744269,1,-1.4544775085449217,5.634753607177734,6.563703851318359,33.221374045801525,-13.816793893129772,-3.4732824427480917
6211651184295,4.594743384,1,-1.380257257080078,5.7149593627929685,6.315903979492187,18.587786259541986,-25.984732824427482,-19.374045801526716
6211661182941,4.60474203,1,-0.6823474731445313,6.360196710205078,6.215347509765625,7.122137404580153,-29.022900763358777,-23.045801526717558
6211671184972,4.614744061,1,-1.1252747802734375,6.573280657958984,5.7520694885253905,-3.5343511450381677,-44.969465648854964,-25.96946564885496
6211681184816,4.624743905,1,-0.8822633117675781,6.845022546386718,5.072116217041016,-11.068702290076336,-55.80152671755725,-33.25190839694657
6211691185024,4.634744113,1,-0.5530605834960938,7.34181939086914,4.991910461425781,-12.770992366412214,-45.99236641221374,-18.671755725190838
6211701208566,4.644767655,1,-1.1887211242675781,7.041347082519531,4.229357232666016,-20.061068702290076,-45.38167938931298,-14.709923664122137
6211711190285,4.654749374,1,-0.3363853332519531,6.922834100341796,3.864241479492187,-3.4198473282442747,-45.2442748091603,-15.748091603053435
6211721183983,4.664743072,1,1.024718310546875,7.193378887939453,4.004302276611328,13.603053435114504,-17.396946564885496,-11.099236641221374
6211731185805,4.674744894,1,0.5303156677246094,7.237671618652343,4.128800762939453,14.32824427480916,-9.442748091603054,-11.061068702290076
6211741184972,4.684744061,1,-0.5422866760253906,7.249642626953125,4.515464331054687,9.114503816793894,3.4885496183206106,-7.793893129770993
6211751185441,4.69474453,1,-1.1935095275878906,7.339425189208984,5.031414788818359,11.83206106870229,15.687022900763358,-5.770992366412214
6211761184139,4.704743228,1,-0.8212111694335937,7.487865692138671,5.663484027099609,9.83969465648855,27.984732824427482,-6.320610687022901
6211771185285,4.714744374,1,-0.022744915771484374,7.781155395507812,6.329072088623047,11.381679389312977,40.404580152671755,10.48091603053435
6211781184295,4.724743384,1,-1.2342109558105467,7.247248425292969,6.178237384033203,9.274809160305344,16.48854961832061,20.229007633587788
6211791184295,4.734743384,1,-2.2924480895996093,6.872555865478515,5.934028814697265,12.83969465648855,14.0,20.137404580152673
6211801183878,4.744742967,1,-1.7884686401367187,6.580463262939452,6.147112762451171,18.076335877862597,9.320610687022901,19.778625954198475
6211811182160,4.754741249,1,-1.3946224670410154,6.296750366210937,6.233304022216797,24.366412213740457,-9.045801526717558,18.412213740458014
6211821184035,4.764743124,1,-1.370680450439453,5.951985327148437,5.773617303466796,16.557251908396946,-11.412213740458014,7.305343511450381
6211831197837,4.774756926,1,-1.2701239807128906,6.0345852844238275,5.571307263183593,7.038167938931298,-12.251908396946565,-2.4732824427480917
6211841196639,4.784755728,1,-0.6596025573730468,6.432022760009765,5.446808776855469,-1.7709923664122138,-11.106870229007633,-11.129770992366412
6211851196482,4.794755571,1,-0.6871358764648438,6.949170318603516,5.325901593017578,-13.572519083969466,-19.137404580152673,-8.854961832061068
6211861195857,4.804754946,1,-1.0809820495605469,7.208941198730468,4.921281512451172,-19.12213740458015,-5.374045801526718,-7.351145038167939
6211871196378,4.814755467,1,-0.8786720092773437,7.520187414550781,4.910507604980468,-8.0,6.908396946564886,0.4122137404580153
6211881194868,4.824753957,1,-0.5099649536132812,7.587225061035156,5.176263989257812,6.473282442748092,8.786259541984732,9.366412213740459
6211891195962,4.834755051,1,-0.8415618835449218,7.390900524902343,5.25407554321289,17.14503816793893,8.961832061068701,15.16793893129771
6211901191847,4.844750936,1,-1.1156979736328125,7.07366880493164,5.361814617919921,13.954198473282442,15.366412213740459,15.778625954198473
6211911193774,4.854752863,1,-0.9062053283691406,6.781576202392578,5.671863732910156,21.946564885496183,16.282442748091604,15.51908396946565
6211921196691,4.86475578,1,-0.8798691101074219,6.734889270019531,5.94360562133789,28.740458015267176,15.083969465648854,12.564885496183207
6211931190701,4.87474979,1,-0.7015010864257812,6.758831286621094,6.348225701904297,22.87786259541985,-5.862595419847328,14.282442748091603
6211941187732,4.884746821,1,-1.4987702392578124,6.701370446777343,6.029796881103516,14.381679389312977,-7.748091603053435,9.229007633587786
6211951186535,4.894745624,1,-1.4903905334472656,6.891709478759765,5.893327386474609,8.541984732824428,-17.9618320610687,4.2748091603053435
6211961187003,4.904746092,1,-1.5837643981933593,7.475894683837891,5.023035083007812,0.3053435114503817,-21.549618320610687,7.122137404580153
6211971191795,4.914750884,1,-1.3491326354980469,6.940790612792968,5.2433016357421875,-50.0763358778626,-26.198473282442748,-8.778625954198473
6211981186066,4.924745155,1,-0.7003039855957031,7.668627917480468,4.544194750976562,-25.33587786259542,-9.83206106870229,4.083969465648855
6211991186118,4.934745207,1,-0.4261678955078125,7.163451367187499,4.976348150634766,-38.61068702290076,-7.0458015267175576,8.526717557251908
6212001184347,4.944743436,1,-0.7709329345703124,6.851008050537109,5.074510418701172,-10.221374045801527,-2.519083969465649,11.610687022900763
6212011185180,4.954744269,1,-0.7697358337402344,6.64630380859375,5.148730670166016,-11.946564885496183,14.290076335877863,9.145038167938932
6212021183149,4.964742238,1,-0.0718260498046875,6.6510922119140625,5.737704278564453,-1.6946564885496183,20.671755725190838,5.6183206106870225
6212031192576,4.974751665,1,0.12330138549804687,6.846219647216796,6.290764862060547,-20.00763358778626,-11.86259541984733,8.801526717557252
6212041195545,4.984754634,1,-1.1935095275878906,6.572083557128906,5.9771244445800775,-55.3587786259542,-25.954198473282442,-0.7557251908396947
6212051193722,4.994752811,1,-2.395398760986328,6.8402341430664055,5.680243438720702,-54.030534351145036,-17.549618320610687,0.10687022900763359
6212061193045,5.004752134,1,-1.3072341064453123,7.26520493774414,5.9376201171875,-19.96946564885496,8.633587786259541,-3.0229007633587788
6212071193826,5.014752915,1,0.16160861206054686,7.80150610961914,6.889315277099609,-16.38167938931298,-26.64885496183206,20.213740458015266
6212081192680,5.024751769,1,-0.4584896179199218,7.163451367187499,6.356605407714843,-16.61832061068702,-39.25954198473283,29.46564885496183
6212091191170,5.034750259,1,-0.7912836486816406,6.338648895263671,5.8454433532714845,3.312977099236641,-25.9618320610687,26.580152671755727
6212101192993,5.044752082,1,-0.13168109130859373,6.092046124267577,5.562927557373047,8.572519083969466,-17.763358778625953,19.778625954198475
6212111193149,5.054752238,1,-0.6643909606933593,6.477512591552734,5.865794067382812,-20.72519083969466,-33.0,15.763358778625955
6212121191639,5.064750728,1,-0.0526724365234375,6.2213330139160155,5.097255334472656,-18.541984732824428,-19.633587786259543,5.450381679389313
6212131190128,5.074749217,1,0.037110125732421874,6.515819818115234,4.92846411743164,-18.137404580152673,-6.229007633587786,3.114503816793893
6212141180597,5.084739686,1,0.6476315490722656,6.719326959228515,5.2456958374023435,-11.740458015267176,-4.5038167938931295,6.0
6212151185337,5.094744426,1,0.18914193115234373,6.716932757568359,5.4899044067382805,-8.51908396946565,-13.435114503816793,8.488549618320612
6212161184972,5.104744061,1,-0.9433154541015625,6.8402341430664055,5.754463690185546,-19.297709923664122,-2.519083969465649,2.015267175572519
6212171243201,5.11480229,1,-0.55545478515625,7.194575988769531,6.455964776611328,-16.702290076335878,-4.977099236641221,4.534351145038168
6212181188409,5.124747498,1,-0.3435679382324219,7.5716627502441405,6.9156514953613275,-26.374045801526716,-25.793893129770993,17.106870229007633
6212191182628,5.134741717,1,-0.6655880615234374,7.192181787109375,6.781576202392578,-28.259541984732824,-36.152671755725194,22.83969465648855
6212201185857,5.144744946,1,-0.5638344909667968,6.873752966308594,6.676231329345702,-15.908396946564885,-34.64885496183206,23.625954198473284
6212211185909,5.154744998,1,-0.26216508178710934,6.79953271484375,6.440402465820312,-22.862595419847327,-41.05343511450382,27.65648854961832
6212221186014,5.164745103,1,0.5793968017578125,6.4356140625,5.911283898925781,-51.458015267175576,-54.343511450381676,23.885496183206108
6212231183670,5.174742759,1,0.6715735656738281,6.0704983093261715,5.239710333251953,-62.42748091603053,-49.969465648854964,15.83969465648855
6212241186066,5.184745155,1,0.9792284790039062,6.123170745849609,4.631583111572265,-52.274809160305345,-37.87022900763359,16.786259541984734
6212251186118,5.194745207,1,0.9109937316894531,6.016628771972656,4.155136981201172,-34.458015267175576,-17.290076335877863,16.81679389312977
6212261183982,5.204743071,1,0.8212111694335937,5.810727429199218,4.023455889892578,-18.091603053435115,8.854961832061068,14.251908396946565
6212271186639,5.214745728,1,0.5422866760253906,5.9783215454101555,4.491522314453125,-9.740458015267176,30.419847328244273,13.549618320610687
6212281190805,5.224749894,1,0.5051765502929687,5.947196923828125,5.3570262145996095,9.587786259541986,40.49618320610687,15.664122137404581
6212291187368,5.234746457,1,0.05027823486328125,6.095637426757812,6.114791040039062,13.16030534351145,44.36641221374046,14.893129770992367
6212301183357,5.244742446,1,-0.07422025146484375,6.234501123046875,6.8785413696289055,7.66412213740458,38.69465648854962,11.65648854961832
6212311185649,5.254744738,1,-0.3711012573242187,6.561309649658202,7.517793212890624,0.9236641221374046,21.862595419847327,15.183206106870228
6212321185024,5.264744113,1,-0.13766659545898435,6.366182214355469,7.513004809570312,11.709923664122137,9.404580152671755,17.114503816793892
6212331281430,5.274840519,1,-0.04668693237304687,6.111199737548827,7.117961535644531,9.748091603053435,-0.5419847328244275,15.534351145038167
6212341197264,5.284756353,1,-0.001197100830078125,6.029796881103516,6.440402465820312,-2.5419847328244276,-0.7404580152671756,8.099236641221374
6212351192472,5.294751561,1,0.26695348510742184,6.118382342529297,6.360196710205078,-2.015267175572519,2.9236641221374047,6.374045801526718
6212361192889,5.304751978,1,0.373495458984375,6.160280871582031,6.203376501464843,14.717557251908397,9.900763358778626,9.358778625954198
6212371193409,5.314752498,1,0.411802685546875,6.114791040039062,6.156689569091797,17.778625954198475,9.786259541984732,13.725190839694656
6212381192316,5.324751405,1,0.00239420166015625,5.482721801757812,6.320692382812499,27.34351145038168,12.870229007633588,5.458015267175573
6212391192055,5.334751144,1,-0.05985504150390625,5.5820811706542965,6.715735656738281,13.251908396946565,9.755725190839694,-2.6106870229007635
6212401194191,5.34475328,1,0.430956298828125,5.735310076904296,6.610390783691406,-0.15267175572519084,-3.687022900763359,-11.083969465648854
6212411193618,5.354752707,1,0.8774749084472656,5.793968017578124,6.657077716064452,-7.564885496183206,-14.549618320610687,-16.206106870229007
6212421194607,5.364753696,1,0.7745242370605468,5.287594366455078,5.487510205078125,0.03816793893129771,-20.68702290076336,-24.47328244274809
6212431276691,5.37483578,1,0.7805097412109374,5.383362432861328,5.876567974853515,-5.1603053435114505,-2.5801526717557253,-36.06870229007634
6212441186691,5.38474578,1,0.7984662536621093,5.559336254882812,5.8262897399902345,8.98473282442748,-9.091603053435115,-41.54961832061068
6212451186691,5.39474578,1,0.6919242797851562,6.309918475341797,5.906495495605468,-37.01526717557252,0.35877862595419846,-55.038167938931295
6212461185597,5.404744686,1,0.7314286071777343,6.925228302001953,6.860584857177734,-33.70229007633588,-17.419847328244273,-47.847328244274806
6212471186378,5.414745467,1,0.39264907226562495,7.278373046874999,6.661866119384765,-12.610687022900763,-32.00763358778626,-32.35114503816794
6212481185441,5.42474453,1,0.08379705810546874,7.105990527343749,5.868188269042968,-23.801526717557252,-22.908396946564885,-30.229007633587788
6212491184868,5.434743957,1,-0.2980781066894531,7.077260107421875,6.335057592773437,-32.847328244274806,-34.25954198473283,-24.34351145038168
6212501184607,5.444743696,1,0.39264907226562495,6.774393597412109,5.530605834960937,-43.19847328244275,-26.786259541984734,-25.328244274809162
6212511186899,5.454745988,1,0.10654197387695312,6.874950067138672,5.4899044067382805,-49.732824427480914,-12.061068702290076,-20.763358778625953
6212521183566,5.464742655,1,-0.12449848632812499,6.888118176269531,5.5461681457519525,-33.35114503816794,-5.442748091603053,-8.648854961832061
6212531184399,5.474743488,1,-0.8607154968261719,6.5780690612792965,5.859808563232422,-15.687022900763358,7.0,1.900763358778626
6212541196378,5.484755467,1,-0.6727706665039062,6.066907006835937,6.904877587890625,16.51145038167939,25.244274809160306,8.091603053435115
6212551193045,5.494752134,1,-0.2166752502441406,5.5545478515625,7.340622290039062,31.091603053435115,23.862595419847327,9.816793893129772
6212561192680,5.504751769,1,-0.3112462158203125,5.328295794677734,7.825448126220703,8.244274809160306,14.854961832061068,3.687022900763359
6212571192055,5.514751144,1,-0.3076549133300781,5.074510418701172,7.953537915039062,2.549618320610687,3.6793893129770994,-4.351145038167939
6212581193461,5.52475255,1,-0.09457096557617187,5.333084197998047,7.78235249633789,-5.641221374045801,-10.908396946564885,-11.13740458015267
6212591192784,5.534751873,1,0.06105214233398437,5.6191912963867185,7.407659936523437,-14.549618320610687,-29.641221374045802,-15.061068702290076
6212601193513,5.544752602,1,0.21428104858398436,5.760449194335937,6.782773303222656,-16.061068702290076,-39.656488549618324,-16.9618320610687
6212611193253,5.554752342,1,0.565031591796875,5.884947680664062,6.119579443359375,-18.259541984732824,-43.83206106870229,-18.82442748091603
6212621192628,5.564751717,1,0.8894459167480468,5.869385369873046,5.389347937011719,-7.106870229007634,-41.57251908396947,-20.366412213740457
6212631193305,5.574752394,1,0.8391676818847655,5.9017070922851556,4.99909306640625,-6.221374045801527,-32.404580152671755,-23.49618320610687
6212641187993,5.584747082,1,0.6141127258300781,6.208164904785156,4.908113403320312,-20.900763358778626,-21.198473282442748,-24.709923664122137
6212651186847,5.594745936,1,0.4572925170898437,6.548141540527343,5.067327813720703,-15.67175572519084,-4.0458015267175576,-20.49618320610687
6212661184711,5.6047438,1,0.40462008056640625,6.907271789550781,5.334281298828125,-5.152671755725191,12.122137404580153,-10.938931297709924
6212671183305,5.614742394,1,0.06105214233398437,6.969521032714844,5.092466931152344,-8.183206106870228,18.38167938931298,3.0763358778625953
6212681185388,5.624744477,1,-0.12569558715820311,6.563703851318359,5.4707507934570305,7.259541984732825,38.57251908396947,11.450381679389313
6212691185701,5.63474479,1,-0.3495534423828125,6.279990954589843,6.218938812255859,23.946564885496183,54.465648854961835,10.748091603053435
6212701183513,5.644742602,1,-0.03232172241210937,6.300341668701171,6.926425402832031,10.80916030534351,52.87022900763359,13.549618320610687
6212711185388,5.654744477,1,0.009576806640625,5.843049151611328,7.105990527343749,12.16030534351145,42.32824427480916,14.259541984732824
6212721183722,5.664742811,1,-0.07900865478515624,5.6311623046875,7.163451367187499,5.4961832061068705,35.587786259541986,11.511450381679388
6212731185284,5.674744373,1,-0.19871873779296872,5.404910247802734,6.937199310302734,4.625954198473282,30.66412213740458,6.442748091603053
6212741197680,5.684756769,1,0.10773907470703124,5.364208819580078,6.738480572509765,-2.931297709923664,21.3206106870229,0.05343511450381679
6212751193201,5.69475229,1,-0.14245499877929688,5.305550878906249,6.439205364990234,-15.129770992366412,15.946564885496183,-7.717557251908397
6212761192315,5.704751404,1,-0.0430956298828125,5.084087225341796,6.022614276123046,-14.748091603053435,18.053435114503817,-17.15267175572519
6212771192263,5.714751352,1,0.1484405029296875,5.492298608398437,5.440823272705078,-20.16793893129771,17.045801526717558,-20.129770992366414
6212781193149,5.724752238,1,0.02633621826171875,5.542576843261719,5.455188482666015,-9.50381679389313,32.74045801526717,-20.450381679389313
6212791192368,5.734751457,1,-0.7912836486816406,6.129156249999999,5.870582470703124,-2.1374045801526718,50.41984732824427,-19.51145038167939
6212801190597,5.744749686,1,-0.7110778930664062,6.724115362548828,6.737283471679687,8.51908396946565,60.595419847328245,-12.48091603053435
6212811193982,5.754753071,1,-0.9337386474609375,6.6343328002929685,7.484274389648437,24.236641221374047,63.656488549618324,-4.297709923664122
6212821192003,5.764751092,1,-0.9074024291992187,7.042544183349609,8.190563879394531,27.580152671755727,53.152671755725194,5.8396946564885495
6212831191690,5.774750779,1,-0.7769184387207031,6.424840155029297,7.9643118225097655,22.412213740458014,27.709923664122137,8.854961832061068
6212841188149,5.784747238,1,-0.7230489013671875,6.065709906005859,7.425616448974609,5.374045801526718,9.946564885496183,10.267175572519085
6212851192940,5.794752029,1,0.08858546142578125,5.625176800537109,6.579266162109374,20.0381679389313,-4.290076335877862,9.13740458015267
6212861186847,5.804745936,1,-0.5793968017578125,5.698199951171874,6.260837341308593,-1.549618320610687,-2.236641221374046,4.717557251908397
6212871185857,5.814744946,1,0.13168109130859373,5.42645806274414,5.659892724609374,0.0916030534351145,-6.251908396946565,-7.625954198473282
6212881183930,5.824743019,1,-0.05985504150390625,5.548562347412109,5.1690813842773435,-16.717557251908396,-3.183206106870229,-10.969465648854962
6212891185128,5.834744217,1,-0.3016694091796875,5.6574985229492185,4.961982940673828,-2.045801526717557,11.801526717557252,-14.664122137404581
6212901184138,5.844743227,1,-0.7517793212890624,5.825092639160156,5.213374114990234,10.687022900763358,39.49618320610687,-5.435114503816794
6212911185805,5.854744894,1,-1.197100830078125,6.445190869140625,4.120421057128906,90.41984732824427,50.23664122137404,7.488549618320611
6212921184190,5.864743279,1,-1.2773065856933592,7.068880401611327,4.43047017211914,59.17557251908397,65.37404580152672,6.282442748091603
6212931186170,5.874745259,1,-1.3527239379882812,7.122749938964843,5.914875201416015,4.908396946564886,82.12213740458016,-3.3969465648854964
6212941197107,5.884756196,1,-0.604535919189453,6.940790612792968,6.226121417236328,46.37404580152672,70.93893129770993,0.5343511450381679
6212951193617,5.894752706,1,-0.8810662109374999,6.719326959228515,6.5780690612792965,38.961832061068705,65.03053435114504,9.51908396946565
6212961191899,5.904750988,1,-1.4137760803222656,6.782773303222656,7.486668591308593,31.587786259541986,69.21374045801527,6.183206106870229
6212971191586,5.914750675,1,-1.4915876342773438,6.678625531005859,8.032546569824218,30.53435114503817,56.587786259541986,9.16793893129771
6212981191638,5.924750727,1,-1.648407843017578,6.420051751708984,7.941566906738281,16.61832061068702,26.763358778625953,13.732824427480915
6212991192524,5.934751613,1,-1.8291700683593748,6.17344898071289,7.524975817871093,1.6641221374045803,5.458015267175573,11.931297709923664
6213001192992,5.944752081,1,-1.448492004394531,6.028599780273437,6.807912420654296,2.954198473282443,-6.442748091603053,8.419847328244275
6213011193097,5.954752186,1,-0.9983820922851562,5.774814404296874,6.008249066162109,-3.687022900763359,-19.450381679389313,6.801526717557252
6213021193305,5.964752394,1,-1.1097124694824219,5.811924530029296,5.471947894287109,-8.49618320610687,-20.48854961832061,-0.3969465648854962
6213031193670,5.974752759,1,-1.2509703674316406,5.90529839477539,5.1343654602050774,-11.312977099236642,-13.251908396946565,-9.16030534351145
6213041189242,5.984748331,1,-1.2126631408691406,6.247669232177734,4.881777185058594,-18.236641221374047,-14.83969465648855,-14.648854961832061
6213051183513,5.994742602,1,-1.1815385192871093,6.719326959228515,5.1331683593749995,-30.297709923664122,-3.8244274809160306,-24.427480916030536
6213061184607,6.004743696,1,-0.8786720092773437,6.912060192871094,5.6215854980468745,-30.748091603053435,1.4427480916030535,-20.66412213740458
6213071185232,6.014744321,1,-1.2569558715820313,7.071274603271484,6.047753393554687,-8.694656488549619,8.335877862595419,-13.290076335877863
6213081184399,6.024743488,1,-1.7896657409667969,7.068880401611327,6.341043096923828,-3.33587786259542,11.694656488549619,-6.969465648854962
6213091184399,6.034743488,1,-1.6711527587890624,6.817489227294922,6.150704064941406,1.8854961832061068,5.557251908396947,1.015267175572519
6213101183669,6.044742758,1,-1.139639990234375,6.263231542968749,5.390545037841797,4.312977099236641,-6.1679389312977095,7.908396946564886
6213111185284,6.054744373,1,-1.0307038146972656,6.0321910827636716,5.066130712890625,-8.961832061068701,-3.6106870229007635,4.877862595419847
6213121191482,6.064750571,1,-0.9349357482910156,6.278793853759765,5.21576831665039,-7.396946564885496,13.274809160305344,-1.549618320610687
6213131187940,6.074747029,1,-0.718260498046875,6.523002423095702,5.5641246582031245,0.6183206106870229,23.0,-0.732824427480916
6213141195284,6.084754373,1,-1.158793603515625,6.038176586914062,5.396530541992187,-0.4732824427480916,22.236641221374047,4.450381679389313
6213151192784,6.094751873,1,-0.9624690673828125,6.399701037597656,5.4779333984375,18.786259541984734,33.20610687022901,4.076335877862595
6213161193513,6.104752602,1,-0.9540893615722655,6.460753179931641,5.832275244140624,20.015267175572518,46.083969465648856,2.9160305343511452
6213171191951,6.11475104,1,-0.8762778076171874,7.456741070556641,5.137956762695312,15.763358778625955,42.88549618320611,3.7480916030534353
6213181188722,6.124747811,1,0.4848258361816406,6.263231542968749,6.148309863281249,59.06106870229008,57.083969465648856,27.229007633587788
6213191193097,6.134752186,1,-2.3116017028808593,5.84783755493164,6.732495068359374,37.47328244274809,38.16793893129771,2.8931297709923665
6213201192263,6.144751352,1,-2.4684219116210935,6.647500909423828,6.518214019775391,-17.51145038167939,31.480916030534353,-8.763358778625955
6213211192992,6.154752081,1,-1.707065783691406,7.569268548583984,5.549759448242187,32.48091603053435,27.572519083969464,3.763358778625954
6213221191951,6.16475104,1,-1.1887211242675781,6.994660150146484,5.572504364013671,52.343511450381676,25.595419847328245,18.916030534351144
6213231193201,6.17475229,1,-2.3642741394042965,5.200206005859375,6.300341668701171,5.6106870229007635,23.908396946564885,17.83206106870229
6213241187940,6.184747029,1,-1.2378022583007813,6.769605194091796,6.287173559570312,12.083969465648854,36.85496183206107,-2.030534351145038
6213251181013,6.194740102,1,-0.7517793212890624,7.632714892578124,4.292803576660156,88.25954198473282,12.725190839694656,31.778625954198475
6213261185076,6.204744165,1,-2.455253802490234,6.105214233398437,4.513070129394531,18.793893129770993,16.69465648854962,25.35114503816794
6213271185649,6.214744738,1,-2.4384943908691405,6.449979272460937,4.984727856445312,16.221374045801525,42.213740458015266,2.312977099236641
6213281184711,6.2247438,1,-1.0953472595214844,6.459556079101562,5.1331683593749995,53.2442748091603,48.969465648854964,3.145038167938931
6213291184242,6.234743331,1,-0.8176198669433593,6.068104107666016,4.951209033203125,22.923664122137403,30.564885496183205,2.2061068702290076
6213301185180,6.244744269,1,-1.3287819213867187,6.177040283203125,5.0948611328124995,19.16793893129771,33.52671755725191,-6.4961832061068705
6213311185649,6.254744738,1,-1.8064251525878905,6.766013891601562,5.7125651611328125,30.595419847328245,46.045801526717554,-16.106870229007633
6213321185024,6.264744113,1,-1.7681179260253905,7.28435855102539,6.284779357910156,16.641221374045802,44.14503816793893,-20.290076335877863
6213331184711,6.2747438,1,-1.839943975830078,7.7799582946777335,6.500257507324219,4.641221374045801,26.66412213740458,-21.69465648854962
6213341256638,6.284815727,1,-2.3499089294433593,7.617152581787109,6.266822845458984,-11.251908396946565,6.633587786259542,-15.83969465648855
6213351194086,6.294753175,1,-1.3563152404785155,8.084021905517577,5.5844753723144525,-2.7938931297709924,-3.5877862595419847,-9.50381679389313
6213361192888,6.304751977,1,-2.2744915771484373,7.577648254394531,5.289988568115234,11.50381679389313,-5.106870229007634,3.068702290076336
6213371192732,6.314751821,1,-2.6144682128906247,6.845022546386718,4.896142395019531,3.9160305343511452,-20.96946564885496,9.32824427480916
6213381193149,6.324752238,1,-1.956062756347656,6.938396411132812,5.195417602539062,9.312977099236642,-0.366412213740458,2.045801526717557
6213391192524,6.334751613,1,-1.6136919189453125,6.8964978820800775,5.452794281005859,26.47328244274809,3.687022900763359,5.015267175572519
6213401193513,6.344752602,1,-1.6603788513183593,6.807912420654296,5.473144995117187,17.87786259541985,-5.0534351145038165,5.648854961832061
6213411193565,6.354752654,1,-1.4341267944335936,6.714538555908203,5.577292767333984,14.526717557251908,-4.1603053435114505,3.9160305343511452
6213421192107,6.364751196,1,-1.2701239807128906,6.872555865478515,5.384559533691406,23.404580152671755,-6.099236641221374,2.312977099236641
6213431193305,6.374752394,1,-1.467645617675781,7.034164477539062,5.604826086425781,11.80916030534351,-12.16030534351145,-0.007633587786259542
6213441274399,6.384833488,1,-1.8004396484374998,7.260416534423828,5.345055206298828,6.6106870229007635,-20.572519083969464,-3.564885496183206
6213451187419,6.394746508,1,-1.8662801940917968,7.340622290039062,5.2444987365722655,2.122137404580153,-26.03053435114504,-3.931297709923664
6213461185128,6.404744217,1,-2.3427263244628906,7.764395983886718,5.298368273925781,-0.6641221374045801,-28.17557251908397,-1.633587786259542
6213471183357,6.414742446,1,-3.299209887695312,7.4770917846679685,5.209782812499999,-11.908396946564885,-39.404580152671755,3.5419847328244276
6213481185024,6.424744113,1,-2.1739351074218747,7.651868505859374,5.1894320983886715,-18.48854961832061,-42.06106870229008,0.17557251908396945
6213491185388,6.434744477,1,-1.9823989746093749,7.5153990112304685,5.355829113769531,-10.557251908396946,-33.213740458015266,5.519083969465649
6213501183826,6.444742915,1,-2.404975567626953,7.416039642333984,5.2265422241210935,12.396946564885496,-35.85496183206107,12.679389312977099
6213511184971,6.45474406,1,-1.7513585144042967,7.095216619873047,5.498284112548828,2.519083969465649,-30.786259541984734,10.65648854961832
6213521183357,6.464742446,1,-0.9840168823242187,6.8976949829101555,5.438429071044921,10.236641221374045,-32.20610687022901,7.580152671755725
6213531185180,6.474744269,1,-1.448492004394531,6.581660363769531,5.251681341552734,14.587786259541986,-38.412213740458014,9.877862595419847
6213541184555,6.484743644,1,-1.7190367919921874,6.281188055419921,5.1140147460937495,7.9465648854961835,-41.091603053435115,5.488549618320611
6213551196273,6.494755362,1,-0.9995791931152344,6.455964776611328,5.685031842041015,1.900763358778626,-34.06870229007634,-9.053435114503817
6213561192732,6.504751821,1,-1.3060370056152344,6.398503936767578,5.371391424560547,-17.404580152671755,-53.083969465648856,-14.229007633587786
6213571193096,6.514752185,1,-1.3156138122558594,6.6893994384765625,4.771643908691406,-23.0,-60.13740458015267,-20.900763358778626
6213581192732,6.524751821,1,-1.025915411376953,7.249642626953125,4.504690423583984,-19.72519083969466,-53.06870229007634,-26.221374045801525
6213591192888,6.534751977,1,-1.2042834350585936,7.72489165649414,4.308365887451171,-27.30534351145038,-52.61832061068702,-26.442748091603054
6213601190857,6.544749946,1,-1.1097124694824219,8.119934930419921,4.2125978210449215,-37.274809160305345,-47.70229007633588,-23.72519083969466
6213611192523,6.554751612,1,-1.6543933471679686,8.045714678955077,4.073734124755859,-22.16793893129771,-43.48091603053435,-9.374045801526718
6213621192940,6.564752029,1,-1.1109095703125,8.087613208007811,4.708197564697265,-7.648854961832061,-23.83969465648855,0.6259541984732825
6213631192263,6.574751352,1,-0.7793126403808593,8.158242156982421,5.299565374755859,-6.900763358778626,-15.045801526717558,7.442748091603053
6213641193461,6.58475255,1,-1.0402806213378906,7.886500268554687,5.57370146484375,-16.572519083969464,-26.015267175572518,18.35114503816794
6213651186846,6.594745935,1,-1.092953057861328,7.273584643554687,5.80953032836914,-16.198473282442748,-28.709923664122137,27.6793893129771
6213661185440,6.604744529,1,-1.0761936462402344,6.647500909423828,6.056133099365234,-2.8396946564885495,-30.458015267175572,31.229007633587788
6213671185961,6.61474505,1,-1.0462661254882812,6.270414147949219,6.068104107666016,-7.572519083969466,-40.89312977099237,30.778625954198475
6213681185492,6.624744581,1,-0.8367734802246093,6.317101080322265,5.717353564453124,-28.129770992366414,-50.49618320610687,21.916030534351144
6213691185388,6.634744477,1,-0.6811503723144531,6.49307490234375,5.512649322509765,-33.778625954198475,-53.62595419847328,15.335877862595419
6213701184555,6.644743644,1,-0.24301146850585936,6.360196710205078,5.178658190917968,-39.0,-60.68702290076336,12.244274809160306
6213711190701,6.65474979,1,-0.11133037719726561,6.0142345703124995,5.072116217041016,-34.595419847328245,-51.93893129770992,7.877862595419847
6213721186586,6.664745675,1,0.14245499877929688,5.708973858642578,5.231330627441406,-4.900763358778626,-40.61832061068702,8.549618320610687
6213731185805,6.674744894,1,0.9074024291992187,5.622782598876952,5.161898779296875,2.954198473282443,-27.519083969465647,0.48854961832061067
6213741185232,6.684744321,1,0.2442085693359375,5.57370146484375,5.36899722290039,-6.122137404580153,-29.587786259541986,-7.572519083969466
6213751195544,6.694754633,1,-0.277727392578125,6.463147381591797,5.837063647460937,-16.480916030534353,-18.427480916030536,-26.206106870229007
6213761191638,6.704750727,1,-0.4572925170898437,6.985083343505859,6.1842228881835934,-24.106870229007633,-16.099236641221374,-32.83969465648855
6213771193357,6.714752446,1,-1.6304513305664061,7.4208280456542965,5.781997009277344,-9.061068702290076,-32.2442748091603,-24.251908396946565
6213781191742,6.724750831,1,0.003591302490234375,8.064868292236328,5.724536169433593,-18.732824427480917,-25.671755725190838,-31.977099236641223
6213791193930,6.734753019,1,0.8092401611328125,8.29351455078125,5.118803149414062,-36.14503816793893,-35.83206106870229,-27.48854961832061
6213801194346,6.744753435,1,-0.08020575561523437,7.702146740722656,4.283226770019531,-30.595419847328245,-50.62595419847328,-5.625954198473282
6213811193930,6.754753019,1,0.15442600708007811,7.429207751464843,3.4524387939453125,-10.381679389312977,-38.44274809160305,5.0
6213821192992,6.764752081,1,1.265335577392578,7.4579381713867186,4.173093493652344,-17.38167938931298,9.473282442748092,-4.015267175572519
6213831193200,6.774752289,1,-0.13407529296874998,6.851008050537109,3.909731311035156,-31.328244274809162,-10.351145038167939,9.694656488549619
6213841192055,6.784751144,1,-1.2497732666015624,6.248866333007812,4.261678955078125,-21.748091603053435,8.13740458015267,16.938931297709924
6213851186221,6.79474531,1,-0.4225765930175781,6.23090982055664,5.804741925048828,10.297709923664122,58.16030534351145,11.0
6213861184450,6.804743539,1,-0.15083470458984374,6.4643444824218745,7.055712292480468,25.50381679389313,70.00763358778626,8.221374045801527
6213871184867,6.814743956,1,-0.105344873046875,6.256048937988281,7.388506323242187,6.083969465648855,52.61832061068702,12.351145038167939
6213881184815,6.824743904,1,-0.6643909606933593,6.035782385253906,7.183802081298828,4.068702290076335,32.25190839694657,11.320610687022901
6213891185232,6.834744321,1,-0.40222587890625,5.984307049560546,6.9527616210937495,-3.549618320610687,23.27480916030534,4.206106870229007
6213901184294,6.844743383,1,-0.34715924072265625,6.155492468261718,6.546944439697265,-8.679389312977099,17.61832061068702,-1.0610687022900764
6213911185961,6.85474505,1,-0.47884033203125,6.0704983093261715,6.205770703124999,-3.015267175572519,11.534351145038167,-0.5725190839694656
6213921184190,6.864743279,1,-0.5063736511230469,6.177040283203125,5.985504150390625,3.763358778625954,13.17557251908397,-3.2977099236641223
6213931185284,6.874744373,1,-0.5039794494628906,6.344634399414062,5.908889697265625,1.2213740458015268,12.793893129770993,-6.6183206106870225
6213941184971,6.88474406,1,-0.6416460449218749,6.400898138427734,5.795165118408203,6.694656488549619,13.694656488549619,-6.106870229007634
6213951194919,6.894754008,1,-0.4321533996582031,6.894103680419922,5.9950809570312495,12.908396946564885,21.358778625954198,-9.763358778625955
6213961193200,6.904752289,1,-0.507570751953125,7.098807922363281,5.816712933349609,-7.267175572519084,8.816793893129772,-10.961832061068701
6213971195909,6.914754998,1,-0.4800374328613281,7.225700610351562,5.389347937011719,-10.80916030534351,7.312977099236641,-7.580152671755725
6213981196377,6.924755466,1,-0.03950432739257812,7.455543969726562,5.128379956054687,1.6717557251908397,16.282442748091604,-4.0458015267175576
6213991196430,6.934755519,1,-0.27174188842773433,7.212532501220703,4.965574243164062,15.923664122137405,27.137404580152673,4.656488549618321
6214001195909,6.944754998,1,-0.35673604736328124,6.968323931884766,4.860229370117187,33.17557251908397,35.908396946564885,12.122137404580153
6214011237263,6.954796352,1,-0.3268085266113281,6.885723974609375,4.672284539794922,30.53435114503817,45.282442748091604,12.86259541984733
6214021203461,6.96476255,1,-0.8164227661132812,6.556521246337891,4.599261389160156,25.65648854961832,47.93129770992366,16.099236641221374
6214031197419,6.974756508,1,-1.01514150390625,6.325480786132812,4.678270043945313,30.419847328244273,56.969465648854964,16.770992366412212
6214041192315,6.984751404,1,-1.5203180541992187,6.139930157470703,5.367800122070312,32.48854961832061,73.33587786259542,13.67175572519084
6214051189971,6.99474906,1,-1.964442462158203,6.206967803955078,5.777208605957031,28.84732824427481,59.587786259541986,13.908396946564885
6214061187992,7.004747081,1,-1.9536685546875,6.381744525146484,6.861781958007812,24.106870229007633,71.81679389312977,0.8091603053435115
6214071187888,7.014746977,1,-2.062604730224609,6.290764862060547,7.019799267578125,22.33587786259542,46.05343511450382,3.50381679389313
6214081186898,7.024745987,1,-1.5849614990234373,6.533776330566406,7.0461354858398435,17.893129770992367,31.69465648854962,-2.984732824427481
6214091187732,7.034746821,1,-0.6907271789550781,7.0269818725585935,6.523002423095702,-1.2061068702290076,13.213740458015268,-12.65648854961832
6214101187471,7.04474656,1,-0.8391676818847655,7.199364392089843,5.6024318847656245,-20.31297709923664,-5.480916030534351,-13.526717557251908
6214111198409,7.054757498,1,-1.3407529296874998,7.3849150207519525,4.814739538574218,-15.534351145038167,-7.801526717557252,-9.17557251908397
6214121185440,7.064744529,1,-0.7505822204589844,8.026561065673828,4.550180255126953,3.3969465648854964,19.221374045801525,-6.114503816793893
6214131186482,7.074745571,1,-0.23343466186523437,8.473079675292968,4.570530969238281,12.49618320610687,34.69465648854962,-0.6564885496183206
6214141186117,7.084745206,1,-0.2861070983886719,8.08881030883789,4.147954376220703,11.511450381679388,30.81679389312977,16.14503816793893
6214151271586,7.094830675,1,-0.316034619140625,7.581239556884765,3.3770214416503905,10.923664122137405,26.404580152671755,18.610687022900763
6214161194450,7.104753539,1,-0.43454760131835934,6.4655415832519525,2.882618798828125,-19.435114503816795,26.885496183206108,25.396946564885496
6214171194346,7.114753435,1,-0.612915625,6.057330200195312,2.9185318237304685,3.633587786259542,50.900763358778626,22.908396946564885
6214181194502,7.124753591,1,-1.0510545288085937,5.955576629638672,3.801992236328125,16.068702290076335,77.93893129770993,17.870229007633586
6214191192263,7.134751352,1,-2.051830822753906,6.07768091430664,5.06253941040039,19.015267175572518,95.23664122137404,14.419847328244275
6214201191846,7.144750935,1,-3.1376012756347653,6.907271789550781,7.0652890991210935,24.068702290076335,106.21374045801527,4.648854961832061
6214211192575,7.154751664,1,-2.9472622436523435,7.9104422851562495,8.90643017578125,-2.595419847328244,100.33587786259542,-6.114503816793893
6214221192159,7.164751248,1,-2.6431986328124997,8.25520732421875,9.63307037963867,-21.16030534351145,61.82442748091603,1.5954198473282444
6214231193252,7.174752341,1,-2.5821464904785154,7.957129217529296,8.597578161621094,-25.068702290076335,-0.007633587786259542,18.374045801526716
6214241193669,7.184752758,1,-1.637633935546875,7.255628131103515,6.883329772949218,-34.42748091603053,-34.70992366412214,23.282442748091604
6214251282575,7.194841664,1,-0.5374982727050781,6.358999609374999,4.964377142333984,-32.14503816793893,-50.587786259541986,24.236641221374047
6214261186846,7.204745935,1,-0.1640028137207031,5.671863732910156,3.451241693115234,-17.84732824427481,-46.83206106870229,20.68702290076336
6214271184659,7.214743748,1,-0.5147533569335937,5.459976885986328,2.683900061035156,-20.106870229007633,-26.938931297709924,7.1679389312977095
6214281184242,7.224743331,1,-0.949300958251953,6.013037469482422,3.1016882507324217,-29.519083969465647,10.389312977099237,-13.145038167938932
6214291191638,7.234750727,1,-1.0043675964355467,7.034164477539062,4.2700586608886715,-28.076335877862597,43.20610687022901,-28.732824427480917
6214301186794,7.244745883,1,-1.6232687255859375,7.589619262695312,5.419275457763671,-32.3206106870229,48.70229007633588,-27.84732824427481
6214311184919,7.254744008,1,-2.0266917053222655,7.607575775146484,6.133944653320312,-30.061068702290076,42.89312977099237,-17.46564885496183
6214321185440,7.264744529,1,-2.0638018310546875,7.26520493774414,6.5014546081542965,-13.244274809160306,35.57251908396947,-5.083969465648855
6214331185179,7.274744268,1,-1.8770541015625,6.781576202392578,6.533776330566406,-15.01526717557252,20.938931297709924,3.198473282442748
6214341183877,7.284742966,1,-2.038662713623047,6.6893994384765625,6.910863092041015,-34.06870229007634,13.572519083969466,1.9923664122137406
6214351180232,7.294739321,1,-2.205059729003906,6.64630380859375,7.164648468017577,-29.916030534351144,6.603053435114504,2.183206106870229
6214361195388,7.304754477,1,-2.6336218261718747,6.457161877441406,7.50821640625,-22.206106870229007,0.3053435114503817,3.877862595419847
6214371193929,7.314753018,1,-2.443282794189453,6.683413934326172,7.528567120361328,-13.068702290076336,-6.763358778625954,2.4580152671755724
6214381193513,7.324752602,1,-1.9895815795898437,6.412869146728515,6.965929730224609,-22.15267175572519,-26.38167938931298,6.5038167938931295
6214391192836,7.334751925,1,-1.889025109863281,6.208164904785156,6.045359191894531,-14.389312977099237,-43.06106870229008,12.473282442748092
6214401192940,7.344752029,1,-1.7310078002929687,6.25006343383789,5.495889910888671,-9.610687022900763,-41.54961832061068,11.183206106870228
6214411194398,7.354753487,1,-1.5969325073242187,6.556521246337891,5.2265422241210935,-8.450381679389313,-38.47328244274809,8.351145038167939
6214421193252,7.364752341,1,-0.7110778930664062,6.40329234008789,4.923675714111328,-3.7099236641221376,-29.47328244274809,4.351145038167939
6214431193929,7.374753018,1,-1.4233528869628906,5.433640667724609,5.468356591796875,18.251908396946565,-18.33587786259542,9.793893129770993
6214441192888,7.384751977,1,-1.629254229736328,5.492298608398437,5.963956335449218,72.17557251908397,-0.8473282442748091,4.564885496183206
6214451193304,7.394752393,1,-1.0139444030761717,5.7508723876953125,6.858190655517578,55.51908396946565,12.007633587786259,-10.923664122137405
6214461184190,7.404743279,1,-0.8726865051269531,6.003460662841796,7.017405065917968,18.83206106870229,-9.793893129770993,-25.717557251908396
6214471186481,7.41474557,1,-1.6508020446777343,6.325480786132812,6.350619903564453,-2.2290076335877864,-41.48091603053435,-35.2442748091603
6214481184294,7.424743383,1,-1.7357962036132812,6.624755993652343,5.744886883544922,-22.442748091603054,-53.38167938931298,-43.87786259541985
6214491185492,7.434744581,1,-1.3311761230468748,7.09282241821289,5.483918902587891,-27.702290076335878,-52.587786259541986,-50.29007633587786
6214501185544,7.444744633,1,-1.0211270080566406,7.3932947265625,5.354632012939453,-18.885496183206108,-46.35114503816794,-50.30534351145038
6214511185856,7.454744945,1,-1.7645266235351562,7.605181573486328,5.42047255859375,-12.86259541984733,-48.18320610687023,-40.62595419847328
6214521184606,7.464743695,1,-1.8219874633789062,7.4399816589355465,5.12000025024414,-22.64885496183206,-49.091603053435115,-30.610687022900763
6214531186013,7.474745102,1,-1.5466542724609373,7.416039642333984,4.547786053466797,-11.122137404580153,-40.16030534351145,-20.27480916030534
6214541184606,7.484743695,1,-0.939724151611328,7.126341241455077,4.242525341796875,7.175572519083969,-24.52671755725191,-5.1603053435114505
6214551185336,7.494744425,1,-0.7445967163085937,7.077260107421875,4.37300933227539,21.541984732824428,-3.3282442748091605,0.8854961832061069
6214561193565,7.504752654,1,-1.0690110412597655,6.86297905883789,4.537012145996093,22.900763358778626,2.648854961832061,9.778625954198473
6214571193304,7.514752393,1,-0.6512228515624999,6.788758807373046,4.882974285888672,25.068702290076335,17.16793893129771,10.038167938931299
6214581192367,7.524751456,1,-0.8403647827148437,6.725312463378906,5.353434912109375,27.732824427480917,24.244274809160306,10.236641221374045
6214591192731,7.53475182,1,-1.1659762084960936,6.710947253417968,5.384559533691406,18.137404580152673,19.748091603053435,10.076335877862595
6214601194450,7.544753539,1,-1.0558429321289062,6.9348051086425775,5.4515971801757805,7.458015267175573,23.213740458015266,4.412213740458015
6214611193565,7.554752654,1,-1.1085153686523437,7.091625317382812,5.580884069824219,6.656488549618321,24.61832061068702,4.435114503816794
6214621193044,7.564752133,1,-1.351526837158203,7.037755780029296,5.614402893066406,9.595419847328245,22.6793893129771,8.15267175572519
6214631193148,7.574752237,1,-1.426944189453125,6.781576202392578,5.449202978515625,8.725190839694656,19.19083969465649,10.305343511450381
6214641193565,7.584752654,1,-1.4353238952636718,6.688202337646484,5.4779333984375,3.16793893129771,16.84732824427481,8.251908396946565
6214651192575,7.594751664,1,-1.782483135986328,6.443993768310547,5.668272430419922,-0.4580152671755725,18.419847328244273,7.984732824427481
6214661187575,7.604746664,1,-1.9021932189941406,6.564900952148437,5.91846650390625,11.702290076335878,20.374045801526716,8.183206106870228
6214671185440,7.614744529,1,-1.7525556152343749,6.7037646484375,6.247669232177734,9.82442748091603,19.572519083969464,4.305343511450381
6214681185440,7.624744529,1,-1.744175909423828,6.732495068359374,6.290764862060547,2.8931297709923665,9.916030534351146,5.236641221374046
6214691185700,7.634744789,1,-1.6986860778808592,6.776787799072265,6.084863519287109,5.893129770992366,0.12213740458015267,3.9083969465648853
6214701185023,7.644744112,1,-1.408987677001953,6.5972226745605465,5.798756420898437,-2.099236641221374,-6.404580152671755,1.5954198473282444
6214711184919,7.654744008,1,-1.3682862487792968,6.6319385986328125,5.542576843261719,-2.572519083969466,-9.709923664122137,0.6946564885496184
6214721184138,7.664743227,1,-1.274912384033203,6.864176159667968,5.340266802978515,-3.5114503816793894,-7.793893129770993,-2.6793893129770994
6214731185544,7.674744633,1,-1.1480196960449218,7.138312249755859,5.046977099609375,-13.114503816793894,-10.854961832061068,-6.152671755725191
6214741184502,7.684743591,1,-1.1420341918945311,6.940790612792968,4.695029455566406,-19.549618320610687,-10.900763358778626,-2.50381679389313
6214751184294,7.694743383,1,-0.6236895324707031,7.085639813232421,4.827907647705078,-1.3206106870229009,6.809160305343512,-1.5648854961832062
6214761255388,7.704814477,1,-1.0342951171875,7.062894897460937,5.019443780517578,10.229007633587786,16.30534351145038,4.6183206106870225
6214771194606,7.714753695,1,-1.351526837158203,6.879738470458984,5.3390697021484375,11.099236641221374,21.34351145038168,8.709923664122137
6214781192263,7.724751352,1,-1.2964601989746094,6.9527616210937495,5.963956335449218,16.641221374045802,29.931297709923665,7.862595419847328
6214791192992,7.734752081,1,-1.5693991882324219,6.861781958007812,6.1267620483398435,15.877862595419847,23.206106870229007,10.061068702290076
6214801192471,7.74475156,1,-1.898601916503906,6.4356140625,5.38815083618164,5.564885496183206,0.022900763358778626,16.34351145038168
6214811193408,7.754752497,1,-1.5358803649902344,6.675034228515624,5.882553479003906,6.9541984732824424,12.465648854961833,5.236641221374046
6214821193981,7.76475307,1,-0.6416460449218749,6.459556079101562,5.863399865722656,1.8015267175572518,9.755725190839694,2.946564885496183
6214831190283,7.774749372,1,-1.5753846923828123,6.544550238037109,6.120776544189453,12.427480916030534,11.870229007633588,1.0763358778625953
6214841194086,7.784753175,1,-2.2397756530761717,6.3709706176757805,5.6191912963867185,7.9541984732824424,-8.259541984732824,7.587786259541985
6214851193408,7.794752497,1,-1.5646107849121094,6.625953094482422,5.928043310546875,2.1603053435114505,3.9083969465648853,-5.709923664122138
6214861273773,7.804832862,1,-1.158793603515625,6.868964562988281,5.616797094726562,6.0,-3.8702290076335877,-6.358778625954199
6214871196169,7.814755258,1,-0.9923965881347656,6.842628344726562,5.1714755859374995,-0.5954198473282443,-8.954198473282442,-5.862595419847328
6214881187210,7.824746299,1,-1.4341267944335936,6.667851623535156,4.791994622802734,1.916030534351145,-9.49618320610687,-3.633587786259542
6214891185960,7.834745049,1,-1.4317325927734375,6.791153009033203,4.490325213623047,8.358778625954198,-6.442748091603053,-4.061068702290076
6214901184190,7.844743279,1,-1.3431471313476562,6.975506536865234,4.950011932373046,4.175572519083969,5.450381679389313,-10.526717557251908
6214911185960,7.854745049,1,-1.3850456604003905,7.180210778808593,5.051765502929687,1.7328244274809161,4.755725190839694,-11.648854961832061
6214921184294,7.864743383,1,-1.466448516845703,7.369352709960937,5.397727642822265,1.251908396946565,8.358778625954198,-10.358778625954198
6214931185023,7.874744112,1,-1.369483349609375,7.456741070556641,5.548562347412109,6.190839694656488,11.259541984732824,-7.709923664122138
6214941184815,7.884743904,1,-1.7669208251953124,7.307103466796875,5.518634826660156,2.66412213740458,4.366412213740458,-0.8091603053435115
6214951185908,7.894744997,1,-1.8219874633789062,7.107187628173827,5.197811804199218,3.1297709923664123,-0.366412213740458,2.946564885496183
6214961184815,7.904743904,1,-1.9584569580078124,7.13112964477539,5.15830747680664,2.717557251908397,2.8091603053435112,3.4885496183206106
6214971194138,7.914753227,1,-1.4006079711914061,7.094019519042968,4.826710546875,2.7404580152671754,1.8931297709923665,7.015267175572519
6214981196377,7.924755466,1,-0.9756371765136718,7.0832456115722655,5.500678314208984,-6.412213740458015,13.221374045801527,3.450381679389313
6214991192575,7.934751664,1,-1.43652099609375,7.001842755126953,5.5090580200195305,2.2519083969465647,5.33587786259542,7.351145038167939
6215001192575,7.944751664,1,-1.5490484741210937,6.927622503662109,5.758054992675781,18.52671755725191,7.8320610687022905,9.396946564885496
6215011193044,7.954752133,1,-1.47482822265625,6.458358978271484,5.876567974853515,14.564885496183207,2.7099236641221376,10.664122137404581
6215021193981,7.96475307,1,-1.6795324645996093,6.297947467041015,5.754463690185546,8.488549618320612,-1.8549618320610688,5.557251908396947
6215031192210,7.974751299,1,-1.504755743408203,6.4643444824218745,4.954800335693359,8.358778625954198,-11.541984732824428,0.9923664122137404
6215041193408,7.984752497,1,-1.5322890624999999,6.720524060058593,4.657919329833984,-6.770992366412214,-1.5801526717557253,-6.374045801526718
6215051193929,7.994753018,1,-1.2198457458496093,7.329848382568359,4.089296435546875,-13.267175572519085,2.145038167938931,-12.702290076335878
6215061193096,8.004752185,1,-1.6256629272460936,7.68658442993164,3.403357659912109,-47.97709923664122,-3.877862595419847,-11.213740458015268
6215071187106,8.014746195,1,-1.8914193115234375,7.924807495117187,3.4584242980957027,-44.94656488549618,16.80916030534351,-2.5343511450381677
6215081185596,8.024744685,1,-0.7936778503417968,8.291120349121094,4.547786053466797,-7.679389312977099,54.213740458015266,3.66412213740458
6215091186273,8.034745362,1,-1.4975731384277342,7.74404526977539,5.404910247802734,-2.885496183206107,50.80152671755725,24.35114503816794
6215101185648,8.044744737,1,-2.3965958618164063,7.082048510742187,6.191405493164062,18.65648854961832,50.29770992366412,36.38167938931298
6215111186377,8.054745466,1,-1.476025323486328,7.029376074218749,7.163451367187499,34.69465648854962,58.13740458015267,30.3206106870229
6215121184710,8.064743799,1,-0.729034405517578,6.58884296875,7.189787585449218,11.366412213740459,28.557251908396946,24.938931297709924
6215131190231,8.07474932,1,-1.3275848205566405,6.008249066162109,6.392518432617187,-16.38167938931298,-12.236641221374045,23.412213740458014
6215141187627,8.084746716,1,-1.3682862487792968,5.934028814697265,5.499481213378906,-30.16030534351145,-24.404580152671755,9.34351145038168
6215151185856,8.094744945,1,-1.0438719238281249,6.227318518066406,4.996698864746094,-44.19083969465649,-20.396946564885496,-6.213740458015267
6215161184867,8.104743956,1,-1.695094775390625,6.5505357421875,4.551377355957031,-45.29007633587786,-24.442748091603054,-9.931297709923664
6215171195960,8.114755049,1,-1.6460136413574218,7.072471704101562,4.590881683349609,-42.725190839694655,-8.992366412213741,-13.740458015267176
6215181194450,8.124753539,1,-1.5442600708007812,7.586027960205078,5.275623358154297,-26.129770992366414,9.045801526717558,-11.633587786259541
6215191194450,8.134753539,1,-1.7238251953125,7.572859851074218,5.865794067382812,-9.709923664122137,10.908396946564885,0.7175572519083969
6215201195127,8.144754216,1,-1.908178723144531,7.194575988769531,5.896918688964844,-7.206106870229007,7.893129770992366,12.992366412213741
6215211193669,8.154752758,1,-1.4317325927734375,7.0269818725585935,5.916072302246094,-8.908396946564885,3.0229007633587788,12.694656488549619
6215221192679,8.164751768,1,-1.1336544860839843,6.706158850097656,6.0525417968749995,-5.770992366412214,4.984732824427481,16.045801526717558
6215231189242,8.174748331,1,-1.24498486328125,6.3901242309570305,5.883750579833984,3.4122137404580153,-2.66412213740458,16.85496183206107
6215241193460,8.184752549,1,-1.2785036865234374,6.076483813476562,5.625176800537109,-14.076335877862595,-9.763358778625955,12.320610687022901
6215251193877,8.194752966,1,-0.853532891845703,6.527790826416015,5.606023187255859,-2.648854961832061,-0.6183206106870229,3.900763358778626
6215261192835,8.204751924,1,-0.9828197814941406,6.779182000732422,5.4887073059082025,-3.2442748091603053,-0.7557251908396947,2.282442748091603
6215271188304,8.214747393,1,-0.8678981018066406,6.655880615234374,5.161898779296875,-18.442748091603054,-8.267175572519085,1.099236641221374
6215281184137,8.224743226,1,-1.1145008728027344,6.777984899902344,4.847061260986328,-10.282442748091603,-3.900763358778626,1.4198473282442747
6215291185856,8.234744945,1,-1.3934253662109375,6.72291826171875,5.046977099609375,-6.229007633587786,3.7938931297709924,2.5801526717557253
6215301184867,8.244743956,1,-1.3455413330078123,6.795941412353515,5.209782812499999,-9.251908396946565,7.916030534351145,-0.5114503816793893
6215311184971,8.25474406,1,-1.3407529296874998,6.658274816894531,5.21576831665039,-8.763358778625955,7.122137404580153,2.114503816793893
6215321183981,8.26474307,1,-1.3934253662109375,6.846219647216796,5.003881469726562,-5.977099236641221,7.396946564885496,1.1145038167938932
6215331184189,8.274743278,1,-1.6747440612792968,6.555324145507812,4.7943888244628905,-20.099236641221374,5.129770992366412,2.1526717557251906
6215341183512,8.284742601,1,-1.2294225524902342,6.702567547607422,4.961982940673828,-2.1603053435114505,22.557251908396946,-1.2290076335877862
6215351185023,8.294744112,1,-1.3850456604003905,6.645106707763672,5.2073886108398435,-5.916030534351145,24.66412213740458,-0.13740458015267176
6215361184762,8.304743851,1,-2.1248539733886718,6.544550238037109,5.294776971435547,-4.5038167938931295,23.6793893129771,3.83206106870229
6215371198148,8.314757237,1,-1.6400281372070311,6.660669018554687,5.899312890625,7.2748091603053435,38.18320610687023,-0.17557251908396945
6215381192992,8.324752081,1,-1.1635820068359375,6.928819604492187,6.203376501464843,9.526717557251908,37.732824427480914,-1.633587786259542
6215391196169,8.334755258,1,-2.3511060302734372,6.950367419433594,6.490680700683593,-8.099236641221374,21.946564885496183,-3.183206106870229
6215401195908,8.344754997,1,-2.0733786376953125,6.773196496582031,5.00507857055664,-12.961832061068701,-13.709923664122137,-3.4427480916030535
6215411196169,8.354755258,1,-0.7685387329101562,6.362590911865234,5.272032055664062,-35.36641221374046,9.488549618320612,-3.198473282442748
6215421197367,8.364756456,1,-0.5039794494628906,6.870161663818359,5.744886883544922,3.83206106870229,29.732824427480917,-9.893129770992367
6215431196794,8.374755883,1,-1.6328455322265625,6.470329986572265,5.6203883972167965,-25.633587786259543,3.801526717557252,-2.0916030534351147
6215441198252,8.384757341,1,-1.7848773376464844,6.4846951965332025,5.718550665283203,-25.17557251908397,11.610687022900763,-4.290076335877862
6215451195960,8.394755049,1,-0.9349357482910156,6.885723974609375,5.817910034179687,-1.366412213740458,23.931297709923665,-8.549618320610687
6215461196377,8.404755466,1,-1.005564697265625,6.744466076660156,5.659892724609374,-24.34351145038168,12.65648854961832,-6.1679389312977095
6215471189189,8.414748278,1,-2.402581365966797,6.295553265380859,5.327098693847656,-33.30534351145038,-2.404580152671756,-2.595419847328244
6215481188669,8.424747758,1,-2.893392706298828,6.394912634277343,5.655104321289063,-19.206106870229007,9.786259541984732,-3.4885496183206106
6215491189189,8.434748278,1,-2.3295582153320313,6.56968935546875,6.351817004394531,-6.366412213740458,27.251908396946565,-4.770992366412214
6215501187835,8.444746924,1,-2.1978771240234374,6.663063220214843,6.421248852539062,-5.931297709923665,21.893129770992367,-2.816793893129771
6215511188825,8.454747914,1,-2.446874096679687,6.4655415832519525,6.438008264160156,-16.564885496183205,16.633587786259543,0.9312977099236641
6215521188512,8.464747601,1,-2.7437551025390623,6.388927130126953,6.374561920166015,-8.13740458015267,14.83969465648855,3.1908396946564888
6215531192054,8.474751143,1,-2.414552374267578,6.331466290283203,6.696582043457031,1.1221374045801527,18.27480916030534,5.030534351145038
6215541186325,8.484745414,1,-1.668758557128906,6.460753179931641,6.871358764648437,10.206106870229007,20.893129770992367,4.9541984732824424
6215551185648,8.494744737,1,-1.3072341064453123,6.253654736328125,6.694187841796874,9.068702290076336,7.312977099236641,6.717557251908397
6215561183981,8.50474307,1,-1.782483135986328,5.793968017578124,6.036979486083984,-0.366412213740458,-10.992366412213741,7.755725190839694
6215571261169,8.514820258,1,-1.6436194396972654,5.528211633300781,5.549759448242187,0.5419847328244275,-13.381679389312977,2.8091603053435112
6215581195544,8.524754633,1,-1.4245499877929686,5.814318731689453,5.2061915100097655,-0.9923664122137404,-9.694656488549619,-8.045801526717558
6215591193512,8.534752601,1,-1.5167267517089842,6.15429536743164,4.975151049804687,-23.61832061068702,-12.854961832061068,-16.83969465648855
6215601194450,8.544753539,1,-1.6915034729003906,6.623558892822265,4.917690209960937,-32.82442748091603,-8.19083969465649,-21.412213740458014
6215611193877,8.554752966,1,-1.8279729675292968,7.0269818725585935,4.991910461425781,-25.419847328244273,1.4809160305343512,-19.87786259541985
6215621192575,8.564751664,1,-1.8435352783203125,6.9719152343749995,5.175066888427734,-15.67175572519084,13.427480916030534,-11.80916030534351
6215631193408,8.574752497,1,-1.8926164123535154,6.907271789550781,5.406107348632812,-1.0305343511450382,22.580152671755727,-4.519083969465649
6215641193564,8.584752653,1,-2.072181536865234,6.58884296875,5.871779571533203,6.801526717557252,31.801526717557252,2.885496183206107
6215651197314,8.594756403,1,-2.096123553466797,6.4643444824218745,6.423643054199219,18.251908396946565,37.85496183206107,5.458015267175573
6215661195804,8.604754893,1,-2.147598889160156,6.1842228881835934,6.5948284729003905,18.480916030534353,32.9236641221374,8.549618320610687
6215671273825,8.614832914,1,-2.1835119140624997,5.884947680664062,6.787561706542968,21.557251908396946,23.870229007633586,9.129770992366412
