timestamp_ns,t_s,sensor_id,ax,ay,az
3609995478152,0.056850885,1,0.24301146850585936,1.7381904052734374,-11.203666668701171
3609997421017,0.05879375,1,0.24061726684570311,1.7334020019531249,-11.18571015625
3609999417788,0.060790521,1,0.22505495605468748,1.7214309936523438,-11.192892761230468
3610001682944,0.063055677,1,0.21188684692382811,1.7130512878417967,-11.204863769531249
3610003421277,0.06479401,1,0.21308394775390624,1.707065783691406,-11.204863769531249
3610005516225,0.066888958,1,0.22744915771484372,1.714248388671875,-11.180921752929686
3610007425392,0.068798125,1,0.24301146850585936,1.7286135986328124,-11.143811627197264
3610009418204,0.070790937,1,0.24660277099609373,1.7573440185546874,-11.150994232177734
3610011415235,0.072787968,1,0.2262520568847656,1.7609353210449217,-11.183315954589844
3610013414715,0.074787448,1,0.2166752502441406,1.7369933044433592,-11.221623181152344
3610015414298,0.076787031,1,0.2214636535644531,1.7381904052734374,-11.215637677001952
3610017414506,0.078787239,1,0.23343466186523437,1.7310078002929687,-11.214440576171874
3610019414558,0.080787291,1,0.22744915771484372,1.7166425903320313,-11.213243475341796
3610021417787,0.08279052,1,0.22505495605468748,1.7226280944824217,-11.194089862060546
3610023415652,0.084788385,1,0.229843359375,1.7226280944824217,-11.19169566040039
3610025415235,0.086787968,1,0.23343466186523437,1.7214309936523438,-11.202469567871093
3610027413725,0.088786458,1,0.22505495605468748,1.7357962036132812,-11.213243475341796
3610029415496,0.090788229,1,0.2346317626953125,1.7381904052734374,-11.21084927368164
3610031414194,0.092786927,1,0.24181436767578124,1.7513585144042967,-11.206060870361327
3610033414923,0.094787656,1,0.23822306518554687,1.7513585144042967,-11.215637677001952
3610035414298,0.096787031,1,0.22385785522460935,1.7573440185546874,-11.209652172851563
3610037413517,0.09878625,1,0.2166752502441406,1.7513585144042967,-11.170147845458983
3610039411433,0.100784166,1,0.21906945190429686,1.7357962036132812,-11.186907257080078
3610041416069,0.102788802,1,0.1927332336425781,1.7214309936523438,-11.196484063720703
3610043414298,0.104787031,1,0.19153613281249998,1.7202338928222656,-11.174936248779296
3610045414819,0.106787552,1,0.18555062866210936,1.7286135986328124,-11.159373937988281
3610047414090,0.108786823,1,0.20709844360351562,1.7274164978027342,-11.176133349609374
3610049415287,0.11078802,1,0.20829554443359374,1.7178396911621092,-11.17254204711914
3610051414090,0.112786823,1,0.21188684692382811,1.715445489501953,-11.194089862060546
3610053414350,0.114787083,1,0.21428104858398436,1.7166425903320313,-11.204863769531249
3610055414246,0.116786979,1,0.20709844360351562,1.7118541870117185,-11.212046374511718
3610057414715,0.118787448,1,0.20949264526367187,1.7118541870117185,-11.231199987792968
3610059414350,0.120787083,1,0.2214636535644531,1.7226280944824217,-11.201272467041015
3610061413829,0.122786562,1,0.239420166015625,1.7465701110839842,-11.184513055419922
3610063413985,0.124786718,1,0.2442085693359375,1.7609353210449217,-11.196484063720703
3610065414558,0.126787291,1,0.24301146850585936,1.7549498168945312,-11.2240173828125
3610067414610,0.128787343,1,0.24899697265624998,1.753752716064453,-11.215637677001952
3610069415183,0.130787916,1,0.239420166015625,1.7609353210449217,-11.23000288696289
3610071414037,0.13278677,1,0.23343466186523437,1.7393875061035156,-11.213243475341796
3610073414350,0.134787083,1,0.22744915771484372,1.7393875061035156,-11.202469567871093
3610075413881,0.136786614,1,0.22266075439453123,1.7369933044433592,-11.200075366210937
3610077414819,0.138787552,1,0.22385785522460935,1.7549498168945312,-11.182118853759764
3610079414037,0.14078677,1,0.229843359375,1.7597382202148437,-11.17852755126953
3610081413829,0.142786562,1,0.23702596435546874,1.7549498168945312,-11.176133349609374
3610083414350,0.144787083,1,0.22026655273437498,1.7465701110839842,-11.182118853759764
3610085413933,0.146786666,1,0.21906945190429686,1.7357962036132812,-11.184513055419922
3610087414350,0.148787083,1,0.23343466186523437,1.7274164978027342,-11.188104357910156
3610089414506,0.150787239,1,0.24301146850585936,1.7322049011230467,-11.21084927368164
3610091413933,0.152786666,1,0.23223756103515625,1.753752716064453,-11.196484063720703
3610093414558,0.154787291,1,0.2442085693359375,1.7453730102539062,-11.200075366210937
3610095414558,0.156787291,1,0.25258827514648435,1.7226280944824217,-11.219228979492186
3610097414558,0.158787291,1,0.258573779296875,1.7118541870117185,-11.214440576171874
3610099414871,0.160787604,1,0.24061726684570311,1.7286135986328124,-11.208455072021483
3610101414246,0.162786979,1,0.22385785522460935,1.7262193969726563,-11.174936248779296
3610103414194,0.164786927,1,0.2501940734863281,1.7226280944824217,-11.188104357910156
3610105414662,0.166787395,1,0.26216508178710934,1.7298106994628906,-11.207257971191405
3610107414402,0.168787135,1,0.2561795776367187,1.7262193969726563,-11.202469567871093
3610109414819,0.170787552,1,0.25258827514648435,1.7477672119140624,-11.201272467041015
3610111414975,0.172787708,1,0.2537853759765625,1.7357962036132812,-11.195286962890624
3610113414454,0.174787187,1,0.24660277099609373,1.7274164978027342,-11.201272467041015
3610115414350,0.176787083,1,0.239420166015625,1.7238251953125,-11.19169566040039
3610117415079,0.178787812,1,0.21787235107421873,1.7214309936523438,-11.171344946289063
3610119414506,0.180787239,1,0.21428104858398436,1.7286135986328124,-11.174936248779296
3610121414819,0.182787552,1,0.23822306518554687,1.7334020019531249,-11.189301458740234
3610123414662,0.184787395,1,0.25139117431640623,1.7357962036132812,-11.184513055419922
3610125414402,0.186787135,1,0.24660277099609373,1.7226280944824217,-11.202469567871093
3610127414350,0.188787083,1,0.24181436767578124,1.7322049011230467,-11.19887826538086
3610129414662,0.190787395,1,0.22744915771484372,1.7357962036132812,-11.186907257080078
3610131414767,0.1927875,1,0.23343466186523437,1.7453730102539062,-11.170147845458983
3610133415027,0.19478776,1,0.22864625854492185,1.7405846069335937,-11.170147845458983
3610135415235,0.196787968,1,0.2346317626953125,1.7214309936523438,-11.182118853759764
3610137414871,0.198787604,1,0.23104046020507812,1.7118541870117185,-11.184513055419922
3610139414975,0.200787708,1,0.22505495605468748,1.707065783691406,-11.202469567871093
3610141415600,0.202788333,1,0.21308394775390624,1.7274164978027342,-11.2240173828125
3610143414715,0.204787448,1,0.21906945190429686,1.7178396911621092,-11.221623181152344
3610145414350,0.206787083,1,0.24061726684570311,1.705868682861328,-11.21683477783203
3610147413204,0.208785937,1,0.24181436767578124,1.7178396911621092,-11.214440576171874
3610149413517,0.21078625,1,0.229843359375,1.725022296142578,-11.214440576171874
3610151414402,0.212787135,1,0.2166752502441406,1.7393875061035156,-11.209652172851563
3610153414662,0.214787395,1,0.2262520568847656,1.7453730102539062,-11.222820281982422
3610155414090,0.216786823,1,0.23104046020507812,1.7417817077636717,-11.23000288696289
3610157414298,0.218787031,1,0.23104046020507812,1.7298106994628906,-11.212046374511718
3610159414037,0.22078677,1,0.2166752502441406,1.7202338928222656,-11.21683477783203
3610161414662,0.222787395,1,0.22026655273437498,1.7214309936523438,-11.2240173828125
3610163414506,0.224787239,1,0.22864625854492185,1.7286135986328124,-11.215637677001952
3610165413985,0.226786718,1,0.25258827514648435,1.7178396911621092,-11.214440576171874
3610167414037,0.22878677,1,0.24061726684570311,1.7202338928222656,-11.192892761230468
3610169412944,0.230785677,1,0.23702596435546874,1.7178396911621092,-11.208455072021483
3610171414142,0.232786875,1,0.2454056701660156,1.7322049011230467,-11.207257971191405
3610173414923,0.234787656,1,0.23702596435546874,1.7405846069335937,-11.233594189453123
3610175414662,0.236787395,1,0.24301146850585936,1.7381904052734374,-11.19169566040039
3610177414194,0.238786927,1,0.229843359375,1.7214309936523438,-11.19887826538086
3610179414037,0.24078677,1,0.22385785522460935,1.7094599853515624,-11.214440576171874
3610181414767,0.2427875,1,0.2346317626953125,1.7202338928222656,-11.202469567871093
3610183420131,0.244792864,1,0.24301146850585936,1.7202338928222656,-11.17852755126953
3610185413777,0.24678651,1,0.24181436767578124,1.7274164978027342,-11.176133349609374
3610187411537,0.24878427,1,0.24181436767578124,1.7310078002929687,-11.18571015625
3610189415235,0.250787968,1,0.23343466186523437,1.7274164978027342,-11.174936248779296
3610191412840,0.252785573,1,0.23343466186523437,1.7322049011230467,-11.174936248779296
3610193414090,0.254786823,1,0.24301146850585936,1.7310078002929687,-11.17254204711914
3610195414246,0.256786979,1,0.23822306518554687,1.7190367919921874,-11.17254204711914
3610197414298,0.258787031,1,0.24061726684570311,1.7274164978027342,-11.190498559570312
3610199413465,0.260786198,1,0.239420166015625,1.7322049011230467,-11.202469567871093
3610201414402,0.262787135,1,0.24660277099609373,1.7381904052734374,-11.189301458740234
3610203414350,0.264787083,1,0.2262520568847656,1.715445489501953,-11.21683477783203
3610205413673,0.266786406,1,0.21787235107421873,1.714248388671875,-11.19887826538086
3610207414402,0.268787135,1,0.23822306518554687,1.7166425903320313,-11.203666668701171
3610209414558,0.270787291,1,0.23223756103515625,1.7357962036132812,-11.197681164550781
3610211413829,0.272786562,1,0.23582886352539062,1.7226280944824217,-11.215637677001952
3610213413204,0.274785937,1,0.25258827514648435,1.7106570861816406,-11.2240173828125
3610215414298,0.276787031,1,0.26336218261718747,1.705868682861328,-11.19887826538086
3610217414402,0.278787135,1,0.2645592834472656,1.6938976745605467,-11.182118853759764
3610219413569,0.280786302,1,0.24779987182617186,1.714248388671875,-11.180921752929686
3610221414090,0.282786823,1,0.23582886352539062,1.7310078002929687,-11.195286962890624
3610223414714,0.284787447,1,0.2154781494140625,1.7202338928222656,-11.180921752929686
3610225414298,0.286787031,1,0.22026655273437498,1.7214309936523438,-11.167753643798827
3610227414089,0.288786822,1,0.2262520568847656,1.7310078002929687,-11.184513055419922
3610229414142,0.290786875,1,0.23104046020507812,1.7190367919921874,-11.208455072021483
3610231413985,0.292786718,1,0.2214636535644531,1.725022296142578,-11.2240173828125
3610233414610,0.294787343,1,0.21188684692382811,1.7274164978027342,-11.228805786132812
3610235413881,0.296786614,1,0.21068974609375,1.725022296142578,-11.220426080322264
3610237414454,0.298787187,1,0.20350714111328125,1.7178396911621092,-11.212046374511718
3610239413829,0.300786562,1,0.20829554443359374,1.715445489501953,-11.202469567871093
3610241414454,0.302787187,1,0.20829554443359374,1.7262193969726563,-11.173739147949219
3610243414246,0.304786979,1,0.21428104858398436,1.7262193969726563,-11.194089862060546
3610245413621,0.306786354,1,0.21906945190429686,1.7286135986328124,-11.190498559570312
3610247414610,0.308787343,1,0.22864625854492185,1.7106570861816406,-11.176133349609374
3610249414506,0.310787239,1,0.21308394775390624,1.7094599853515624,-11.176133349609374
3610251413777,0.31278651,1,0.22266075439453123,1.714248388671875,-11.21084927368164
3610253413673,0.314786406,1,0.22505495605468748,1.7190367919921874,-11.23718549194336
3610255412631,0.316785364,1,0.22266075439453123,1.715445489501953,-11.21084927368164
3610257413881,0.318786614,1,0.2166752502441406,1.7286135986328124,-11.203666668701171
3610259413777,0.32078651,1,0.2154781494140625,1.7310078002929687,-11.207257971191405
3610261414246,0.322786979,1,0.22026655273437498,1.7286135986328124,-11.225214483642578
3610263413881,0.324786614,1,0.21787235107421873,1.7214309936523438,-11.241973895263671
3610265414037,0.32678677,1,0.21906945190429686,1.7202338928222656,-11.222820281982422
3610267413933,0.328786666,1,0.2346317626953125,1.7178396911621092,-11.213243475341796
3610269414246,0.330786979,1,0.24660277099609373,1.7178396911621092,-11.232397088623046
3610271413881,0.332786614,1,0.23702596435546874,1.7130512878417967,-11.218031878662108
3610273414767,0.3347875,1,0.20949264526367187,1.7274164978027342,-11.208455072021483
3610275413933,0.336786666,1,0.22744915771484372,1.7381904052734374,-11.209652172851563
3610277412735,0.338785468,1,0.22744915771484372,1.7334020019531249,-11.220426080322264
3610279413777,0.34078651,1,0.21787235107421873,1.7477672119140624,-11.220426080322264
3610281414089,0.342786822,1,0.23343466186523437,1.7705121276855467,-11.21084927368164
3610283413881,0.344786614,1,0.22505495605468748,1.753752716064453,-11.183315954589844
3610285411746,0.346784479,1,0.22385785522460935,1.734599102783203,-11.18571015625
3610287411850,0.348784583,1,0.2214636535644531,1.7393875061035156,-11.209652172851563
3610289441954,0.350814687,1,0.2262520568847656,1.7298106994628906,-11.204863769531249
3610291436589,0.352809322,1,0.22505495605468748,1.7178396911621092,-11.212046374511718
3610293434506,0.354807239,1,0.22505495605468748,1.7334020019531249,-11.23000288696289
3610295451329,0.356824062,1,0.23343466186523437,1.7501614135742187,-11.226411584472656
3610297418360,0.358791093,1,0.23104046020507812,1.763329522705078,-11.226411584472656
3610299412058,0.360784791,1,0.22266075439453123,1.7585411193847655,-11.209652172851563
3610301412371,0.362785104,1,0.2214636535644531,1.7501614135742187,-11.21683477783203
3610303411954,0.364784687,1,0.23223756103515625,1.7393875061035156,-11.208455072021483
3610305412319,0.366785052,1,0.22864625854492185,1.7429788085937499,-11.207257971191405
3610307412110,0.368784843,1,0.2262520568847656,1.7298106994628906,-11.19169566040039
3610309414454,0.370787187,1,0.23343466186523437,1.7214309936523438,-11.19169566040039
3610311412162,0.372784895,1,0.23702596435546874,1.7262193969726563,-11.197681164550781
3610313413308,0.374786041,1,0.23104046020507812,1.7334020019531249,-11.190498559570312
3610315412527,0.37678526,1,0.21188684692382811,1.7310078002929687,-11.192892761230468
3610317416277,0.37878901,1,0.21068974609375,1.7166425903320313,-11.192892761230468
3610319414454,0.380787187,1,0.20949264526367187,1.6998831787109374,-11.227608685302734
3610321415496,0.382788229,1,0.2166752502441406,1.707065783691406,-11.23000288696289
3610323414037,0.38478677,1,0.21906945190429686,1.7034744812011717,-11.192892761230468
3610325415704,0.386788437,1,0.2166752502441406,1.7034744812011717,-11.201272467041015
3610327415131,0.388787864,1,0.23822306518554687,1.7286135986328124,-11.206060870361327
3610329413881,0.390786614,1,0.24779987182617186,1.7429788085937499,-11.192892761230468
3610331414558,0.392787291,1,0.24779987182617186,1.744175909423828,-11.332953558349608
3610333415079,0.394787812,1,0.24301146850585936,1.7477672119140624,-11.046846459960937
3610335415079,0.396787812,1,0.24301146850585936,1.744175909423828,-11.203666668701171
3610337415287,0.39878802,1,0.23582886352539062,1.7405846069335937,-11.206060870361327
3610339414402,0.400787135,1,0.2346317626953125,1.7465701110839842,-11.186907257080078
3610341415235,0.402787968,1,0.22505495605468748,1.7513585144042967,-11.189301458740234
3610343414714,0.404787447,1,0.22505495605468748,1.7405846069335937,-11.196484063720703
3610345414923,0.406787656,1,0.2214636535644531,1.7310078002929687,-11.186907257080078
3610347414558,0.408787291,1,0.24061726684570311,1.7357962036132812,-11.314997045898437
3610349414662,0.410787395,1,0.24061726684570311,1.7190367919921874,-11.15338843383789
3610351414037,0.41278677,1,0.22744915771484372,1.7202338928222656,-11.170147845458983
3610353414454,0.414787187,1,0.19393033447265623,1.7214309936523438,-11.174936248779296
3610355414246,0.416786979,1,0.19153613281249998,1.7262193969726563,-11.179724652099608
3610357415027,0.41878776,1,0.21906945190429686,1.725022296142578,-11.034875451660156
3610359414714,0.420787447,1,0.22026655273437498,1.7369933044433592,-11.194089862060546
3610361414037,0.42278677,1,0.22026655273437498,1.7310078002929687,-11.328165155029296
3610363413100,0.424785833,1,0.21068974609375,1.7417817077636717,-11.143811627197264
3610365413881,0.426786614,1,0.21068974609375,1.7393875061035156,-11.135431921386719
3610367415131,0.428787864,1,0.2262520568847656,1.753752716064453,-11.161768139648437
3610369414610,0.430787343,1,0.2262520568847656,1.7645266235351562,-11.145008728027342
3610371419662,0.432792395,1,0.20350714111328125,1.7597382202148437,-11.139023223876952
3610373416329,0.434789062,1,0.2154781494140625,1.7381904052734374,-11.16057103881836
3610375414610,0.436787343,1,0.20949264526367187,1.7393875061035156,-11.171344946289063
3610377414298,0.438787031,1,0.21068974609375,1.7453730102539062,-11.033678350830078
3610379415235,0.440787968,1,0.20949264526367187,1.7429788085937499,-11.186907257080078
3610381414662,0.442787395,1,0.21188684692382811,1.7322049011230467,-11.324573852539062
3610383413412,0.444786145,1,0.20829554443359374,1.7298106994628906,-11.17254204711914
3610385413048,0.446785781,1,0.20350714111328125,1.7369933044433592,-11.036072552490234
3610387414662,0.448787395,1,0.20829554443359374,1.7322049011230467,-11.21683477783203
3610389414767,0.4507875,1,0.20829554443359374,1.7262193969726563,-11.21084927368164
3610391413308,0.452786041,1,0.20231004028320312,1.725022296142578,-11.332953558349608
3610393414402,0.454787135,1,0.21308394775390624,1.7369933044433592,-11.180921752929686
3610395414194,0.456786927,1,0.20470424194335937,1.7525556152343749,-11.048043560791015
3610397414089,0.458786822,1,0.20829554443359374,1.7429788085937499,-11.202469567871093
3610399414975,0.460787708,1,0.24899697265624998,1.7226280944824217,-11.208455072021483
3610401414662,0.462787395,1,0.24660277099609373,1.7190367919921874,-11.202469567871093
3610403414089,0.464786822,1,0.2346317626953125,1.7094599853515624,-11.3389390625
3610405415235,0.466787968,1,0.25139117431640623,1.714248388671875,-11.173739147949219
3610407415339,0.468788072,1,0.24660277099609373,1.7238251953125,-11.155782635498046
3610409415444,0.470788177,1,0.24899697265624998,1.7274164978027342,-11.156979736328124
3610411414819,0.472787552,1,0.23582886352539062,1.7322049011230467,-11.176133349609374
3610413414037,0.47478677,1,0.23822306518554687,1.734599102783203,-11.183315954589844
3610415414246,0.476786979,1,0.23343466186523437,1.7501614135742187,-11.048043560791015
3610417414662,0.478787395,1,0.23582886352539062,1.7465701110839842,-11.21084927368164
3610419414194,0.480786927,1,0.2346317626953125,1.7429788085937499,-11.233594189453123
3610421414714,0.482787447,1,0.2166752502441406,1.7322049011230467,-11.225214483642578
3610423414767,0.4847875,1,0.2214636535644531,1.7393875061035156,-11.204863769531249
3610425414142,0.486786875,1,0.229843359375,1.7226280944824217,-11.19169566040039
3610427414506,0.488787239,1,0.24779987182617186,1.7310078002929687,-11.19887826538086
3610429415444,0.490788177,1,0.23104046020507812,1.7238251953125,-11.19169566040039
3610431414454,0.492787187,1,0.20350714111328125,1.7238251953125,-11.194089862060546
3610433414454,0.494787187,1,0.21906945190429686,1.7310078002929687,-11.202469567871093
3610435414350,0.496787083,1,0.22385785522460935,1.7334020019531249,-11.19887826538086
3610437414975,0.498787708,1,0.23104046020507812,1.7286135986328124,-11.202469567871093
3610439414037,0.50078677,1,0.23104046020507812,1.7357962036132812,-11.213243475341796
3610441414558,0.502787291,1,0.23822306518554687,1.7310078002929687,-11.200075366210937
3610443415496,0.504788229,1,0.24061726684570311,1.7310078002929687,-11.334150659179686
3610445414819,0.506787552,1,0.22505495605468748,1.7286135986328124,-11.171344946289063
3610447414089,0.508786822,1,0.2214636535644531,1.7106570861816406,-11.15338843383789
3610449412631,0.510785364,1,0.1927332336425781,1.7166425903320313,-11.154585534667968
3610451414246,0.512786979,1,0.20231004028320312,1.7094599853515624,-11.176133349609374
3610453414350,0.514787083,1,0.2166752502441406,1.7106570861816406,-11.049240661621093
3610455414246,0.516786979,1,0.22266075439453123,1.7298106994628906,-11.220426080322264
3610457411694,0.518784427,1,0.2214636535644531,1.734599102783203,-11.214440576171874
3610459411537,0.52078427,1,0.23343466186523437,1.734599102783203,-11.206060870361327
3610461415808,0.522788541,1,0.22385785522460935,1.7298106994628906,-11.212046374511718
3610463414402,0.524787135,1,0.24779987182617186,1.7322049011230467,-11.201272467041015
3610465414714,0.526787447,1,0.24301146850585936,1.7549498168945312,-11.207257971191405
3610467414194,0.528786927,1,0.22266075439453123,1.744175909423828,-11.186907257080078
3610469414350,0.530787083,1,0.22864625854492185,1.7417817077636717,-11.192892761230468
3610471412631,0.532785364,1,0.23582886352539062,1.7286135986328124,-11.228805786132812
3610473413777,0.53478651,1,0.239420166015625,1.7369933044433592,-11.24915650024414
3610475414714,0.536787447,1,0.23104046020507812,1.7286135986328124,-11.246762298583985
3610477414141,0.538786874,1,0.21428104858398436,1.7202338928222656,-11.227608685302734
3610479413881,0.540786614,1,0.23104046020507812,1.7130512878417967,-11.192892761230468
3610481413829,0.542786562,1,0.2561795776367187,1.7178396911621092,-11.177330450439452
3610483414089,0.544786822,1,0.24181436767578124,1.7274164978027342,-11.15338843383789
3610485415131,0.546787864,1,0.23822306518554687,1.715445489501953,-11.17254204711914
3610487415131,0.548787864,1,0.2346317626953125,1.7166425903320313,-11.179724652099608
3610489414871,0.550787604,1,0.22744915771484372,1.7262193969726563,-11.197681164550781
3610491412631,0.552785364,1,0.21787235107421873,1.7369933044433592,-11.212046374511718
3610493412839,0.554785572,1,0.22864625854492185,1.7429788085937499,-11.19169566040039
3610495414089,0.556786822,1,0.22744915771484372,1.7393875061035156,-11.189301458740234
3610497414610,0.558787343,1,0.22026655273437498,1.7405846069335937,-11.213243475341796
3610499414089,0.560786822,1,0.23343466186523437,1.7573440185546874,-11.190498559570312
3610501415496,0.562788229,1,0.22744915771484372,1.7621324218749999,-11.195286962890624
3610503414402,0.564787135,1,0.2346317626953125,1.7489643127441405,-11.186907257080078
3610505414506,0.566787239,1,0.2454056701660156,1.7202338928222656,-11.194089862060546
3610507414766,0.568787499,1,0.23822306518554687,1.7166425903320313,-11.204863769531249
3610509415235,0.570787968,1,0.21906945190429686,1.70467158203125,-11.200075366210937
3610511413881,0.572786614,1,0.20829554443359374,1.714248388671875,-11.200075366210937
3610513414194,0.574786927,1,0.2166752502441406,1.7166425903320313,-11.184513055419922
3610515414402,0.576787135,1,0.229843359375,1.725022296142578,-11.204863769531249
3610517414558,0.578787291,1,0.229843359375,1.7322049011230467,-11.200075366210937
3610519414037,0.58078677,1,0.22026655273437498,1.7489643127441405,-11.203666668701171
3610521414558,0.582787291,1,0.22266075439453123,1.7274164978027342,-11.17852755126953
3610523414298,0.584787031,1,0.20470424194335937,1.7214309936523438,-11.164162341308593
3610525413569,0.586786302,1,0.2154781494140625,1.7238251953125,-11.182118853759764
3610527413985,0.588786718,1,0.21787235107421873,1.7286135986328124,-11.182118853759764
3610529415079,0.590787812,1,0.20709844360351562,1.7429788085937499,-11.158176837158203
3610531414350,0.592787083,1,0.20949264526367187,1.7286135986328124,-11.162965240478515
3610533412371,0.594785104,1,0.22266075439453123,1.7334020019531249,-11.200075366210937
3610535411694,0.596784427,1,0.21188684692382811,1.7381904052734374,-11.200075366210937
3610537414871,0.598787604,1,0.20350714111328125,1.7310078002929687,-11.204863769531249
3610539414089,0.600786822,1,0.20949264526367187,1.7322049011230467,-11.207257971191405
3610541412944,0.602785677,1,0.21188684692382811,1.7202338928222656,-11.207257971191405
3610543414402,0.604787135,1,0.22266075439453123,1.715445489501953,-11.182118853759764
3610545413881,0.606786614,1,0.21188684692382811,1.7178396911621092,-11.174936248779296
3610547414246,0.608786979,1,0.22864625854492185,1.7238251953125,-11.183315954589844
3610549414506,0.610787239,1,0.2442085693359375,1.7262193969726563,-11.17852755126953
3610551414819,0.612787552,1,0.239420166015625,1.7202338928222656,-11.189301458740234
3610553414923,0.614787656,1,0.2501940734863281,1.7094599853515624,-11.202469567871093
3610555413933,0.616786666,1,0.239420166015625,1.7334020019531249,-11.196484063720703
3610557412839,0.618785572,1,0.229843359375,1.7465701110839842,-11.186907257080078
3610559418048,0.620790781,1,0.2346317626953125,1.7465701110839842,-11.196484063720703
3610561416225,0.622788958,1,0.23822306518554687,1.7286135986328124,-11.214440576171874
3610563414766,0.624787499,1,0.24061726684570311,1.7082628845214842,-11.201272467041015
3610565414975,0.626787708,1,0.23104046020507812,1.707065783691406,-11.18571015625
3610567414141,0.628786874,1,0.23104046020507812,1.7022773803710936,-11.170147845458983
3610569414610,0.630787343,1,0.239420166015625,1.697488977050781,-11.156979736328124
3610571415548,0.632788281,1,0.21308394775390624,1.7202338928222656,-11.168950744628905
3610573415444,0.634788177,1,0.2214636535644531,1.7274164978027342,-11.173739147949219
3610575414402,0.636787135,1,0.23702596435546874,1.7286135986328124,-11.207257971191405
3610577414610,0.638787343,1,0.2214636535644531,1.7274164978027342,-11.214440576171874
3610579412110,0.640784843,1,0.2214636535644531,1.7310078002929687,-11.19887826538086
3610581414350,0.642787083,1,0.2214636535644531,1.7393875061035156,-11.16057103881836
3610583413725,0.644786458,1,0.2214636535644531,1.7334020019531249,-11.156979736328124
3610585414506,0.646787239,1,0.21787235107421873,1.7429788085937499,-11.176133349609374
3610587413933,0.648786666,1,0.22385785522460935,1.7465701110839842,-11.17852755126953
3610589415027,0.65078776,1,0.25139117431640623,1.7310078002929687,-11.17852755126953
3610591414610,0.652787343,1,0.239420166015625,1.7357962036132812,-11.195286962890624
3610593414871,0.654787604,1,0.23343466186523437,1.7405846069335937,-11.203666668701171
3610595414766,0.656787499,1,0.24061726684570311,1.7369933044433592,-11.214440576171874
3610597415860,0.658788593,1,0.239420166015625,1.7226280944824217,-11.19887826538086
3610599414246,0.660786979,1,0.24301146850585936,1.7118541870117185,-11.186907257080078
3610601413048,0.662785781,1,0.23702596435546874,1.7166425903320313,-11.188104357910156
3610603414246,0.664786979,1,0.2154781494140625,1.7214309936523438,-11.186907257080078
3610605414246,0.666786979,1,0.21308394775390624,1.7334020019531249,-11.167753643798827
3610607414454,0.668787187,1,0.21188684692382811,1.7322049011230467,-11.171344946289063
3610609414610,0.670787343,1,0.2166752502441406,1.7118541870117185,-11.166556542968749
3610611414298,0.672787031,1,0.2214636535644531,1.7130512878417967,-11.16057103881836
3610613414454,0.674787187,1,0.23223756103515625,1.7238251953125,-11.171344946289063
3610615414871,0.676787604,1,0.22026655273437498,1.7214309936523438,-11.184513055419922
3610617414610,0.678787343,1,0.21188684692382811,1.7357962036132812,-11.190498559570312
3610619413881,0.680786614,1,0.2214636535644531,1.7357962036132812,-11.197681164550781
3610621414194,0.682786927,1,0.2059013427734375,1.715445489501953,-11.228805786132812
3610623414558,0.684787291,1,0.19871873779296872,1.7214309936523438,-11.196484063720703
3610625414350,0.686787083,1,0.19991583862304688,1.725022296142578,-11.19887826538086
3610627414454,0.688787187,1,0.19033903198242186,1.7238251953125,-11.186907257080078
3610629414975,0.690787708,1,0.1927332336425781,1.725022296142578,-11.183315954589844
3610631414194,0.692786927,1,0.20350714111328125,1.7298106994628906,-11.180921752929686
3610633414037,0.69478677,1,0.1927332336425781,1.7202338928222656,-11.179724652099608
3610635414141,0.696786874,1,0.18315642700195311,1.7334020019531249,-11.184513055419922
3610637415027,0.69878776,1,0.20231004028320312,1.7405846069335937,-11.176133349609374
3610639414662,0.700787395,1,0.21308394775390624,1.7429788085937499,-11.203666668701171
3610641414194,0.702786927,1,0.21906945190429686,1.7513585144042967,-11.21084927368164
3610643413829,0.704786562,1,0.229843359375,1.7465701110839842,-11.221623181152344
3610645414558,0.706787291,1,0.22266075439453123,1.7405846069335937,-11.188104357910156
3610647413881,0.708786614,1,0.23582886352539062,1.7286135986328124,-11.176133349609374
3610649414298,0.710787031,1,0.21906945190429686,1.7214309936523438,-11.173739147949219
3610651414037,0.71278677,1,0.2166752502441406,1.7130512878417967,-11.161768139648437
3610653413933,0.714786666,1,0.22385785522460935,1.714248388671875,-11.161768139648437
3610655414871,0.716787604,1,0.22026655273437498,1.715445489501953,-11.17254204711914
3610657414662,0.718787395,1,0.22864625854492185,1.7274164978027342,-11.180921752929686
3610659414871,0.720787604,1,0.24061726684570311,1.7369933044433592,-11.17852755126953
3610661414923,0.722787656,1,0.239420166015625,1.7465701110839842,-11.188104357910156
3610663414402,0.724787135,1,0.25139117431640623,1.7262193969726563,-11.190498559570312
3610665413725,0.726786458,1,0.24061726684570311,1.7238251953125,-11.174936248779296
3610667414662,0.728787395,1,0.22505495605468748,1.7190367919921874,-11.155782635498046
3610669414714,0.730787447,1,0.21906945190429686,1.7082628845214842,-11.18571015625
3610671413933,0.732786666,1,0.21906945190429686,1.707065783691406,-11.189301458740234
3610673414818,0.734787551,1,0.2166752502441406,1.7178396911621092,-11.183315954589844
3610675414246,0.736786979,1,0.21308394775390624,1.7130512878417967,-11.170147845458983
3610677414871,0.738787604,1,0.21308394775390624,1.715445489501953,-11.16057103881836
3610679414662,0.740787395,1,0.22266075439453123,1.7322049011230467,-11.167753643798827
3610681415079,0.742787812,1,0.22864625854492185,1.7238251953125,-11.18571015625
3610683414766,0.744787499,1,0.2262520568847656,1.7274164978027342,-11.182118853759764
3610685415600,0.746788333,1,0.21308394775390624,1.7190367919921874,-11.156979736328124
3610687413152,0.748785885,1,0.21906945190429686,1.7238251953125,-11.149797131347656
3610689414246,0.750786979,1,0.2262520568847656,1.7310078002929687,-11.186907257080078
3610691413933,0.752786666,1,0.23343466186523437,1.7238251953125,-11.206060870361327
3610693414506,0.754787239,1,0.229843359375,1.7298106994628906,-11.203666668701171
3610695414714,0.756787447,1,0.24061726684570311,1.7310078002929687,-11.219228979492186
3610697414037,0.75878677,1,0.2549824768066406,1.7094599853515624,-11.180921752929686
3610699414037,0.76078677,1,0.23104046020507812,1.6998831787109374,-11.196484063720703
3610701415652,0.762788385,1,0.2262520568847656,1.7238251953125,-11.203666668701171
3610703414454,0.764787187,1,0.23582886352539062,1.7417817077636717,-11.19887826538086
3610705414871,0.766787604,1,0.229843359375,1.7381904052734374,-11.184513055419922
3610707414037,0.76878677,1,0.22744915771484372,1.7369933044433592,-11.182118853759764
3610709412996,0.770785729,1,0.2059013427734375,1.7298106994628906,-11.165359442138671
3610711414662,0.772787395,1,0.21068974609375,1.7298106994628906,-11.182118853759764
3610713414298,0.774787031,1,0.20350714111328125,1.7274164978027342,-11.177330450439452
3610715414141,0.776786874,1,0.2154781494140625,1.7381904052734374,-11.201272467041015
3610717414402,0.778787135,1,0.21787235107421873,1.7286135986328124,-11.19887826538086
3610719414298,0.780787031,1,0.23822306518554687,1.7286135986328124,-11.184513055419922
3610721414246,0.782786979,1,0.239420166015625,1.7226280944824217,-11.182118853759764
3610723415287,0.78478802,1,0.24061726684570311,1.7334020019531249,-11.201272467041015
3610725415600,0.786788333,1,0.24061726684570311,1.734599102783203,-11.203666668701171
3610727414193,0.788786926,1,0.23223756103515625,1.7429788085937499,-11.197681164550781
3610729413829,0.790786562,1,0.21906945190429686,1.7322049011230467,-11.201272467041015
3610731414350,0.792787083,1,0.2262520568847656,1.7202338928222656,-11.206060870361327
3610733413881,0.794786614,1,0.24181436767578124,1.7214309936523438,-11.202469567871093
3610735414246,0.796786979,1,0.24899697265624998,1.7477672119140624,-11.189301458740234
3610737414037,0.79878677,1,0.24301146850585936,1.744175909423828,-11.207257971191405
3610739414610,0.800787343,1,0.24899697265624998,1.725022296142578,-11.219228979492186
3610741415183,0.802787916,1,0.239420166015625,1.7214309936523438,-11.196484063720703
3610743414454,0.804787187,1,0.22864625854492185,1.7238251953125,-11.19169566040039
3610745415600,0.806788333,1,0.23582886352539062,1.7118541870117185,-11.183315954589844
3610747418933,0.808791666,1,0.23702596435546874,1.707065783691406,-11.168950744628905
3610749415964,0.810788697,1,0.2501940734863281,1.6998831787109374,-11.166556542968749
3610751414975,0.812787708,1,0.2442085693359375,1.696291876220703,-11.168950744628905
3610753414714,0.814787447,1,0.23223756103515625,1.7106570861816406,-11.173739147949219
3610755414871,0.816787604,1,0.22864625854492185,1.7166425903320313,-11.189301458740234
3610757415756,0.818788489,1,0.23104046020507812,1.7298106994628906,-11.182118853759764
3610759414037,0.82078677,1,0.23343466186523437,1.7417817077636717,-11.156979736328124
3610761414246,0.822786979,1,0.22864625854492185,1.7322049011230467,-11.188104357910156
3610763414454,0.824787187,1,0.2262520568847656,1.7274164978027342,-11.200075366210937
3610765414610,0.826787343,1,0.21188684692382811,1.7322049011230467,-11.189301458740234
3610767414662,0.828787395,1,0.19512743530273435,1.7238251953125,-11.171344946289063
3610769414923,0.830787656,1,0.17956512451171874,1.7118541870117185,-11.184513055419922
3610771413829,0.832786562,1,0.19632453613281248,1.7106570861816406,-11.17254204711914
3610773412839,0.834785572,1,0.20709844360351562,1.7106570861816406,-11.149797131347656
3610775414766,0.836787499,1,0.2214636535644531,1.70467158203125,-11.183315954589844
3610777414871,0.838787604,1,0.22864625854492185,1.7226280944824217,-11.183315954589844
3610779414350,0.840787083,1,0.22864625854492185,1.7310078002929687,-11.176133349609374
3610781412371,0.842785104,1,0.2214636535644531,1.7381904052734374,-11.170147845458983
3610783411693,0.844784426,1,0.21906945190429686,1.7262193969726563,-11.174936248779296
3610785415183,0.846787916,1,0.2442085693359375,1.7166425903320313,-11.192892761230468
3610787414662,0.848787395,1,0.2454056701660156,1.7286135986328124,-11.19887826538086
3610789415548,0.850788281,1,0.23343466186523437,1.7274164978027342,-11.202469567871093
3610791415027,0.85278776,1,0.22864625854492185,1.7369933044433592,-11.200075366210937
3610793413933,0.854786666,1,0.22505495605468748,1.7417817077636717,-11.170147845458983
3610795412110,0.856784843,1,0.22864625854492185,1.744175909423828,-11.171344946289063
3610797414193,0.858786926,1,0.21188684692382811,1.7465701110839842,-11.176133349609374
3610799413829,0.860786562,1,0.2346317626953125,1.7178396911621092,-11.173739147949219
3610801415027,0.86278776,1,0.24061726684570311,1.7262193969726563,-11.182118853759764
3610803413985,0.864786718,1,0.24181436767578124,1.7310078002929687,-11.195286962890624
3610805414193,0.866786926,1,0.2454056701660156,1.7130512878417967,-11.194089862060546
3610807414350,0.868787083,1,0.229843359375,1.7274164978027342,-11.188104357910156
3610809415339,0.870788072,1,0.2262520568847656,1.734599102783203,-11.186907257080078
3610811414975,0.872787708,1,0.22385785522460935,1.7334020019531249,-11.203666668701171
3610813414818,0.874787551,1,0.22385785522460935,1.7214309936523438,-11.195286962890624
3610815413881,0.876786614,1,0.239420166015625,1.7286135986328124,-11.190498559570312
3610817415391,0.878788124,1,0.24779987182617186,1.7369933044433592,-11.202469567871093
3610819414246,0.880786979,1,0.25139117431640623,1.7334020019531249,-11.206060870361327
3610821414871,0.882787604,1,0.2501940734863281,1.734599102783203,-11.206060870361327
3610823414037,0.88478677,1,0.24899697265624998,1.734599102783203,-11.186907257080078
3610825414037,0.88678677,1,0.258573779296875,1.7274164978027342,-11.143811627197264
3610827414298,0.888787031,1,0.24061726684570311,1.714248388671875,-11.1474029296875
3610829413933,0.890786666,1,0.2454056701660156,1.7034744812011717,-11.168950744628905
3610831415079,0.892787812,1,0.239420166015625,1.7082628845214842,-11.165359442138671
3610833415131,0.894787864,1,0.23702596435546874,1.7202338928222656,-11.176133349609374
3610835414714,0.896787447,1,0.21906945190429686,1.7274164978027342,-11.17254204711914
3610837414454,0.898787187,1,0.21428104858398436,1.7106570861816406,-11.201272467041015
3610839413673,0.900786406,1,0.19632453613281248,1.7106570861816406,-11.204863769531249
3610841414246,0.902786979,1,0.2059013427734375,1.715445489501953,-11.183315954589844
3610843414193,0.904786926,1,0.21188684692382811,1.7130512878417967,-11.213243475341796
3610845414506,0.906787239,1,0.21787235107421873,1.7118541870117185,-11.207257971191405
3610847414037,0.90878677,1,0.23223756103515625,1.7022773803710936,-11.192892761230468
3610849413673,0.910786406,1,0.21428104858398436,1.7034744812011717,-11.188104357910156
3610851414298,0.912787031,1,0.20231004028320312,1.7106570861816406,-11.213243475341796
3610853415235,0.914787968,1,0.21068974609375,1.707065783691406,-11.221623181152344
3610855414662,0.916787395,1,0.2166752502441406,1.7094599853515624,-11.202469567871093
3610857414662,0.918787395,1,0.1975216369628906,1.715445489501953,-11.190498559570312
3610859414558,0.920787291,1,0.22266075439453123,1.7405846069335937,-11.17852755126953
3610861414506,0.922787239,1,0.24301146850585936,1.7405846069335937,-11.192892761230468
3610863412214,0.924784947,1,0.24660277099609373,1.7405846069335937,-11.180921752929686
3610865417735,0.926790468,1,0.23223756103515625,1.744175909423828,-11.190498559570312
3610867414506,0.928787239,1,0.23223756103515625,1.7417817077636717,-11.192892761230468
3610869414298,0.930787031,1,0.20709844360351562,1.744175909423828,-11.183315954589844
3610871413985,0.932786718,1,0.2346317626953125,1.7429788085937499,-11.170147845458983
3610873414246,0.934786979,1,0.2454056701660156,1.7465701110839842,-11.189301458740234
3610875415443,0.936788176,1,0.23104046020507812,1.7381904052734374,-11.180921752929686
3610877414975,0.938787708,1,0.23104046020507812,1.7262193969726563,-11.155782635498046
3610879414089,0.940786822,1,0.24061726684570311,1.7262193969726563,-11.168950744628905
3610881412995,0.942785728,1,0.2442085693359375,1.7310078002929687,-11.177330450439452
3610883414298,0.944787031,1,0.21906945190429686,1.7334020019531249,-11.17852755126953
3610885414766,0.946787499,1,0.22266075439453123,1.7513585144042967,-11.192892761230468
3610887414454,0.948787187,1,0.24061726684570311,1.7561469177246092,-11.218031878662108
3610889414037,0.95078677,1,0.23702596435546874,1.7489643127441405,-11.209652172851563
3610891414089,0.952786822,1,0.24181436767578124,1.7489643127441405,-11.214440576171874
3610893414037,0.95478677,1,0.23822306518554687,1.7477672119140624,-11.201272467041015
3610895413568,0.956786301,1,0.23822306518554687,1.7429788085937499,-11.204863769531249
3610897415235,0.958787968,1,0.239420166015625,1.7298106994628906,-11.194089862060546
3610899414506,0.960787239,1,0.23343466186523437,1.725022296142578,-11.197681164550781
3610901415079,0.962787812,1,0.22864625854492185,1.7310078002929687,-11.18571015625
3610903412527,0.96478526,1,0.23104046020507812,1.7357962036132812,-11.18571015625
3610905414558,0.966787291,1,0.2454056701660156,1.7501614135742187,-11.19169566040039
3610907414141,0.968786874,1,0.22505495605468748,1.7226280944824217,-11.208455072021483
3610909414714,0.970787447,1,0.2154781494140625,1.7130512878417967,-11.192892761230468
3610911413725,0.972786458,1,0.23343466186523437,1.7166425903320313,-11.192892761230468
3610913414193,0.974786926,1,0.22505495605468748,1.7226280944824217,-11.225214483642578
3610915414402,0.976787135,1,0.22266075439453123,1.7369933044433592,-11.214440576171874
3610917415443,0.978788176,1,0.22266075439453123,1.7381904052734374,-11.190498559570312
3610919414454,0.980787187,1,0.22505495605468748,1.7453730102539062,-11.19169566040039
3610921414506,0.982787239,1,0.22744915771484372,1.7381904052734374,-11.220426080322264
3610923414350,0.984787083,1,0.22744915771484372,1.7405846069335937,-11.197681164550781
3610925414975,0.986787708,1,0.2154781494140625,1.7501614135742187,-11.192892761230468
3610927414454,0.988787187,1,0.20829554443359374,1.7561469177246092,-11.190498559570312
3610929414766,0.990787499,1,0.20350714111328125,1.7585411193847655,-11.170147845458983
3610931414037,0.99278677,1,0.2059013427734375,1.7322049011230467,-11.156979736328124
3610933414298,0.994787031,1,0.20231004028320312,1.7190367919921874,-11.18571015625
3610935418048,0.996790781,1,0.2166752502441406,1.7286135986328124,-11.200075366210937
3610937416433,0.998789166,1,0.21428104858398436,1.7322049011230467,-11.219228979492186
3610939415027,1.00078776,1,0.20949264526367187,1.7429788085937499,-11.226411584472656
3610941415235,1.002787968,1,0.201112939453125,1.7405846069335937,-11.21084927368164
3610943414402,1.004787135,1,0.20829554443359374,1.7274164978027342,-11.201272467041015
3610945415027,1.00678776,1,0.21787235107421873,1.7130512878417967,-11.182118853759764
3610947414558,1.008787291,1,0.21308394775390624,1.715445489501953,-11.188104357910156
3610949415131,1.010787864,1,0.20350714111328125,1.7178396911621092,-11.195286962890624
3610951413933,1.012786666,1,0.201112939453125,1.7226280944824217,-11.228805786132812
3610953414193,1.014786926,1,0.21068974609375,1.7118541870117185,-11.227608685302734
3610955414037,1.01678677,1,0.22026655273437498,1.734599102783203,-11.21084927368164
3610957414298,1.018787031,1,0.23223756103515625,1.7334020019531249,-11.173739147949219
3610959414298,1.020787031,1,0.24181436767578124,1.7369933044433592,-11.197681164550781
3610961414662,1.022787395,1,0.2454056701660156,1.7417817077636717,-11.173739147949219
3610963414610,1.024787343,1,0.25258827514648435,1.7262193969726563,-11.152191333007812
3610965414714,1.026787447,1,0.239420166015625,1.7214309936523438,-11.180921752929686
3610967414402,1.028787135,1,0.2346317626953125,1.7322049011230467,-11.170147845458983
3610969414454,1.030787187,1,0.2501940734863281,1.7453730102539062,-11.18571015625
3610971414141,1.032786874,1,0.26336218261718747,1.7274164978027342,-11.195286962890624
3610973413985,1.034786718,1,0.2561795776367187,1.7274164978027342,-11.186907257080078
3610975414193,1.036786926,1,0.2609679809570312,1.7393875061035156,-11.215637677001952
3610977414610,1.038787343,1,0.24301146850585936,1.7369933044433592,-11.232397088623046
3610979414141,1.040786874,1,0.2454056701660156,1.7178396911621092,-11.214440576171874
3610981414975,1.042787708,1,0.23822306518554687,1.715445489501953,-11.207257971191405
3610983414923,1.044787656,1,0.24779987182617186,1.7118541870117185,-11.21084927368164
3610985415183,1.046787916,1,0.23702596435546874,1.7166425903320313,-11.183315954589844
3610987413881,1.048786614,1,0.22385785522460935,1.7226280944824217,-11.212046374511718
3610989413204,1.050785937,1,0.2214636535644531,1.714248388671875,-11.201272467041015
3610991414141,1.052786874,1,0.21787235107421873,1.7094599853515624,-11.183315954589844
3610993414402,1.054787135,1,0.229843359375,1.7190367919921874,-11.196484063720703
3610995413933,1.056786666,1,0.22385785522460935,1.7238251953125,-11.208455072021483
3610997414558,1.058787291,1,0.20709844360351562,1.7417817077636717,-11.194089862060546
3610999413933,1.060786666,1,0.2214636535644531,1.7286135986328124,-11.202469567871093
3611001414193,1.062786926,1,0.21906945190429686,1.7298106994628906,-11.201272467041015
3611003414870,1.064787603,1,0.22744915771484372,1.7322049011230467,-11.212046374511718
3611005415704,1.066788437,1,0.24061726684570311,1.7298106994628906,-11.213243475341796
3611007414245,1.068786978,1,0.23582886352539062,1.7238251953125,-11.203666668701171
3611009413777,1.07078651,1,0.24181436767578124,1.714248388671875,-11.190498559570312
3611011412006,1.072784739,1,0.229843359375,1.7298106994628906,-11.171344946289063
3611013413412,1.074786145,1,0.22864625854492185,1.7310078002929687,-11.164162341308593
3611015414975,1.076787708,1,0.22505495605468748,1.7334020019531249,-11.156979736328124
3611017414245,1.078786978,1,0.22505495605468748,1.7405846069335937,-11.202469567871093
3611019414193,1.080786926,1,0.239420166015625,1.7549498168945312,-11.202469567871093
3611021414662,1.082787395,1,0.24301146850585936,1.763329522705078,-11.184513055419922
3611023414089,1.084786822,1,0.239420166015625,1.7501614135742187,-11.196484063720703
3611025414714,1.086787447,1,0.24779987182617186,1.7405846069335937,-11.195286962890624
3611027415079,1.088787812,1,0.2609679809570312,1.7369933044433592,-11.206060870361327
3611029411381,1.090784114,1,0.2501940734863281,1.7357962036132812,-11.213243475341796
3611031411485,1.092784218,1,0.229843359375,1.7405846069335937,-11.222820281982422
3611033413152,1.094785885,1,0.22505495605468748,1.734599102783203,-11.220426080322264
3611035414506,1.096787239,1,0.20829554443359374,1.7465701110839842,-11.195286962890624
3611037414610,1.098787343,1,0.20470424194335937,1.7310078002929687,-11.194089862060546
3611039414870,1.100787603,1,0.20829554443359374,1.7381904052734374,-11.206060870361327
3611041414454,1.102787187,1,0.20470424194335937,1.7489643127441405,-11.220426080322264
3611043414141,1.104786874,1,0.2166752502441406,1.7453730102539062,-11.221623181152344
3611045414714,1.106787447,1,0.21787235107421873,1.7465701110839842,-11.225214483642578
3611047414870,1.108787603,1,0.21787235107421873,1.7417817077636717,-11.214440576171874
3611049414923,1.110787656,1,0.2262520568847656,1.744175909423828,-11.220426080322264
3611051413620,1.112786353,1,0.23822306518554687,1.7453730102539062,-11.212046374511718
3611053414454,1.114787187,1,0.2214636535644531,1.7381904052734374,-11.214440576171874
3611055414558,1.116787291,1,0.21308394775390624,1.725022296142578,-11.208455072021483
3611057418464,1.118791197,1,0.21308394775390624,1.7214309936523438,-11.190498559570312
3611059415235,1.120787968,1,0.22744915771484372,1.7190367919921874,-11.196484063720703
3611061414662,1.122787395,1,0.2442085693359375,1.7166425903320313,-11.203666668701171
3611063414923,1.124787656,1,0.2561795776367187,1.7178396911621092,-11.195286962890624
3611065414714,1.126787447,1,0.25737667846679685,1.7214309936523438,-11.208455072021483
3611067413360,1.128786093,1,0.23343466186523437,1.734599102783203,-11.207257971191405
3611069415704,1.130788437,1,0.22385785522460935,1.7417817077636717,-11.196484063720703
3611071414141,1.132786874,1,0.20709844360351562,1.7262193969726563,-11.202469567871093
3611073414558,1.134787291,1,0.20350714111328125,1.7130512878417967,-11.19169566040039
3611075412370,1.136785103,1,0.20709844360351562,1.7369933044433592,-11.2240173828125
3611077414662,1.138787395,1,0.20350714111328125,1.7262193969726563,-11.240776794433593
3611079414454,1.140787187,1,0.21068974609375,1.7094599853515624,-11.233594189453123
3611081414818,1.142787551,1,0.2262520568847656,1.7106570861816406,-11.215637677001952
3611083413568,1.144786301,1,0.24899697265624998,1.7034744812011717,-11.214440576171874
3611085414141,1.146786874,1,0.23702596435546874,1.7118541870117185,-11.197681164550781
3611087414402,1.148787135,1,0.21787235107421873,1.7286135986328124,-11.212046374511718
3611089415443,1.150788176,1,0.2214636535644531,1.7298106994628906,-11.222820281982422
3611091413829,1.152786562,1,0.22385785522460935,1.7202338928222656,-11.21683477783203
3611093414350,1.154787083,1,0.1975216369628906,1.7178396911621092,-11.213243475341796
3611095414089,1.156786822,1,0.21308394775390624,1.7214309936523438,-11.196484063720703
3611097413256,1.158785989,1,0.22505495605468748,1.7226280944824217,-11.17254204711914
3611099414402,1.160787135,1,0.23822306518554687,1.7118541870117185,-11.158176837158203
3611101414037,1.16278677,1,0.22026655273437498,1.7334020019531249,-11.170147845458983
3611103414089,1.164786822,1,0.21068974609375,1.7585411193847655,-11.184513055419922
3611105413829,1.166786562,1,0.2059013427734375,1.744175909423828,-11.18571015625
3611107413933,1.168786666,1,0.22026655273437498,1.7417817077636717,-11.195286962890624
3611109414193,1.170786926,1,0.23104046020507812,1.7369933044433592,-11.201272467041015
3611111415079,1.172787812,1,0.22026655273437498,1.7262193969726563,-11.200075366210937
3611113414870,1.174787603,1,0.2214636535644531,1.7190367919921874,-11.17254204711914
3611115414037,1.17678677,1,0.239420166015625,1.7310078002929687,-11.192892761230468
3611117413464,1.178786197,1,0.22744915771484372,1.7298106994628906,-11.19887826538086
3611119412475,1.180785208,1,0.20949264526367187,1.715445489501953,-11.19887826538086
3611121413881,1.182786614,1,0.2059013427734375,1.725022296142578,-11.179724652099608
3611123417995,1.184790728,1,0.21188684692382811,1.7310078002929687,-11.180921752929686
3611125415756,1.186788489,1,0.20829554443359374,1.7274164978027342,-11.17852755126953
3611127414037,1.18878677,1,0.201112939453125,1.7381904052734374,-11.197681164550781
3611129414350,1.190787083,1,0.1975216369628906,1.7405846069335937,-11.202469567871093
3611131413881,1.192786614,1,0.21428104858398436,1.744175909423828,-11.209652172851563
3611133415287,1.19478802,1,0.21906945190429686,1.7202338928222656,-11.189301458740234
3611135414193,1.196786926,1,0.21787235107421873,1.7238251953125,-11.189301458740234
3611137413777,1.19878651,1,0.21428104858398436,1.7238251953125,-11.18571015625
3611139413777,1.20078651,1,0.21308394775390624,1.7238251953125,-11.18571015625
3611141413620,1.202786353,1,0.23104046020507812,1.7310078002929687,-11.197681164550781
3611143413568,1.204786301,1,0.23702596435546874,1.7190367919921874,-11.197681164550781
3611145413516,1.206786249,1,0.229843359375,1.7238251953125,-11.213243475341796
3611147413881,1.208786614,1,0.23702596435546874,1.734599102783203,-11.183315954589844
3611149414402,1.210787135,1,0.229843359375,1.7238251953125,-11.186907257080078
3611151414350,1.212787083,1,0.20470424194335937,1.7357962036132812,-11.206060870361327
3611153414037,1.21478677,1,0.1975216369628906,1.7238251953125,-11.226411584472656
3611155414714,1.216787447,1,0.21428104858398436,1.7106570861816406,-11.215637677001952
3611157414350,1.218787083,1,0.2154781494140625,1.7178396911621092,-11.207257971191405
3611159413829,1.220786562,1,0.22744915771484372,1.7202338928222656,-11.213243475341796
3611161414610,1.222787343,1,0.22505495605468748,1.7226280944824217,-11.207257971191405
3611163414245,1.224786978,1,0.2166752502441406,1.7286135986328124,-11.197681164550781
3611165415808,1.226788541,1,0.22385785522460935,1.7298106994628906,-11.17254204711914
3611167413620,1.228786353,1,0.20829554443359374,1.7286135986328124,-11.156979736328124
3611169414402,1.230787135,1,0.21787235107421873,1.7178396911621092,-11.162965240478515
3611171413620,1.232786353,1,0.20709844360351562,1.7166425903320313,-11.19887826538086
3611173414870,1.234787603,1,0.20470424194335937,1.70467158203125,-11.212046374511718
3611175413881,1.236786614,1,0.22385785522460935,1.7226280944824217,-11.219228979492186
3611177415027,1.23878776,1,0.239420166015625,1.7286135986328124,-11.182118853759764
3611179413725,1.240786458,1,0.24061726684570311,1.7513585144042967,-11.166556542968749
3611181414037,1.24278677,1,0.25139117431640623,1.753752716064453,-11.173739147949219
3611183412318,1.244785051,1,0.2501940734863281,1.7549498168945312,-11.180921752929686
3611185414558,1.246787291,1,0.23343466186523437,1.744175909423828,-11.167753643798827
3611187414193,1.248786926,1,0.20949264526367187,1.7334020019531249,-11.174936248779296
3611189414922,1.250787655,1,0.20231004028320312,1.725022296142578,-11.173739147949219
3611191413777,1.25278651,1,0.20350714111328125,1.7094599853515624,-11.170147845458983
3611193414610,1.254787343,1,0.21906945190429686,1.6998831787109374,-11.182118853759764
3611195413985,1.256786718,1,0.22266075439453123,1.7166425903320313,-11.171344946289063
3611197415756,1.258788489,1,0.21068974609375,1.725022296142578,-11.16057103881836
3611199414662,1.260787395,1,0.20709844360351562,1.7334020019531249,-11.164162341308593
3611201414297,1.26278703,1,0.229843359375,1.7405846069335937,-11.188104357910156
3611203414089,1.264786822,1,0.22505495605468748,1.7417817077636717,-11.189301458740234
3611205413100,1.266785833,1,0.21787235107421873,1.7429788085937499,-11.222820281982422
3611207414506,1.268787239,1,0.22505495605468748,1.7465701110839842,-11.225214483642578
3611209414506,1.270787239,1,0.23104046020507812,1.7465701110839842,-11.19169566040039
3611211414089,1.272786822,1,0.229843359375,1.7405846069335937,-11.206060870361327
3611213413829,1.274786562,1,0.22026655273437498,1.7310078002929687,-11.202469567871093
3611215414141,1.276786874,1,0.23104046020507812,1.7202338928222656,-11.194089862060546
3611217413777,1.27878651,1,0.22864625854492185,1.7190367919921874,-11.17254204711914
3611219414506,1.280787239,1,0.229843359375,1.7082628845214842,-11.184513055419922
3611221414714,1.282787447,1,0.2166752502441406,1.7262193969726563,-11.212046374511718
3611223414089,1.284786822,1,0.24301146850585936,1.7381904052734374,-11.21084927368164
3611225413829,1.286786562,1,0.2561795776367187,1.7369933044433592,-11.192892761230468
3611227412475,1.288785208,1,0.2609679809570312,1.725022296142578,-11.186907257080078
3611229414870,1.290787603,1,0.26216508178710934,1.7286135986328124,-11.179724652099608
3611231413360,1.292786093,1,0.2657563842773437,1.7214309936523438,-11.183315954589844
3611233414402,1.294787135,1,0.24779987182617186,1.7298106994628906,-11.179724652099608
3611235413568,1.296786301,1,0.23223756103515625,1.7262193969726563,-11.180921752929686
3611237415183,1.298787916,1,0.23223756103515625,1.7405846069335937,-11.18571015625
3611239413568,1.300786301,1,0.24061726684570311,1.7381904052734374,-11.186907257080078
3611241415079,1.302787812,1,0.23104046020507812,1.7597382202148437,-11.17852755126953
3611243414402,1.304787135,1,0.2262520568847656,1.7525556152343749,-11.182118853759764
3611245414141,1.306786874,1,0.24301146850585936,1.7298106994628906,-11.18571015625
3611247413256,1.308785989,1,0.24899697265624998,1.7310078002929687,-11.18571015625
3611249413881,1.310786614,1,0.22744915771484372,1.7357962036132812,-11.186907257080078
3611251413672,1.312786405,1,0.22505495605468748,1.7477672119140624,-11.196484063720703
3611253413777,1.31478651,1,0.229843359375,1.753752716064453,-11.195286962890624
3611255413985,1.316786718,1,0.24061726684570311,1.7477672119140624,-11.203666668701171
3611257414297,1.31878703,1,0.2454056701660156,1.7525556152343749,-11.213243475341796
3611259413829,1.320786562,1,0.24899697265624998,1.744175909423828,-11.196484063720703
3611261414089,1.322786822,1,0.23343466186523437,1.7381904052734374,-11.221623181152344
3611263414558,1.324787291,1,0.23582886352539062,1.7357962036132812,-11.227608685302734
3611265414297,1.32678703,1,0.2501940734863281,1.7202338928222656,-11.213243475341796
3611267413829,1.328786562,1,0.24301146850585936,1.7166425903320313,-11.206060870361327
3611269413829,1.330786562,1,0.21428104858398436,1.7094599853515624,-11.179724652099608
3611271414402,1.332787135,1,0.2154781494140625,1.6938976745605467,-11.162965240478515
3611273414089,1.334786822,1,0.2214636535644531,1.707065783691406,-11.190498559570312
3611275414193,1.336786926,1,0.22026655273437498,1.7190367919921874,-11.167753643798827
3611277411745,1.338784478,1,0.23104046020507812,1.7178396911621092,-11.208455072021483
3611279411381,1.340784114,1,0.229843359375,1.7226280944824217,-11.202469567871093
3611281415391,1.342788124,1,0.23582886352539062,1.7322049011230467,-11.155782635498046
3611283414454,1.344787187,1,0.2214636535644531,1.7274164978027342,-11.162965240478515
3611285414870,1.346787603,1,0.21428104858398436,1.7226280944824217,-11.17852755126953
3611287414402,1.348787135,1,0.21188684692382811,1.714248388671875,-11.180921752929686
3611289415131,1.350787864,1,0.20350714111328125,1.7178396911621092,-11.200075366210937
3611291412527,1.35278526,1,0.20470424194335937,1.725022296142578,-11.225214483642578
3611293414402,1.354787135,1,0.21308394775390624,1.7106570861816406,-11.222820281982422
3611295413829,1.356786562,1,0.2059013427734375,1.7214309936523438,-11.228805786132812
3611297414662,1.358787395,1,0.2262520568847656,1.7190367919921874,-11.233594189453123
3611299414610,1.360787343,1,0.2346317626953125,1.714248388671875,-11.228805786132812
3611301415131,1.362787864,1,0.22385785522460935,1.707065783691406,-11.250353601074218
3611303414089,1.364786822,1,0.22864625854492185,1.7130512878417967,-11.243170996093749
3611305414818,1.366787551,1,0.201112939453125,1.7357962036132812,-11.190498559570312
3611307415235,1.368787968,1,0.19393033447265623,1.7286135986328124,-11.170147845458983
3611309415183,1.370787916,1,0.2059013427734375,1.7274164978027342,-11.166556542968749
3611311416797,1.37278953,1,0.23104046020507812,1.7238251953125,-11.159373937988281
3611313414297,1.37478703,1,0.22505495605468748,1.7190367919921874,-11.156979736328124
3611315414818,1.376787551,1,0.24181436767578124,1.7262193969726563,-11.146205828857422
3611317415027,1.37878776,1,0.2214636535644531,1.7178396911621092,-11.154585534667968
3611319414089,1.380786822,1,0.2262520568847656,1.7334020019531249,-11.143811627197264
3611321414141,1.382786874,1,0.23104046020507812,1.7381904052734374,-11.177330450439452
3611323413829,1.384786562,1,0.24899697265624998,1.7369933044433592,-11.176133349609374
3611325415079,1.386787812,1,0.24061726684570311,1.734599102783203,-11.188104357910156
3611327414141,1.388786874,1,0.22505495605468748,1.7501614135742187,-11.183315954589844
3611329415235,1.390787968,1,0.2262520568847656,1.7549498168945312,-11.177330450439452
3611331414766,1.392787499,1,0.21188684692382811,1.753752716064453,-11.19169566040039
3611333414141,1.394786874,1,0.22744915771484372,1.7609353210449217,-11.167753643798827
3611335412579,1.396785312,1,0.23702596435546874,1.7393875061035156,-11.188104357910156
3611337414506,1.398787239,1,0.22385785522460935,1.7286135986328124,-11.202469567871093
3611339413672,1.400786405,1,0.2166752502441406,1.7262193969726563,-11.21683477783203
3611341414558,1.402787291,1,0.21188684692382811,1.7298106994628906,-11.240776794433593
3611343414558,1.404787291,1,0.21188684692382811,1.7334020019531249,-11.203666668701171
3611345414402,1.406787135,1,0.24181436767578124,1.7214309936523438,-11.188104357910156
3611347413985,1.408786718,1,0.2442085693359375,1.7417817077636717,-11.183315954589844
3611349415079,1.410787812,1,0.23343466186523437,1.7381904052734374,-11.180921752929686
3611351414922,1.412787655,1,0.23822306518554687,1.7381904052734374,-11.143811627197264
3611353414245,1.414786978,1,0.239420166015625,1.7322049011230467,-11.150994232177734
3611355414610,1.416787343,1,0.24301146850585936,1.734599102783203,-11.195286962890624
3611357413985,1.418786718,1,0.22385785522460935,1.7130512878417967,-11.208455072021483
3611359414610,1.420787343,1,0.2214636535644531,1.6986860778808592,-11.204863769531249
3611361414245,1.422786978,1,0.20350714111328125,1.7082628845214842,-11.190498559570312
3611363414558,1.424787291,1,0.19871873779296872,1.7381904052734374,-11.190498559570312
3611365414662,1.426787395,1,0.21428104858398436,1.7310078002929687,-11.19887826538086
3611367414297,1.42878703,1,0.2214636535644531,1.725022296142578,-11.204863769531249
3611369414037,1.43078677,1,0.22266075439453123,1.7357962036132812,-11.21683477783203
3611371414714,1.432787447,1,0.21068974609375,1.7334020019531249,-11.202469567871093
3611373415391,1.434788124,1,0.21308394775390624,1.7357962036132812,-11.179724652099608
3611375413985,1.436786718,1,0.19871873779296872,1.7405846069335937,-11.195286962890624
3611377414506,1.438787239,1,0.2154781494140625,1.7405846069335937,-11.182118853759764
3611379413881,1.440786614,1,0.21906945190429686,1.744175909423828,-11.171344946289063
3611381414506,1.442787239,1,0.22266075439453123,1.7393875061035156,-11.174936248779296
3611383413724,1.444786457,1,0.2154781494140625,1.7214309936523438,-11.176133349609374
3611385414558,1.446787291,1,0.19871873779296872,1.7094599853515624,-11.164162341308593
3611387414506,1.448787239,1,0.21188684692382811,1.7022773803710936,-11.165359442138671
3611389414193,1.450786926,1,0.24301146850585936,1.7166425903320313,-11.177330450439452
3611391413933,1.452786666,1,0.23223756103515625,1.7118541870117185,-11.170147845458983
3611393414870,1.454787603,1,0.2166752502441406,1.7118541870117185,-11.201272467041015
3611395414870,1.456787603,1,0.21068974609375,1.7106570861816406,-11.214440576171874
3611397415027,1.45878776,1,0.2059013427734375,1.70467158203125,-11.179724652099608
3611399412839,1.460785572,1,0.20231004028320312,1.7190367919921874,-11.158176837158203
3611401414089,1.462786822,1,0.20949264526367187,1.7082628845214842,-11.162965240478515
3611403413933,1.464786666,1,0.21068974609375,1.7286135986328124,-11.159373937988281
3611405414193,1.466786926,1,0.201112939453125,1.7393875061035156,-11.162965240478515
3611407414141,1.468786874,1,0.21787235107421873,1.7298106994628906,-11.164162341308593
3611409413724,1.470786457,1,0.22266075439453123,1.7238251953125,-11.166556542968749
3611411414141,1.472786874,1,0.21308394775390624,1.7298106994628906,-11.171344946289063
3611413413985,1.474786718,1,0.21906945190429686,1.7334020019531249,-11.16057103881836
3611415415339,1.476788072,1,0.21428104858398436,1.7178396911621092,-11.179724652099608
3611417414402,1.478787135,1,0.19991583862304688,1.7118541870117185,-11.215637677001952
3611419414193,1.480786926,1,0.1975216369628906,1.7178396911621092,-11.21683477783203
3611421413152,1.482785885,1,0.18914193115234373,1.6998831787109374,-11.182118853759764
3611423413672,1.484786405,1,0.20470424194335937,1.6938976745605467,-11.141417425537108
3611425414141,1.486786874,1,0.21428104858398436,1.707065783691406,-11.148600030517578
3611427414402,1.488787135,1,0.2166752502441406,1.7190367919921874,-11.168950744628905
3611429414662,1.490787395,1,0.2262520568847656,1.7202338928222656,-11.164162341308593
3611431413881,1.492786614,1,0.23223756103515625,1.7166425903320313,-11.207257971191405
3611433414662,1.494787395,1,0.2454056701660156,1.7190367919921874,-11.227608685302734
3611435414974,1.496787707,1,0.2537853759765625,1.7226280944824217,-11.203666668701171
3611437415235,1.498787968,1,0.23582886352539062,1.7214309936523438,-11.183315954589844
3611439414245,1.500786978,1,0.24301146850585936,1.7166425903320313,-11.180921752929686
3611441414193,1.502786926,1,0.22744915771484372,1.7106570861816406,-11.186907257080078
3611443414349,1.504787082,1,0.20470424194335937,1.7190367919921874,-11.196484063720703
3611445414245,1.506786978,1,0.19991583862304688,1.7166425903320313,-11.17852755126953
3611447414037,1.50878677,1,0.19871873779296872,1.725022296142578,-11.219228979492186
3611449414349,1.510787082,1,0.20829554443359374,1.714248388671875,-11.21084927368164
3611451414558,1.512787291,1,0.20470424194335937,1.7238251953125,-11.190498559570312
3611453414922,1.514787655,1,0.21906945190429686,1.7262193969726563,-11.18571015625
3611455414141,1.516786874,1,0.21188684692382811,1.7190367919921874,-11.19887826538086
3611457414558,1.518787291,1,0.21068974609375,1.7274164978027342,-11.201272467041015
3611459414193,1.520786926,1,0.2059013427734375,1.714248388671875,-11.21084927368164
3611461415339,1.522788072,1,0.19632453613281248,1.7238251953125,-11.18571015625
3611463413829,1.524786562,1,0.19512743530273435,1.7298106994628906,-11.19169566040039
3611465414922,1.526787655,1,0.20949264526367187,1.7322049011230467,-11.162965240478515
3611467414245,1.528786978,1,0.229843359375,1.7286135986328124,-11.165359442138671
3611469414558,1.530787291,1,0.24301146850585936,1.734599102783203,-11.190498559570312
3611471415079,1.532787812,1,0.24660277099609373,1.7226280944824217,-11.180921752929686
3611473414714,1.534787447,1,0.2262520568847656,1.7298106994628906,-11.189301458740234
3611475414297,1.53678703,1,0.24181436767578124,1.7429788085937499,-11.200075366210937
3611477415183,1.538787916,1,0.2537853759765625,1.7298106994628906,-11.189301458740234
3611479415183,1.540787916,1,0.2597708801269531,1.7298106994628906,-11.200075366210937
3611481412683,1.542785416,1,0.2549824768066406,1.7202338928222656,-11.19887826538086
3611483412006,1.544784739,1,0.2442085693359375,1.7214309936523438,-11.195286962890624
3611485415287,1.54678802,1,0.229843359375,1.7202338928222656,-11.168950744628905
3611487414870,1.548787603,1,0.2442085693359375,1.7322049011230467,-11.176133349609374
3611489414558,1.550787291,1,0.2549824768066406,1.734599102783203,-11.195286962890624
3611491415131,1.552787864,1,0.2442085693359375,1.7214309936523438,-11.209652172851563
3611493415599,1.554788332,1,0.2262520568847656,1.7286135986328124,-11.19887826538086
3611495413829,1.556786562,1,0.22266075439453123,1.7202338928222656,-11.186907257080078
3611497413568,1.558786301,1,0.23223756103515625,1.725022296142578,-11.167753643798827
3611499416016,1.560788749,1,0.22026655273437498,1.7190367919921874,-11.161768139648437
3611501416381,1.562789114,1,0.21906945190429686,1.7214309936523438,-11.152191333007812
3611503413881,1.564786614,1,0.22864625854492185,1.7094599853515624,-11.155782635498046
3611505414870,1.566787603,1,0.24061726684570311,1.7094599853515624,-11.158176837158203
3611507412214,1.568784947,1,0.24181436767578124,1.7178396911621092,-11.179724652099608
3611509414818,1.570787551,1,0.22026655273437498,1.7118541870117185,-11.189301458740234
3611511415027,1.57278776,1,0.21906945190429686,1.70467158203125,-11.19169566040039
3611513414870,1.574787603,1,0.2262520568847656,1.7202338928222656,-11.17852755126953
3611515414037,1.57678677,1,0.2442085693359375,1.7381904052734374,-11.165359442138671
3611517414714,1.578787447,1,0.22864625854492185,1.7381904052734374,-11.186907257080078
3611519413568,1.580786301,1,0.22505495605468748,1.7381904052734374,-11.204863769531249
3611521414714,1.582787447,1,0.22505495605468748,1.7322049011230467,-11.225214483642578
3611523414974,1.584787707,1,0.22266075439453123,1.7334020019531249,-11.2240173828125
3611525413464,1.586786197,1,0.2166752502441406,1.7298106994628906,-11.207257971191405
3611527411902,1.588784635,1,0.21787235107421873,1.7286135986328124,-11.226411584472656
3611529413204,1.590785937,1,0.2166752502441406,1.7274164978027342,-11.207257971191405
3611531414089,1.592786822,1,0.2166752502441406,1.7429788085937499,-11.17254204711914
3611533414506,1.594787239,1,0.23223756103515625,1.7501614135742187,-11.17254204711914
3611535414141,1.596786874,1,0.23223756103515625,1.7393875061035156,-11.177330450439452
3611537413933,1.598786666,1,0.22385785522460935,1.7334020019531249,-11.200075366210937
3611539413672,1.600786405,1,0.22026655273437498,1.7118541870117185,-11.231199987792968
3611541413985,1.602786718,1,0.2154781494140625,1.714248388671875,-11.21084927368164
3611543414506,1.604787239,1,0.22864625854492185,1.7166425903320313,-11.186907257080078
3611545412318,1.606785051,1,0.22744915771484372,1.7130512878417967,-11.168950744628905
3611547411797,1.60878453,1,0.2442085693359375,1.7178396911621092,-11.19169566040039
3611549414974,1.610787707,1,0.25139117431640623,1.7094599853515624,-11.19169566040039
3611551412787,1.61278552,1,0.2609679809570312,1.6998831787109374,-11.183315954589844
3611553414454,1.614787187,1,0.24779987182617186,1.705868682861328,-11.196484063720703
3611555414454,1.616787187,1,0.24301146850585936,1.7022773803710936,-11.219228979492186
3611557414662,1.618787395,1,0.23822306518554687,1.707065783691406,-11.218031878662108
3611559413672,1.620786405,1,0.229843359375,1.7286135986328124,-11.218031878662108
3611561414766,1.622787499,1,0.21428104858398436,1.7286135986328124,-11.2240173828125
3611563414818,1.624787551,1,0.21428104858398436,1.7262193969726563,-11.207257971191405
3611565414870,1.626787603,1,0.22026655273437498,1.7310078002929687,-11.206060870361327
3611567415131,1.628787864,1,0.21787235107421873,1.7334020019531249,-11.19169566040039
3611569413881,1.630786614,1,0.23702596435546874,1.7286135986328124,-11.177330450439452
3611571413881,1.632786614,1,0.24181436767578124,1.7310078002929687,-11.183315954589844
3611573414193,1.634786926,1,0.23582886352539062,1.7417817077636717,-11.174936248779296
3611575413829,1.636786562,1,0.23822306518554687,1.7417817077636717,-11.195286962890624
3611577414558,1.638787291,1,0.21787235107421873,1.7369933044433592,-11.208455072021483
3611579413620,1.640786353,1,0.21906945190429686,1.744175909423828,-11.222820281982422
3611581414610,1.642787343,1,0.21188684692382811,1.7226280944824217,-11.231199987792968
3611583413776,1.644786509,1,0.201112939453125,1.7262193969726563,-11.227608685302734
3611585414610,1.646787343,1,0.1879448303222656,1.7381904052734374,-11.23718549194336
3611587414870,1.648787603,1,0.20709844360351562,1.744175909423828,-11.225214483642578
3611589415391,1.650788124,1,0.22744915771484372,1.7489643127441405,-11.24915650024414
3611591414037,1.65278677,1,0.21428104858398436,1.7477672119140624,-11.228805786132812
3611593414349,1.654787082,1,0.23702596435546874,1.744175909423828,-11.228805786132812
3611595413672,1.656786405,1,0.23223756103515625,1.7298106994628906,-11.238382592773437
3611597415131,1.658787864,1,0.21308394775390624,1.7334020019531249,-11.220426080322264
3611599414297,1.66078703,1,0.20949264526367187,1.7393875061035156,-11.201272467041015
3611601414297,1.66278703,1,0.22266075439453123,1.7286135986328124,-11.225214483642578
3611603414558,1.664787291,1,0.22385785522460935,1.7369933044433592,-11.213243475341796
3611605413881,1.666786614,1,0.2166752502441406,1.7393875061035156,-11.23000288696289
3611607413672,1.668786405,1,0.21428104858398436,1.753752716064453,-11.212046374511718
3611609414818,1.670787551,1,0.2166752502441406,1.7549498168945312,-11.21084927368164
3611611414974,1.672787707,1,0.22385785522460935,1.7549498168945312,-11.201272467041015
3611613413881,1.674786614,1,0.22266075439453123,1.744175909423828,-11.19887826538086
3611615412683,1.676785416,1,0.229843359375,1.7501614135742187,-11.208455072021483
3611617414245,1.678786978,1,0.239420166015625,1.7226280944824217,-11.194089862060546
3611619414297,1.68078703,1,0.24181436767578124,1.707065783691406,-11.17852755126953
3611621414558,1.682787291,1,0.22266075439453123,1.7262193969726563,-11.162965240478515
3611623414349,1.684787082,1,0.20829554443359374,1.7262193969726563,-11.18571015625
3611625414870,1.686787603,1,0.20470424194335937,1.7274164978027342,-11.19887826538086
3611627414297,1.68878703,1,0.2166752502441406,1.7286135986328124,-11.183315954589844
3611629414610,1.690787343,1,0.2262520568847656,1.7286135986328124,-11.189301458740234
3611631414297,1.69278703,1,0.23582886352539062,1.7130512878417967,-11.184513055419922
3611633414610,1.694787343,1,0.24061726684570311,1.7178396911621092,-11.179724652099608
3611635414089,1.696786822,1,0.2442085693359375,1.7226280944824217,-11.200075366210937
3611637412891,1.698785624,1,0.2262520568847656,1.744175909423828,-11.189301458740234
3611639414401,1.700787134,1,0.2214636535644531,1.7369933044433592,-11.18571015625
3611641414558,1.702787291,1,0.23343466186523437,1.7298106994628906,-11.213243475341796
3611643414506,1.704787239,1,0.24181436767578124,1.7202338928222656,-11.21084927368164
3611645413985,1.706786718,1,0.24061726684570311,1.7310078002929687,-11.21683477783203
3611647413360,1.708786093,1,0.22744915771484372,1.7357962036132812,-11.19169566040039
3611649414766,1.710787499,1,0.229843359375,1.7238251953125,-11.215637677001952
3611651414454,1.712787187,1,0.22385785522460935,1.7178396911621092,-11.225214483642578
3611653415912,1.714788645,1,0.2262520568847656,1.7238251953125,-11.21683477783203
3611655414506,1.716787239,1,0.22266075439453123,1.7334020019531249,-11.206060870361327
3611657414297,1.71878703,1,0.2214636535644531,1.7214309936523438,-11.173739147949219
3611659413724,1.720786457,1,0.23582886352539062,1.7238251953125,-11.189301458740234
3611661413985,1.722786718,1,0.2609679809570312,1.734599102783203,-11.190498559570312
3611663413568,1.724786301,1,0.27174188842773433,1.7393875061035156,-11.194089862060546
3611665413829,1.726786562,1,0.2609679809570312,1.7405846069335937,-11.19169566040039
3611667413933,1.728786666,1,0.2537853759765625,1.7274164978027342,-11.182118853759764
3611669413829,1.730786562,1,0.24301146850585936,1.7357962036132812,-11.166556542968749
3611671413724,1.732786457,1,0.24660277099609373,1.7501614135742187,-11.161768139648437
3611673415391,1.734788124,1,0.23104046020507812,1.7489643127441405,-11.173739147949219
3611675414349,1.736787082,1,0.22864625854492185,1.7298106994628906,-11.190498559570312
3611677414766,1.738787499,1,0.22864625854492185,1.7334020019531249,-11.18571015625
3611679413933,1.740786666,1,0.23223756103515625,1.7369933044433592,-11.194089862060546
3611681414558,1.742787291,1,0.24899697265624998,1.7405846069335937,-11.192892761230468
3611683414141,1.744786874,1,0.24301146850585936,1.7501614135742187,-11.202469567871093
3611685415547,1.74678828,1,0.2561795776367187,1.7429788085937499,-11.218031878662108
3611687418360,1.748791093,1,0.25258827514648435,1.7393875061035156,-11.192892761230468
3611689416849,1.750789582,1,0.24061726684570311,1.7453730102539062,-11.166556542968749
3611691414662,1.752787395,1,0.22266075439453123,1.7609353210449217,-11.174936248779296
3611693413776,1.754786509,1,0.19991583862304688,1.7525556152343749,-11.197681164550781
3611695413412,1.756786145,1,0.2262520568847656,1.7477672119140624,-11.202469567871093
3611697414558,1.758787291,1,0.23702596435546874,1.753752716064453,-11.192892761230468
3611699413568,1.760786301,1,0.2262520568847656,1.763329522705078,-11.183315954589844
3611701413099,1.762785832,1,0.21906945190429686,1.7621324218749999,-11.192892761230468
3611703414401,1.764787134,1,0.21906945190429686,1.7573440185546874,-11.197681164550781
3611705414245,1.766786978,1,0.19871873779296872,1.7381904052734374,-11.204863769531249
3611707414454,1.768787187,1,0.20350714111328125,1.7322049011230467,-11.209652172851563
3611709415079,1.770787812,1,0.20470424194335937,1.7429788085937499,-11.212046374511718
3611711413204,1.772785937,1,0.20470424194335937,1.7489643127441405,-11.202469567871093
3611713414037,1.77478677,1,0.21787235107421873,1.7393875061035156,-11.195286962890624
3611715414037,1.77678677,1,0.22026655273437498,1.7357962036132812,-11.188104357910156
3611717415026,1.778787759,1,0.239420166015625,1.7310078002929687,-11.201272467041015
3611719414558,1.780787291,1,0.22864625854492185,1.7310078002929687,-11.21683477783203
3611721414454,1.782787187,1,0.21787235107421873,1.734599102783203,-11.222820281982422
3611723412474,1.784785207,1,0.21308394775390624,1.7310078002929687,-11.213243475341796
3611725414193,1.786786926,1,0.23104046020507812,1.725022296142578,-11.21683477783203
3611727413933,1.788786666,1,0.22266075439453123,1.7310078002929687,-11.222820281982422
3611729414089,1.790786822,1,0.20829554443359374,1.734599102783203,-11.215637677001952
3611731414297,1.79278703,1,0.21188684692382811,1.7322049011230467,-11.189301458740234
3611733414193,1.794786926,1,0.22744915771484372,1.7214309936523438,-11.207257971191405
3611735413985,1.796786718,1,0.2154781494140625,1.715445489501953,-11.240776794433593
3611737414297,1.79878703,1,0.21308394775390624,1.7166425903320313,-11.239579693603515
3611739414662,1.800787395,1,0.20350714111328125,1.714248388671875,-11.228805786132812
3611741414818,1.802787551,1,0.21428104858398436,1.7130512878417967,-11.203666668701171
3611743414714,1.804787447,1,0.229843359375,1.7094599853515624,-11.186907257080078
3611745412266,1.806784999,1,0.2454056701660156,1.714248388671875,-11.188104357910156
3611747414037,1.80878677,1,0.2645592834472656,1.7082628845214842,-11.17852755126953
3611749414974,1.810787707,1,0.27293898925781246,1.7022773803710936,-11.17254204711914
3611751413881,1.812786614,1,0.229843359375,1.707065783691406,-11.182118853759764
3611753413881,1.814786614,1,0.20709844360351562,1.7130512878417967,-11.179724652099608
3611755414245,1.816786978,1,0.2154781494140625,1.714248388671875,-11.184513055419922
3611757414037,1.81878677,1,0.20709844360351562,1.7130512878417967,-11.19169566040039
3611759415026,1.820787759,1,0.201112939453125,1.715445489501953,-11.190498559570312
3611761414610,1.822787343,1,0.21308394775390624,1.7262193969726563,-11.2240173828125
3611763414662,1.824787395,1,0.21787235107421873,1.7238251953125,-11.234791290283203
3611765414297,1.82678703,1,0.2166752502441406,1.7298106994628906,-11.2240173828125
3611767414245,1.828786978,1,0.2154781494140625,1.7238251953125,-11.203666668701171
3611769414089,1.830786822,1,0.2166752502441406,1.7274164978027342,-11.206060870361327
3611771413412,1.832786145,1,0.23702596435546874,1.7381904052734374,-11.19169566040039
3611773412422,1.834785155,1,0.22864625854492185,1.7298106994628906,-11.174936248779296
3611775411537,1.83678427,1,0.229843359375,1.7238251953125,-11.18571015625
3611777414922,1.838787655,1,0.24779987182617186,1.7334020019531249,-11.197681164550781
3611779414141,1.840786874,1,0.2501940734863281,1.7393875061035156,-11.19169566040039
3611781414610,1.842787343,1,0.24899697265624998,1.7453730102539062,-11.208455072021483
3611783414714,1.844787447,1,0.2262520568847656,1.734599102783203,-11.240776794433593
3611785414453,1.846787186,1,0.21428104858398436,1.7130512878417967,-11.239579693603515
3611787413672,1.848786405,1,0.22744915771484372,1.696291876220703,-11.218031878662108
3611789413985,1.850786718,1,0.23223756103515625,1.7106570861816406,-11.203666668701171
3611791413620,1.852786353,1,0.21787235107421873,1.7274164978027342,-11.220426080322264
3611793414558,1.854787291,1,0.21906945190429686,1.7166425903320313,-11.213243475341796
3611795413828,1.856786561,1,0.2154781494140625,1.714248388671875,-11.225214483642578
3611797414401,1.858787134,1,0.23343466186523437,1.7166425903320313,-11.222820281982422
3611799413828,1.860786561,1,0.24899697265624998,1.7226280944824217,-11.227608685302734
3611801414037,1.86278677,1,0.23104046020507812,1.7238251953125,-11.214440576171874
3611803414141,1.864786874,1,0.21188684692382811,1.734599102783203,-11.2240173828125
3611805414818,1.866787551,1,0.22385785522460935,1.7393875061035156,-11.225214483642578
3611807414193,1.868786926,1,0.24061726684570311,1.7489643127441405,-11.204863769531249
3611809412839,1.870785572,1,0.24061726684570311,1.7393875061035156,-11.203666668701171
3611811414037,1.87278677,1,0.22266075439453123,1.7357962036132812,-11.197681164550781
3611813415443,1.874788176,1,0.21428104858398436,1.7405846069335937,-11.188104357910156
3611815414714,1.876787447,1,0.21906945190429686,1.7393875061035156,-11.173739147949219
3611817414974,1.878787707,1,0.22266075439453123,1.7202338928222656,-11.180921752929686
3611819414037,1.88078677,1,0.21308394775390624,1.715445489501953,-11.176133349609374
3611821414245,1.882786978,1,0.21188684692382811,1.7286135986328124,-11.203666668701171
3611823414766,1.884787499,1,0.22744915771484372,1.7298106994628906,-11.167753643798827
3611825415599,1.886788332,1,0.22266075439453123,1.7334020019531249,-11.164162341308593
3611827414922,1.888787655,1,0.21787235107421873,1.7310078002929687,-11.168950744628905
3611829414714,1.890787447,1,0.22864625854492185,1.7322049011230467,-11.156979736328124
3611831413203,1.892785936,1,0.2454056701660156,1.7262193969726563,-11.17852755126953
3611833414558,1.894787291,1,0.24899697265624998,1.7310078002929687,-11.19169566040039
3611835414610,1.896787343,1,0.25139117431640623,1.7238251953125,-11.176133349609374
3611837414453,1.898787186,1,0.25737667846679685,1.7274164978027342,-11.139023223876952
3611839414506,1.900787239,1,0.2549824768066406,1.725022296142578,-11.182118853759764
3611841413828,1.902786561,1,0.24660277099609373,1.7190367919921874,-11.197681164550781
3611843414089,1.904786822,1,0.24061726684570311,1.714248388671875,-11.196484063720703
3611845414870,1.906787603,1,0.23822306518554687,1.7178396911621092,-11.18571015625
3611847414401,1.908787134,1,0.22864625854492185,1.7334020019531249,-11.182118853759764
3611849414401,1.910787134,1,0.24061726684570311,1.7429788085937499,-11.167753643798827
3611851414453,1.912787186,1,0.23343466186523437,1.7465701110839842,-11.161768139648437
3611853412422,1.914785155,1,0.23582886352539062,1.7357962036132812,-11.1474029296875
3611855414193,1.916786926,1,0.25139117431640623,1.7369933044433592,-11.148600030517578
3611857414037,1.91878677,1,0.2537853759765625,1.7274164978027342,-11.184513055419922
3611859413985,1.920786718,1,0.239420166015625,1.725022296142578,-11.190498559570312
3611861414245,1.922786978,1,0.24301146850585936,1.7381904052734374,-11.206060870361327
3611863413672,1.924786405,1,0.23223756103515625,1.7381904052734374,-11.218031878662108
3611865414610,1.926787343,1,0.22385785522460935,1.7226280944824217,-11.197681164550781
3611867415391,1.928788124,1,0.2262520568847656,1.7202338928222656,-11.206060870361327
3611869414974,1.930787707,1,0.22864625854492185,1.7262193969726563,-11.201272467041015
3611871414870,1.932787603,1,0.23582886352539062,1.7178396911621092,-11.19169566040039
3611873414089,1.934786822,1,0.24181436767578124,1.7034744812011717,-11.162965240478515
3611875417995,1.936790728,1,0.24301146850585936,1.697488977050781,-11.146205828857422
3611877415703,1.938788436,1,0.23582886352539062,1.705868682861328,-11.136629022216797
3611879414037,1.94078677,1,0.26336218261718747,1.7082628845214842,-11.141417425537108
3611881414714,1.942787447,1,0.24779987182617186,1.725022296142578,-11.149797131347656
3611883414401,1.944787134,1,0.239420166015625,1.7417817077636717,-11.173739147949219
3611885414506,1.946787239,1,0.24181436767578124,1.744175909423828,-11.206060870361327
3611887413985,1.948786718,1,0.2262520568847656,1.7429788085937499,-11.188104357910156
3611889415078,1.950787811,1,0.22266075439453123,1.734599102783203,-11.194089862060546
3611891414662,1.952787395,1,0.23104046020507812,1.7214309936523438,-11.202469567871093
3611893414245,1.954786978,1,0.24061726684570311,1.7274164978027342,-11.197681164550781
3611895413828,1.956786561,1,0.22864625854492185,1.725022296142578,-11.200075366210937
3611897414349,1.958787082,1,0.24779987182617186,1.7226280944824217,-11.196484063720703
3611899414297,1.96078703,1,0.2561795776367187,1.7298106994628906,-11.180921752929686
3611901414349,1.962787082,1,0.22864625854492185,1.725022296142578,-11.161768139648437
3611903413776,1.964786509,1,0.2166752502441406,1.7118541870117185,-11.161768139648437
3611905414245,1.966786978,1,0.22026655273437498,1.7226280944824217,-11.17254204711914
3611907414558,1.968787291,1,0.2154781494140625,1.7334020019531249,-11.15338843383789
3611909415391,1.970788124,1,0.20829554443359374,1.7166425903320313,-11.150994232177734
3611911414349,1.972787082,1,0.22744915771484372,1.7094599853515624,-11.142614526367186
3611913414714,1.974787447,1,0.2214636535644531,1.707065783691406,-11.17254204711914
3611915413776,1.976786509,1,0.22744915771484372,1.714248388671875,-11.194089862060546
3611917412214,1.978784947,1,0.24660277099609373,1.7262193969726563,-11.179724652099608
3611919414089,1.980786822,1,0.2442085693359375,1.7118541870117185,-11.192892761230468
3611921415131,1.982787864,1,0.23343466186523437,1.7166425903320313,-11.167753643798827
3611923414297,1.98478703,1,0.23343466186523437,1.7214309936523438,-11.180921752929686
3611925413828,1.986786561,1,0.22385785522460935,1.7298106994628906,-11.196484063720703
3611927414037,1.98878677,1,0.2059013427734375,1.7322049011230467,-11.215637677001952
3611929412474,1.990785207,1,0.21308394775390624,1.7549498168945312,-11.196484063720703
3611931412006,1.992784739,1,0.21906945190429686,1.7465701110839842,-11.196484063720703
3611933416537,1.99478927,1,0.22744915771484372,1.7262193969726563,-11.208455072021483
3611935414349,1.996787082,1,0.2166752502441406,1.7274164978027342,-11.218031878662108
3611937414089,1.998786822,1,0.2262520568847656,1.7465701110839842,-11.21683477783203
3611939412631,2.000785364,1,0.2346317626953125,1.7405846069335937,-11.208455072021483
3611941413568,2.002786301,1,0.2262520568847656,1.7429788085937499,-11.21683477783203
3611943414245,2.004786978,1,0.21188684692382811,1.7549498168945312,-11.23718549194336
3611945413933,2.006786666,1,0.22266075439453123,1.7549498168945312,-11.231199987792968
3611947413828,2.008786561,1,0.22864625854492185,1.7465701110839842,-11.23000288696289
3611949413933,2.010786666,1,0.229843359375,1.7310078002929687,-11.214440576171874
3611951414245,2.012786978,1,0.2262520568847656,1.734599102783203,-11.19887826538086
3611953415443,2.014788176,1,0.21188684692382811,1.7334020019531249,-11.182118853759764
3611955414558,2.016787291,1,0.21068974609375,1.7274164978027342,-11.159373937988281
3611957414141,2.018786874,1,0.22385785522460935,1.705868682861328,-11.159373937988281
3611959414297,2.02078703,1,0.22864625854492185,1.7094599853515624,-11.182118853759764
3611961414349,2.022787082,1,0.2346317626953125,1.7274164978027342,-11.197681164550781
3611963414610,2.024787343,1,0.2154781494140625,1.715445489501953,-11.196484063720703
3611965415964,2.026788697,1,0.21188684692382811,1.7094599853515624,-11.200075366210937
3611967413776,2.028786509,1,0.21068974609375,1.7022773803710936,-11.17254204711914
3611969414974,2.030787707,1,0.1975216369628906,1.705868682861328,-11.166556542968749
3611971414193,2.032786926,1,0.20350714111328125,1.7106570861816406,-11.182118853759764
3611973415391,2.034788124,1,0.1975216369628906,1.707065783691406,-11.184513055419922
3611975415130,2.036787863,1,0.17477672119140625,1.7106570861816406,-11.17254204711914
3611977414922,2.038787655,1,0.20829554443359374,1.714248388671875,-11.179724652099608
3611979414870,2.040787603,1,0.2442085693359375,1.7178396911621092,-11.177330450439452
3611981414662,2.042787395,1,0.24779987182617186,1.6998831787109374,-11.180921752929686
3611983413516,2.044786249,1,0.23582886352539062,1.6915034729003906,-11.200075366210937
3611985414505,2.046787238,1,0.22864625854492185,1.6903063720703124,-11.209652172851563
3611987413568,2.048786301,1,0.24061726684570311,1.7034744812011717,-11.192892761230468
3611989413933,2.050786666,1,0.23582886352539062,1.7226280944824217,-11.182118853759764
3611991413724,2.052786457,1,0.24301146850585936,1.7322049011230467,-11.188104357910156
3611993418151,2.054790884,1,0.22505495605468748,1.7226280944824217,-11.196484063720703
3611995416693,2.056789426,1,0.22026655273437498,1.7262193969726563,-11.206060870361327
3611997414922,2.058787655,1,0.22026655273437498,1.7417817077636717,-11.18571015625
3611999415026,2.060787759,1,0.22505495605468748,1.744175909423828,-11.183315954589844
3612001413776,2.062786509,1,0.2346317626953125,1.7465701110839842,-11.19887826538086
3612003413985,2.064786718,1,0.2262520568847656,1.7429788085937499,-11.17852755126953
3612005412891,2.066785624,1,0.21428104858398436,1.7286135986328124,-11.166556542968749
3612007414193,2.068786926,1,0.2166752502441406,1.7094599853515624,-11.180921752929686
3612009414610,2.070787343,1,0.19991583862304688,1.725022296142578,-11.208455072021483
3612011413828,2.072786561,1,0.19991583862304688,1.725022296142578,-11.192892761230468
3612013414089,2.074786822,1,0.19871873779296872,1.7274164978027342,-11.189301458740234
3612015414558,2.076787291,1,0.20231004028320312,1.7214309936523438,-11.190498559570312
3612017414349,2.078787082,1,0.2166752502441406,1.7298106994628906,-11.197681164550781
3612019414558,2.080787291,1,0.25139117431640623,1.7381904052734374,-11.215637677001952
3612021412683,2.082785416,1,0.24181436767578124,1.7597382202148437,-11.215637677001952
3612023411537,2.08478427,1,0.2346317626953125,1.7669208251953124,-11.200075366210937
3612025413308,2.086786041,1,0.2442085693359375,1.7669208251953124,-11.206060870361327
3612027415078,2.088787811,1,0.22744915771484372,1.7453730102539062,-11.220426080322264
3612029414870,2.090787603,1,0.2214636535644531,1.7369933044433592,-11.200075366210937
3612031414089,2.092786822,1,0.22744915771484372,1.7453730102539062,-11.21683477783203
3612033414453,2.094787186,1,0.229843359375,1.7381904052734374,-11.202469567871093
3612035414089,2.096786822,1,0.2166752502441406,1.715445489501953,-11.189301458740234
3612037415078,2.098787811,1,0.23343466186523437,1.7106570861816406,-11.207257971191405
3612039414662,2.100787395,1,0.229843359375,1.7214309936523438,-11.195286962890624
3612041415078,2.102787811,1,0.22266075439453123,1.7178396911621092,-11.142614526367186
3612043414922,2.104787655,1,0.23104046020507812,1.725022296142578,-11.161768139648437
3612045414610,2.106787343,1,0.21188684692382811,1.7322049011230467,-11.184513055419922
3612047412891,2.108785624,1,0.20350714111328125,1.7286135986328124,-11.179724652099608
3612049414297,2.11078703,1,0.20709844360351562,1.7429788085937499,-11.195286962890624
3612051413880,2.112786613,1,0.19632453613281248,1.7393875061035156,-11.19169566040039
3612053414662,2.114787395,1,0.1975216369628906,1.7465701110839842,-11.182118853759764
3612055413985,2.116786718,1,0.20350714111328125,1.7429788085937499,-11.18571015625
3612057414037,2.11878677,1,0.21188684692382811,1.7357962036132812,-11.197681164550781
3612059413828,2.120786561,1,0.19153613281249998,1.7393875061035156,-11.182118853759764
3612061414558,2.122787291,1,0.1927332336425781,1.7214309936523438,-11.164162341308593
3612063415078,2.124787811,1,0.20709844360351562,1.7262193969726563,-11.155782635498046
3612065413985,2.126786718,1,0.22266075439453123,1.7262193969726563,-11.162965240478515
3612067414453,2.128787186,1,0.21906945190429686,1.7106570861816406,-11.17852755126953
3612069412683,2.130785416,1,0.2154781494140625,1.7166425903320313,-11.17852755126953
3612071414193,2.132786926,1,0.20949264526367187,1.7178396911621092,-11.179724652099608
3612073414714,2.134787447,1,0.21068974609375,1.7178396911621092,-11.189301458740234
3612075414922,2.136787655,1,0.21428104858398436,1.7381904052734374,-11.171344946289063
3612077415078,2.138787811,1,0.22026655273437498,1.744175909423828,-11.19169566040039
3612079414349,2.140787082,1,0.20350714111328125,1.7357962036132812,-11.201272467041015
3612081414193,2.142786926,1,0.19991583862304688,1.7310078002929687,-11.189301458740234
3612083414766,2.144787499,1,0.22505495605468748,1.7357962036132812,-11.190498559570312
3612085414870,2.146787603,1,0.2442085693359375,1.7226280944824217,-11.192892761230468
3612087413724,2.148786457,1,0.24899697265624998,1.7202338928222656,-11.19169566040039
3612089414401,2.150787134,1,0.25737667846679685,1.7274164978027342,-11.182118853759764
3612091413724,2.152786457,1,0.239420166015625,1.7226280944824217,-11.184513055419922
3612093413880,2.154786613,1,0.23702596435546874,1.7238251953125,-11.171344946289063
3612095413828,2.156786561,1,0.2442085693359375,1.7130512878417967,-11.033678350830078
3612097413724,2.158786457,1,0.24660277099609373,1.7082628845214842,-11.203666668701171
3612099414141,2.160786874,1,0.24181436767578124,1.714248388671875,-11.206060870361327
3612101414558,2.162787291,1,0.24301146850585936,1.725022296142578,-11.231199987792968
3612103414558,2.164787291,1,0.2442085693359375,1.7405846069335937,-11.208455072021483
3612105414870,2.166787603,1,0.23223756103515625,1.744175909423828,-11.225214483642578
3612107414714,2.168787447,1,0.23104046020507812,1.734599102783203,-11.238382592773437
3612109414662,2.170787395,1,0.2346317626953125,1.734599102783203,-11.219228979492186
3612111414089,2.172786822,1,0.23343466186523437,1.7381904052734374,-11.214440576171874
3612113413880,2.174786613,1,0.239420166015625,1.7501614135742187,-11.215637677001952
3612115413672,2.176786405,1,0.23104046020507812,1.7393875061035156,-11.195286962890624
3612117414453,2.178787186,1,0.22266075439453123,1.7334020019531249,-11.329362255859374
3612119414453,2.180787186,1,0.21787235107421873,1.7226280944824217,-11.17254204711914
3612121412266,2.182784999,1,0.22026655273437498,1.7286135986328124,-11.164162341308593
3612123411849,2.184784582,1,0.21068974609375,1.7262193969726563,-11.179724652099608
3612125416485,2.186789218,1,0.2154781494140625,1.725022296142578,-11.033678350830078
3612127414870,2.188787603,1,0.21787235107421873,1.7274164978027342,-11.3389390625
3612129415651,2.190788384,1,0.22505495605468748,1.7190367919921874,-11.03846675415039
3612131414349,2.192787082,1,0.21428104858398436,1.7286135986328124,-11.226411584472656
3612133413828,2.194786561,1,0.2166752502441406,1.7298106994628906,-11.209652172851563
3612135414141,2.196786874,1,0.2166752502441406,1.7489643127441405,-11.206060870361327
3612137414401,2.198787134,1,0.20709844360351562,1.7322049011230467,-11.189301458740234
3612139414714,2.200787447,1,0.22505495605468748,1.7477672119140624,-11.203666668701171
3612141414297,2.20278703,1,0.22864625854492185,1.753752716064453,-11.208455072021483
3612143413880,2.204786613,1,0.23822306518554687,1.7465701110839842,-11.202469567871093
3612145414037,2.20678677,1,0.2346317626953125,1.7453730102539062,-11.186907257080078
3612147414193,2.208786926,1,0.24061726684570311,1.7393875061035156,-11.203666668701171
3612149414766,2.210787499,1,0.239420166015625,1.7405846069335937,-11.19169566040039
3612151414766,2.212787499,1,0.23343466186523437,1.7489643127441405,-11.32577095336914
3612153413828,2.214786561,1,0.21068974609375,1.7477672119140624,-11.040860955810546
3612155412578,2.216785311,1,0.2059013427734375,1.7357962036132812,-11.33175645751953
3612157414662,2.218787395,1,0.2059013427734375,1.734599102783203,-11.162965240478515
3612159414505,2.220787238,1,0.19871873779296872,1.7381904052734374,-11.17254204711914
3612161414922,2.222787655,1,0.20829554443359374,1.734599102783203,-11.034875451660156
3612163414558,2.224787291,1,0.20829554443359374,1.7310078002929687,-11.3389390625
3612165414818,2.226787551,1,0.229843359375,1.7369933044433592,-11.166556542968749
3612167414245,2.228786978,1,0.22266075439453123,1.7465701110839842,-11.159373937988281
3612169414870,2.230787603,1,0.22864625854492185,1.7369933044433592,-11.139023223876952
3612171414766,2.232787499,1,0.21308394775390624,1.7298106994628906,-11.162965240478515
3612173413880,2.234786613,1,0.21068974609375,1.744175909423828,-11.044452258300781
3612175413828,2.236786561,1,0.22864625854492185,1.7597382202148437,-11.192892761230468
3612177414193,2.238786926,1,0.21068974609375,1.7585411193847655,-11.197681164550781
3612179414714,2.240787447,1,0.22385785522460935,1.734599102783203,-11.335347760009764
3612181414818,2.242787551,1,0.23582886352539062,1.7357962036132812,-11.177330450439452
3612183419037,2.24479177,1,0.23223756103515625,1.7405846069335937,-11.049240661621093
3612185416068,2.246788801,1,0.22505495605468748,1.7369933044433592,-11.204863769531249
3612187414245,2.248786978,1,0.2214636535644531,1.7310078002929687,-11.197681164550781
3612189414870,2.250787603,1,0.2214636535644531,1.7298106994628906,-11.19887826538086
3612191414870,2.252787603,1,0.21787235107421873,1.7238251953125,-11.334150659179686
3612193414037,2.25478677,1,0.2214636535644531,1.707065783691406,-11.182118853759764
3612195413828,2.256786561,1,0.23104046020507812,1.707065783691406,-11.04564935913086
3612197412839,2.258785572,1,0.22385785522460935,1.7202338928222656,-11.234791290283203
3612199414141,2.260786874,1,0.23343466186523437,1.7286135986328124,-11.240776794433593
3612201414349,2.262787082,1,0.23104046020507812,1.7226280944824217,-11.233594189453123
3612203414401,2.264787134,1,0.22744915771484372,1.7322049011230467,-11.208455072021483
3612205414349,2.266787082,1,0.22385785522460935,1.7381904052734374,-11.330559356689452
3612207414349,2.268787082,1,0.21308394775390624,1.7322049011230467,-11.040860955810546
3612209413776,2.270786509,1,0.20949264526367187,1.7417817077636717,-11.208455072021483
3612211413464,2.272786197,1,0.21906945190429686,1.7286135986328124,-11.220426080322264
3612213414714,2.274787447,1,0.23343466186523437,1.7226280944824217,-11.2240173828125
3612215414662,2.276787395,1,0.24061726684570311,1.7106570861816406,-11.197681164550781
3612217414037,2.27878677,1,0.21787235107421873,1.7094599853515624,-11.204863769531249
3612219414610,2.280787343,1,0.21068974609375,1.7274164978027342,-11.214440576171874
3612221415287,2.28278802,1,0.23822306518554687,1.7334020019531249,-11.21683477783203
3612223414193,2.284786926,1,0.23104046020507812,1.744175909423828,-11.188104357910156
3612225413880,2.286786613,1,0.23343466186523437,1.7453730102539062,-11.19887826538086
3612227413932,2.288786665,1,0.24899697265624998,1.7405846069335937,-11.203666668701171
3612229414818,2.290787551,1,0.23702596435546874,1.7417817077636717,-11.204863769531249
3612231411380,2.292784113,1,0.24061726684570311,1.744175909423828,-11.162965240478515
3612233417839,2.294790572,1,0.22026655273437498,1.7286135986328124,-11.164162341308593
3612235414974,2.296787707,1,0.21188684692382811,1.7214309936523438,-11.180921752929686
3612237414349,2.298787082,1,0.19991583862304688,1.7214309936523438,-11.168950744628905
3612239413620,2.300786353,1,0.2214636535644531,1.7334020019531249,-11.190498559570312
3612241413151,2.302785884,1,0.23702596435546874,1.7322049011230467,-11.189301458740234
3612243414245,2.304786978,1,0.2454056701660156,1.714248388671875,-11.17852755126953
3612245413932,2.306786665,1,0.25139117431640623,1.7118541870117185,-11.17254204711914
3612247413985,2.308786718,1,0.2346317626953125,1.715445489501953,-11.174936248779296
3612249414193,2.310786926,1,0.24181436767578124,1.7106570861816406,-11.164162341308593
3612251413932,2.312786665,1,0.24061726684570311,1.7202338928222656,-11.171344946289063
3612253413880,2.314786613,1,0.24779987182617186,1.7286135986328124,-11.176133349609374
3612255414141,2.316786874,1,0.24899697265624998,1.734599102783203,-11.184513055419922
3612257414349,2.318787082,1,0.23582886352539062,1.725022296142578,-11.190498559570312
3612259414557,2.32078729,1,0.22266075439453123,1.7357962036132812,-11.18571015625
3612261414141,2.322786874,1,0.23104046020507812,1.7214309936523438,-11.202469567871093
3612263412943,2.324785676,1,0.21906945190429686,1.714248388671875,-11.19887826538086
3612265414141,2.326786874,1,0.22385785522460935,1.725022296142578,-11.19887826538086
3612267413776,2.328786509,1,0.23702596435546874,1.7322049011230467,-11.186907257080078
3612269412474,2.330785207,1,0.22026655273437498,1.7357962036132812,-11.177330450439452
3612271411797,2.33278453,1,0.2059013427734375,1.7525556152343749,-11.203666668701171
3612273414662,2.334787395,1,0.21188684692382811,1.7322049011230467,-11.177330450439452
3612275413985,2.336786718,1,0.21428104858398436,1.7334020019531249,-11.165359442138671
3612277414557,2.33878729,1,0.2154781494140625,1.7226280944824217,-11.166556542968749
3612279414037,2.34078677,1,0.21308394775390624,1.7202338928222656,-11.158176837158203
3612281414557,2.34278729,1,0.2214636535644531,1.7393875061035156,-11.156979736328124
3612283414037,2.34478677,1,0.20949264526367187,1.7381904052734374,-11.184513055419922
3612285414818,2.346787551,1,0.19871873779296872,1.7405846069335937,-11.152191333007812
3612287414245,2.348786978,1,0.201112939453125,1.7334020019531249,-11.154585534667968
3612289414401,2.350787134,1,0.21188684692382811,1.7286135986328124,-11.165359442138671
3612291414349,2.352787082,1,0.21068974609375,1.7334020019531249,-11.161768139648437
3612293415599,2.354788332,1,0.20829554443359374,1.744175909423828,-11.150994232177734
3612295413985,2.356786718,1,0.21787235107421873,1.7429788085937499,-11.183315954589844
3612297414505,2.358787238,1,0.22505495605468748,1.7274164978027342,-11.213243475341796
3612299415547,2.36078828,1,0.21308394775390624,1.7274164978027342,-11.225214483642578
3612301414557,2.36278729,1,0.22266075439453123,1.7178396911621092,-11.21683477783203
3612303413620,2.364786353,1,0.2262520568847656,1.714248388671875,-11.200075366210937
3612305413620,2.366786353,1,0.21068974609375,1.7262193969726563,-11.207257971191405
3612307414089,2.368786822,1,0.20470424194335937,1.7286135986328124,-11.245565197753905
3612309414089,2.370786822,1,0.21428104858398436,1.7178396911621092,-11.245565197753905
3612311413932,2.372786665,1,0.21188684692382811,1.725022296142578,-11.214440576171874
3612313413932,2.374786665,1,0.20829554443359374,1.714248388671875,-11.201272467041015
3612315413776,2.376786509,1,0.20350714111328125,1.7130512878417967,-11.200075366210937
3612317414141,2.378786874,1,0.1975216369628906,1.7238251953125,-11.189301458740234
3612319413516,2.380786249,1,0.2154781494140625,1.7405846069335937,-11.192892761230468
3612321414714,2.382787447,1,0.2154781494140625,1.7417817077636717,-11.201272467041015
3612323414401,2.384787134,1,0.22744915771484372,1.744175909423828,-11.159373937988281
3612325414714,2.386787447,1,0.23343466186523437,1.7501614135742187,-11.13423482055664
3612327413568,2.388786301,1,0.2262520568847656,1.7549498168945312,-11.143811627197264
3612329414922,2.390787655,1,0.22744915771484372,1.7549498168945312,-11.166556542968749
3612331413464,2.392786197,1,0.22266075439453123,1.7429788085937499,-11.182118853759764
3612333414922,2.394787655,1,0.22385785522460935,1.7202338928222656,-11.180921752929686
3612335414089,2.396786822,1,0.21428104858398436,1.7106570861816406,-11.195286962890624
3612337414818,2.398787551,1,0.21787235107421873,1.70467158203125,-11.194089862060546
3612339414089,2.400786822,1,0.229843359375,1.7178396911621092,-11.184513055419922
3612341414037,2.40278677,1,0.22505495605468748,1.7202338928222656,-11.179724652099608
3612343414922,2.404787655,1,0.23104046020507812,1.7334020019531249,-11.173739147949219
3612345415235,2.406787968,1,0.22385785522460935,1.7513585144042967,-11.179724652099608
3612347413672,2.408786405,1,0.2214636535644531,1.7310078002929687,-11.188104357910156
3612349412995,2.410785728,1,0.2214636535644531,1.7238251953125,-11.174936248779296
3612351414818,2.412787551,1,0.21428104858398436,1.7262193969726563,-11.176133349609374
3612353414453,2.414787186,1,0.22026655273437498,1.715445489501953,-11.179724652099608
3612355414714,2.416787447,1,0.22864625854492185,1.7130512878417967,-11.19887826538086
3612357415078,2.418787811,1,0.2262520568847656,1.7286135986328124,-11.202469567871093
3612359414037,2.42078677,1,0.21428104858398436,1.7238251953125,-11.220426080322264
3612361414453,2.422787186,1,0.22026655273437498,1.7465701110839842,-11.203666668701171
3612363415391,2.424788124,1,0.2262520568847656,1.7381904052734374,-11.201272467041015
3612365414818,2.426787551,1,0.239420166015625,1.7525556152343749,-11.221623181152344
3612367414401,2.428787134,1,0.2597708801269531,1.7393875061035156,-11.215637677001952
3612369414505,2.430787238,1,0.24899697265624998,1.7322049011230467,-11.218031878662108
3612371417266,2.432789999,1,0.23104046020507812,1.734599102783203,-11.220426080322264
3612373416797,2.43478953,1,0.2166752502441406,1.7262193969726563,-11.204863769531249
3612375414297,2.43678703,1,0.21906945190429686,1.7238251953125,-11.182118853759764
3612377414766,2.438787499,1,0.23104046020507812,1.7274164978027342,-11.17852755126953
3612379414141,2.440786874,1,0.21906945190429686,1.7130512878417967,-11.15338843383789
3612381414610,2.442787343,1,0.22385785522460935,1.697488977050781,-11.166556542968749
3612383414141,2.444786874,1,0.22385785522460935,1.7190367919921874,-11.176133349609374
3612385414662,2.446787395,1,0.20829554443359374,1.7226280944824217,-11.165359442138671
3612387414453,2.448787186,1,0.2059013427734375,1.7417817077636717,-11.149797131347656
3612389414662,2.450787395,1,0.21308394775390624,1.7549498168945312,-11.158176837158203
3612391413932,2.452786665,1,0.21787235107421873,1.7381904052734374,-11.164162341308593
3612393413672,2.454786405,1,0.23223756103515625,1.7286135986328124,-11.176133349609374
3612395414818,2.456787551,1,0.23822306518554687,1.7178396911621092,-11.180921752929686
3612397414349,2.458787082,1,0.2262520568847656,1.714248388671875,-11.209652172851563
3612399414297,2.46078703,1,0.22266075439453123,1.715445489501953,-11.183315954589844
3612401414610,2.462787343,1,0.22744915771484372,1.7238251953125,-11.18571015625
3612403414349,2.464787082,1,0.20949264526367187,1.7357962036132812,-11.201272467041015
3612405414662,2.466787395,1,0.20829554443359374,1.7286135986328124,-11.218031878662108
3612407414714,2.468787447,1,0.23104046020507812,1.7357962036132812,-11.18571015625
3612409415339,2.470788072,1,0.2166752502441406,1.7453730102539062,-11.1474029296875
3612411414297,2.47278703,1,0.22864625854492185,1.744175909423828,-11.142614526367186
3612413413932,2.474786665,1,0.24061726684570311,1.714248388671875,-11.17852755126953
3612415414141,2.476786874,1,0.24660277099609373,1.6891092712402342,-11.204863769531249
3612417414245,2.478786978,1,0.24301146850585936,1.697488977050781,-11.168950744628905
3612419414401,2.480787134,1,0.2346317626953125,1.7082628845214842,-11.176133349609374
3612421414818,2.482787551,1,0.21787235107421873,1.7238251953125,-11.170147845458983
3612423413464,2.484786197,1,0.2059013427734375,1.7417817077636717,-11.164162341308593
3612425414870,2.486787603,1,0.21787235107421873,1.7429788085937499,-11.186907257080078
3612427413516,2.488786249,1,0.21068974609375,1.7286135986328124,-11.190498559570312
3612429415391,2.490788124,1,0.22385785522460935,1.7178396911621092,-11.179724652099608
3612431415026,2.492787759,1,0.22744915771484372,1.7202338928222656,-11.197681164550781
3612433414557,2.49478729,1,0.229843359375,1.7310078002929687,-11.2240173828125
3612435412839,2.496785572,1,0.22505495605468748,1.725022296142578,-11.203666668701171
3612437414870,2.498787603,1,0.22385785522460935,1.705868682861328,-11.17254204711914
3612439414297,2.50078703,1,0.2166752502441406,1.7130512878417967,-11.173739147949219
3612441414557,2.50278729,1,0.23343466186523437,1.725022296142578,-11.192892761230468
3612443414245,2.504786978,1,0.23582886352539062,1.7322049011230467,-11.189301458740234
3612445414818,2.506787551,1,0.21906945190429686,1.7322049011230467,-11.173739147949219
3612447414714,2.508787447,1,0.22026655273437498,1.7274164978027342,-11.204863769531249
3612449414818,2.510787551,1,0.2262520568847656,1.7298106994628906,-11.214440576171874
3612451414922,2.512787655,1,0.23582886352539062,1.7298106994628906,-11.221623181152344
3612453415599,2.514788332,1,0.2214636535644531,1.725022296142578,-11.23000288696289
3612455414089,2.516786822,1,0.21308394775390624,1.714248388671875,-11.23718549194336
3612457412839,2.518785572,1,0.25139117431640623,1.7286135986328124,-11.195286962890624
3612459414141,2.520786874,1,0.23104046020507812,1.725022296142578,-11.164162341308593
3612461414557,2.52278729,1,0.21787235107421873,1.7226280944824217,-11.19169566040039
3612463413776,2.524786509,1,0.229843359375,1.714248388671875,-11.182118853759764
3612465414349,2.526787082,1,0.21906945190429686,1.7082628845214842,-11.184513055419922
3612467413932,2.528786665,1,0.2346317626953125,1.7202338928222656,-11.179724652099608
3612469414089,2.530786822,1,0.22744915771484372,1.7106570861816406,-11.164162341308593
3612471414818,2.532787551,1,0.22266075439453123,1.7226280944824217,-11.182118853759764
3612473415026,2.534787759,1,0.21308394775390624,1.7417817077636717,-11.212046374511718
3612475414089,2.536786822,1,0.21188684692382811,1.7286135986328124,-11.204863769531249
3612477415339,2.538788072,1,0.22026655273437498,1.7118541870117185,-11.194089862060546
3612479413151,2.540785884,1,0.23343466186523437,1.7082628845214842,-11.200075366210937
3612481414297,2.54278703,1,0.21906945190429686,1.7190367919921874,-11.204863769531249
3612483414245,2.544786978,1,0.201112939453125,1.734599102783203,-11.222820281982422
3612485415755,2.546788488,1,0.2154781494140625,1.7286135986328124,-11.241973895263671
3612487414245,2.548786978,1,0.21068974609375,1.7369933044433592,-11.233594189453123
3612489414505,2.550787238,1,0.22385785522460935,1.7381904052734374,-11.235988391113281
3612491414245,2.552786978,1,0.23104046020507812,1.7238251953125,-11.222820281982422
3612493414922,2.554787655,1,0.23822306518554687,1.7190367919921874,-11.194089862060546
3612495414453,2.556787186,1,0.2346317626953125,1.7262193969726563,-11.234791290283203
3612497413932,2.558786665,1,0.24301146850585936,1.7465701110839842,-11.239579693603515
3612499413880,2.560786613,1,0.23822306518554687,1.7405846069335937,-11.208455072021483
3612501414609,2.562787342,1,0.24181436767578124,1.7334020019531249,-11.200075366210937
3612503413880,2.564786613,1,0.23702596435546874,1.734599102783203,-11.165359442138671
3612505411693,2.566784426,1,0.2442085693359375,1.7357962036132812,-11.18571015625
3612507410807,2.56878354,1,0.23582886352539062,1.7298106994628906,-11.195286962890624
3612509415807,2.57078854,1,0.22505495605468748,1.7501614135742187,-11.197681164550781
3612511413984,2.572786717,1,0.2262520568847656,1.7489643127441405,-11.194089862060546
3612513414141,2.574786874,1,0.2442085693359375,1.7597382202148437,-11.204863769531249
3612515415234,2.576787967,1,0.2609679809570312,1.7453730102539062,-11.218031878662108
3612517413047,2.57878578,1,0.2549824768066406,1.7334020019531249,-11.207257971191405
3612519411641,2.580784374,1,0.24181436767578124,1.725022296142578,-11.202469567871093
3612521414609,2.582787342,1,0.23343466186523437,1.7417817077636717,-11.176133349609374
3612523413932,2.584786665,1,0.23104046020507812,1.7262193969726563,-11.189301458740234
3612525414089,2.586786822,1,0.24181436767578124,1.7274164978027342,-11.184513055419922
3612527414193,2.588786926,1,0.229843359375,1.7369933044433592,-11.165359442138671
3612529413932,2.590786665,1,0.2166752502441406,1.7274164978027342,-11.170147845458983
3612531413932,2.592786665,1,0.22266075439453123,1.7262193969726563,-11.166556542968749
3612533413880,2.594786613,1,0.2346317626953125,1.725022296142578,-11.190498559570312
3612535414245,2.596786978,1,0.23822306518554687,1.7262193969726563,-11.196484063720703
3612537415182,2.598787915,1,0.24301146850585936,1.7202338928222656,-11.182118853759764
3612539414714,2.600787447,1,0.25737667846679685,1.7226280944824217,-11.195286962890624
3612541414141,2.602786874,1,0.24899697265624998,1.7274164978027342,-11.17852755126953
3612543413412,2.604786145,1,0.2346317626953125,1.7298106994628906,-11.155782635498046
3612545414037,2.60678677,1,0.229843359375,1.7298106994628906,-11.164162341308593
3612547413932,2.608786665,1,0.20949264526367187,1.7226280944824217,-11.15338843383789
3612549414609,2.610787342,1,0.21906945190429686,1.7178396911621092,-11.166556542968749
3612551414245,2.612786978,1,0.23822306518554687,1.7262193969726563,-11.186907257080078
3612553413880,2.614786613,1,0.25139117431640623,1.7226280944824217,-11.207257971191405
3612555413932,2.616786665,1,0.22266075439453123,1.7357962036132812,-11.204863769531249
3612557414401,2.618787134,1,0.23223756103515625,1.7393875061035156,-11.206060870361327
3612559419870,2.620792603,1,0.23104046020507812,1.7369933044433592,-11.174936248779296
3612561416537,2.62278927,1,0.22744915771484372,1.7274164978027342,-11.166556542968749
3612563413724,2.624786457,1,0.23582886352539062,1.7310078002929687,-11.170147845458983
3612565412734,2.626785467,1,0.22864625854492185,1.7238251953125,-11.186907257080078
3612567414193,2.628786926,1,0.23104046020507812,1.7274164978027342,-11.203666668701171
3612569414245,2.630786978,1,0.22385785522460935,1.7310078002929687,-11.209652172851563
3612571414453,2.632787186,1,0.22266075439453123,1.7310078002929687,-11.21683477783203
3612573415026,2.634787759,1,0.2154781494140625,1.7405846069335937,-11.207257971191405
3612575413984,2.636786717,1,0.21188684692382811,1.7393875061035156,-11.200075366210937
3612577415599,2.638788332,1,0.2262520568847656,1.7322049011230467,-11.158176837158203
3612579414766,2.640787499,1,0.25258827514648435,1.7214309936523438,-11.179724652099608
3612581415339,2.642788072,1,0.2537853759765625,1.7322049011230467,-11.194089862060546
3612583414245,2.644786978,1,0.23343466186523437,1.7501614135742187,-11.200075366210937
3612585414766,2.646787499,1,0.21308394775390624,1.7501614135742187,-11.21084927368164
3612587412839,2.648785572,1,0.201112939453125,1.7357962036132812,-11.195286962890624
3612589414557,2.65078729,1,0.22266075439453123,1.7298106994628906,-11.176133349609374
3612591414349,2.652787082,1,0.24779987182617186,1.7298106994628906,-11.190498559570312
3612593414037,2.65478677,1,0.23822306518554687,1.7238251953125,-11.196484063720703
3612595413932,2.656786665,1,0.23822306518554687,1.7298106994628906,-11.19169566040039
3612597415339,2.658788072,1,0.26216508178710934,1.7274164978027342,-11.202469567871093
3612599413880,2.660786613,1,0.24899697265624998,1.7238251953125,-11.218031878662108
3612601415234,2.662787967,1,0.2454056701660156,1.734599102783203,-11.201272467041015
3612603414453,2.664787186,1,0.23822306518554687,1.7298106994628906,-11.213243475341796
3612605414089,2.666786822,1,0.2154781494140625,1.7393875061035156,-11.203666668701171
3612607413932,2.668786665,1,0.2166752502441406,1.725022296142578,-11.184513055419922
3612609414453,2.670787186,1,0.229843359375,1.7369933044433592,-11.212046374511718
3612611413932,2.672786665,1,0.22385785522460935,1.7357962036132812,-11.225214483642578
3612613415182,2.674787915,1,0.21906945190429686,1.744175909423828,-11.208455072021483
3612615413672,2.676786405,1,0.22266075439453123,1.7429788085937499,-11.207257971191405
3612617414193,2.678786926,1,0.2154781494140625,1.744175909423828,-11.221623181152344
3612619414349,2.680787082,1,0.22026655273437498,1.7381904052734374,-11.226411584472656
3612621414245,2.682786978,1,0.22266075439453123,1.7118541870117185,-11.240776794433593
3612623415339,2.684788072,1,0.21428104858398436,1.6998831787109374,-11.220426080322264
3612625414922,2.686787655,1,0.21787235107421873,1.696291876220703,-11.207257971191405
3612627413776,2.688786509,1,0.2166752502441406,1.7106570861816406,-11.182118853759764
3612629413880,2.690786613,1,0.1927332336425781,1.714248388671875,-11.183315954589844
3612631414870,2.692787603,1,0.2214636535644531,1.7286135986328124,-11.196484063720703
3612633415026,2.694787759,1,0.22505495605468748,1.7166425903320313,-11.209652172851563
3612635414193,2.696786926,1,0.22864625854492185,1.7130512878417967,-11.174936248779296
3612637414349,2.698787082,1,0.2166752502441406,1.714248388671875,-11.17254204711914
3612639414193,2.700786926,1,0.20949264526367187,1.7202338928222656,-11.189301458740234
3612641414818,2.702787551,1,0.21428104858398436,1.714248388671875,-11.21084927368164
3612643413984,2.704786717,1,0.19991583862304688,1.7106570861816406,-11.212046374511718
3612645414766,2.706787499,1,0.19033903198242186,1.70467158203125,-11.194089862060546
3612647414922,2.708787655,1,0.19632453613281248,1.7022773803710936,-11.173739147949219
3612649414297,2.71078703,1,0.2214636535644531,1.7082628845214842,-11.1474029296875
3612651412891,2.712785624,1,0.23702596435546874,1.7214309936523438,-11.158176837158203
3612653414141,2.714786874,1,0.24899697265624998,1.7357962036132812,-11.182118853759764
3612655414036,2.716786769,1,0.2454056701660156,1.7214309936523438,-11.195286962890624
3612657414349,2.718787082,1,0.23582886352539062,1.7130512878417967,-11.221623181152344
3612659413776,2.720786509,1,0.22266075439453123,1.715445489501953,-11.19887826538086
3612661414505,2.722787238,1,0.22266075439453123,1.725022296142578,-11.186907257080078
3612663414453,2.724787186,1,0.2214636535644531,1.7298106994628906,-11.190498559570312
3612665414453,2.726787186,1,0.22744915771484372,1.7298106994628906,-11.170147845458983
3612667415130,2.728787863,1,0.2346317626953125,1.7226280944824217,-11.177330450439452
3612669414714,2.730787447,1,0.22266075439453123,1.7298106994628906,-11.186907257080078
3612671414557,2.73278729,1,0.22864625854492185,1.7453730102539062,-11.202469567871093
3612673412682,2.734785415,1,0.22744915771484372,1.7609353210449217,-11.212046374511718
3612675414453,2.736787186,1,0.21906945190429686,1.7681179260253905,-11.227608685302734
3612677414818,2.738787551,1,0.2214636535644531,1.744175909423828,-11.219228979492186
3612679413724,2.740786457,1,0.20829554443359374,1.7453730102539062,-11.19887826538086
3612681414193,2.742786926,1,0.2214636535644531,1.725022296142578,-11.180921752929686
3612683414141,2.744786874,1,0.20350714111328125,1.7238251953125,-11.183315954589844
3612685414505,2.746787238,1,0.21068974609375,1.7262193969726563,-11.183315954589844
3612687414766,2.748787499,1,0.2346317626953125,1.7501614135742187,-11.190498559570312
3612689415182,2.750787915,1,0.229843359375,1.7405846069335937,-11.201272467041015
3612691414401,2.752787134,1,0.22026655273437498,1.7274164978027342,-11.207257971191405
3612693414036,2.754786769,1,0.2214636535644531,1.7429788085937499,-11.170147845458983
3612695414349,2.756787082,1,0.22744915771484372,1.7597382202148437,-11.184513055419922
3612697414922,2.758787655,1,0.23702596435546874,1.7561469177246092,-11.166556542968749
3612699414766,2.760787499,1,0.24061726684570311,1.7381904052734374,-11.173739147949219
3612701414714,2.762787447,1,0.2154781494140625,1.7262193969726563,-11.180921752929686
3612703414297,2.76478703,1,0.2214636535644531,1.7238251953125,-11.152191333007812
3612705413984,2.766786717,1,0.24660277099609373,1.7190367919921874,-11.171344946289063
3612707413672,2.768786405,1,0.23582886352539062,1.725022296142578,-11.177330450439452
3612709415859,2.770788592,1,0.21906945190429686,1.7405846069335937,-11.18571015625
3612711415182,2.772787915,1,0.19991583862304688,1.7477672119140624,-11.190498559570312
3612713414974,2.774787707,1,0.21308394775390624,1.7393875061035156,-11.188104357910156
3612715414974,2.776787707,1,0.229843359375,1.7513585144042967,-11.192892761230468
3612717414609,2.778787342,1,0.23343466186523437,1.7513585144042967,-11.196484063720703
3612719413880,2.780786613,1,0.2154781494140625,1.7429788085937499,-11.203666668701171
3612721414714,2.782787447,1,0.201112939453125,1.7286135986328124,-11.173739147949219
3612723414193,2.784786926,1,0.20949264526367187,1.7178396911621092,-11.168950744628905
3612725415286,2.786788019,1,0.22864625854492185,1.705868682861328,-11.16057103881836
3612727414557,2.78878729,1,0.23343466186523437,1.7082628845214842,-11.159373937988281
3612729414766,2.790787499,1,0.24779987182617186,1.725022296142578,-11.173739147949219
3612731414766,2.792787499,1,0.2454056701660156,1.70467158203125,-11.19169566040039
3612733415599,2.794788332,1,0.2346317626953125,1.7166425903320313,-11.195286962890624
3612735413724,2.796786457,1,0.22266075439453123,1.7310078002929687,-11.183315954589844
3612737413776,2.798786509,1,0.2262520568847656,1.7357962036132812,-11.174936248779296
3612739414141,2.800786874,1,0.2262520568847656,1.7298106994628906,-11.201272467041015
3612741414922,2.802787655,1,0.2214636535644531,1.7238251953125,-11.197681164550781
3612743413984,2.804786717,1,0.22385785522460935,1.7322049011230467,-11.188104357910156
3612745414297,2.80678703,1,0.21068974609375,1.7226280944824217,-11.221623181152344
3612747417734,2.808790467,1,0.20350714111328125,1.7274164978027342,-11.247959399414063
3612749415859,2.810788592,1,0.21428104858398436,1.7369933044433592,-11.21683477783203
3612751414349,2.812787082,1,0.19871873779296872,1.7549498168945312,-11.201272467041015
3612753414661,2.814787394,1,0.201112939453125,1.7585411193847655,-11.206060870361327
3612755414557,2.81678729,1,0.20350714111328125,1.7585411193847655,-11.195286962890624
3612757414089,2.818786822,1,0.22744915771484372,1.7621324218749999,-11.19887826538086
3612759412943,2.820785676,1,0.20949264526367187,1.7477672119140624,-11.197681164550781
3612761414297,2.82278703,1,0.21428104858398436,1.7334020019531249,-11.21084927368164
3612763414661,2.824787394,1,0.20949264526367187,1.7178396911621092,-11.222820281982422
3612765411641,2.826784374,1,0.21428104858398436,1.7190367919921874,-11.203666668701171
3612767411693,2.828784426,1,0.2059013427734375,1.7262193969726563,-11.206060870361327
3612769415286,2.830788019,1,0.19871873779296872,1.7286135986328124,-11.222820281982422
3612771413880,2.832786613,1,0.22385785522460935,1.734599102783203,-11.232397088623046
3612773414766,2.834787499,1,0.23104046020507812,1.744175909423828,-11.212046374511718
3612775414766,2.836787499,1,0.229843359375,1.7513585144042967,-11.201272467041015
3612777415026,2.838787759,1,0.2346317626953125,1.7513585144042967,-11.18571015625
3612779414141,2.840786874,1,0.22864625854492185,1.753752716064453,-11.190498559570312
3612781413099,2.842785832,1,0.229843359375,1.7453730102539062,-11.170147845458983
3612783413932,2.844786665,1,0.2262520568847656,1.7393875061035156,-11.146205828857422
3612785414141,2.846786874,1,0.22864625854492185,1.7597382202148437,-11.164162341308593
3612787413776,2.848786509,1,0.24061726684570311,1.7489643127441405,-11.180921752929686
