timestamp_ns,t_s,sensor_id,ax,ay,az
4926022207963,0.058831771,1,0.2454056701660156,1.7369933044433592,-11.17852755126953
4926026165254,0.062789062,1,0.181959326171875,1.7178396911621092,-11.15338843383789
4926030163015,0.066786823,1,0.21906945190429686,1.7034744812011717,-11.125855114746093
4926034169629,0.070793437,1,0.201112939453125,1.7298106994628906,-11.159373937988281
4926038165046,0.074788854,1,0.2597708801269531,1.7705121276855467,-11.203666668701171
4926042162285,0.078786093,1,0.19153613281249998,1.7501614135742187,-11.123460913085937
4926046161660,0.082785468,1,0.22864625854492185,1.7477672119140624,-11.113884106445312
4926050162963,0.086786771,1,0.21906945190429686,1.7322049011230467,-11.174936248779296
4926054162702,0.09078651,1,0.2346317626953125,1.7669208251953124,-11.165359442138671
4926058161400,0.094785208,1,0.239420166015625,1.6927005737304686,-11.209652172851563
4926062160827,0.098784635,1,0.2262520568847656,1.7525556152343749,-11.167753643798827
4926066162025,0.102785833,1,0.2609679809570312,1.7800889343261719,-11.165359442138671
4926070161296,0.106785104,1,0.22026655273437498,1.7357962036132812,-11.155782635498046
4926074160827,0.110784635,1,0.24779987182617186,1.7489643127441405,-11.213243475341796
4926078161140,0.114784948,1,0.22505495605468748,1.725022296142578,-11.2240173828125
4926082161140,0.118784948,1,0.25258827514648435,1.7549498168945312,-11.16057103881836
4926086161140,0.122784948,1,0.2705447875976562,1.7369933044433592,-11.19887826538086
4926090161192,0.126785,1,0.19393033447265623,1.7010802795410156,-11.143811627197264
4926094160723,0.130784531,1,0.21906945190429686,1.7477672119140624,-11.26831011352539
4926098161244,0.134785052,1,0.20350714111328125,1.7717092285156248,-11.19887826538086
4926102161400,0.138785208,1,0.20829554443359374,1.695094775390625,-11.234791290283203
4926106161973,0.142785781,1,0.22864625854492185,1.7381904052734374,-11.19169566040039
4926110161869,0.146785677,1,0.22864625854492185,1.7393875061035156,-11.257536206054686
4926114161296,0.150785104,1,0.16879121704101563,1.6915034729003906,-11.156979736328124
4926118161140,0.154784948,1,0.22385785522460935,1.7836802368164062,-11.158176837158203
4926122161608,0.158785416,1,0.21906945190429686,1.7274164978027342,-11.21683477783203
4926126160827,0.162784635,1,0.24061726684570311,1.7561469177246092,-11.15338843383789
4926130161192,0.166785,1,0.2166752502441406,1.7118541870117185,-11.142614526367186
4926134160827,0.170784635,1,0.26336218261718747,1.7405846069335937,-11.200075366210937
4926138161244,0.174785052,1,0.24061726684570311,1.6891092712402342,-11.180921752929686
4926142161921,0.178785729,1,0.19153613281249998,1.7214309936523438,-11.17254204711914
4926146161192,0.182785,1,0.2214636535644531,1.7489643127441405,-11.162965240478515
4926150161296,0.186785104,1,0.2262520568847656,1.7669208251953124,-11.164162341308593
4926154161504,0.190785312,1,0.2705447875976562,1.7226280944824217,-11.274295617675781
4926158161296,0.194785104,1,0.20350714111328125,1.7429788085937499,-11.183315954589844
4926162161244,0.198785052,1,0.2454056701660156,1.7549498168945312,-11.159373937988281
4926166161035,0.202784843,1,0.23104046020507812,1.7334020019531249,-11.214440576171874
4926170161504,0.206785312,1,0.24181436767578124,1.7453730102539062,-11.262324609375
4926174161765,0.210785573,1,0.2346317626953125,1.7609353210449217,-11.143811627197264
4926178159525,0.214783333,1,0.19153613281249998,1.7597382202148437,-11.250353601074218
4926182161869,0.218785677,1,0.22864625854492185,1.7190367919921874,-11.200075366210937
4926186161296,0.222785104,1,0.229843359375,1.7669208251953124,-11.19887826538086
4926190160671,0.226784479,1,0.26216508178710934,1.7465701110839842,-11.161768139648437
4926194161452,0.23078526,1,0.2741360900878906,1.6927005737304686,-11.158176837158203
4926198161400,0.234785208,1,0.24660277099609373,1.7453730102539062,-11.213243475341796
4926202161556,0.238785364,1,0.2597708801269531,1.7022773803710936,-11.164162341308593
4926206161712,0.24278552,1,0.229843359375,1.7286135986328124,-11.186907257080078
4926210161348,0.246785156,1,0.2442085693359375,1.7094599853515624,-11.17254204711914
4926214161660,0.250785468,1,0.23104046020507812,1.7417817077636717,-11.17254204711914
4926218161035,0.254784843,1,0.22026655273437498,1.7669208251953124,-11.196484063720703
4926222161348,0.258785156,1,0.22505495605468748,1.7561469177246092,-11.17852755126953
4926226161296,0.262785104,1,0.1879448303222656,1.7477672119140624,-11.267113012695312
4926230161869,0.266785677,1,0.25258827514648435,1.7621324218749999,-11.226411584472656
4926234161192,0.270785,1,0.1867477294921875,1.675941162109375,-11.23000288696289
4926238160046,0.274783854,1,0.2645592834472656,1.7429788085937499,-11.118672509765624
4926242161817,0.278785625,1,0.1867477294921875,1.7274164978027342,-11.167753643798827
4926246161452,0.28278526,1,0.229843359375,1.7322049011230467,-11.16057103881836
4926250161244,0.286785052,1,0.22505495605468748,1.7549498168945312,-11.200075366210937
4926254161765,0.290785573,1,0.25258827514648435,1.7764976318359373,-11.201272467041015
4926258161296,0.294785104,1,0.1927332336425781,1.7573440185546874,-11.23000288696289
4926262161869,0.298785677,1,0.21188684692382811,1.7405846069335937,-11.180921752929686
4926266161348,0.302785156,1,0.23822306518554687,1.6615759521484375,-11.154585534667968
4926270159369,0.306783177,1,0.26216508178710934,1.772906329345703,-11.253944903564452
4926274161869,0.310785677,1,0.2501940734863281,1.7369933044433592,-11.209652172851563
4926278161400,0.314785208,1,0.21787235107421873,1.7453730102539062,-11.137826123046874
4926282161296,0.318785104,1,0.19871873779296872,1.7429788085937499,-11.143811627197264
4926286160879,0.322784687,1,0.22864625854492185,1.7513585144042967,-11.246762298583985
4926290161660,0.326785468,1,0.21787235107421873,1.707065783691406,-11.227608685302734
4926294160619,0.330784427,1,0.2537853759765625,1.68551796875,-11.251550701904296
4926298160879,0.334784687,1,0.16519991455078123,1.7202338928222656,-11.200075366210937
4926302159785,0.338783593,1,0.2501940734863281,1.7573440185546874,-11.159373937988281
4926306161452,0.34278526,1,0.24660277099609373,1.7860744384765623,-11.200075366210937
4926310160983,0.346784791,1,0.21787235107421873,1.6998831787109374,-11.168950744628905
4926314161452,0.35078526,1,0.23343466186523437,1.7106570861816406,-11.152191333007812
4926318160723,0.354784531,1,0.23104046020507812,1.7118541870117185,-11.206060870361327
4926322161452,0.35878526,1,0.21188684692382811,1.705868682861328,-11.170147845458983
4926326161296,0.362785104,1,0.2501940734863281,1.7034744812011717,-11.162965240478515
4926330162181,0.366785989,1,0.2166752502441406,1.7238251953125,-11.171344946289063
4926334160879,0.370784687,1,0.239420166015625,1.725022296142578,-11.170147845458983
4926338161140,0.374784948,1,0.23702596435546874,1.7393875061035156,-11.23000288696289
4926342160515,0.378784323,1,0.24061726684570311,1.763329522705078,-11.184513055419922
4926346160202,0.38278401,1,0.1975216369628906,1.7178396911621092,-11.166556542968749
4926350161087,0.386784895,1,0.1879448303222656,1.7238251953125,-11.196484063720703
4926354160775,0.390784583,1,0.19991583862304688,1.687912170410156,-11.174936248779296
4926358161348,0.394785156,1,0.2346317626953125,1.7214309936523438,-11.215637677001952
4926362160931,0.398784739,1,0.21428104858398436,1.7513585144042967,-11.238382592773437
4926366160254,0.402784062,1,0.20829554443359374,1.7202338928222656,-11.227608685302734
4926370162858,0.406786666,1,0.2597708801269531,1.7549498168945312,-11.194089862060546
4926374160462,0.41078427,1,0.239420166015625,1.7262193969726563,-11.173739147949219
4926378161140,0.414784948,1,0.19512743530273435,1.7262193969726563,-11.21084927368164
4926382160983,0.418784791,1,0.1927332336425781,1.7130512878417967,-11.159373937988281
4926386161244,0.422785052,1,0.22744915771484372,1.7405846069335937,-11.215637677001952
4926390160515,0.426784323,1,0.2154781494140625,1.7274164978027342,-11.18571015625
4926394160931,0.430784739,1,0.20709844360351562,1.7393875061035156,-11.121066711425781
4926398160306,0.434784114,1,0.22266075439453123,1.7657237243652342,-11.182118853759764
4926402168327,0.438792135,1,0.20829554443359374,1.734599102783203,-11.150994232177734
4926406163483,0.442787291,1,0.23582886352539062,1.7764976318359373,-11.222820281982422
4926410161087,0.446784895,1,0.23822306518554687,1.7202338928222656,-11.2240173828125
4926414161035,0.450784843,1,0.19632453613281248,1.705868682861328,-11.18571015625
4926418160983,0.454784791,1,0.25139117431640623,1.7573440185546874,-11.148600030517578
4926422161087,0.458784895,1,0.21787235107421873,1.7645266235351562,-11.200075366210937
4926426159577,0.462783385,1,0.20949264526367187,1.772906329345703,-11.141417425537108
4926430160775,0.466784583,1,0.201112939453125,1.725022296142578,-11.098321795654297
4926434161035,0.470784843,1,0.22744915771484372,1.7322049011230467,-11.184513055419922
4926438160879,0.474784687,1,0.2597708801269531,1.7501614135742187,-11.145008728027342
4926442160671,0.478784479,1,0.239420166015625,1.7298106994628906,-11.225214483642578
4926446160619,0.482784427,1,0.21428104858398436,1.7190367919921874,-11.170147845458983
4926450161660,0.486785468,1,0.23822306518554687,1.695094775390625,-11.256339105224608
4926454160775,0.490784583,1,0.23104046020507812,1.7022773803710936,-11.167753643798827
4926458161192,0.494785,1,0.2442085693359375,1.744175909423828,-11.225214483642578
4926462160931,0.498784739,1,0.239420166015625,1.7298106994628906,-11.227608685302734
4926466162077,0.502785885,1,0.21428104858398436,1.7286135986328124,-11.222820281982422
4926470160202,0.50678401,1,0.23343466186523437,1.715445489501953,-11.159373937988281
4926474159004,0.510782812,1,0.2501940734863281,1.7525556152343749,-11.170147845458983
4926478160567,0.514784375,1,0.23582886352539062,1.7669208251953124,-11.225214483642578
4926482160931,0.518784739,1,0.24181436767578124,1.7741034301757812,-11.092336291503905
4926486160567,0.522784375,1,0.239420166015625,1.714248388671875,-11.313799945068359
4926490161452,0.52678526,1,0.25139117431640623,1.7764976318359373,-11.119869610595703
4926494161035,0.530784843,1,0.2059013427734375,1.734599102783203,-11.06360587158203
4926498160462,0.53478427,1,0.21428104858398436,1.7453730102539062,-11.318588348388671
4926502160827,0.538784635,1,0.20350714111328125,1.763329522705078,-11.12226381225586
4926506161035,0.542784843,1,0.23702596435546874,1.7262193969726563,-11.082759484863281
4926510160410,0.546784218,1,0.296881005859375,1.6699556579589843,-11.28746372680664
4926514161504,0.550785312,1,0.2501940734863281,1.705868682861328,-11.097124694824219
4926518160879,0.554784687,1,0.22385785522460935,1.7753005310058592,-11.195286962890624
4926522161817,0.558785625,1,0.22026655273437498,1.7214309936523438,-11.280281121826171
4926526159108,0.562782916,1,0.2609679809570312,1.7238251953125,-11.049240661621093
4926530160931,0.566784739,1,0.21188684692382811,1.7465701110839842,-11.258733306884764
4926534160983,0.570784791,1,0.229843359375,1.7501614135742187,-11.334150659179686
4926538161192,0.574785,1,0.24899697265624998,1.744175909423828,-11.049240661621093
4926542160358,0.578784166,1,0.2214636535644531,1.7453730102539062,-11.212046374511718
4926546161712,0.58278552,1,0.27174188842773433,1.7465701110839842,-11.303026037597656
4926550160775,0.586784583,1,0.22385785522460935,1.7106570861816406,-11.08395658569336
4926554160254,0.590784062,1,0.21188684692382811,1.7166425903320313,-11.319785449218749
4926558160254,0.594784062,1,0.25139117431640623,1.7130512878417967,-11.18571015625
4926562160567,0.598784375,1,0.2154781494140625,1.7549498168945312,-11.067197174072264
4926566160619,0.602784427,1,0.23822306518554687,1.7405846069335937,-11.201272467041015
4926570161296,0.606785104,1,0.21308394775390624,1.7381904052734374,-11.281478222656249
4926574161192,0.610785,1,0.19393033447265623,1.725022296142578,-11.155782635498046
4926578161556,0.614785364,1,0.23582886352539062,1.7310078002929687,-11.166556542968749
4926582161296,0.618785104,1,0.24660277099609373,1.7118541870117185,-11.04564935913086
4926586161348,0.622785156,1,0.21428104858398436,1.7705121276855467,-11.332953558349608
4926590160723,0.626784531,1,0.20350714111328125,1.7405846069335937,-11.110292803955078
4926594161139,0.630784947,1,0.17836802368164062,1.7274164978027342,-11.189301458740234
4926598160567,0.634784375,1,0.21428104858398436,1.715445489501953,-11.228805786132812
4926602160931,0.638784739,1,0.25139117431640623,1.7298106994628906,-11.332953558349608
4926606160931,0.642784739,1,0.26336218261718747,1.7597382202148437,-11.137826123046874
4926610161608,0.646785416,1,0.20709844360351562,1.7082628845214842,-11.049240661621093
4926614160619,0.650784427,1,0.2166752502441406,1.715445489501953,-11.207257971191405
4926618161139,0.654784947,1,0.20470424194335937,1.6986860778808592,-11.33175645751953
4926622161191,0.658784999,1,0.14006079711914063,1.7202338928222656,-11.238382592773437
4926626160983,0.662784791,1,0.28730419921875,1.7549498168945312,-11.225214483642578
4926630161087,0.666784895,1,0.16879121704101563,1.763329522705078,-11.149797131347656
4926634161139,0.670784947,1,0.25258827514648435,1.7106570861816406,-11.186907257080078
4926638160931,0.674784739,1,0.22744915771484372,1.7477672119140624,-11.166556542968749
4926642161348,0.678785156,1,0.23343466186523437,1.7190367919921874,-11.215637677001952
4926646161348,0.682785156,1,0.23104046020507812,1.7573440185546874,-11.182118853759764
4926650161452,0.68678526,1,0.2693476867675781,1.7298106994628906,-11.150994232177734
4926654160098,0.690783906,1,0.2346317626953125,1.7764976318359373,-11.127052215576171
4926658160775,0.694784583,1,0.22026655273437498,1.763329522705078,-11.137826123046874
4926662160879,0.698784687,1,0.2501940734863281,1.7741034301757812,-11.168950744628905
4926666160410,0.702784218,1,0.19033903198242186,1.7381904052734374,-11.155782635498046
4926670161400,0.706785208,1,0.23104046020507812,1.7034744812011717,-11.159373937988281
4926674159212,0.71078302,1,0.20829554443359374,1.7034744812011717,-11.142614526367186
4926678160671,0.714784479,1,0.23343466186523437,1.7525556152343749,-11.231199987792968
4926682160775,0.718784583,1,0.19871873779296872,1.7214309936523438,-11.1474029296875
4926686160671,0.722784479,1,0.20350714111328125,1.7118541870117185,-11.154585534667968
4926690161348,0.726785156,1,0.239420166015625,1.7334020019531249,-11.165359442138671
4926694161348,0.730785156,1,0.2813186950683594,1.7178396911621092,-11.220426080322264
4926698161191,0.734784999,1,0.2059013427734375,1.7573440185546874,-11.166556542968749
4926702161452,0.73878526,1,0.24660277099609373,1.7561469177246092,-11.154585534667968
4926706161608,0.742785416,1,0.22744915771484372,1.7621324218749999,-11.164162341308593
4926710160358,0.746784166,1,0.22385785522460935,1.7202338928222656,-11.188104357910156
4926714161087,0.750784895,1,0.1975216369628906,1.696291876220703,-11.218031878662108
4926718160775,0.754784583,1,0.229843359375,1.7501614135742187,-11.231199987792968
4926722160983,0.758784791,1,0.21906945190429686,1.725022296142578,-11.173739147949219
4926726160931,0.762784739,1,0.22864625854492185,1.7310078002929687,-11.214440576171874
4926730160566,0.766784374,1,0.23582886352539062,1.7226280944824217,-11.171344946289063
4926734160931,0.770784739,1,0.21906945190429686,1.7262193969726563,-11.167753643798827
4926738161400,0.774785208,1,0.20829554443359374,1.7573440185546874,-11.204863769531249
4926742161191,0.778784999,1,0.2262520568847656,1.7357962036132812,-11.180921752929686
4926746161348,0.782785156,1,0.2214636535644531,1.7369933044433592,-11.170147845458983
4926750160775,0.786784583,1,0.1879448303222656,1.714248388671875,-11.214440576171874
4926754160827,0.790784635,1,0.2501940734863281,1.6891092712402342,-11.162965240478515
4926758161191,0.794784999,1,0.17357962036132812,1.629254229736328,-11.166556542968749
4926762160514,0.798784322,1,0.21787235107421873,1.6915034729003906,-11.117475408935546
4926766160775,0.802784583,1,0.2537853759765625,1.7417817077636717,-11.159373937988281
4926770161452,0.80678526,1,0.21308394775390624,1.705868682861328,-11.232397088623046
4926774161035,0.810784843,1,0.19991583862304688,1.7118541870117185,-11.167753643798827
4926778167910,0.814791718,1,0.239420166015625,1.707065783691406,-11.156979736328124
4926782161296,0.818785104,1,0.229843359375,1.696291876220703,-11.17852755126953
4926786162441,0.822786249,1,0.23104046020507812,1.7298106994628906,-11.158176837158203
4926790161087,0.826784895,1,0.23343466186523437,1.7130512878417967,-11.226411584472656
4926794160671,0.830784479,1,0.23702596435546874,1.7597382202148437,-11.221623181152344
4926798161087,0.834784895,1,0.21787235107421873,1.7262193969726563,-11.133037719726563
4926802161400,0.838785208,1,0.21188684692382811,1.7106570861816406,-11.228805786132812
4926806160775,0.842784583,1,0.19991583862304688,1.7525556152343749,-11.207257971191405
4926810161139,0.846784947,1,0.20350714111328125,1.7585411193847655,-11.150994232177734
4926814160306,0.850784114,1,0.26815058593749996,1.7334020019531249,-11.149797131347656
4926818161816,0.854785624,1,0.21068974609375,1.7130512878417967,-11.227608685302734
4926822160931,0.858784739,1,0.23223756103515625,1.695094775390625,-11.174936248779296
4926826161400,0.862785208,1,0.19153613281249998,1.7286135986328124,-11.269507214355468
4926830160410,0.866784218,1,0.22266075439453123,1.7166425903320313,-11.135431921386719
4926834161035,0.870784843,1,0.2346317626953125,1.7561469177246092,-11.154585534667968
4926838160931,0.874784739,1,0.18315642700195311,1.7405846069335937,-11.222820281982422
4926842160879,0.878784687,1,0.2154781494140625,1.7693150268554687,-11.17852755126953
4926846160566,0.882784374,1,0.25139117431640623,1.7836802368164062,-11.247959399414063
4926850161243,0.886785051,1,0.2346317626953125,1.7681179260253905,-11.227608685302734
4926854160306,0.890784114,1,0.25258827514648435,1.7405846069335937,-11.148600030517578
4926858160723,0.894784531,1,0.15682020874023436,1.7262193969726563,-11.164162341308593
4926862161556,0.898785364,1,0.2561795776367187,1.7585411193847655,-11.206060870361327
4926866160879,0.902784687,1,0.23582886352539062,1.7166425903320313,-11.136629022216797
4926870161191,0.906784999,1,0.24899697265624998,1.687912170410156,-11.165359442138671
4926874160775,0.910784583,1,0.20709844360351562,1.7549498168945312,-11.184513055419922
4926878160618,0.914784426,1,0.2166752502441406,1.7106570861816406,-11.227608685302734
4926882161087,0.918784895,1,0.20949264526367187,1.7310078002929687,-11.159373937988281
4926886160046,0.922783854,1,0.23223756103515625,1.7094599853515624,-11.14022032470703
4926890160202,0.92678401,1,0.239420166015625,1.7322049011230467,-11.204863769531249
4926894160410,0.930784218,1,0.19632453613281248,1.7357962036132812,-11.171344946289063
4926898161191,0.934784999,1,0.19991583862304688,1.715445489501953,-11.127052215576171
4926902160723,0.938784531,1,0.24660277099609373,1.7741034301757812,-11.154585534667968
4926906161400,0.942785208,1,0.2501940734863281,1.7286135986328124,-11.16057103881836
4926910160358,0.946784166,1,0.2501940734863281,1.7094599853515624,-11.192892761230468
4926914160410,0.950784218,1,0.239420166015625,1.7393875061035156,-11.143811627197264
4926918159785,0.954783593,1,0.22026655273437498,1.7753005310058592,-11.176133349609374
4926922159785,0.958783593,1,0.24779987182617186,1.7262193969726563,-11.166556542968749
4926926162389,0.962786197,1,0.20350714111328125,1.7741034301757812,-11.161768139648437
4926930160983,0.966784791,1,0.24779987182617186,1.714248388671875,-11.170147845458983
4926934160671,0.970784479,1,0.2549824768066406,1.7022773803710936,-11.165359442138671
4926938161348,0.974785156,1,0.19153613281249998,1.7405846069335937,-11.197681164550781
4926942161035,0.978784843,1,0.16998831787109375,1.7585411193847655,-11.173739147949219
4926946160723,0.982784531,1,0.21906945190429686,1.7298106994628906,-11.119869610595703
4926950161400,0.986785208,1,0.25258827514648435,1.7405846069335937,-11.174936248779296
4926954160775,0.990784583,1,0.239420166015625,1.707065783691406,-11.195286962890624
4926958160462,0.99478427,1,0.23104046020507812,1.7298106994628906,-11.156979736328124
4926962161660,0.998785468,1,0.19393033447265623,1.734599102783203,-11.2240173828125
4926966160462,1.00278427,1,0.239420166015625,1.7477672119140624,-11.154585534667968
4926970161243,1.006785051,1,0.2454056701660156,1.7298106994628906,-11.202469567871093
4926974159681,1.010783489,1,0.20829554443359374,1.7357962036132812,-11.16057103881836
4926978158848,1.014782656,1,0.2501940734863281,1.7693150268554687,-11.155782635498046
4926982161452,1.01878526,1,0.21188684692382811,1.714248388671875,-11.177330450439452
4926986160775,1.022784583,1,0.14604630126953125,1.7094599853515624,-11.136629022216797
4926990161139,1.026784947,1,0.20350714111328125,1.7130512878417967,-11.265915911865234
4926994161087,1.030784895,1,0.21787235107421873,1.7238251953125,-11.171344946289063
4926998160462,1.03478427,1,0.2537853759765625,1.7094599853515624,-11.142614526367186
4927002160879,1.038784687,1,0.23822306518554687,1.7669208251953124,-11.141417425537108
4927006160618,1.042784426,1,0.23582886352539062,1.7453730102539062,-11.148600030517578
4927010162025,1.046785833,1,0.24779987182617186,1.7369933044433592,-11.196484063720703
4927014161660,1.050785468,1,0.18914193115234373,1.7525556152343749,-11.2240173828125
4927018160983,1.054784791,1,0.2346317626953125,1.7214309936523438,-11.197681164550781
4927022161764,1.058785572,1,0.201112939453125,1.7202338928222656,-11.167753643798827
4927026161348,1.062785156,1,0.2346317626953125,1.7286135986328124,-11.161768139648437
4927030160410,1.066784218,1,0.22385785522460935,1.7465701110839842,-11.2240173828125
4927034160410,1.070784218,1,0.20949264526367187,1.7286135986328124,-11.208455072021483
4927038160150,1.074783958,1,0.2346317626953125,1.715445489501953,-11.159373937988281
4927042160723,1.078784531,1,0.24181436767578124,1.6938976745605467,-11.202469567871093
4927046160723,1.082784531,1,0.22026655273437498,1.7381904052734374,-11.145008728027342
4927050160671,1.086784479,1,0.20350714111328125,1.734599102783203,-11.15338843383789
4927054161035,1.090784843,1,0.20829554443359374,1.707065783691406,-11.196484063720703
4927058162025,1.094785833,1,0.18076222534179687,1.772906329345703,-11.215637677001952
4927062161608,1.098785416,1,0.2537853759765625,1.7286135986328124,-11.105504400634764
4927066160775,1.102784583,1,0.229843359375,1.7393875061035156,-11.130643518066405
4927070160983,1.106784791,1,0.2059013427734375,1.7202338928222656,-11.238382592773437
4927074161295,1.110785103,1,0.23822306518554687,1.7310078002929687,-11.226411584472656
4927078161608,1.114785416,1,0.229843359375,1.7214309936523438,-11.173739147949219
4927082161504,1.118785312,1,0.27293898925781246,1.7238251953125,-11.141417425537108
4927086161712,1.12278552,1,0.24301146850585936,1.7513585144042967,-11.17852755126953
4927090161660,1.126785468,1,0.2166752502441406,1.7190367919921874,-11.13423482055664
4927094160827,1.130784635,1,0.2154781494140625,1.7393875061035156,-11.222820281982422
4927098160723,1.134784531,1,0.2537853759765625,1.7238251953125,-11.213243475341796
4927102160254,1.138784062,1,0.21787235107421873,1.7800889343261719,-11.19887826538086
4927106161660,1.142785468,1,0.18435352783203124,1.7322049011230467,-11.207257971191405
4927110160879,1.146784687,1,0.20231004028320312,1.7094599853515624,-11.192892761230468
4927114161504,1.150785312,1,0.2262520568847656,1.7238251953125,-11.222820281982422
4927118161348,1.154785156,1,0.2920926025390625,1.7501614135742187,-11.18571015625
4927122161243,1.158785051,1,0.18315642700195311,1.7166425903320313,-11.200075366210937
4927126161087,1.162784895,1,0.239420166015625,1.7549498168945312,-11.17254204711914
4927130161035,1.166784843,1,0.22864625854492185,1.7585411193847655,-11.208455072021483
4927134161035,1.170784843,1,0.21906945190429686,1.753752716064453,-11.206060870361327
4927138160670,1.174784478,1,0.18315642700195311,1.7190367919921874,-11.208455072021483
4927142160983,1.178784791,1,0.24061726684570311,1.7717092285156248,-11.182118853759764
4927146161295,1.182785103,1,0.17836802368164062,1.7238251953125,-11.201272467041015
4927150161295,1.186785103,1,0.21068974609375,1.7130512878417967,-11.123460913085937
4927154166295,1.190790103,1,0.21188684692382811,1.7429788085937499,-11.189301458740234
4927158162598,1.194786406,1,0.2549824768066406,1.7334020019531249,-11.183315954589844
4927162161035,1.198784843,1,0.19153613281249998,1.734599102783203,-11.14022032470703
4927166161556,1.202785364,1,0.277727392578125,1.7417817077636717,-11.148600030517578
4927170159889,1.206783697,1,0.20829554443359374,1.7513585144042967,-11.197681164550781
4927174163118,1.210786926,1,0.229843359375,1.70467158203125,-11.188104357910156
4927178160723,1.214784531,1,0.23343466186523437,1.7681179260253905,-11.226411584472656
4927182160670,1.218784478,1,0.2214636535644531,1.7106570861816406,-11.228805786132812
4927186161556,1.222785364,1,0.2262520568847656,1.7585411193847655,-11.203666668701171
4927190161035,1.226784843,1,0.22505495605468748,1.7190367919921874,-11.17254204711914
4927194160723,1.230784531,1,0.21308394775390624,1.7573440185546874,-11.183315954589844
4927198161191,1.234784999,1,0.2214636535644531,1.7393875061035156,-11.192892761230468
4927202161191,1.238784999,1,0.2693476867675781,1.7034744812011717,-11.200075366210937
4927206160931,1.242784739,1,0.22505495605468748,1.7417817077636717,-11.170147845458983
4927210160723,1.246784531,1,0.24660277099609373,1.7741034301757812,-11.145008728027342
4927214160983,1.250784791,1,0.229843359375,1.7310078002929687,-11.19169566040039
4927218161920,1.254785728,1,0.20470424194335937,1.7130512878417967,-11.167753643798827
4927222160358,1.258784166,1,0.22864625854492185,1.7453730102539062,-11.121066711425781
4927226160566,1.262784374,1,0.2753331909179687,1.7741034301757812,-11.195286962890624
4927230161556,1.266785364,1,0.2262520568847656,1.7130512878417967,-11.177330450439452
4927234161139,1.270784947,1,0.23343466186523437,1.7178396911621092,-11.221623181152344
4927238160827,1.274784635,1,0.19393033447265623,1.705868682861328,-11.209652172851563
4927242161608,1.278785416,1,0.1771709228515625,1.7405846069335937,-11.232397088623046
4927246159160,1.282782968,1,0.23822306518554687,1.6986860778808592,-11.148600030517578
4927250162077,1.286785885,1,0.21428104858398436,1.715445489501953,-11.104307299804686
4927254158639,1.290782447,1,0.2825157958984375,1.7022773803710936,-11.218031878662108
4927258162545,1.294786353,1,0.19632453613281248,1.7872715393066405,-11.192892761230468
4927262161348,1.298785156,1,0.21188684692382811,1.687912170410156,-11.145008728027342
4927266160514,1.302784322,1,0.17357962036132812,1.695094775390625,-11.19887826538086
4927270160827,1.306784635,1,0.2262520568847656,1.7298106994628906,-11.2240173828125
4927274160462,1.31078427,1,0.19153613281249998,1.7178396911621092,-11.121066711425781
4927278161295,1.314785103,1,0.258573779296875,1.7310078002929687,-11.142614526367186
4927282161452,1.31878526,1,0.2166752502441406,1.7477672119140624,-11.158176837158203
4927286161295,1.322785103,1,0.229843359375,1.608903515625,-11.207257971191405
4927290160566,1.326784374,1,0.29927520751953124,1.696291876220703,-11.162965240478515
4927294159420,1.330783228,1,0.23223756103515625,1.7202338928222656,-11.188104357910156
4927298161400,1.334785208,1,0.19871873779296872,1.7417817077636717,-11.225214483642578
4927302160618,1.338784426,1,0.22864625854492185,1.7226280944824217,-11.220426080322264
4927306160827,1.342784635,1,0.25258827514648435,1.7417817077636717,-11.18571015625
4927310160722,1.34678453,1,0.22266075439453123,1.725022296142578,-11.196484063720703
4927314161400,1.350785208,1,0.20949264526367187,1.7202338928222656,-11.194089862060546
4927318161087,1.354784895,1,0.2346317626953125,1.7357962036132812,-11.21084927368164
4927322161920,1.358785728,1,0.2609679809570312,1.714248388671875,-11.14022032470703
4927326159993,1.362783801,1,0.24899697265624998,1.68551796875,-11.174936248779296
4927330162129,1.366785937,1,0.25258827514648435,1.7453730102539062,-11.167753643798827
4927334161139,1.370784947,1,0.22864625854492185,1.7022773803710936,-11.141417425537108
4927338161504,1.374785312,1,0.22385785522460935,1.7657237243652342,-11.226411584472656
4927342161243,1.378785051,1,0.21068974609375,1.7585411193847655,-11.148600030517578
4927346161608,1.382785416,1,0.17597382202148437,1.734599102783203,-11.183315954589844
4927350160514,1.386784322,1,0.2262520568847656,1.7298106994628906,-11.17852755126953
4927354160931,1.390784739,1,0.2454056701660156,1.734599102783203,-11.182118853759764
4927358161191,1.394784999,1,0.21308394775390624,1.714248388671875,-11.1474029296875
4927362161660,1.398785468,1,0.24660277099609373,1.714248388671875,-11.196484063720703
4927366160931,1.402784739,1,0.20829554443359374,1.763329522705078,-11.194089862060546
4927370161087,1.406784895,1,0.22505495605468748,1.763329522705078,-11.195286962890624
4927374161504,1.410785312,1,0.239420166015625,1.734599102783203,-11.19887826538086
4927378161452,1.41478526,1,0.23702596435546874,1.7322049011230467,-11.2240173828125
4927382160931,1.418784739,1,0.23223756103515625,1.7274164978027342,-11.17254204711914
4927386161191,1.422784999,1,0.20231004028320312,1.696291876220703,-11.166556542968749
4927390161087,1.426784895,1,0.22385785522460935,1.7094599853515624,-11.182118853759764
4927394160983,1.430784791,1,0.21787235107421873,1.695094775390625,-11.131840618896483
4927398160775,1.434784583,1,0.26815058593749996,1.7274164978027342,-11.155782635498046
4927402161920,1.438785728,1,0.23582886352539062,1.7034744812011717,-11.228805786132812
4927406160931,1.442784739,1,0.24899697265624998,1.7226280944824217,-11.206060870361327
4927410161764,1.446785572,1,0.1867477294921875,1.7298106994628906,-11.143811627197264
4927414160566,1.450784374,1,0.20231004028320312,1.7274164978027342,-11.192892761230468
4927418159212,1.45478302,1,0.20231004028320312,1.7477672119140624,-11.148600030517578
4927422161556,1.458785364,1,0.20709844360351562,1.7525556152343749,-11.167753643798827
4927426161556,1.462785364,1,0.2645592834472656,1.7214309936523438,-11.124658013916015
4927430161087,1.466784895,1,0.21068974609375,1.7310078002929687,-11.16057103881836
4927434161243,1.470785051,1,0.24779987182617186,1.7489643127441405,-11.18571015625
4927438160670,1.474784478,1,0.18076222534179687,1.6915034729003906,-11.212046374511718
4927442160827,1.478784635,1,0.24181436767578124,1.7369933044433592,-11.128249316406249
4927446161295,1.482785103,1,0.23582886352539062,1.7334020019531249,-11.182118853759764
4927450161712,1.48678552,1,0.24181436767578124,1.686715069580078,-11.149797131347656
4927454175150,1.490798958,1,0.22385785522460935,1.7274164978027342,-11.200075366210937
4927458167858,1.494791666,1,0.23702596435546874,1.7310078002929687,-11.10191309814453
4927462161347,1.498785155,1,0.22864625854492185,1.7381904052734374,-11.276689819335937
4927466162597,1.502786405,1,0.23223756103515625,1.7178396911621092,-11.176133349609374
4927470161191,1.506784999,1,0.25737667846679685,1.744175909423828,-11.218031878662108
4927474159160,1.510782968,1,0.24779987182617186,1.7262193969726563,-11.164162341308593
4927478161816,1.514785624,1,0.21308394775390624,1.7334020019531249,-11.234791290283203
4927482161295,1.518785103,1,0.19632453613281248,1.7609353210449217,-11.162965240478515
4927486162129,1.522785937,1,0.2166752502441406,1.7274164978027342,-11.128249316406249
4927490161087,1.526784895,1,0.1975216369628906,1.7274164978027342,-11.256339105224608
4927494160775,1.530784583,1,0.2442085693359375,1.7262193969726563,-11.164162341308593
4927498160983,1.534784791,1,0.18914193115234373,1.7477672119140624,-11.17852755126953
4927502160774,1.538784582,1,0.26336218261718747,1.782483135986328,-11.235988391113281
4927506161139,1.542784947,1,0.23104046020507812,1.7082628845214842,-11.156979736328124
4927510161139,1.546784947,1,0.25737667846679685,1.7082628845214842,-11.215637677001952
4927514161035,1.550784843,1,0.24899697265624998,1.7226280944824217,-11.19887826538086
4927518160514,1.554784322,1,0.2154781494140625,1.7489643127441405,-11.225214483642578
4927522160149,1.558783957,1,0.21787235107421873,1.7238251953125,-11.227608685302734
4927526160931,1.562784739,1,0.27293898925781246,1.715445489501953,-11.18571015625
4927530165045,1.566788853,1,0.2059013427734375,1.707065783691406,-11.186907257080078
4927534163118,1.570786926,1,0.21308394775390624,1.7549498168945312,-11.207257971191405
4927538161556,1.574785364,1,0.21428104858398436,1.68551796875,-11.171344946289063
4927542160670,1.578784478,1,0.25139117431640623,1.714248388671875,-11.09592759399414
4927546160618,1.582784426,1,0.21787235107421873,1.7262193969726563,-11.087547888183593
4927550158743,1.586782551,1,0.23702596435546874,1.7238251953125,-11.152191333007812
4927554161920,1.590785728,1,0.239420166015625,1.7214309936523438,-11.168950744628905
4927558162389,1.594786197,1,0.19632453613281248,1.725022296142578,-11.19887826538086
4927562160566,1.598784374,1,0.24061726684570311,1.7513585144042967,-11.162965240478515
4927566160566,1.602784374,1,0.24061726684570311,1.7010802795410156,-11.146205828857422
4927570161712,1.60678552,1,0.21068974609375,1.6795324645996093,-11.200075366210937
4927574161399,1.610785207,1,0.21188684692382811,1.7393875061035156,-11.183315954589844
4927578161608,1.614785416,1,0.21906945190429686,1.715445489501953,-11.180921752929686
4927582161920,1.618785728,1,0.23343466186523437,1.714248388671875,-11.11508120727539
4927586161556,1.622785364,1,0.1927332336425781,1.70467158203125,-11.204863769531249
4927590161191,1.626784999,1,0.24061726684570311,1.7453730102539062,-11.154585534667968
4927594161504,1.630785312,1,0.18435352783203124,1.7118541870117185,-11.299434735107422
4927598160879,1.634784687,1,0.21308394775390624,1.7393875061035156,-11.179724652099608
4927602161295,1.638785103,1,0.2549824768066406,1.7609353210449217,-11.12226381225586
4927606161087,1.642784895,1,0.1771709228515625,1.7369933044433592,-11.166556542968749
4927610161556,1.646785364,1,0.19033903198242186,1.7226280944824217,-11.11508120727539
4927614160827,1.650784635,1,0.22266075439453123,1.7717092285156248,-11.171344946289063
4927618160722,1.65478453,1,0.23702596435546874,1.7022773803710936,-11.128249316406249
4927622160827,1.658784635,1,0.24181436767578124,1.7645266235351562,-11.18571015625
4927626161660,1.662785468,1,0.20709844360351562,1.7226280944824217,-11.168950744628905
4927630161191,1.666784999,1,0.19153613281249998,1.7262193969726563,-11.206060870361327
4927634161920,1.670785728,1,0.23702596435546874,1.7393875061035156,-11.17254204711914
4927638160879,1.674784687,1,0.24899697265624998,1.6998831787109374,-11.215637677001952
4927642160566,1.678784374,1,0.23343466186523437,1.6998831787109374,-11.139023223876952
4927646160462,1.68278427,1,0.21428104858398436,1.7274164978027342,-11.244368096923827
4927650160774,1.686784582,1,0.17238251953125,1.7513585144042967,-11.135431921386719
4927654160566,1.690784374,1,0.21188684692382811,1.697488977050781,-11.177330450439452
4927658159889,1.694783697,1,0.229843359375,1.7477672119140624,-11.179724652099608
4927662161920,1.698785728,1,0.26216508178710934,1.7334020019531249,-11.12226381225586
4927666159837,1.702783645,1,0.2657563842773437,1.7489643127441405,-11.190498559570312
4927670161087,1.706784895,1,0.20829554443359374,1.7166425903320313,-11.188104357910156
4927674161660,1.710785468,1,0.2346317626953125,1.7274164978027342,-11.186907257080078
4927678161347,1.714785155,1,0.21906945190429686,1.7226280944824217,-11.19169566040039
4927682162129,1.718785937,1,0.16041151123046873,1.7082628845214842,-11.207257971191405
4927686161504,1.722785312,1,0.21308394775390624,1.763329522705078,-11.117475408935546
4927690160983,1.726784791,1,0.23223756103515625,1.715445489501953,-11.133037719726563
4927694161295,1.730785103,1,0.2166752502441406,1.70467158203125,-11.183315954589844
4927698161139,1.734784947,1,0.22266075439453123,1.7369933044433592,-11.190498559570312
4927702161608,1.738785416,1,0.2346317626953125,1.7800889343261719,-11.11508120727539
4927706160566,1.742784374,1,0.23223756103515625,1.7298106994628906,-11.190498559570312
4927710161139,1.746784947,1,0.2597708801269531,1.6986860778808592,-11.212046374511718
4927714161452,1.75078526,1,0.21308394775390624,1.7405846069335937,-11.220426080322264
4927718160879,1.754784687,1,0.19393033447265623,1.763329522705078,-11.201272467041015
4927722161139,1.758784947,1,0.2549824768066406,1.7334020019531249,-11.150994232177734
4927726162181,1.762785989,1,0.24181436767578124,1.7082628845214842,-11.183315954589844
4927730161347,1.766785155,1,0.23343466186523437,1.7298106994628906,-11.19887826538086
4927734160670,1.770784478,1,0.24779987182617186,1.7405846069335937,-11.183315954589844
4927738161243,1.774785051,1,0.24061726684570311,1.6771382629394531,-11.180921752929686
4927742161347,1.778785155,1,0.17836802368164062,1.714248388671875,-11.21084927368164
4927746160879,1.782784687,1,0.1879448303222656,1.7298106994628906,-11.141417425537108
4927750160670,1.786784478,1,0.2214636535644531,1.7310078002929687,-11.130643518066405
4927754160462,1.79078427,1,0.22744915771484372,1.7489643127441405,-11.202469567871093
4927758161191,1.794784999,1,0.21308394775390624,1.7908628417968748,-11.136629022216797
4927762162129,1.798785937,1,0.1927332336425781,1.7226280944824217,-11.17254204711914
4927766161035,1.802784843,1,0.23702596435546874,1.7693150268554687,-11.186907257080078
4927770161295,1.806785103,1,0.20709844360351562,1.7489643127441405,-11.16057103881836
4927774161191,1.810784999,1,0.2597708801269531,1.7357962036132812,-11.215637677001952
4927778161243,1.814785051,1,0.20829554443359374,1.7369933044433592,-11.118672509765624
4927782161191,1.818784999,1,0.1879448303222656,1.7226280944824217,-11.239579693603515
4927786161451,1.822785259,1,0.19512743530273435,1.7465701110839842,-11.166556542968749
4927790162076,1.826785884,1,0.24181436767578124,1.7549498168945312,-11.228805786132812
4927794162076,1.830785884,1,0.22385785522460935,1.734599102783203,-11.208455072021483
4927798161451,1.834785259,1,0.2059013427734375,1.7274164978027342,-11.173739147949219
4927802161191,1.838784999,1,0.20231004028320312,1.7214309936523438,-11.197681164550781
4927806159472,1.84278328,1,0.2059013427734375,1.7848773376464844,-11.168950744628905
4927810161764,1.846785572,1,0.1640028137207031,1.7166425903320313,-11.088744989013671
4927814160462,1.85078427,1,0.22266075439453123,1.7597382202148437,-11.150994232177734
4927818160462,1.85478427,1,0.17477672119140625,1.697488977050781,-11.17852755126953
4927822161243,1.858785051,1,0.19153613281249998,1.7166425903320313,-11.202469567871093
4927826161347,1.862785155,1,0.23343466186523437,1.707065783691406,-11.161768139648437
4927830160566,1.866784374,1,0.24301146850585936,1.7262193969726563,-11.158176837158203
4927834161556,1.870785364,1,0.25258827514648435,1.7322049011230467,-11.212046374511718
4927838162024,1.874785832,1,0.21906945190429686,1.7453730102539062,-11.212046374511718
4927842161191,1.878784999,1,0.2753331909179687,1.7645266235351562,-11.195286962890624
4927846160618,1.882784426,1,0.20231004028320312,1.7453730102539062,-11.234791290283203
4927850160826,1.886784634,1,0.25258827514648435,1.6998831787109374,-11.18571015625
4927854161191,1.890784999,1,0.2214636535644531,1.7094599853515624,-11.156979736328124
4927858161035,1.894784843,1,0.21787235107421873,1.7202338928222656,-11.256339105224608
4927862161243,1.898785051,1,0.2346317626953125,1.7429788085937499,-11.189301458740234
4927866160410,1.902784218,1,0.29089550170898437,1.7585411193847655,-11.221623181152344
4927870160774,1.906784582,1,0.22864625854492185,1.7238251953125,-11.094730493164063
4927874160774,1.910784582,1,0.15322890625,1.7238251953125,-11.197681164550781
4927878161295,1.914785103,1,0.277727392578125,1.7705121276855467,-11.19887826538086
4927882161920,1.918785728,1,0.2454056701660156,1.6903063720703124,-11.156979736328124
4927886161087,1.922784895,1,0.2346317626953125,1.7609353210449217,-11.222820281982422
4927890161399,1.926785207,1,0.18555062866210936,1.715445489501953,-11.196484063720703
4927894161139,1.930784947,1,0.20350714111328125,1.7130512878417967,-11.171344946289063
4927898161504,1.934785312,1,0.19632453613281248,1.7010802795410156,-11.119869610595703
4927902161556,1.938785364,1,0.2166752502441406,1.7190367919921874,-11.109095703125
4927906168639,1.942792447,1,0.1927332336425781,1.7310078002929687,-11.21683477783203
4927910163795,1.946787603,1,0.24181436767578124,1.7166425903320313,-11.18571015625
4927914159629,1.950783437,1,0.24181436767578124,1.7465701110839842,-11.23000288696289
4927918161399,1.954785207,1,0.24061726684570311,1.7034744812011717,-11.156979736328124
4927922161295,1.958785103,1,0.16639701538085935,1.7118541870117185,-11.176133349609374
4927926160931,1.962784739,1,0.20949264526367187,1.7705121276855467,-11.186907257080078
4927930161139,1.966784947,1,0.23223756103515625,1.7022773803710936,-11.267113012695312
4927934161191,1.970784999,1,0.18914193115234373,1.7274164978027342,-11.246762298583985
4927938161660,1.974785468,1,0.24301146850585936,1.7788918334960937,-11.154585534667968
4927942160983,1.978784791,1,0.2154781494140625,1.7429788085937499,-11.137826123046874
4927946161087,1.982784895,1,0.27293898925781246,1.7393875061035156,-11.133037719726563
4927950160358,1.986784166,1,0.23582886352539062,1.7190367919921874,-11.174936248779296
4927954161399,1.990785207,1,0.16639701538085935,1.7657237243652342,-11.208455072021483
4927958160410,1.994784218,1,0.2537853759765625,1.7334020019531249,-11.23718549194336
4927962161243,1.998785051,1,0.21787235107421873,1.7836802368164062,-11.218031878662108
4927966160462,2.00278427,1,0.2442085693359375,1.7274164978027342,-11.225214483642578
4927970160878,2.006784686,1,0.20350714111328125,1.6795324645996093,-11.251550701904296
4927974160722,2.01078453,1,0.20350714111328125,1.705868682861328,-11.154585534667968
4927978161191,2.014784999,1,0.2262520568847656,1.6927005737304686,-11.176133349609374
4927982159368,2.018783176,1,0.23223756103515625,1.7525556152343749,-11.173739147949219
4927986159576,2.022783384,1,0.2166752502441406,1.7298106994628906,-11.203666668701171
4927990162649,2.026786457,1,0.26216508178710934,1.6986860778808592,-11.232397088623046
4927994160774,2.030784582,1,0.2154781494140625,1.7369933044433592,-11.166556542968749
4927998161451,2.034785259,1,0.2597708801269531,1.7357962036132812,-11.228805786132812
4928002161191,2.038784999,1,0.24061726684570311,1.7776947326660155,-11.179724652099608
4928006161139,2.042784947,1,0.24181436767578124,1.7369933044433592,-11.14022032470703
4928010161660,2.046785468,1,0.2154781494140625,1.696291876220703,-11.137826123046874
4928014161868,2.050785676,1,0.2154781494140625,1.7202338928222656,-11.159373937988281
4928018161139,2.054784947,1,0.22026655273437498,1.7573440185546874,-11.182118853759764
4928022164733,2.058788541,1,0.25258827514648435,1.7573440185546874,-11.21683477783203
4928026162233,2.062786041,1,0.23343466186523437,1.744175909423828,-11.16057103881836
4928030161295,2.066785103,1,0.19991583862304688,1.7525556152343749,-11.206060870361327
4928034162962,2.07078677,1,0.2549824768066406,1.6843208679199217,-11.161768139648437
4928038160983,2.074784791,1,0.23582886352539062,1.7573440185546874,-11.190498559570312
4928042161087,2.078784895,1,0.201112939453125,1.7310078002929687,-11.215637677001952
4928046161295,2.082785103,1,0.2609679809570312,1.753752716064453,-11.152191333007812
4928050160931,2.086784739,1,0.20709844360351562,1.6986860778808592,-11.190498559570312
4928054160983,2.090784791,1,0.25139117431640623,1.753752716064453,-11.152191333007812
4928058161347,2.094785155,1,0.1867477294921875,1.7597382202148437,-11.206060870361327
4928062159420,2.098783228,1,0.2442085693359375,1.7130512878417967,-11.202469567871093
4928066161347,2.102785155,1,0.258573779296875,1.7310078002929687,-11.184513055419922
4928070160774,2.106784582,1,0.18435352783203124,1.7130512878417967,-11.195286962890624
4928074160670,2.110784478,1,0.22744915771484372,1.7609353210449217,-11.164162341308593
4928078161139,2.114784947,1,0.229843359375,1.6998831787109374,-11.192892761230468
4928082161764,2.118785572,1,0.19153613281249998,1.7298106994628906,-11.113884106445312
4928086160306,2.122784114,1,0.24660277099609373,1.7357962036132812,-11.239579693603515
4928090160670,2.126784478,1,0.21308394775390624,1.7334020019531249,-11.146205828857422
4928094160983,2.130784791,1,0.24779987182617186,1.7453730102539062,-11.188104357910156
4928098161295,2.134785103,1,0.22505495605468748,1.7190367919921874,-11.221623181152344
4928102161191,2.138784999,1,0.229843359375,1.714248388671875,-11.19887826538086
4928106161503,2.142785311,1,0.22026655273437498,1.744175909423828,-11.219228979492186
4928110161087,2.146784895,1,0.24779987182617186,1.7405846069335937,-11.19169566040039
4928114161347,2.150785155,1,0.2154781494140625,1.7214309936523438,-11.177330450439452
4928118160878,2.154784686,1,0.22744915771484372,1.7465701110839842,-11.112687005615234
4928122160826,2.158784634,1,0.24660277099609373,1.7322049011230467,-11.239579693603515
4928126161295,2.162785103,1,0.2597708801269531,1.7609353210449217,-11.14022032470703
4928130160774,2.166784582,1,0.20231004028320312,1.696291876220703,-11.168950744628905
4928134160983,2.170784791,1,0.25258827514648435,1.7393875061035156,-11.228805786132812
4928138160566,2.174784374,1,0.2059013427734375,1.6938976745605467,-11.179724652099608
4928142160514,2.178784322,1,0.2442085693359375,1.6915034729003906,-11.206060870361327
4928146160670,2.182784478,1,0.19512743530273435,1.7286135986328124,-11.202469567871093
4928150160670,2.186784478,1,0.21308394775390624,1.7094599853515624,-11.196484063720703
4928154160878,2.190784686,1,0.21428104858398436,1.7262193969726563,-11.206060870361327
4928158161035,2.194784843,1,0.24061726684570311,1.705868682861328,-11.19887826538086
4928162159733,2.198783541,1,0.23223756103515625,1.7357962036132812,-11.17852755126953
4928166161035,2.202784843,1,0.2657563842773437,1.7477672119140624,-11.263521710205078
4928170161347,2.206785155,1,0.2262520568847656,1.7022773803710936,-11.218031878662108
4928174160826,2.210784634,1,0.22385785522460935,1.7549498168945312,-11.149797131347656
4928178161816,2.214785624,1,0.23104046020507812,1.7238251953125,-11.170147845458983
4928182160878,2.218784686,1,0.20231004028320312,1.7130512878417967,-11.152191333007812
4928186160930,2.222784738,1,0.20829554443359374,1.7776947326660155,-11.13423482055664
4928190161035,2.226784843,1,0.20709844360351562,1.7334020019531249,-11.149797131347656
4928194160566,2.230784374,1,0.28012159423828126,1.7405846069335937,-11.173739147949219
4928198160566,2.234784374,1,0.19871873779296872,1.7393875061035156,-11.162965240478515
4928202161243,2.238785051,1,0.24899697265624998,1.7034744812011717,-11.164162341308593
4928206161555,2.242785363,1,0.2537853759765625,1.7298106994628906,-11.18571015625
4928210161764,2.246785572,1,0.20709844360351562,1.7501614135742187,-11.18571015625
4928214161035,2.250784843,1,0.21068974609375,1.7094599853515624,-11.176133349609374
4928218160826,2.254784634,1,0.19033903198242186,1.7645266235351562,-11.174936248779296
4928222161399,2.258785207,1,0.20949264526367187,1.7585411193847655,-11.131840618896483
4928226161764,2.262785572,1,0.229843359375,1.696291876220703,-11.170147845458983
4928230161399,2.266785207,1,0.229843359375,1.7238251953125,-11.215637677001952
4928234160514,2.270784322,1,0.2549824768066406,1.7322049011230467,-11.228805786132812
4928238161295,2.274785103,1,0.23104046020507812,1.7669208251953124,-11.212046374511718
4928242160670,2.278784478,1,0.24301146850585936,1.7310078002929687,-11.113884106445312
4928246160878,2.282784686,1,0.25258827514648435,1.7609353210449217,-11.137826123046874
4928250161243,2.286785051,1,0.21308394775390624,1.6807295654296874,-11.234791290283203
4928254158274,2.290782082,1,0.24660277099609373,1.7214309936523438,-11.227608685302734
4928258161503,2.294785311,1,0.2346317626953125,1.7429788085937499,-11.197681164550781
4928262161191,2.298784999,1,0.24660277099609373,1.7477672119140624,-11.214440576171874
4928266161191,2.302784999,1,0.2765302917480469,1.7274164978027342,-11.161768139648437
4928270161243,2.306785051,1,0.2166752502441406,1.7334020019531249,-11.176133349609374
4928274161608,2.310785416,1,0.2537853759765625,1.7202338928222656,-11.135431921386719
4928278160618,2.314784426,1,0.229843359375,1.6998831787109374,-11.18571015625
4928282161139,2.318784947,1,0.23702596435546874,1.7334020019531249,-11.207257971191405
4928286161035,2.322784843,1,0.2262520568847656,1.7094599853515624,-11.15338843383789
4928290160774,2.326784582,1,0.21428104858398436,1.7669208251953124,-11.119869610595703
4928294160774,2.330784582,1,0.1975216369628906,1.725022296142578,-11.125855114746093
4928298161191,2.334784999,1,0.20350714111328125,1.7082628845214842,-11.1474029296875
4928302161712,2.33878552,1,0.25258827514648435,1.7082628845214842,-11.208455072021483
4928306161451,2.342785259,1,0.22026655273437498,1.7501614135742187,-11.189301458740234
4928310161608,2.346785416,1,0.258573779296875,1.7214309936523438,-11.196484063720703
4928314161764,2.350785572,1,0.23223756103515625,1.70467158203125,-11.195286962890624
4928318159472,2.35478328,1,0.17956512451171874,1.7262193969726563,-11.204863769531249
4928322162180,2.358785988,1,0.24061726684570311,1.7322049011230467,-11.127052215576171
4928326161243,2.362785051,1,0.24779987182617186,1.7238251953125,-11.161768139648437
4928330161451,2.366785259,1,0.20949264526367187,1.7322049011230467,-11.149797131347656
4928334160358,2.370784166,1,0.2442085693359375,1.7405846069335937,-11.214440576171874
4928338161191,2.374784999,1,0.19393033447265623,1.7130512878417967,-11.155782635498046
4928342161347,2.378785155,1,0.24061726684570311,1.7166425903320313,-11.188104357910156
4928346161295,2.382785103,1,0.20709844360351562,1.6986860778808592,-11.167753643798827
4928350159055,2.386782863,1,0.21068974609375,1.744175909423828,-11.200075366210937
4928354161243,2.390785051,1,0.23104046020507812,1.7393875061035156,-11.202469567871093
4928358160670,2.394784478,1,0.1879448303222656,1.7178396911621092,-11.219228979492186
4928362161035,2.398784843,1,0.25139117431640623,1.7022773803710936,-11.113884106445312
4928366160618,2.402784426,1,0.2442085693359375,1.7453730102539062,-11.204863769531249
4928370160826,2.406784634,1,0.23104046020507812,1.7657237243652342,-11.195286962890624
4928374161087,2.410784895,1,0.201112939453125,1.675941162109375,-11.18571015625
4928378161295,2.414785103,1,0.20470424194335937,1.7094599853515624,-11.227608685302734
4928382159889,2.418783697,1,0.21068974609375,1.7262193969726563,-11.148600030517578
4928386162076,2.422785884,1,0.27892449340820313,1.6986860778808592,-11.2240173828125
4928390161087,2.426784895,1,0.24899697265624998,1.7429788085937499,-11.110292803955078
4928394160878,2.430784686,1,0.2645592834472656,1.6843208679199217,-11.279084020996093
4928398160618,2.434784426,1,0.23702596435546874,1.68551796875,-11.124658013916015
4928402167389,2.438791197,1,0.2346317626953125,1.7609353210449217,-11.204863769531249
4928406163535,2.442787343,1,0.19871873779296872,1.6843208679199217,-11.164162341308593
4928410160149,2.446783957,1,0.24899697265624998,1.7405846069335937,-11.213243475341796
4928414162076,2.450785884,1,0.2765302917480469,1.7501614135742187,-11.195286962890624
4928418161868,2.454785676,1,0.18435352783203124,1.7118541870117185,-11.18571015625
4928422162024,2.458785832,1,0.1879448303222656,1.782483135986328,-11.158176837158203
4928426161035,2.462784843,1,0.23343466186523437,1.7405846069335937,-11.19169566040039
4928430160670,2.466784478,1,0.18914193115234373,1.7609353210449217,-11.16057103881836
4928434161243,2.470785051,1,0.2166752502441406,1.7357962036132812,-11.150994232177734
4928438160826,2.474784634,1,0.25258827514648435,1.7453730102539062,-11.262324609375
4928442162337,2.478786145,1,0.25737667846679685,1.7190367919921874,-11.184513055419922
4928446161139,2.482784947,1,0.24301146850585936,1.7489643127441405,-11.239579693603515
4928450161764,2.486785572,1,0.2059013427734375,1.7561469177246092,-11.207257971191405
4928454161243,2.490785051,1,0.25258827514648435,1.7357962036132812,-11.213243475341796
4928458160930,2.494784738,1,0.2561795776367187,1.7980454467773437,-11.150994232177734
4928462162024,2.498785832,1,0.25258827514648435,1.7022773803710936,-11.13423482055664
4928466162962,2.50278677,1,0.2549824768066406,1.7693150268554687,-11.184513055419922
4928470160670,2.506784478,1,0.23104046020507812,1.7130512878417967,-11.221623181152344
4928474160982,2.51078479,1,0.19393033447265623,1.7298106994628906,-11.259930407714844
4928478160826,2.514784634,1,0.2442085693359375,1.7106570861816406,-11.154585534667968
4928482161764,2.518785572,1,0.24061726684570311,1.7573440185546874,-11.124658013916015
4928486161712,2.52278552,1,0.27293898925781246,1.753752716064453,-11.18571015625
4928490161295,2.526785103,1,0.23582886352539062,1.7848773376464844,-11.227608685302734
4928494161660,2.530785468,1,0.21068974609375,1.7130512878417967,-11.206060870361327
4928498161399,2.534785207,1,0.27293898925781246,1.7022773803710936,-11.258733306884764
4928502160462,2.53878427,1,0.2645592834472656,1.7166425903320313,-11.274295617675781
4928506161087,2.542784895,1,0.201112939453125,1.6723498596191406,-11.2240173828125
4928510160253,2.546784061,1,0.22266075439453123,1.7357962036132812,-11.2240173828125
4928514161451,2.550785259,1,0.239420166015625,1.6843208679199217,-11.146205828857422
4928518161503,2.554785311,1,0.20470424194335937,1.7429788085937499,-11.282675323486327
4928522161191,2.558784999,1,0.24779987182617186,1.7166425903320313,-11.244368096923827
4928526161607,2.562785415,1,0.26216508178710934,1.7513585144042967,-11.141417425537108
4928530161712,2.56678552,1,0.239420166015625,1.7717092285156248,-11.234791290283203
4928534160826,2.570784634,1,0.201112939453125,1.7693150268554687,-11.182118853759764
4928538160826,2.574784634,1,0.2166752502441406,1.6998831787109374,-11.195286962890624
4928542161399,2.578785207,1,0.20829554443359374,1.7274164978027342,-11.152191333007812
4928546161555,2.582785363,1,0.21428104858398436,1.7334020019531249,-11.214440576171874
4928550160878,2.586784686,1,0.24181436767578124,1.7549498168945312,-11.2240173828125
4928554160878,2.590784686,1,0.258573779296875,1.7776947326660155,-11.176133349609374
4928558160618,2.594784426,1,0.2442085693359375,1.7298106994628906,-11.137826123046874
4928562161660,2.598785468,1,0.22026655273437498,1.7262193969726563,-11.195286962890624
4928566161139,2.602784947,1,0.25737667846679685,1.7393875061035156,-11.184513055419922
4928570160670,2.606784478,1,0.21906945190429686,1.7621324218749999,-11.159373937988281
4928574159680,2.610783488,1,0.22505495605468748,1.7381904052734374,-11.171344946289063
4928578161399,2.614785207,1,0.28490999755859375,1.7226280944824217,-11.124658013916015
4928582160930,2.618784738,1,0.2214636535644531,1.7753005310058592,-11.222820281982422
4928586160982,2.62278479,1,0.2059013427734375,1.7310078002929687,-11.170147845458983
4928590161451,2.626785259,1,0.22744915771484372,1.7812860351562498,-11.200075366210937
4928594162232,2.63078604,1,0.26336218261718747,1.696291876220703,-11.196484063720703
4928598161607,2.634785415,1,0.20231004028320312,1.7226280944824217,-11.161768139648437
4928602160774,2.638784582,1,0.22026655273437498,1.7106570861816406,-11.167753643798827
4928606160982,2.64278479,1,0.23104046020507812,1.7214309936523438,-11.119869610595703
4928610161659,2.646785467,1,0.23343466186523437,1.7669208251953124,-11.136629022216797
4928614161659,2.650785467,1,0.2214636535644531,1.7848773376464844,-11.197681164550781
4928618161034,2.654784842,1,0.24181436767578124,1.7178396911621092,-11.171344946289063
4928622161399,2.658785207,1,0.23702596435546874,1.7130512878417967,-11.176133349609374
4928626161399,2.662785207,1,0.22266075439453123,1.725022296142578,-11.137826123046874
4928630160566,2.666784374,1,0.22864625854492185,1.7477672119140624,-11.176133349609374
4928634160982,2.67078479,1,0.18315642700195311,1.7669208251953124,-11.162965240478515
4928638160670,2.674784478,1,0.22505495605468748,1.7310078002929687,-11.214440576171874
4928642160774,2.678784582,1,0.1927332336425781,1.7094599853515624,-11.17852755126953
4928646160566,2.682784374,1,0.2454056701660156,1.7034744812011717,-11.166556542968749
4928650161087,2.686784895,1,0.23582886352539062,1.7298106994628906,-11.184513055419922
4928654161972,2.69078578,1,0.23582886352539062,1.7465701110839842,-11.148600030517578
4928658159628,2.694783436,1,0.229843359375,1.7489643127441405,-11.116278308105468
4928662161399,2.698785207,1,0.2154781494140625,1.7836802368164062,-11.118672509765624
4928666160930,2.702784738,1,0.2154781494140625,1.7549498168945312,-11.227608685302734
4928670160149,2.706783957,1,0.229843359375,1.7489643127441405,-11.186907257080078
4928674160722,2.71078453,1,0.239420166015625,1.7322049011230467,-11.142614526367186
4928678160878,2.714784686,1,0.17357962036132812,1.7585411193847655,-11.158176837158203
4928682161243,2.718785051,1,0.2059013427734375,1.7274164978027342,-11.173739147949219
4928686161139,2.722784947,1,0.2549824768066406,1.7178396911621092,-11.180921752929686
4928690160930,2.726784738,1,0.2765302917480469,1.7226280944824217,-11.184513055419922
4928694161399,2.730785207,1,0.22864625854492185,1.7573440185546874,-11.221623181152344
4928698161034,2.734784842,1,0.22266075439453123,1.7106570861816406,-11.16057103881836
4928702161139,2.738784947,1,0.19153613281249998,1.6986860778808592,-11.155782635498046
4928706161087,2.742784895,1,0.229843359375,1.7334020019531249,-11.166556542968749
4928710161399,2.746785207,1,0.229843359375,1.7477672119140624,-11.251550701904296
4928714161347,2.750785155,1,0.24779987182617186,1.697488977050781,-11.19169566040039
4928718161659,2.754785467,1,0.22505495605468748,1.707065783691406,-11.207257971191405
4928722161191,2.758784999,1,0.24061726684570311,1.7166425903320313,-11.183315954589844
4928726161191,2.762784999,1,0.22864625854492185,1.7274164978027342,-11.143811627197264
4928730161347,2.766785155,1,0.2262520568847656,1.7262193969726563,-11.190498559570312
4928734160514,2.770784322,1,0.2262520568847656,1.7896657409667969,-11.213243475341796
4928738160618,2.774784426,1,0.26216508178710934,1.772906329345703,-11.146205828857422
4928742339889,2.778963697,1,0.27174188842773433,1.734599102783203,-11.155782635498046
4928746208743,2.782832551,1,0.24181436767578124,1.7130512878417967,-11.184513055419922
4928750210670,2.786834478,1,0.2346317626953125,1.7585411193847655,-11.166556542968749
4928754163639,2.790787447,1,0.26336218261718747,1.695094775390625,-11.200075366210937
4928758159159,2.794782967,1,0.22505495605468748,1.7082628845214842,-11.179724652099608
4928762157024,2.798780832,1,0.23223756103515625,1.7178396911621092,-11.204863769531249
4928766157805,2.802781613,1,0.22026655273437498,1.734599102783203,-11.220426080322264
4928770156347,2.806780155,1,0.258573779296875,1.7381904052734374,-11.170147845458983
4928774156451,2.810780259,1,0.25737667846679685,1.7357962036132812,-11.164162341308593
4928778159941,2.814783749,1,0.20949264526367187,1.695094775390625,-11.186907257080078
4928782163014,2.818786822,1,0.229843359375,1.7429788085937499,-11.155782635498046
4928786163639,2.822787447,1,0.21787235107421873,1.6843208679199217,-11.239579693603515
4928790160305,2.826784113,1,0.2549824768066406,1.7501614135742187,-11.166556542968749
4928794162701,2.830786509,1,0.23822306518554687,1.6927005737304686,-11.218031878662108
4928798159316,2.834783124,1,0.258573779296875,1.7705121276855467,-11.121066711425781
4928802161451,2.838785259,1,0.24660277099609373,1.7334020019531249,-11.206060870361327
4928806161816,2.842785624,1,0.2059013427734375,1.6927005737304686,-11.17852755126953
4928810161451,2.846785259,1,0.2442085693359375,1.7322049011230467,-11.125855114746093
4928814161711,2.850785519,1,0.20350714111328125,1.7501614135742187,-11.234791290283203
4928818161191,2.854784999,1,0.23582886352539062,1.7501614135742187,-11.18571015625
4928822161659,2.858785467,1,0.20470424194335937,1.7238251953125,-11.164162341308593
4928826161295,2.862785103,1,0.27293898925781246,1.7274164978027342,-11.127052215576171
4928830160253,2.866784061,1,0.2262520568847656,1.7465701110839842,-11.179724652099608
4928834163170,2.870786978,1,0.28012159423828126,1.70467158203125,-11.150994232177734
4928838161243,2.874785051,1,0.19512743530273435,1.715445489501953,-11.207257971191405
4928842160930,2.878784738,1,0.23822306518554687,1.7393875061035156,-11.164162341308593
4928846161555,2.882785363,1,0.23104046020507812,1.7262193969726563,-11.16057103881836
4928850162336,2.886786144,1,0.2501940734863281,1.7310078002929687,-11.08395658569336
4928854161191,2.890784999,1,0.20350714111328125,1.7190367919921874,-11.203666668701171
4928858160722,2.89478453,1,0.24779987182617186,1.7178396911621092,-11.186907257080078
4928862161139,2.898784947,1,0.21906945190429686,1.714248388671875,-11.162965240478515
4928866161086,2.902784894,1,0.2645592834472656,1.7106570861816406,-11.190498559570312
4928870161607,2.906785415,1,0.18435352783203124,1.707065783691406,-11.208455072021483
4928874161243,2.910785051,1,0.25258827514648435,1.7381904052734374,-11.171344946289063
4928878161764,2.914785572,1,0.20231004028320312,1.7022773803710936,-11.19887826538086
4928882161659,2.918785467,1,0.2262520568847656,1.7322049011230467,-11.129446417236327
4928886160566,2.922784374,1,0.22385785522460935,1.695094775390625,-11.218031878662108
4928890160878,2.926784686,1,0.24301146850585936,1.7166425903320313,-11.1474029296875
4928894161034,2.930784842,1,0.19033903198242186,1.7322049011230467,-11.166556542968749
4928898161295,2.934785103,1,0.19632453613281248,1.6747440612792968,-11.21084927368164
4928902161243,2.938785051,1,0.21787235107421873,1.7286135986328124,-11.183315954589844
4928906159680,2.942783488,1,0.20470424194335937,1.7118541870117185,-11.244368096923827
4928910163014,2.946786822,1,0.25258827514648435,1.7513585144042967,-11.165359442138671
4928914161659,2.950785467,1,0.2166752502441406,1.7453730102539062,-11.190498559570312
4928918161555,2.954785363,1,0.2059013427734375,1.7453730102539062,-11.234791290283203
4928922160514,2.958784322,1,0.20350714111328125,1.7082628845214842,-11.170147845458983
4928926160201,2.962784009,1,0.17477672119140625,1.725022296142578,-11.186907257080078
4928930160774,2.966784582,1,0.23343466186523437,1.725022296142578,-11.192892761230468
4928934161243,2.970785051,1,0.23223756103515625,1.7657237243652342,-11.145008728027342
4928938161191,2.974784999,1,0.26336218261718747,1.7094599853515624,-11.188104357910156
4928942162076,2.978785884,1,0.17477672119140625,1.7705121276855467,-11.154585534667968
4928946161347,2.982785155,1,0.2166752502441406,1.715445489501953,-11.171344946289063
4928950161451,2.986785259,1,0.2059013427734375,1.7621324218749999,-11.235988391113281
4928954161451,2.990785259,1,0.2262520568847656,1.7405846069335937,-11.218031878662108
4928958161347,2.994785155,1,0.2645592834472656,1.725022296142578,-11.155782635498046
4928962160670,2.998784478,1,0.22744915771484372,1.7022773803710936,-11.200075366210937
4928966160826,3.002784634,1,0.22744915771484372,1.675941162109375,-11.19169566040039
4928970160305,3.006784113,1,0.20709844360351562,1.714248388671875,-11.209652172851563
4928974160878,3.010784686,1,0.20350714111328125,1.7585411193847655,-11.146205828857422
4928978162389,3.014786197,1,0.25737667846679685,1.695094775390625,-11.166556542968749
4928982161816,3.018785624,1,0.21308394775390624,1.707065783691406,-11.135431921386719
4928986161086,3.022784894,1,0.17118541870117188,1.7705121276855467,-11.213243475341796
4928990159784,3.026783592,1,0.23343466186523437,1.7477672119140624,-11.192892761230468
4928994159889,3.030783697,1,0.258573779296875,1.7238251953125,-11.21084927368164
4928998161139,3.034784947,1,0.20470424194335937,1.7262193969726563,-11.269507214355468
4929002160461,3.038784269,1,0.22026655273437498,1.7274164978027342,-11.206060870361327
4929006161034,3.042784842,1,0.19632453613281248,1.7393875061035156,-11.162965240478515
4929010161816,3.046785624,1,0.2214636535644531,1.6998831787109374,-11.194089862060546
4929014161086,3.050784894,1,0.22505495605468748,1.7573440185546874,-11.137826123046874
4929018160722,3.05478453,1,0.23822306518554687,1.7860744384765623,-11.168950744628905
4929022162389,3.058786197,1,0.19033903198242186,1.744175909423828,-11.227608685302734
4929026161451,3.062785259,1,0.22864625854492185,1.7405846069335937,-11.177330450439452
4929030161086,3.066784894,1,0.1975216369628906,1.715445489501953,-11.136629022216797
4929034160878,3.070784686,1,0.1975216369628906,1.725022296142578,-11.18571015625
4929038161191,3.074784999,1,0.20350714111328125,1.7274164978027342,-11.18571015625
4929042161503,3.078785311,1,0.23104046020507812,1.715445489501953,-11.149797131347656
4929046161295,3.082785103,1,0.25258827514648435,1.7369933044433592,-11.21084927368164
4929050160670,3.086784478,1,0.24301146850585936,1.6986860778808592,-11.168950744628905
4929054160774,3.090784582,1,0.2442085693359375,1.7357962036132812,-11.209652172851563
4929058163066,3.094786874,1,0.21787235107421873,1.7226280944824217,-11.208455072021483
4929062161920,3.098785728,1,0.23582886352539062,1.7286135986328124,-11.131840618896483
4929066161086,3.102784894,1,0.24181436767578124,1.7465701110839842,-11.179724652099608
4929070161243,3.106785051,1,0.22026655273437498,1.7561469177246092,-11.232397088623046
4929074160982,3.11078479,1,0.24061726684570311,1.7034744812011717,-11.117475408935546
4929078161138,3.114784946,1,0.22505495605468748,1.7513585144042967,-11.13423482055664
4929082160774,3.118784582,1,0.229843359375,1.725022296142578,-11.18571015625
4929086159888,3.122783696,1,0.20949264526367187,1.7621324218749999,-11.204863769531249
4929090161659,3.126785467,1,0.2442085693359375,1.7202338928222656,-11.225214483642578
4929094161086,3.130784894,1,0.201112939453125,1.7262193969726563,-11.195286962890624
4929098161295,3.134785103,1,0.239420166015625,1.7405846069335937,-11.173739147949219
4929102160774,3.138784582,1,0.24061726684570311,1.7369933044433592,-11.226411584472656
4929106160774,3.142784582,1,0.25258827514648435,1.7130512878417967,-11.173739147949219
4929110160409,3.146784217,1,0.2537853759765625,1.753752716064453,-11.234791290283203
4929114160566,3.150784374,1,0.20350714111328125,1.7357962036132812,-11.116278308105468
4929118160409,3.154784217,1,0.1867477294921875,1.696291876220703,-11.146205828857422
4929122160461,3.158784269,1,0.239420166015625,1.7369933044433592,-11.14022032470703
4929126160566,3.162784374,1,0.19871873779296872,1.7812860351562498,-11.219228979492186
4929130160774,3.166784582,1,0.23343466186523437,1.7334020019531249,-11.16057103881836
4929134160982,3.17078479,1,0.2442085693359375,1.7226280944824217,-11.274295617675781
4929138161503,3.174785311,1,0.25258827514648435,1.6807295654296874,-11.148600030517578
4929142161086,3.178784894,1,0.25258827514648435,1.7262193969726563,-11.207257971191405
4929146160774,3.182784582,1,0.27174188842773433,1.7022773803710936,-11.21084927368164
4929150160878,3.186784686,1,0.21428104858398436,1.7381904052734374,-11.173739147949219
4929154163482,3.19078729,1,0.2166752502441406,1.7453730102539062,-11.118672509765624
4929158163691,3.194787499,1,0.19512743530273435,1.7166425903320313,-11.190498559570312
4929162161191,3.198784999,1,0.21428104858398436,1.7118541870117185,-11.184513055419922
4929166161711,3.202785519,1,0.22744915771484372,1.714248388671875,-11.156979736328124
4929170161086,3.206784894,1,0.2645592834472656,1.7393875061035156,-11.189301458740234
4929174161451,3.210785259,1,0.2501940734863281,1.7669208251953124,-11.214440576171874
4929178161243,3.214785051,1,0.24181436767578124,1.7597382202148437,-11.173739147949219
4929182160253,3.218784061,1,0.23702596435546874,1.7130512878417967,-11.19169566040039
4929186160722,3.22278453,1,0.20350714111328125,1.725022296142578,-11.192892761230468
4929190160149,3.226783957,1,0.23223756103515625,1.6998831787109374,-11.159373937988281
4929194161451,3.230785259,1,0.19871873779296872,1.7489643127441405,-11.256339105224608
4929198160982,3.23478479,1,0.20470424194335937,1.7166425903320313,-11.196484063720703
4929202160982,3.23878479,1,0.19033903198242186,1.7645266235351562,-11.170147845458983
4929206160566,3.242784374,1,0.3028665100097656,1.7489643127441405,-11.129446417236327
4929210160618,3.246784426,1,0.2501940734863281,1.7310078002929687,-11.203666668701171
4929214160618,3.250784426,1,0.22744915771484372,1.7525556152343749,-11.141417425537108
4929218160618,3.254784426,1,0.17238251953125,1.695094775390625,-11.23000288696289
4929222160982,3.25878479,1,0.24301146850585936,1.7753005310058592,-11.228805786132812
4929226161555,3.262785363,1,0.20470424194335937,1.7298106994628906,-11.218031878662108
4929230160149,3.266783957,1,0.20350714111328125,1.7166425903320313,-11.227608685302734
4929234161243,3.270785051,1,0.23822306518554687,1.7477672119140624,-11.220426080322264
4929238160982,3.27478479,1,0.23822306518554687,1.7022773803710936,-11.137826123046874
4929242161034,3.278784842,1,0.20231004028320312,1.7501614135742187,-11.167753643798827
4929246161399,3.282785207,1,0.229843359375,1.7417817077636717,-11.247959399414063
4929250160774,3.286784582,1,0.2442085693359375,1.7573440185546874,-11.179724652099608
4929254160513,3.290784321,1,0.20829554443359374,1.7262193969726563,-11.228805786132812
4929258161503,3.294785311,1,0.239420166015625,1.70467158203125,-11.220426080322264
4929262159888,3.298783696,1,0.2537853759765625,1.7178396911621092,-11.116278308105468
4929266161243,3.302785051,1,0.19153613281249998,1.7238251953125,-11.231199987792968
4929270160461,3.306784269,1,0.19991583862304688,1.7693150268554687,-11.152191333007812
4929274160670,3.310784478,1,0.20350714111328125,1.687912170410156,-11.19887826538086
4929278160930,3.314784738,1,0.2346317626953125,1.7645266235351562,-11.137826123046874
4929282160409,3.318784217,1,0.21428104858398436,1.734599102783203,-11.213243475341796
4929286160878,3.322784686,1,0.22026655273437498,1.7609353210449217,-11.214440576171874
4929290160982,3.32678479,1,0.24301146850585936,1.7561469177246092,-11.188104357910156
4929294162232,3.33078604,1,0.19393033447265623,1.725022296142578,-11.231199987792968
4929298161868,3.334785676,1,0.26336218261718747,1.7705121276855467,-11.143811627197264
4929302161295,3.338785103,1,0.2214636535644531,1.7334020019531249,-11.192892761230468
4929306161347,3.342785155,1,0.20709844360351562,1.7369933044433592,-11.176133349609374
4929310160409,3.346784217,1,0.1867477294921875,1.7094599853515624,-11.141417425537108
4929314161451,3.350785259,1,0.2154781494140625,1.7334020019531249,-11.214440576171874
4929318160982,3.35478479,1,0.24301146850585936,1.8183961608886718,-11.145008728027342
4929322160878,3.358784686,1,0.22744915771484372,1.7262193969726563,-11.221623181152344
4929326160565,3.362784373,1,0.2214636535644531,1.7393875061035156,-11.24915650024414
4929330161555,3.366785363,1,0.24660277099609373,1.7369933044433592,-11.13423482055664
4929334161243,3.370785051,1,0.2214636535644531,1.7094599853515624,-11.159373937988281
4929338160878,3.374784686,1,0.17118541870117188,1.7022773803710936,-11.200075366210937
4929342159107,3.378782915,1,0.22385785522460935,1.7405846069335937,-11.189301458740234
4929346161659,3.382785467,1,0.25737667846679685,1.7549498168945312,-11.148600030517578
4929350161659,3.386785467,1,0.229843359375,1.7214309936523438,-11.189301458740234
4929354161138,3.390784946,1,0.2214636535644531,1.705868682861328,-11.201272467041015
4929358160722,3.39478453,1,0.23223756103515625,1.7322049011230467,-11.240776794433593
4929362160878,3.398784686,1,0.2346317626953125,1.7513585144042967,-11.117475408935546
4929366161138,3.402784946,1,0.2537853759765625,1.7310078002929687,-11.212046374511718
4929370161138,3.406784946,1,0.2346317626953125,1.7202338928222656,-11.155782635498046
4929374159524,3.410783332,1,0.24061726684570311,1.707065783691406,-11.159373937988281
4929378161503,3.414785311,1,0.18555062866210936,1.7262193969726563,-11.133037719726563
4929382160826,3.418784634,1,0.2501940734863281,1.7166425903320313,-11.227608685302734
4929386160409,3.422784217,1,0.2262520568847656,1.7262193969726563,-11.264718811035156
4929390160565,3.426784373,1,0.23822306518554687,1.7357962036132812,-11.188104357910156
4929394161399,3.430785207,1,0.18914193115234373,1.6986860778808592,-11.162965240478515
4929398160201,3.434784009,1,0.19632453613281248,1.7621324218749999,-11.208455072021483
4929402159524,3.438783332,1,0.19512743530273435,1.7178396911621092,-11.233594189453123
4929406161763,3.442785571,1,0.21428104858398436,1.763329522705078,-11.227608685302734
4929410161920,3.446785728,1,0.17477672119140625,1.7645266235351562,-11.136629022216797
4929414162128,3.450785936,1,0.20949264526367187,1.7693150268554687,-11.074379779052734
4929418160461,3.454784269,1,0.1640028137207031,1.7609353210449217,-11.23000288696289
4929422159993,3.458783801,1,0.3112462158203125,1.7429788085937499,-11.190498559570312
4929426161190,3.462784998,1,0.29448680419921874,1.6843208679199217,-11.212046374511718
4929430161243,3.466785051,1,0.21188684692382811,1.7657237243652342,-11.222820281982422
4929434160826,3.470784634,1,0.18555062866210936,1.7034744812011717,-11.162965240478515
4929438161086,3.474784894,1,0.21308394775390624,1.734599102783203,-11.139023223876952
4929442160878,3.478784686,1,0.2214636535644531,1.7764976318359373,-11.204863769531249
4929446160826,3.482784634,1,0.27174188842773433,1.7298106994628906,-11.137826123046874
4929450160618,3.486784426,1,0.229843359375,1.695094775390625,-11.166556542968749
4929454160774,3.490784582,1,0.20350714111328125,1.7106570861816406,-11.212046374511718
4929458161190,3.494784998,1,0.2442085693359375,1.7202338928222656,-11.213243475341796
4929462160617,3.498784425,1,0.2346317626953125,1.7992425476074219,-11.201272467041015
4929466162180,3.502785988,1,0.18914193115234373,1.7489643127441405,-11.137826123046874
4929470161399,3.506785207,1,0.22864625854492185,1.7202338928222656,-11.1474029296875
4929474161451,3.510785259,1,0.25258827514648435,1.7322049011230467,-11.161768139648437
4929478161711,3.514785519,1,0.20829554443359374,1.7082628845214842,-11.179724652099608
4929482160774,3.518784582,1,0.2741360900878906,1.7489643127441405,-11.244368096923827
4929486160513,3.522784321,1,0.22266075439453123,1.7082628845214842,-11.206060870361327
4929490160930,3.526784738,1,0.23104046020507812,1.7334020019531249,-11.170147845458983
4929494160722,3.53078453,1,0.22505495605468748,1.763329522705078,-11.145008728027342
4929498160930,3.534784738,1,0.258573779296875,1.714248388671875,-11.162965240478515
4929502160097,3.538783905,1,0.25139117431640623,1.7226280944824217,-11.186907257080078
4929506161555,3.542785363,1,0.2537853759765625,1.7381904052734374,-11.184513055419922
4929510160409,3.546784217,1,0.2442085693359375,1.7226280944824217,-11.239579693603515
4929514160826,3.550784634,1,0.21906945190429686,1.696291876220703,-11.18571015625
4929518161347,3.554785155,1,0.23702596435546874,1.7298106994628906,-11.159373937988281
4929522161607,3.558785415,1,0.24301146850585936,1.695094775390625,-11.23718549194336
4929526161034,3.562784842,1,0.2166752502441406,1.68551796875,-11.165359442138671
4929530168274,3.566792082,1,0.20350714111328125,1.8040309509277344,-11.142614526367186
4929534163534,3.570787342,1,0.17118541870117188,1.7118541870117185,-11.146205828857422
4929538236190,3.574859998,1,0.22864625854492185,1.7034744812011717,-11.202469567871093
4929542176555,3.578800363,1,0.21068974609375,1.715445489501953,-11.15338843383789
4929546175461,3.582799269,1,0.17836802368164062,1.714248388671875,-11.166556542968749
4929550174992,3.5867988,1,0.1867477294921875,1.7465701110839842,-11.183315954589844
4929554175253,3.590799061,1,0.22385785522460935,1.7262193969726563,-11.213243475341796
4929558175357,3.594799165,1,0.23343466186523437,1.7429788085937499,-11.206060870361327
4929562174315,3.598798123,1,0.27293898925781246,1.7489643127441405,-11.215637677001952
4929566175253,3.602799061,1,0.22864625854492185,1.7178396911621092,-11.190498559570312
4929570176190,3.606799998,1,0.20231004028320312,1.714248388671875,-11.234791290283203
4929574175149,3.610798957,1,0.21787235107421873,1.734599102783203,-11.170147845458983
4929578174211,3.614798019,1,0.21188684692382811,1.7489643127441405,-11.174936248779296
4929582175617,3.618799425,1,0.22744915771484372,1.734599102783203,-11.159373937988281
4929586174784,3.622798592,1,0.22864625854492185,1.7549498168945312,-11.14022032470703
4929590175201,3.626799009,1,0.23223756103515625,1.7369933044433592,-11.171344946289063
4929594174992,3.6307988,1,0.2549824768066406,1.6891092712402342,-11.154585534667968
4929598172857,3.634796665,1,0.25737667846679685,1.7274164978027342,-11.196484063720703
4929602175045,3.638798853,1,0.1927332336425781,1.6927005737304686,-11.213243475341796
4929606174315,3.642798123,1,0.18435352783203124,1.7322049011230467,-11.116278308105468
4929610175409,3.646799217,1,0.2454056701660156,1.7214309936523438,-11.182118853759764
4929614175149,3.650798957,1,0.20350714111328125,1.7705121276855467,-11.156979736328124
4929618174367,3.654798175,1,0.2214636535644531,1.7214309936523438,-11.184513055419922
4929622174940,3.658798748,1,0.24061726684570311,1.7513585144042967,-11.142614526367186
4929626175045,3.662798853,1,0.258573779296875,1.7381904052734374,-11.18571015625
4929630174680,3.666798488,1,0.23702596435546874,1.7417817077636717,-11.113884106445312
4929634176399,3.670800207,1,0.23343466186523437,1.7369933044433592,-11.222820281982422
4929638212024,3.674835832,1,0.2561795776367187,1.7405846069335937,-11.162965240478515
4929642175670,3.678799478,1,0.19393033447265623,1.7130512878417967,-11.142614526367186
4929646175722,3.68279953,1,0.1927332336425781,1.6843208679199217,-11.186907257080078
4929650172909,3.686796717,1,0.2346317626953125,1.7477672119140624,-11.174936248779296
4929654175409,3.690799217,1,0.22026655273437498,1.7322049011230467,-11.142614526367186
4929658175045,3.694798853,1,0.2561795776367187,1.7298106994628906,-11.130643518066405
4929662174628,3.698798436,1,0.1640028137207031,1.7453730102539062,-11.170147845458983
4929666174628,3.702798436,1,0.22864625854492185,1.7381904052734374,-11.177330450439452
4929670174107,3.706797915,1,0.2262520568847656,1.7118541870117185,-11.13423482055664
4929674174680,3.710798488,1,0.22864625854492185,1.66636435546875,-11.206060870361327
4929678176138,3.714799946,1,0.23702596435546874,1.697488977050781,-11.129446417236327
4929682175305,3.718799113,1,0.2549824768066406,1.7034744812011717,-11.167753643798827
4929686174732,3.72279854,1,0.19153613281249998,1.7310078002929687,-11.124658013916015
4929690174576,3.726798384,1,0.2549824768066406,1.744175909423828,-11.180921752929686
4929694174732,3.73079854,1,0.26815058593749996,1.7429788085937499,-11.099518896484375
4929698175774,3.734799582,1,0.2214636535644531,1.7214309936523438,-11.203666668701171
4929702175357,3.738799165,1,0.2059013427734375,1.7417817077636717,-11.324573852539062
4929706175044,3.742798852,1,0.239420166015625,1.7357962036132812,-11.071985577392578
4929710175774,3.746799582,1,0.23822306518554687,1.7453730102539062,-11.221623181152344
4929714174419,3.750798227,1,0.18914193115234373,1.7298106994628906,-11.215637677001952
4929718174315,3.754798123,1,0.2549824768066406,1.7609353210449217,-11.312602844238281
4929722174732,3.75879854,1,0.2442085693359375,1.7429788085937499,-11.161768139648437
4929726174836,3.762798644,1,0.22026655273437498,1.6986860778808592,-11.159373937988281
4929730174680,3.766798488,1,0.2166752502441406,1.753752716064453,-11.062408770751953
4929734174888,3.770798696,1,0.24301146850585936,1.7130512878417967,-11.313799945068359
4929738208586,3.774832394,1,0.2214636535644531,1.7669208251953124,-11.171344946289063
4929742177492,3.7788013,1,0.23702596435546874,1.7286135986328124,-11.0707884765625
4929746176190,3.782799998,1,0.18914193115234373,1.7022773803710936,-11.3389390625
4929750175201,3.786799009,1,0.20350714111328125,1.7429788085937499,-11.100715997314452
4929754175149,3.790798957,1,0.24899697265624998,1.707065783691406,-11.186907257080078
4929758174472,3.79479828,1,0.25139117431640623,1.7166425903320313,-11.202469567871093
4929762176294,3.798800102,1,0.27892449340820313,1.744175909423828,-11.218031878662108
4929766175253,3.802799061,1,0.22385785522460935,1.725022296142578,-11.317391247558593
4929770174107,3.806797915,1,0.27293898925781246,1.7298106994628906,-11.09592759399414
4929774175357,3.810799165,1,0.21906945190429686,1.7585411193847655,-11.32577095336914
4929778174680,3.814798488,1,0.24301146850585936,1.7393875061035156,-11.14022032470703
4929782174315,3.818798123,1,0.2645592834472656,1.7609353210449217,-11.037269653320312
4929786174992,3.8227988,1,0.25139117431640623,1.7549498168945312,-11.201272467041015
4929790174888,3.826798696,1,0.22385785522460935,1.697488977050781,-11.282675323486327
4929794173690,3.830797498,1,0.19871873779296872,1.7513585144042967,-11.16057103881836
4929798174055,3.834797863,1,0.2657563842773437,1.7489643127441405,-11.180921752929686
4929802174263,3.838798071,1,0.25258827514648435,1.734599102783203,-11.104307299804686
4929806175201,3.842799009,1,0.24779987182617186,1.7501614135742187,-11.136629022216797
4929810175253,3.846799061,1,0.22505495605468748,1.6915034729003906,-11.173739147949219
4929814173742,3.85079755,1,0.2166752502441406,1.7429788085937499,-11.049240661621093
4929818174367,3.854798175,1,0.23104046020507812,1.7334020019531249,-11.21084927368164
4929822174263,3.858798071,1,0.19871873779296872,1.696291876220703,-11.186907257080078
4929826174472,3.86279828,1,0.20709844360351562,1.7238251953125,-11.19887826538086
4929830174472,3.86679828,1,0.21787235107421873,1.7357962036132812,-11.250353601074218
4929834174576,3.870798384,1,0.24301146850585936,1.7262193969726563,-11.336544860839844
4929838174784,3.874798592,1,0.20350714111328125,1.725022296142578,-11.074379779052734
4929842174784,3.878798592,1,0.2561795776367187,1.7022773803710936,-11.232397088623046
4929846173794,3.882797602,1,0.21068974609375,1.7489643127441405,-11.188104357910156
4929850174992,3.8867988,1,0.2741360900878906,1.7369933044433592,-11.28746372680664
4929854174367,3.890798175,1,0.23343466186523437,1.6998831787109374,-11.145008728027342
4929858176242,3.89480005,1,0.2537853759765625,1.7238251953125,-11.141417425537108
4929862174680,3.898798488,1,0.229843359375,1.715445489501953,-11.162965240478515
4929866175044,3.902798852,1,0.24061726684570311,1.7298106994628906,-11.15338843383789
4929870175722,3.90679953,1,0.19393033447265623,1.705868682861328,-11.037269653320312
4929874174159,3.910797967,1,0.229843359375,1.7274164978027342,-11.310208642578125
4929878174576,3.914798384,1,0.22266075439453123,1.715445489501953,-11.054029064941405
4929882174419,3.918798227,1,0.20350714111328125,1.7322049011230467,-11.326968054199218
4929886174315,3.922798123,1,0.18555062866210936,1.7118541870117185,-11.060014569091797
4929890174940,3.926798748,1,0.2059013427734375,1.734599102783203,-11.123460913085937
4929894174940,3.930798748,1,0.20829554443359374,1.7369933044433592,-11.16057103881836
4929898172180,3.934795988,1,0.1879448303222656,1.7657237243652342,-11.220426080322264
4929902175513,3.938799321,1,0.20231004028320312,1.753752716064453,-11.152191333007812
4929906182440,3.942806248,1,0.2645592834472656,1.7393875061035156,-11.177330450439452
4929910177544,3.946801352,1,0.23223756103515625,1.7489643127441405,-11.174936248779296
4929914175826,3.950799634,1,0.19632453613281248,1.772906329345703,-11.19887826538086
4929918174732,3.95479854,1,0.2753331909179687,1.7310078002929687,-11.202469567871093
4929922175774,3.958799582,1,0.2549824768066406,1.7561469177246092,-11.19887826538086
4929926174419,3.962798227,1,0.24061726684570311,1.7501614135742187,-11.168950744628905
4929930174367,3.966798175,1,0.2214636535644531,1.7286135986328124,-11.200075366210937
4929934175617,3.970799425,1,0.2262520568847656,1.7812860351562498,-11.212046374511718
4929938175409,3.974799217,1,0.24301146850585936,1.6903063720703124,-11.188104357910156
4929942175357,3.978799165,1,0.19632453613281248,1.7753005310058592,-11.194089862060546
4929946176451,3.982800259,1,0.17956512451171874,1.7705121276855467,-11.183315954589844
4929950174732,3.98679854,1,0.22744915771484372,1.7214309936523438,-11.168950744628905
4929954174055,3.990797863,1,0.21068974609375,1.6831237670898436,-11.246762298583985
4929958175096,3.994798904,1,0.21308394775390624,1.7525556152343749,-11.17852755126953
4929962175409,3.998799217,1,0.2262520568847656,1.7669208251953124,-11.204863769531249
4929966175409,4.002799217,1,0.20470424194335937,1.7226280944824217,-11.17852755126953
4929970174471,4.006798279,1,0.22266075439453123,1.7381904052734374,-11.235988391113281
4929974173638,4.010797446,1,0.26815058593749996,1.7549498168945312,-11.19887826538086
4929978174367,4.014798175,1,0.20350714111328125,1.7573440185546874,-11.194089862060546
4929982174784,4.018798592,1,0.2166752502441406,1.6927005737304686,-11.17852755126953
4929986174576,4.022798384,1,0.19871873779296872,1.7405846069335937,-11.222820281982422
4929990174367,4.026798175,1,0.23104046020507812,1.7453730102539062,-11.21084927368164
4929994174315,4.030798123,1,0.2609679809570312,1.7334020019531249,-11.238382592773437
4929998173065,4.034796873,1,0.16998831787109375,1.70467158203125,-11.189301458740234
4930002484159,4.039107967,1,0.20470424194335937,1.7238251953125,-11.213243475341796
4930006207336,4.042831144,1,0.2442085693359375,1.715445489501953,-11.156979736328124
4930010186971,4.046810779,1,0.2442085693359375,1.715445489501953,-11.141417425537108
4930014174055,4.050797863,1,0.2442085693359375,1.734599102783203,-11.129446417236327
4930018172961,4.054796769,1,0.25737667846679685,1.7381904052734374,-11.150994232177734
4930022175878,4.058799686,1,0.22026655273437498,1.7585411193847655,-11.154585534667968
4930026177857,4.062801665,1,0.24301146850585936,1.7262193969726563,-11.196484063720703
4930030176555,4.066800363,1,0.20350714111328125,1.695094775390625,-11.12226381225586
4930034174628,4.070798436,1,0.19153613281249998,1.7178396911621092,-11.166556542968749
4930038173690,4.074797498,1,0.23343466186523437,1.753752716064453,-11.180921752929686
4930042181086,4.078804894,1,0.22026655273437498,1.7226280944824217,-11.139023223876952
4930046178482,4.08280229,1,0.229843359375,1.7585411193847655,-11.182118853759764
4930050178169,4.086801977,1,0.22385785522460935,1.6938976745605467,-11.165359442138671
4930054175409,4.090799217,1,0.24061726684570311,1.7381904052734374,-11.196484063720703
4930058178951,4.094802759,1,0.2537853759765625,1.7609353210449217,-11.118672509765624
4930062178794,4.098802602,1,0.23223756103515625,1.734599102783203,-11.213243475341796
4930066178534,4.102802342,1,0.2442085693359375,1.7226280944824217,-11.192892761230468
4930070177857,4.106801665,1,0.21188684692382811,1.7130512878417967,-11.208455072021483
4930074178274,4.110802082,1,0.20470424194335937,1.7130512878417967,-11.192892761230468
4930078175617,4.114799425,1,0.25139117431640623,1.7226280944824217,-11.233594189453123
4930082179576,4.118803384,1,0.2705447875976562,1.7429788085937499,-11.177330450439452
4930086177909,4.122801717,1,0.23223756103515625,1.7286135986328124,-11.177330450439452
4930090178690,4.126802498,1,0.25139117431640623,1.714248388671875,-11.21084927368164
4930094178534,4.130802342,1,0.28012159423828126,1.7681179260253905,-11.214440576171874
4930098178482,4.13480229,1,0.21068974609375,1.7717092285156248,-11.150994232177734
4930102177961,4.138801769,1,0.22026655273437498,1.7202338928222656,-11.154585534667968
4930106179107,4.142802915,1,0.22505495605468748,1.7190367919921874,-11.221623181152344
4930110175096,4.146798904,1,0.23343466186523437,1.7417817077636717,-11.190498559570312
4930114178378,4.150802186,1,0.2346317626953125,1.7118541870117185,-11.159373937988281
4930118177909,4.154801717,1,0.26336218261718747,1.7298106994628906,-11.192892761230468
4930122178013,4.158801821,1,0.28490999755859375,1.7693150268554687,-11.173739147949219
4930126178013,4.162801821,1,0.2454056701660156,1.8327613708496093,-11.166556542968749
4930130177596,4.166801404,1,0.23223756103515625,1.552639776611328,-11.146205828857422
4930134177128,4.170800936,1,0.23702596435546874,1.6998831787109374,-11.171344946289063
4930138178013,4.174801821,1,0.21428104858398436,1.7525556152343749,-11.215637677001952
4930142178273,4.178802081,1,0.24660277099609373,1.7238251953125,-11.149797131347656
4930146175878,4.182799686,1,0.22266075439453123,1.7429788085937499,-11.23000288696289
4930150178794,4.186802602,1,0.21787235107421873,1.6986860778808592,-11.243170996093749
4930154178742,4.19080255,1,0.2501940734863281,1.7190367919921874,-11.139023223876952
4930158179159,4.194802967,1,0.19033903198242186,1.7501614135742187,-11.177330450439452
4930162177076,4.198800884,1,0.2442085693359375,1.7621324218749999,-11.162965240478515
4930166178534,4.202802342,1,0.24899697265624998,1.7310078002929687,-11.18571015625
4930170178117,4.206801925,1,0.2705447875976562,1.695094775390625,-11.155782635498046
4930174177701,4.210801509,1,0.2561795776367187,1.7621324218749999,-11.23000288696289
4930178178638,4.214802446,1,0.23582886352539062,1.7286135986328124,-11.149797131347656
4930182178534,4.218802342,1,0.2214636535644531,1.7166425903320313,-11.238382592773437
4930186178065,4.222801873,1,0.20709844360351562,1.7202338928222656,-11.21084927368164
4930190178117,4.226801925,1,0.1927332336425781,1.7621324218749999,-11.203666668701171
4930194179055,4.230802863,1,0.21906945190429686,1.7381904052734374,-11.11508120727539
4930198179315,4.234803123,1,0.17118541870117188,1.7717092285156248,-11.148600030517578
4930202179107,4.238802915,1,0.2262520568847656,1.744175909423828,-11.152191333007812
4930206178169,4.242801977,1,0.22266075439453123,1.7226280944824217,-11.170147845458983
4930210178221,4.246802029,1,0.19393033447265623,1.7118541870117185,-11.186907257080078
4930214178065,4.250801873,1,0.2861070983886719,1.734599102783203,-11.137826123046874
4930218177857,4.254801665,1,0.26216508178710934,1.7214309936523438,-11.232397088623046
4930222177805,4.258801613,1,0.22744915771484372,1.7405846069335937,-11.154585534667968
4930226178586,4.262802394,1,0.23223756103515625,1.744175909423828,-11.16057103881836
4930230178690,4.266802498,1,0.21787235107421873,1.7453730102539062,-11.197681164550781
4930234178586,4.270802394,1,0.26216508178710934,1.7417817077636717,-11.170147845458983
4930238177909,4.274801717,1,0.23104046020507812,1.7094599853515624,-11.15338843383789
4930242194159,4.278817967,1,0.23343466186523437,1.7106570861816406,-11.2240173828125
4930246178586,4.282802394,1,0.22744915771484372,1.7226280944824217,-11.137826123046874
4930250178742,4.28680255,1,0.2262520568847656,1.707065783691406,-11.233594189453123
4930254177909,4.290801717,1,0.24301146850585936,1.7812860351562498,-11.195286962890624
4930258177440,4.294801248,1,0.22385785522460935,1.714248388671875,-11.226411584472656
4930262178742,4.29880255,1,0.23822306518554687,1.7310078002929687,-11.16057103881836
4930266178273,4.302802081,1,0.22266075439453123,1.7848773376464844,-11.118672509765624
4930270174003,4.306797811,1,0.2346317626953125,1.7022773803710936,-11.21084927368164
4930274178013,4.310801821,1,0.2454056701660156,1.744175909423828,-11.225214483642578
4930278177596,4.314801404,1,0.2166752502441406,1.782483135986328,-11.215637677001952
4930282178326,4.318802134,1,0.21428104858398436,1.7980454467773437,-11.220426080322264
4930286177909,4.322801717,1,0.20829554443359374,1.6807295654296874,-11.125855114746093
4930290178690,4.326802498,1,0.24181436767578124,1.715445489501953,-11.17254204711914
4930294177596,4.330801404,1,0.30047230834960936,1.7429788085937499,-11.206060870361327
4930298178534,4.334802342,1,0.201112939453125,1.7178396911621092,-11.159373937988281
4930302178482,4.33880229,1,0.21068974609375,1.7322049011230467,-11.179724652099608
4930306178742,4.34280255,1,0.17836802368164062,1.7334020019531249,-11.212046374511718
4930310178273,4.346802081,1,0.2059013427734375,1.7597382202148437,-11.21683477783203
4930314178221,4.350802029,1,0.23582886352539062,1.7238251953125,-11.1474029296875
4930318178378,4.354802186,1,0.26336218261718747,1.697488977050781,-11.142614526367186
4930322177492,4.3588013,1,0.20709844360351562,1.7597382202148437,-11.166556542968749
4930326178273,4.362802081,1,0.2825157958984375,1.7477672119140624,-11.244368096923827
4930330178742,4.36680255,1,0.17836802368164062,1.6172832214355468,-11.212046374511718
4930334177909,4.370801717,1,0.26336218261718747,1.7369933044433592,-11.174936248779296
4930338177388,4.374801196,1,0.23822306518554687,1.7106570861816406,-11.167753643798827
4930342177805,4.378801613,1,0.24660277099609373,1.8040309509277344,-11.212046374511718
4930346179367,4.382803175,1,0.20829554443359374,1.7178396911621092,-11.183315954589844
4930350177857,4.386801665,1,0.23582886352539062,1.7238251953125,-11.221623181152344
4930354178430,4.390802238,1,0.229843359375,1.7322049011230467,-11.189301458740234
4930358178690,4.394802498,1,0.2154781494140625,1.744175909423828,-11.213243475341796
4930362177023,4.398800831,1,0.21787235107421873,1.7226280944824217,-11.182118853759764
4930366174263,4.402798071,1,0.2166752502441406,1.7334020019531249,-11.162965240478515
4930370178950,4.406802758,1,0.2454056701660156,1.686715069580078,-11.165359442138671
4930374177961,4.410801769,1,0.23582886352539062,1.7130512878417967,-11.139023223876952
4930378178690,4.414802498,1,0.19512743530273435,1.7609353210449217,-11.177330450439452
4930382178690,4.418802498,1,0.27174188842773433,1.7417817077636717,-11.170147845458983
4930386177440,4.422801248,1,0.19033903198242186,1.7429788085937499,-11.196484063720703
4930390177909,4.426801717,1,0.201112939453125,1.7178396911621092,-11.238382592773437
4930394170148,4.430793956,1,0.239420166015625,1.7214309936523438,-11.189301458740234
4930398175461,4.434799269,1,0.22266075439453123,1.7226280944824217,-11.241973895263671
4930402191763,4.438815571,1,0.21787235107421873,1.697488977050781,-11.168950744628905
4930406181086,4.442804894,1,0.2561795776367187,1.7226280944824217,-11.232397088623046
4930410178482,4.44680229,1,0.21068974609375,1.7310078002929687,-11.262324609375
4930414178221,4.450802029,1,0.27174188842773433,1.7310078002929687,-11.180921752929686
4930418178117,4.454801925,1,0.22505495605468748,1.7597382202148437,-11.154585534667968
4930422177909,4.458801717,1,0.22864625854492185,1.7298106994628906,-11.137826123046874
4930426177909,4.462801717,1,0.23822306518554687,1.7322049011230467,-11.207257971191405
4930430177128,4.466800936,1,0.21787235107421873,1.7381904052734374,-11.220426080322264
4930434178221,4.470802029,1,0.21068974609375,1.7465701110839842,-11.218031878662108
4930438177440,4.474801248,1,0.23702596435546874,1.7393875061035156,-11.189301458740234
4930442178794,4.478802602,1,0.22505495605468748,1.7525556152343749,-11.152191333007812
4930446178742,4.48280255,1,0.239420166015625,1.7369933044433592,-11.213243475341796
4930450178482,4.48680229,1,0.25737667846679685,1.7130512878417967,-11.170147845458983
4930454178065,4.490801873,1,0.24779987182617186,1.7322049011230467,-11.240776794433593
4930458177440,4.494801248,1,0.19632453613281248,1.7298106994628906,-11.146205828857422
4930462178013,4.498801821,1,0.21906945190429686,1.7489643127441405,-11.189301458740234
4930466179836,4.502803644,1,0.2166752502441406,1.725022296142578,-11.156979736328124
4930470177857,4.506801665,1,0.21906945190429686,1.6699556579589843,-11.225214483642578
4930474176919,4.510800727,1,0.22385785522460935,1.705868682861328,-11.17852755126953
4930478177961,4.514801769,1,0.26336218261718747,1.7010802795410156,-11.2240173828125
4930482178482,4.51880229,1,0.2166752502441406,1.715445489501953,-11.152191333007812
4930486178013,4.522801821,1,0.19871873779296872,1.7166425903320313,-11.125855114746093
4930490177909,4.526801717,1,0.26815058593749996,1.7357962036132812,-11.14022032470703
4930494178846,4.530802654,1,0.28371289672851563,1.7705121276855467,-11.173739147949219
4930498178378,4.534802186,1,0.2657563842773437,1.7214309936523438,-11.156979736328124
4930502179263,4.538803071,1,0.19512743530273435,1.7381904052734374,-11.168950744628905
4930506178638,4.542802446,1,0.2561795776367187,1.714248388671875,-11.194089862060546
4930510177180,4.546800988,1,0.19991583862304688,1.7190367919921874,-11.214440576171874
4930514178117,4.550801925,1,0.19871873779296872,1.7094599853515624,-11.208455072021483
4930518178065,4.554801873,1,0.277727392578125,1.7010802795410156,-11.09592759399414
4930522177492,4.5588013,1,0.2262520568847656,1.7393875061035156,-11.17254204711914
4930526175305,4.562799113,1,0.24181436767578124,1.744175909423828,-11.212046374511718
4930530179055,4.566802863,1,0.19512743530273435,1.7166425903320313,-11.150994232177734
4930534177284,4.570801092,1,0.21428104858398436,1.7597382202148437,-11.197681164550781
4930538177648,4.574801456,1,0.2549824768066406,1.7525556152343749,-11.203666668701171
4930542178690,4.578802498,1,0.2442085693359375,1.7082628845214842,-11.162965240478515
4930546177284,4.582801092,1,0.22505495605468748,1.715445489501953,-11.245565197753905
4930550179888,4.586803696,1,0.22026655273437498,1.7214309936523438,-11.146205828857422
4930554179055,4.590802863,1,0.23702596435546874,1.7214309936523438,-11.18571015625
4930558177961,4.594801769,1,0.17357962036132812,1.695094775390625,-11.156979736328124
4930562178742,4.59880255,1,0.2166752502441406,1.7322049011230467,-11.233594189453123
4930566178430,4.602802238,1,0.2561795776367187,1.7549498168945312,-11.142614526367186
4930570178638,4.606802446,1,0.17357962036132812,1.7369933044433592,-11.244368096923827
4930574177492,4.6108013,1,0.20949264526367187,1.7298106994628906,-11.21683477783203
4930578177805,4.614801613,1,0.22744915771484372,1.7501614135742187,-11.201272467041015
4930582177232,4.61880104,1,0.19512743530273435,1.7334020019531249,-11.19887826538086
4930586177805,4.622801613,1,0.20949264526367187,1.7549498168945312,-11.240776794433593
4930590178534,4.626802342,1,0.229843359375,1.7645266235351562,-11.252747802734374
4930594178221,4.630802029,1,0.21068974609375,1.7417817077636717,-11.222820281982422
4930598178794,4.634802602,1,0.20949264526367187,1.7166425903320313,-11.173739147949219
4930602177388,4.638801196,1,0.16519991455078123,1.707065783691406,-11.171344946289063
4930606178325,4.642802133,1,0.23343466186523437,1.7334020019531249,-11.148600030517578
4930610178273,4.646802081,1,0.2214636535644531,1.6938976745605467,-11.152191333007812
4930614178377,4.650802185,1,0.22864625854492185,1.7262193969726563,-11.150994232177734
4930618178430,4.654802238,1,0.229843359375,1.7513585144042967,-11.190498559570312
4930622175669,4.658799477,1,0.22505495605468748,1.7501614135742187,-11.179724652099608
4930626178950,4.662802758,1,0.22744915771484372,1.7369933044433592,-11.208455072021483
4930630177127,4.666800935,1,0.25258827514648435,1.725022296142578,-11.170147845458983
4930634179159,4.670802967,1,0.18555062866210936,1.7597382202148437,-11.125855114746093
4930638178742,4.67480255,1,0.23702596435546874,1.715445489501953,-11.129446417236327
4930642175200,4.678799008,1,0.25737667846679685,1.7393875061035156,-11.097124694824219
4930646179471,4.682803279,1,0.23822306518554687,1.7238251953125,-11.131840618896483
4930650178586,4.686802394,1,0.258573779296875,1.6986860778808592,-11.221623181152344
4930654178430,4.690802238,1,0.22026655273437498,1.7717092285156248,-11.186907257080078
4930658179627,4.694803435,1,0.21308394775390624,1.7190367919921874,-11.240776794433593
4930662178169,4.698801977,1,0.2693476867675781,1.7118541870117185,-11.155782635498046
4930666178742,4.70280255,1,0.24181436767578124,1.7513585144042967,-11.155782635498046
4930670178586,4.706802394,1,0.2154781494140625,1.7369933044433592,-11.186907257080078
4930674179627,4.710803435,1,0.22385785522460935,1.7274164978027342,-11.220426080322264
4930678178117,4.714801925,1,0.2262520568847656,1.7429788085937499,-11.207257971191405
4930682179002,4.71880281,1,0.24660277099609373,1.7106570861816406,-11.158176837158203
4930686178794,4.722802602,1,0.2154781494140625,1.744175909423828,-11.252747802734374
4930690178013,4.726801821,1,0.19512743530273435,1.7298106994628906,-11.177330450439452
4930694178377,4.730802185,1,0.2549824768066406,1.7010802795410156,-11.124658013916015
4930698177909,4.734801717,1,0.20829554443359374,1.7465701110839842,-11.228805786132812
4930702177909,4.738801717,1,0.2537853759765625,1.7298106994628906,-11.19169566040039
4930706179315,4.742803123,1,0.16519991455078123,1.7477672119140624,-11.202469567871093
4930710179836,4.746803644,1,0.19393033447265623,1.7393875061035156,-11.23000288696289
4930714178742,4.75080255,1,0.21428104858398436,1.7453730102539062,-11.2240173828125
4930718178377,4.754802185,1,0.20350714111328125,1.70467158203125,-11.127052215576171
4930722178950,4.758802758,1,0.24899697265624998,1.7405846069335937,-11.200075366210937
4930726177909,4.762801717,1,0.20709844360351562,1.7286135986328124,-11.124658013916015
4930730177857,4.766801665,1,0.2705447875976562,1.7274164978027342,-11.171344946289063
4930734179159,4.770802967,1,0.2454056701660156,1.7369933044433592,-11.247959399414063
4930738178482,4.77480229,1,0.201112939453125,1.7597382202148437,-11.25514200439453
4930742177857,4.778801665,1,0.2166752502441406,1.7286135986328124,-11.143811627197264
4930746194836,4.782818644,1,0.2609679809570312,1.7310078002929687,-11.174936248779296
4930750179471,4.786803279,1,0.20231004028320312,1.7417817077636717,-11.116278308105468
4930754179159,4.790802967,1,0.2262520568847656,1.7453730102539062,-11.207257971191405
4930758178846,4.794802654,1,0.19033903198242186,1.7525556152343749,-11.158176837158203
4930762179888,4.798803696,1,0.23582886352539062,1.7322049011230467,-11.162965240478515
4930766178117,4.802801925,1,0.31483751831054685,1.7310078002929687,-11.215637677001952
4930770178377,4.806802185,1,0.2442085693359375,1.7202338928222656,-11.135431921386719
4930774177857,4.810801665,1,0.229843359375,1.7417817077636717,-11.194089862060546
4930778188950,4.814812758,1,0.2657563842773437,1.686715069580078,-11.246762298583985
4930782181190,4.818804998,1,0.19393033447265623,1.7274164978027342,-11.145008728027342
4930786178273,4.822802081,1,0.24061726684570311,1.7322049011230467,-11.179724652099608
4930790177544,4.826801352,1,0.258573779296875,1.734599102783203,-11.197681164550781
4930794177440,4.830801248,1,0.22505495605468748,1.7118541870117185,-11.152191333007812
4930798178534,4.834802342,1,0.28730419921875,1.8076222534179687,-11.17254204711914
4930802178534,4.838802342,1,0.2214636535644531,1.7106570861816406,-11.16057103881836
4930806178273,4.842802081,1,0.24061726684570311,1.7226280944824217,-11.145008728027342
4930810177804,4.846801612,1,0.2154781494140625,1.7513585144042967,-11.121066711425781
4930814177752,4.85080156,1,0.2346317626953125,1.695094775390625,-11.180921752929686
4930818178794,4.854802602,1,0.22266075439453123,1.7310078002929687,-11.18571015625
4930822177752,4.85880156,1,0.2561795776367187,1.7322049011230467,-11.182118853759764
4930826178534,4.862802342,1,0.24301146850585936,1.7166425903320313,-11.225214483642578
4930830178377,4.866802185,1,0.19153613281249998,1.7489643127441405,-11.15338843383789
4930834177440,4.870801248,1,0.19991583862304688,1.6927005737304686,-11.131840618896483
4930838178794,4.874802602,1,0.229843359375,1.7286135986328124,-11.142614526367186
4930842178221,4.878802029,1,0.22385785522460935,1.7226280944824217,-11.164162341308593
4930846217544,4.882841352,1,0.23702596435546874,1.7489643127441405,-11.173739147949219
4930850178898,4.886802706,1,0.25737667846679685,1.7214309936523438,-11.197681164550781
4930854177492,4.8908013,1,0.28371289672851563,1.7657237243652342,-11.241973895263671
4930858177648,4.894801456,1,0.2537853759765625,1.6735469604492186,-11.225214483642578
4930862177804,4.898801612,1,0.2214636535644531,1.7489643127441405,-11.195286962890624
4930866178690,4.902802498,1,0.22026655273437498,1.7776947326660155,-11.174936248779296
4930870178638,4.906802446,1,0.1975216369628906,1.7381904052734374,-11.195286962890624
4930874178482,4.91080229,1,0.258573779296875,1.734599102783203,-11.213243475341796
4930878175148,4.914798956,1,0.24301146850585936,1.7417817077636717,-11.208455072021483
4930882178898,4.918802706,1,0.21787235107421873,1.7621324218749999,-11.16057103881836
4930886177492,4.9228013,1,0.20350714111328125,1.6998831787109374,-11.202469567871093
4930890175200,4.926799008,1,0.2346317626953125,1.695094775390625,-11.232397088623046
4930894178898,4.930802706,1,0.17956512451171874,1.7190367919921874,-11.17852755126953
4930898178169,4.934801977,1,0.2549824768066406,1.70467158203125,-11.176133349609374
4930902178794,4.938802602,1,0.24660277099609373,1.7298106994628906,-11.145008728027342
4930906177909,4.942801717,1,0.2645592834472656,1.7214309936523438,-11.16057103881836
4930910178794,4.946802602,1,0.21188684692382811,1.6927005737304686,-11.158176837158203
4930914177909,4.950801717,1,0.20949264526367187,1.6747440612792968,-11.196484063720703
4930918178273,4.954802081,1,0.2609679809570312,1.7836802368164062,-11.18571015625
4930922179367,4.958803175,1,0.20470424194335937,1.7417817077636717,-11.195286962890624
4930926179107,4.962802915,1,0.2262520568847656,1.7501614135742187,-11.194089862060546
4930930178638,4.966802446,1,0.2059013427734375,1.7262193969726563,-11.208455072021483
4930934178846,4.970802654,1,0.21428104858398436,1.7597382202148437,-11.208455072021483
4930938179211,4.974803019,1,0.20231004028320312,1.7753005310058592,-11.165359442138671
4930942178325,4.978802133,1,0.16160861206054686,1.7226280944824217,-11.201272467041015
4930946193638,4.982817446,1,0.25139117431640623,1.696291876220703,-11.145008728027342
4930950178690,4.986802498,1,0.22385785522460935,1.7178396911621092,-11.184513055419922
4930954178742,4.99080255,1,0.24660277099609373,1.753752716064453,-11.141417425537108
4930958178325,4.994802133,1,0.19153613281249998,1.7369933044433592,-11.164162341308593
4930962179054,4.998802862,1,0.23582886352539062,1.7381904052734374,-11.149797131347656
4930966178586,5.002802394,1,0.2214636535644531,1.7094599853515624,-11.197681164550781
4930970178169,5.006801977,1,0.2609679809570312,1.6998831787109374,-11.184513055419922
4930974178638,5.010802446,1,0.181959326171875,1.7836802368164062,-11.155782635498046
4930978179002,5.01480281,1,0.229843359375,1.7357962036132812,-11.184513055419922
4930982178794,5.018802602,1,0.19393033447265623,1.7525556152343749,-11.19887826538086
4930986179211,5.022803019,1,0.19632453613281248,1.7465701110839842,-11.146205828857422
4930990179054,5.026802862,1,0.22744915771484372,1.7393875061035156,-11.215637677001952
4930994178638,5.030802446,1,0.23582886352539062,1.7417817077636717,-11.180921752929686
4930998175565,5.034799373,1,0.201112939453125,1.7812860351562498,-11.197681164550781
4931002178377,5.038802185,1,0.20231004028320312,1.7334020019531249,-11.206060870361327
4931006175669,5.042799477,1,0.22266075439453123,1.734599102783203,-11.174936248779296
4931010175825,5.046799633,1,0.25737667846679685,1.705868682861328,-11.12226381225586
4931014178325,5.050802133,1,0.2885013000488281,1.7214309936523438,-11.117475408935546
4931018178325,5.054802133,1,0.21188684692382811,1.7417817077636717,-11.161768139648437
4931022177856,5.058801664,1,0.23702596435546874,1.7286135986328124,-11.143811627197264
4931026178898,5.062802706,1,0.23822306518554687,1.7310078002929687,-11.179724652099608
4931030177440,5.066801248,1,0.23582886352539062,1.715445489501953,-11.15338843383789
4931034178221,5.070802029,1,0.2501940734863281,1.7501614135742187,-11.180921752929686
4931038177648,5.074801456,1,0.2609679809570312,1.7477672119140624,-11.149797131347656
4931042178690,5.078802498,1,0.21428104858398436,1.7238251953125,-11.213243475341796
4931046177856,5.082801664,1,0.23702596435546874,1.725022296142578,-11.117475408935546
4931050179315,5.086803123,1,0.22744915771484372,1.7429788085937499,-11.189301458740234
4931054178273,5.090802081,1,0.22744915771484372,1.7561469177246092,-11.222820281982422
4931058178273,5.094802081,1,0.23702596435546874,1.7561469177246092,-11.188104357910156
4931062177440,5.098801248,1,0.22385785522460935,1.715445489501953,-11.21683477783203
4931066177492,5.1028013,1,0.18555062866210936,1.7202338928222656,-11.189301458740234
4931070177075,5.106800883,1,0.2454056701660156,1.7118541870117185,-11.146205828857422
4931074178273,5.110802081,1,0.24660277099609373,1.7573440185546874,-11.145008728027342
4931078177752,5.11480156,1,0.20709844360351562,1.7274164978027342,-11.17852755126953
4931082178273,5.118802081,1,0.2346317626953125,1.707065783691406,-11.184513055419922
4931086178325,5.122802133,1,0.24181436767578124,1.7166425903320313,-11.207257971191405
4931090178273,5.126802081,1,0.2561795776367187,1.7226280944824217,-11.19169566040039
4931094177440,5.130801248,1,0.23702596435546874,1.8124106567382812,-11.141417425537108
4931098178377,5.134802185,1,0.23582886352539062,1.7369933044433592,-11.148600030517578
4931102176398,5.138800206,1,0.19632453613281248,1.7226280944824217,-11.137826123046874
4931106180773,5.142804581,1,0.22505495605468748,1.7010802795410156,-11.11508120727539
4931110178898,5.146802706,1,0.2753331909179687,1.6915034729003906,-11.127052215576171
4931114178950,5.150802758,1,0.21068974609375,1.7238251953125,-11.155782635498046
4931118178429,5.154802237,1,0.18435352783203124,1.714248388671875,-11.221623181152344
4931122178377,5.158802185,1,0.21906945190429686,1.7465701110839842,-11.215637677001952
4931126178013,5.162801821,1,0.22266075439453123,1.6903063720703124,-11.10191309814453
4931130178377,5.166802185,1,0.20231004028320312,1.70467158203125,-11.141417425537108
4931134170148,5.170793956,1,0.2609679809570312,1.70467158203125,-11.201272467041015
4931138174263,5.174798071,1,0.25258827514648435,1.7262193969726563,-11.155782635498046
4931142178065,5.178801873,1,0.2262520568847656,1.70467158203125,-11.18571015625
4931146178898,5.182802706,1,0.25737667846679685,1.7573440185546874,-11.21084927368164
4931150178429,5.186802237,1,0.19393033447265623,1.7226280944824217,-11.176133349609374
4931154205617,5.190829425,1,0.22864625854492185,1.744175909423828,-11.228805786132812
4931158185617,5.194809425,1,0.23223756103515625,1.7118541870117185,-11.136629022216797
4931162182596,5.198806404,1,0.2166752502441406,1.6927005737304686,-11.12226381225586
4931166179002,5.20280281,1,0.19871873779296872,1.7202338928222656,-11.219228979492186
4931170174419,5.206798227,1,0.2262520568847656,1.7082628845214842,-11.158176837158203
4931174174888,5.210798696,1,0.2549824768066406,1.7238251953125,-11.21084927368164
4931178178377,5.214802185,1,0.23223756103515625,1.7166425903320313,-11.196484063720703
4931182177752,5.21880156,1,0.23104046020507812,1.697488977050781,-11.142614526367186
4931186178690,5.222802498,1,0.24061726684570311,1.7357962036132812,-11.135431921386719
4931190177909,5.226801717,1,0.14125789794921875,1.6938976745605467,-11.25514200439453
4931194177961,5.230801769,1,0.18076222534179687,1.7298106994628906,-11.19887826538086
4931198178273,5.234802081,1,0.20829554443359374,1.7453730102539062,-11.156979736328124
4931202179315,5.238803123,1,0.20829554443359374,1.7908628417968748,-11.269507214355468
4931206177804,5.242801612,1,0.20470424194335937,1.7405846069335937,-11.192892761230468
4931210178794,5.246802602,1,0.2166752502441406,1.7334020019531249,-11.155782635498046
4931214177544,5.250801352,1,0.2693476867675781,1.7238251953125,-11.16057103881836
4931218178273,5.254802081,1,0.22026655273437498,1.70467158203125,-11.233594189453123
4931222178325,5.258802133,1,0.21068974609375,1.714248388671875,-11.21084927368164
4931226178846,5.262802654,1,0.17118541870117188,1.6927005737304686,-11.196484063720703
4931230178273,5.266802081,1,0.24301146850585936,1.7082628845214842,-11.149797131347656
4931234178377,5.270802185,1,0.23104046020507812,1.7381904052734374,-11.214440576171874
4931238177596,5.274801404,1,0.22266075439453123,1.715445489501953,-11.177330450439452
4931242177804,5.278801612,1,0.23104046020507812,1.7429788085937499,-11.195286962890624
4931246179002,5.28280281,1,0.24301146850585936,1.7034744812011717,-11.188104357910156
4931250196450,5.286820258,1,0.2154781494140625,1.7645266235351562,-11.243170996093749
4931254179158,5.290802966,1,0.229843359375,1.7681179260253905,-11.222820281982422
4931258178065,5.294801873,1,0.2454056701660156,1.744175909423828,-11.206060870361327
4931262178221,5.298802029,1,0.24899697265624998,1.744175909423828,-11.165359442138671
4931266179106,5.302802914,1,0.2214636535644531,1.6927005737304686,-11.173739147949219
4931270177544,5.306801352,1,0.23223756103515625,1.7166425903320313,-11.145008728027342
4931274178013,5.310801821,1,0.23104046020507812,1.7202338928222656,-11.123460913085937
4931278175096,5.314798904,1,0.24181436767578124,1.7381904052734374,-11.201272467041015
4931282178325,5.318802133,1,0.19153613281249998,1.686715069580078,-11.11508120727539
4931286177752,5.32280156,1,0.258573779296875,1.7657237243652342,-11.152191333007812
4931290178586,5.326802394,1,0.2154781494140625,1.7657237243652342,-11.208455072021483
4931294177804,5.330801612,1,0.2262520568847656,1.725022296142578,-11.121066711425781
4931298177648,5.334801456,1,0.21188684692382811,1.7178396911621092,-11.127052215576171
4931302178273,5.338802081,1,0.2980781066894531,1.6819266662597656,-11.168950744628905
4931306178221,5.342802029,1,0.26216508178710934,1.7214309936523438,-11.206060870361327
4931310178950,5.346802758,1,0.16519991455078123,1.7262193969726563,-11.264718811035156
4931314178638,5.350802446,1,0.2549824768066406,1.7322049011230467,-11.184513055419922
4931318178950,5.354802758,1,0.2549824768066406,1.7393875061035156,-11.156979736328124
4931322178117,5.358801925,1,0.2154781494140625,1.7226280944824217,-11.245565197753905
4931326177908,5.362801716,1,0.24779987182617186,1.7178396911621092,-11.197681164550781
4931330178690,5.366802498,1,0.2561795776367187,1.7764976318359373,-11.16057103881836
4931334178169,5.370801977,1,0.2549824768066406,1.7393875061035156,-11.214440576171874
4931338178481,5.374802289,1,0.21906945190429686,1.7549498168945312,-11.235988391113281
4931342177804,5.378801612,1,0.2154781494140625,1.7501614135742187,-11.159373937988281
4931346178898,5.382802706,1,0.16639701538085935,1.7082628845214842,-11.12226381225586
4931350177648,5.386801456,1,0.24301146850585936,1.7477672119140624,-11.214440576171874
4931354179054,5.390802862,1,0.19393033447265623,1.715445489501953,-11.130643518066405
4931358179106,5.394802914,1,0.20949264526367187,1.7621324218749999,-11.148600030517578
4931362178273,5.398802081,1,0.19512743530273435,1.753752716064453,-11.167753643798827
4931366179106,5.402802914,1,0.22026655273437498,1.707065783691406,-11.170147845458983
4931370177908,5.406801716,1,0.19393033447265623,1.7334020019531249,-11.204863769531249
4931374178221,5.410802029,1,0.2813186950683594,1.7310078002929687,-11.197681164550781
4931378179002,5.41480281,1,0.29568390502929687,1.697488977050781,-11.16057103881836
4931382179002,5.41880281,1,0.2166752502441406,1.7262193969726563,-11.221623181152344
4931386170669,5.422794477,1,0.28969840087890625,1.7764976318359373,-11.207257971191405
4931390174471,5.426798279,1,0.2214636535644531,1.7190367919921874,-11.186907257080078
4931394178013,5.430801821,1,0.25737667846679685,1.7118541870117185,-11.15338843383789
4931398177440,5.434801248,1,0.2561795776367187,1.707065783691406,-11.208455072021483
4931402178586,5.438802394,1,0.17357962036132812,1.7417817077636717,-11.195286962890624
4931406177492,5.4428013,1,0.2597708801269531,1.7357962036132812,-11.19169566040039
4931410178169,5.446801977,1,0.28371289672851563,1.7669208251953124,-11.240776794433593
4931414179315,5.450803123,1,0.21787235107421873,1.725022296142578,-11.170147845458983
4931418178221,5.454802029,1,0.21428104858398436,1.7585411193847655,-11.184513055419922
4931422174836,5.458798644,1,0.26695348510742184,1.7405846069335937,-11.197681164550781
4931426180513,5.462804321,1,0.20350714111328125,1.7429788085937499,-11.194089862060546
4931430179002,5.46680281,1,0.2262520568847656,1.7082628845214842,-11.174936248779296
4931434179158,5.470802966,1,0.28490999755859375,1.753752716064453,-11.164162341308593
4931438178013,5.474801821,1,0.24899697265624998,1.7178396911621092,-11.171344946289063
4931442177752,5.47880156,1,0.25139117431640623,1.6831237670898436,-11.14022032470703
4931446178533,5.482802341,1,0.21308394775390624,1.7166425903320313,-11.218031878662108
4931450179367,5.486803175,1,0.24301146850585936,1.7357962036132812,-11.14022032470703
4931454178481,5.490802289,1,0.2597708801269531,1.7609353210449217,-11.188104357910156
4931458179106,5.494802914,1,0.17956512451171874,1.6735469604492186,-11.137826123046874
4931462178638,5.498802446,1,0.23582886352539062,1.763329522705078,-11.170147845458983
4931466180096,5.502803904,1,0.30526071166992186,1.725022296142578,-11.17254204711914
4931470177335,5.506801143,1,0.22505495605468748,1.7262193969726563,-11.2240173828125
4931474179002,5.51080281,1,0.23582886352539062,1.7262193969726563,-11.244368096923827
4931478178065,5.514801873,1,0.20829554443359374,1.7286135986328124,-11.19887826538086
4931482178481,5.518802289,1,0.2346317626953125,1.7477672119140624,-11.238382592773437
4931486178377,5.522802185,1,0.2214636535644531,1.7238251953125,-11.19169566040039
4931490178013,5.526801821,1,0.2154781494140625,1.7178396911621092,-11.190498559570312
4931494177440,5.530801248,1,0.2059013427734375,1.7357962036132812,-11.225214483642578
4931498178690,5.534802498,1,0.24181436767578124,1.7381904052734374,-11.167753643798827
4931502179002,5.53880281,1,0.2454056701660156,1.7465701110839842,-11.135431921386719
4931506178169,5.542801977,1,0.2501940734863281,1.7094599853515624,-11.135431921386719
4931510178221,5.546802029,1,0.21188684692382811,1.7022773803710936,-11.137826123046874
4931514177804,5.550801612,1,0.19033903198242186,1.7238251953125,-11.173739147949219
4931518178273,5.554802081,1,0.23582886352539062,1.772906329345703,-11.149797131347656
4931522178846,5.558802654,1,0.23223756103515625,1.7573440185546874,-11.182118853759764
4931526177960,5.562801768,1,0.2501940734863281,1.714248388671875,-11.166556542968749
4931530189888,5.566813696,1,0.21188684692382811,1.782483135986328,-11.179724652099608
4931534181190,5.570804998,1,0.27174188842773433,1.6843208679199217,-11.154585534667968
4931538179263,5.574803071,1,0.22505495605468748,1.7405846069335937,-11.21084927368164
4931542179210,5.578803018,1,0.2753331909179687,1.6927005737304686,-11.180921752929686
4931546179054,5.582802862,1,0.19632453613281248,1.7489643127441405,-11.186907257080078
4931550177752,5.58680156,1,0.2657563842773437,1.7393875061035156,-11.240776794433593
4931554196190,5.590819998,1,0.20709844360351562,1.7322049011230467,-11.238382592773437
4931558179419,5.594803227,1,0.22744915771484372,1.70467158203125,-11.136629022216797
4931562178065,5.598801873,1,0.2705447875976562,1.714248388671875,-11.162965240478515
4931566177856,5.602801664,1,0.28730419921875,1.7501614135742187,-11.145008728027342
4931570178429,5.606802237,1,0.20709844360351562,1.7453730102539062,-11.186907257080078
4931574178533,5.610802341,1,0.24660277099609373,1.7525556152343749,-11.206060870361327
4931578178638,5.614802446,1,0.20350714111328125,1.7274164978027342,-11.146205828857422
4931582177492,5.6188013,1,0.2059013427734375,1.7262193969726563,-11.14022032470703
4931586178013,5.622801821,1,0.20470424194335937,1.7238251953125,-11.168950744628905
4931590178221,5.626802029,1,0.201112939453125,1.7214309936523438,-11.183315954589844
4931594178325,5.630802133,1,0.23104046020507812,1.725022296142578,-11.170147845458983
4931598178533,5.634802341,1,0.24779987182617186,1.7872715393066405,-11.183315954589844
4931602177752,5.63880156,1,0.15322890625,1.753752716064453,-11.200075366210937
4931606177648,5.642801456,1,0.16998831787109375,1.7585411193847655,-11.113884106445312
